time_imu,phone_acc_x,phone_acc_y,phone_acc_z,phone_gravity_x,phone_gravity_y,phone_gravity_z,phone_gyro_x,phone_gyro_y,phone_gyro_z,phone_ori_w,phone_ori_x,phone_ori_y,phone_ori_z,watch_gyro_x,watch_gyro_y,watch_gyro_z,watch_acc_x,watch_acc_y,watch_acc_z,headphone_gyro_x,headphone_gyro_y,headphone_gyro_z,headphone_acc_x,headphone_acc_y,headphone_acc_z,frame_imu
1733294896076996400,2.8534169620022176,12.32612405346632,-0.6540402470707893,-0.0935011261212639,9.806025146099923,-0.0592816392298555,-0.9706035852432252,-0.1409291625022888,-1.413954734802246,0.3868278146752844,0.3835022435000184,0.5966142401843448,0.5893570535235788,-0.2512997686862945,-0.0963457822799682,0.0177863277494907,0.0301834344863891,0.0751819014549255,-0.0248368978500366,-0.232259452342987,0.0768658071756362,-0.029034371304512,0.2540135383605957,-0.0499273892987286,0.1898316669821739,0
1733294896116996400,4.518870632366836,6.502260663840175,2.3764649279356003,-0.818930803411454,9.770977798116206,0.1664768391514197,-0.0931817442178726,-0.3357609808444977,-2.26277756690979,0.4155251598467641,0.3595173940470281,0.6018797941338818,0.5795056074102042,-0.0911870598793029,-0.0386867448687553,0.1052461341023445,-0.0135309696197509,0.0438061356544494,-0.00862717628479,-0.2021626383066177,0.0856888145208358,-0.0077799863517284,0.1946953386068344,-0.0308688384563662,0.2056799551077187,1
1733294896156996400,2.9906054185554383,-3.326414705485105,0.1177671322464942,-1.743675120294839,9.648753101938963,0.1776177898362279,-0.0312264319509267,-0.3200524747371673,-2.3805413246154785,0.4467534965863319,0.3345875127118188,0.6156258676896805,0.5562978590793494,0.0083733536303043,-0.0517458207905292,0.1508852541446685,-0.0065577626228332,0.0108360648155212,0.0291050635278224,-0.1244005113840103,0.0797948762774467,-0.0060714288681745,0.0996839255094528,-0.0458964989479864,0.2492015553176403,2
1733294896196996000,0.2288175234586,-12.315088280189036,-0.3284159618079662,-2.568700733450055,9.460750988471508,0.257637356963288,-0.2546151578426361,-0.2596222758293152,-1.7499898672103882,0.475535953896574,0.3102861219401892,0.624969337909536,0.5357252228953736,-0.0117076802998781,-0.0738955438137054,0.1094530001282692,-0.0046697854995727,-0.0054060816764831,0.0223948955535888,-0.0957030802965164,0.074286013841629,0.0019388591080904,0.0565107949078083,-0.0322150745667051,0.216358293249458,3
1733294896236996000,-1.6209528498589991,-17.232478045898674,-0.8681886091858148,-2.880296201099456,9.365131975147127,0.410596634225361,-0.3713273704051971,-0.0098102279007434,0.0219825934618711,0.4877864456469913,0.2971382105891647,0.625119414390419,0.5319765073298566,-0.0937000215053558,-0.0753528252243995,0.1089117750525474,-0.0077456831932067,-0.0015601217746734,0.0054686069488525,-0.0670056492090225,0.0687771514058113,0.0100379944115877,0.013337668031454,-0.0184554338500602,0.183550102494657,4
1733294896276996000,1.2610551235944032,-15.99645273414254,-0.7594476639598607,-2.6853058361798525,9.4207778745234,0.4565812270153314,0.1292920708656311,-0.2008259147405624,0.903154730796814,0.4837781060664146,0.3033533562635986,0.6202399349155348,0.5378084773315982,-0.0963005945086479,-0.0773510485887527,0.084458902478218,-0.0015760064125061,0.0030359327793121,-0.0076280757784843,-0.034267321228981,0.0412581041455268,0.0123825117111206,-0.0015222267247736,-0.0538308767104055,0.1746399430692195,5
1733294896316996000,1.5135706257656216,-10.068118331694604,0.1653670878112316,-2.2233013420067724,9.544685409221051,0.3553719194032251,0.4095274209976196,0.2161138504743576,1.4431451559066772,0.4696548962351882,0.3217817138827436,0.6150915409197801,0.5454751533470192,-0.104531891644001,-0.0872143283486366,0.0666019991040229,-0.0011175870895385,0.0033934712409973,0.0008196756243705,-0.0295168738812208,0.0440059341490268,0.0026461305946111,-0.0058537195436656,-0.0716260200208285,0.1647453026510775,6
1733294896356996400,-1.0981336753696205,0.0450461794286966,0.9738929631948472,-1.558382850307971,9.679752051314711,0.2103389781610108,0.1928892731666565,0.4324487745761871,2.052082300186157,0.44381234012431,0.3417277212162534,0.6103260284705045,0.5601383713444302,-0.0966625213623046,-0.0812918916344642,0.0289865843951702,-0.0080804228782653,0.0049252808094024,0.0096775293350219,-0.0247664265334606,0.0467537641525268,-0.0070820672154426,-0.0101852118968963,-0.0894200856190174,0.1548537309728562,7
1733294896396996400,-0.1556502881780266,6.870629281330109,-0.1008949170338455,-0.69892977463305,9.78119231813848,0.1007449780359864,0.2584989964962005,0.1295334547758102,2.1739816665649414,0.4136979591262339,0.3676581828606715,0.599742358378777,0.5779191099724696,-0.1343600898981094,-0.0566308051347732,0.0017808631528168,-0.0146672129631042,-0.0007547140121459,0.0156462229788303,-0.0200159773230552,0.0495015904307365,-0.0168014971971511,-0.0145167047157883,-0.1072131968025583,0.1449646435126662,8
1733294896436996000,3.538931082484126,8.864284393969177,-0.3272919262140989,-0.0318744284524698,9.806597977551816,0.0022795819979059,0.2008734792470932,-0.0317371152341365,1.1362881660461426,0.3915892963188783,0.3895826487689853,0.5900077401567959,0.5888752308487901,-0.1302036941051483,-0.0552772283554077,-0.0101819233968853,-0.0117568373680114,0.0063093602657318,0.0124337673187255,-0.0111947301775217,0.0381812416017055,0.0442711034029722,0.0017378093907609,-0.0945773861838039,0.168376498760283,9
1733294896476996000,3.29917715446949,7.174349777820706,-0.899606076234579,0.1872295216597616,9.8047286765486,-0.0510420360097428,0.1081465408205986,0.0932223498821258,0.0651313439011573,0.3835891364954767,0.3968789382478517,0.5874432125251061,0.5918250153739695,-0.1184490397572517,-0.0341644324362278,-0.0152296787127852,-0.0091174244880676,0.0062357485294342,0.0087323151528835,-0.0059446995146572,0.0385362692177295,0.0310310980796813,-0.0024141664616763,-0.0906969645538832,0.1741387155488133,10
1733294896516996000,1.0814701984036714,3.6150539526999,-0.8392670506060123,0.1213169336825609,9.80579250638783,-0.0456900668228045,-0.1488176584243774,0.1493443101644516,-0.2655620276927948,0.384059895217953,0.3931786827466869,0.5896948943465713,0.5917502948104264,-0.0750317946076393,0.0033512534573674,0.0141862668097019,-0.0119218230247497,0.0040690600872039,0.0048791170120239,0.0100769810378551,0.0058237998746335,0.041653029859066,0.0105842445045709,-0.0669124446355504,0.16021788835451,11
1733294896556996000,0.1111081584144849,0.7911492086470127,0.2096212400794029,0.015036368954461,9.806634802430867,0.0094481536010338,-0.057229109108448,0.1173886731266975,-0.2821789383888244,0.3870631614111307,0.3875970320143569,0.5910049230048525,0.5921688155488508,-0.0399821959435939,-0.0013050172710791,0.0172363854944705,-0.0069243907928466,0.0134577751159667,0.0026301182806491,0.0173847023397684,-0.0072402632795274,0.039422494328022,0.0157112590968608,-0.058894895801437,0.1392320912100374,12
1733294896596996400,-0.2239274498621001,-0.7255453943580389,0.2448632338523864,-0.0985415679738856,9.806154909959435,-0.0042461736443045,0.0869863405823707,0.0175585858523845,-0.2691189348697662,0.3892755062587052,0.3834919944137768,0.5942645747682413,0.5901255432216935,-0.0472350493073463,-0.0187548492103815,-0.0136499581858515,-0.0058127641677856,0.0067046880722045,-0.0021520927548408,0.0246924236416816,-0.0203043278306722,0.0371995575815439,0.0208382755517959,-0.0508820870745228,0.1182451250217855,13
1733294896636996400,-0.7285884153157473,-1.1879577386796474,0.1725906093239784,-0.1586128095117397,9.805288063997027,-0.0394134251055773,0.0867392793297767,0.0497247874736785,-0.0257777664810419,0.3900704888750552,0.3820401875680309,0.5967032934376859,0.5880777733351472,-0.0350867733359336,-0.0205097645521163,-0.0115329446271061,-0.0030323863029479,0.0066637694835662,0.000831015408039,0.0332230478525161,-0.0377638041973114,-0.003368015128374,0.0141828265041112,-0.025208912998531,0.1225612346552312,14
1733294896676996400,-0.2479465137552469,-0.921273718163371,0.4679986200213432,-0.1327315136769786,9.805407890984416,-0.0822337086457293,0.1305509358644485,0.0915247872471809,0.1125267669558525,0.3876406212449549,0.382845630785835,0.5980150292088631,0.5878282932109126,-0.0233225263655185,-0.0292415227741003,-0.015141861513257,-0.0008536577224731,0.0011231303215026,-0.000874638557434,0.0350782722234725,-0.0388753972947597,-0.0085930563002824,0.0164369083940982,-0.0132940872978186,0.1234093759171664,15
1733294896716996000,0.0748346570361405,0.3204045047879219,-0.0637760052067693,-0.0591225762106245,9.805421919509769,-0.143471710674325,0.1226251423358917,0.1405329555273056,0.1856492608785629,0.3822850354483919,0.3843106179511269,0.5996835584664862,0.5886791239159624,-0.0439401865005493,-0.0247376915067434,-0.0278081875294446,-0.0037590861320495,-0.0100616514682769,0.004409909248352,0.0317562371492385,-0.0338862463831901,-0.0254839853465557,0.0055838860571384,0.0024852934601134,0.0875548032037913,16
1733294896756996000,0.5264820443784818,2.83508957041204,-0.0259504338145256,-0.0118785145616042,9.804649181571602,-0.197757455012761,0.1321658343076706,0.1052332520484924,-0.0253526829183101,0.3782170639955416,0.3851941589292784,0.6014218854173481,0.5889559297792878,-0.0826417729258537,-0.0250835306942462,-0.0250731222331523,-0.0005271434783935,-0.0148310959339141,0.0006411075592041,0.0135089997202157,-0.0223731491714715,-0.0337713366985321,0.0142863532528281,0.0456134076902875,0.1231673838548362,17
1733294896796996000,-0.2514555265231989,9.528772385296223,-0.7282453009665012,-0.1144084968678187,9.803808054572343,-0.20654128464479,-0.0712809115648269,0.0603422410786151,-0.5534965395927429,0.3803439989352349,0.3814163013735894,0.6041955645734259,0.5872033959028365,-0.0984095558524131,-0.0210619959980249,-0.0046540000475943,0.0040098428726196,-0.0099314153194427,0.0084546767175197,0.0024314410984516,-0.0221814885735511,-0.0446194784492254,0.0238216817378997,0.0408926810450153,0.1360370945610106,18
1733294896836996400,1.914751379533112,15.12559110635519,-0.6366238328456878,-0.4740404940014704,9.79340999467671,-0.1865325889041647,-0.107180580496788,-0.104491040110588,-1.4358400106430054,0.3905625463165283,0.3689521125697199,0.6110522513658927,0.5813350194021955,-0.0654902160167694,-0.0011447482975199,-0.0029091632459312,-0.0064250230789184,0.0068417191505432,0.0037990733981132,-0.0093195158988237,-0.0412662662565708,0.004822890111804,0.0206139646470546,0.084847608338017,0.0771530900463461,19
1733294896876996400,5.702085268172621,8.311240761607884,-0.066359591959184,-1.2475230034567415,9.726075411072372,-0.1323588444396853,-0.0514287836849689,-0.6829309463500977,-2.392775774002075,0.4191611197563587,0.3487374986729486,0.6205888976988398,0.5635206003097145,-0.0367107689380645,0.0110852867364883,0.0065742200240492,-0.0101641416549682,0.0085592567920684,0.002930648624897,-0.0153613556176424,-0.0091494210064411,-0.0571013588815927,0.0120151378214359,0.0148282471956918,0.0829354728400707,20
1733294896916996400,5.344489389109612,-3.9837902344584464,-1.0361761086285113,-2.235768024870008,9.54836322095096,-0.0217620376473991,-0.390302300453186,-0.3429195880889892,-2.57594633102417,0.4559863545719707,0.321712477842957,0.6305637451429857,0.539413389367595,-0.0175376050174236,0.0189294144511222,0.0069499248638749,-0.0095320343971252,0.0009855031967163,0.0053470209240913,-0.0272018127143383,0.0149841466918587,-0.0225181212782859,-0.0021187169477343,0.0709717162639834,0.1444303905054926,21
1733294896956996000,2.0201605499878523,-15.572209084695576,-1.459085294601321,-3.090667967285216,9.304189138406514,0.2241257489131763,-0.7310034036636353,-0.2222524881362915,-1.7220072746276855,0.4870282210361816,0.2903973424359304,0.6358004012701121,0.5236705242775426,-0.0101180393248796,0.0155561473220586,0.0070761595852673,-0.003403902053833,0.0017535686492919,0.0019420348107814,-0.0144198611378669,0.0201277937740087,0.0259995336532592,0.0196846723556518,0.0401122210246976,0.1436506383046507,22
1733294896996996000,-0.5384764700874686,-18.593863429248334,0.6042857438206672,-3.402230117186904,9.188392429450154,0.4107063416775315,-0.1088277697563171,-0.065021201968193,-0.058711688965559,0.4995484525098448,0.2757705370727323,0.634831013041124,0.5209526345162906,-0.0080620795488357,0.0194183178246021,0.0074144471436738,-0.006733238697052,-0.0028336942195892,0.0011799298226833,-0.0108474679291248,0.0154603943228721,-0.0052981064081192,0.0035116486251354,0.0134888027273875,0.1426120890371501,23
1733294897036996000,-0.424553738309443,-16.794037528795002,-0.0280927065402269,-3.219271550844609,9.252451936906576,0.4458808231722563,-0.0170915219932794,-0.2337503731250763,0.9744879603385924,0.4972633807822855,0.2839577389706922,0.6297891772021685,0.5248454467741226,-0.0058290185406804,-0.0015736237401142,0.0015966389328241,-0.0023594498634338,-0.0004646778106689,-0.0054651424288749,-0.0018978547304868,0.0123310629278421,0.0080897829532623,-0.0071155708283185,0.0244387414767872,0.1387802557893097,24
1733294897076996400,-2.146036169888079,-11.458918025577068,1.2880857538610695,-2.646108090518415,9.432674648544191,0.4394800527518614,0.2688556313514709,-0.1132509782910347,2.196217060089112,0.4827702266596675,0.3055264651830325,0.6198760618881858,0.5379034727338139,-0.0168776735663414,-0.0032249435316771,-0.0012940892484039,-0.0029934644699096,-0.0017964541912078,-0.0026133060455322,0.0066490629687905,0.0113321030512452,-0.01413666190207,-0.0257670786231756,-0.0008110880540218,0.1195396948769688,25
1733294897116996400,0.1435609141945839,-3.4227024118512865,1.7711445803701875,-1.619287254734337,9.669624625054002,0.2160427062279544,0.9663201570510864,-0.3029184639453888,2.918274402618408,0.4514841901034447,0.3460362630738266,0.6076543360421554,0.5542357147015678,-0.0244900546967983,0.00058172584977,8.875713683664799e-05,-0.0078439712524414,-0.0056403577327728,0.0010238848626613,0.0143674500286579,0.0079383691772818,-0.0164192198812961,-0.0398115664720535,-0.0067058017985546,0.1081821422994136,26
1733294897156996400,1.2064162823688238,5.096083952605724,-0.2521639122545719,-0.4920465446827933,9.793007259094717,-0.159040222877264,0.8673576712608337,0.0472424887120723,2.888001680374145,0.414692837518303,0.3920950793695066,0.59529004950365,0.5656156874529654,-0.0218442045152187,-0.0086382972076535,-0.0130681907758116,-0.0071815848350524,0.0019287168979644,-0.0029442310333251,0.0173588264733552,0.0073123471811413,-0.0199438868761062,-0.0460086464881897,-0.0160025082895881,0.0804929019935429,27
1733294897196996000,3.656004971769452,8.935592557379604,-2.288314350795745,0.4781826353074982,9.783472538030146,-0.4747436373021453,0.6136449575424194,0.1863123476505279,2.0160577297210693,0.377746069040772,0.4255992070775371,0.5857222079189796,0.5771504878150264,-0.0415507964789867,-0.035345435142517,0.0016191425966098,0.0029822587966918,0.00137859582901,0.0032692030072212,0.0086230570450425,0.0110269701108336,-0.0213958392500877,-0.038797304034233,-0.0131213976120343,0.0626814971014857,28
1733294897236996000,4.353099639929831,8.594453892120718,-1.387630416196585,1.0676721208062023,9.731213943004608,-0.5778594726553187,0.0251819603145122,0.1374012976884842,0.9532651901245116,0.3559539717048235,0.4431696263801407,0.5771163804089569,0.586373662509625,-0.0329911336302757,-0.0042743883095681,-0.0054428949952125,-0.0185574293136596,0.0052865743637084,-0.0050125122070312,-0.0023562330752611,0.0042614135891199,-0.0215793791234493,-0.036067645996809,0.0030932944067986,0.0452745813570916,29
1733294897276996000,2.6702140655100344,5.631838011991977,-0.7581166345518082,1.280218673747778,9.707661217981576,-0.5410364567685872,-0.1567230373620987,0.1439516097307205,0.2356766164302826,0.349182442841784,0.4476399909601806,0.5720171502348478,0.5920188955991158,-0.0322877913713455,-0.0035856419708579,-0.0087058003991842,-0.0094566941261291,-0.0001323819160461,-0.0026482343673706,-0.004846385680139,0.003900391049683,-0.0492144050240516,-0.0215036645531654,0.0077258130456553,0.0920602979294955,30
1733294897316996000,1.4016224089309572,2.7002999916940924,-0.0292576586663722,1.3044238713301717,9.708099024876953,-0.4708311765661462,-0.149384319782257,0.0434257611632347,-0.0970037654042244,0.3486009546430358,0.4456892303784182,0.5704093426790319,0.5953752784141336,-0.0398234724998474,-0.0033442529384046,-0.0181606877595186,-0.0069110393524169,0.0017947256565093,0.0025606155395507,0.0018589529208838,-0.0221963934600353,0.0102180271536111,0.0027542803436517,0.0359653761440888,0.0735766928642988,31
1733294897356996400,0.4106953088268637,0.4258949237853288,0.0638497006306424,1.240854777739197,9.71908511379361,-0.4123560085806995,-0.1435854285955429,-0.0019962193910032,-0.1866405010223388,0.3518275060709838,0.4427120928976415,0.5701142934138493,0.5959807346787259,-0.0260011330246925,-0.0007555006304755,-0.0134853748604655,-0.0035538077354431,0.0052820444107055,-0.0029844045639038,0.0065096579492092,-0.0203554313629865,0.0135503864467144,0.0124985510483384,0.0269944584081647,0.0748939129427075,32
1733294897396996400,0.1157118071518838,-0.9189362151265144,0.6890075155556201,1.175211727418378,9.728252755111455,-0.3877867634588852,0.0235050283372402,0.0253413952887058,-0.1349307000637054,0.3542660608704448,0.4402155478380507,0.5709482412467954,0.595587114307323,-0.0099523905664682,-0.0045378818176686,-0.0078424699604511,-0.0050718784332275,0.0032528638839721,-0.0023540258407592,0.0082970838993787,-0.0254066828638315,-0.0078290861904621,0.0164025761187076,0.0250317115344107,0.1065846439749002,33
1733294897436996000,-0.1528733708105981,-1.065320954570174,0.5608230341911316,1.150656839615479,9.730086400279404,-0.4144771289205178,0.0967428982257843,0.0770704671740531,0.0138781629502773,0.3537219919463228,0.4393146054490195,0.5728308039934193,0.5947674432086116,-0.0114408312365412,-0.0054698283784091,-0.0069859302602708,-0.006143569946289,-0.0048235058784484,0.0022068098187446,0.0150397680699825,-0.028842931613326,0.0100666359841823,0.0188239365816116,0.0516656341010704,0.1354196933150291,34
1733294897476996000,-0.0573087910871952,1.3870020551651716,0.3992763814508914,1.1795909654159098,9.725535312846302,-0.4392303157744929,0.0670415684580802,0.1717059910297393,0.0985198318958282,0.3509909425276832,0.4393753602611021,0.57388483697802,0.5953241882798948,-0.0169130936264991,-0.0001347711076959,0.0010454975999891,-0.0065656900405883,-0.0072357952594757,0.0047348737716674,0.0229718908667564,-0.023643422871828,0.0110404494524002,0.0113590490072965,0.0614015585598535,0.1552571972072124,35
1733294897516996000,1.0862713881403208,7.776980155649781,0.0769019648294895,1.1541028884161264,9.72747826360762,-0.4632666961286216,0.052189078181982,-0.0133484192192554,-0.3786300420761108,0.350027310172631,0.4378943052229673,0.576080381842871,0.594862129857581,-0.0325338654220104,0.0031303709838539,-0.005653750617057,-0.0058825016021728,-0.0074811875820159,0.0038968324661254,0.0266995206475257,-0.0081473011523485,-0.0176519765466451,-0.0115910451859235,0.0678509173623286,0.1717962440758943,36
1733294897556996000,2.924829754830897,13.836725015771387,-1.5266133549511431,0.8117707755889743,9.764118433740734,-0.4164307837389409,-0.3579364120960235,-0.3987907171249389,-1.4617570638656616,0.3633547434554745,0.4287277313124553,0.5808825980486464,0.5888474665557347,-0.0254671685397624,0.0089837862178683,0.0063041094690561,-0.0061586499214172,-0.003557950258255,0.0007120333611965,0.0206132717430591,0.0059972824528813,-0.0291822553426027,-0.0494917258620262,0.049998815133702,0.138743284779787,37
1733294897596996400,5.63953558075726,11.072701032185554,-2.256547924178838,0.0208060224140645,9.804586637729406,-0.2000526715441606,-0.819556474685669,-0.1977526247501373,-2.516505479812622,0.3967668074049498,0.4061927406377709,0.5875434493372219,0.5765207672147287,-0.0283457785844802,-0.0011046944418922,-0.010881402529776,-0.0076698064804077,-0.0002689957618713,0.0010187625885009,0.0194570142775774,0.0202381294220685,0.0001601589977741,-0.0957473814487457,0.0729625247550196,0.1549254810348153,38
1733294897636996400,6.0903586095720526,1.5553116261690854,-0.6866179900705814,-1.1153569781754165,9.74068144405186,0.2133137561880983,-1.0490576028823853,-0.2759272158145904,-3.073965787887573,0.4397384104025494,0.3647591308349891,0.5967200358935667,0.5634768888611744,-0.03495654463768,-0.0030134883709251,-0.0082285609096288,-0.0030658245086669,0.0035406649112701,-0.0033996142446994,0.0280488710850477,0.034398678690195,-0.0041501054167747,-0.1434518545866012,0.0635392738414462,0.1565482599310576,39
1733294897676996400,3.721869482821226,-8.562306941753626,1.3365356042534111,-2.215916492452472,9.540188097801805,0.4948789916297421,-0.2849189639091491,-0.4113051295280456,-2.59759783744812,0.4804586865128176,0.3282384793384542,0.6058281063217001,0.5425783071190616,-0.0301002711057662,0.007171984296292,0.0011338480981066,-0.0123171806335449,0.0024243891239166,-0.0026041194796562,0.0420699417591095,0.0479370430111885,-0.0023304887741804,-0.1731682866811752,0.0559037374617066,0.1520958105668425,40
1733294897716996000,0.4279252605691552,-16.678143204683064,1.085463578888774,-3.0521202099651097,9.302356077760455,0.5666849484944716,0.0239343512803316,0.0152182569727301,-1.6788254976272583,0.508092539765301,0.3025422588120224,0.6160968186762177,0.5203219551387905,-0.0332246907055377,0.0013394483830779,-0.0030498448759317,-0.0074784159660339,0.003653198480606,-0.0041208267211914,0.0542338229715824,0.0442319400608539,0.0275046775192022,-0.2008577287197113,0.0710116738150361,0.083839435942471,41
1733294897756996000,-2.536509359419345,-17.832865028715133,0.8113900326430797,-3.3485879588484764,9.206555862650276,0.4434713874103501,0.3642053604125976,0.4585579335689544,0.0401235073804855,0.5107048115662138,0.2915584395895943,0.6264047637742867,0.5116554413604761,-0.0440773405134677,-0.0243695899844169,-0.0171504169702529,0.0049854516983032,-0.0032126307487487,0.0015182569622993,0.0629290044307708,0.0408780239522457,0.0022685294538736,-0.21402508020401,0.0525555686781182,0.095148765464127,42
1733294897796996000,-2.554434599949419,-15.485297693961858,-0.5432879620224237,-3.0921400856643912,9.301672771671416,0.2965353342268615,0.229948490858078,0.1909381598234176,1.3718931674957275,0.498083903725278,0.3004149106561751,0.6281972518222609,0.5167508899613682,-0.0551800578832626,-0.0215268786996603,-0.0084145162254571,-0.0033133029937744,0.0007177889347076,-0.0122809335589408,0.0624731257557868,0.0533543899655342,-0.0560591563522815,-0.2194429188966751,0.0202691002424806,0.0752183225914835,43
1733294897836996400,-1.7914165301568803,-10.014405446207522,0.2882481838042847,-2.3550413238957524,9.51805693001449,0.1753289482466876,0.1891227066516876,0.5531983971595764,2.476597785949707,0.471434674271983,0.3232000061260242,0.6217736467387914,0.5354330518069703,-0.0499836988747119,-0.0349516607820987,-0.0099840499460697,-0.0083839893341064,0.0050619840621948,-0.0044794119894504,0.0538118109107017,0.0502948500216007,-0.0508691864937543,-0.1925611048936844,0.0389247739389538,0.0947951297208666,44
1733294897876996400,-0.0907101984947919,-1.065149689656496,0.2122398981451988,-1.2959810371555387,9.72063585036695,-0.0048420274954696,0.5569541454315186,0.1734380573034286,2.922939777374268,0.4331827064828482,0.355729706119518,0.6113127275586454,0.5586642170051929,-0.0673179477453231,-0.0321598164737224,-0.0129815051332116,-0.0057815313339233,-0.0015335381031036,-0.0013341940939426,0.041225541383028,0.0269168838858604,-0.0493009142637252,-0.1636440157890319,0.016241917952476,0.0451484707593917,45
1733294897916996400,2.313831800020486,4.77905856886208,-0.4752151272714138,-0.1556086409933865,9.803424608212708,-0.1975556122977286,0.3348204493522644,0.2151904702186584,2.817662715911865,0.3949399113742687,0.3935688488079433,0.5959665209002616,0.5778839791150424,-0.0326792746782302,-0.0156505610793828,0.0014670095406472,-0.0074586868286132,0.0098824501037597,-0.0064853355288505,0.0277774296700954,0.0324704609811306,-0.047042906203866,-0.167195588350296,0.0132101764406077,-0.0066787471115589,46
1733294897956996000,4.556252853038907,7.548978040227293,-0.3269861482005566,0.8090033567022532,9.768131176513434,-0.315408011674881,0.3783275783061981,-0.0182098839432001,1.9505200386047363,0.3622212692026939,0.4234104662856165,0.580348956060666,0.59389752455927,-0.0373022556304931,-0.0251782331615686,-0.0193895362317562,-0.0050433278083801,0.0077004730701446,-0.0081428214907646,0.018546050414443,0.0355757512152195,-0.0711994423389434,-0.182051196694374,0.0099907851358409,0.0247954185605049,47
1733294897996996000,4.241702334976196,7.422192904266715,-1.0300994190633297,1.336188982772827,9.704877140221,-0.4475717354012652,0.2232893854379654,0.0516114458441734,0.8472177386283875,0.3432943227616118,0.4415601651270779,0.5725770067340371,0.5994406551883705,-0.0255169682204723,-0.0349152311682701,-0.0193380713462829,-0.0076907277107238,0.0092599391937255,-0.0043093040585517,0.0129723027348518,0.035721056163311,-0.0489145452946424,-0.1764368861913681,0.0165168167705647,0.0484197475150227,48
1733294898036996000,2.792891181629896,4.763277062362432,-0.5823193746736273,1.529989261125028,9.675554015102982,-0.4617020771604031,-0.0587502233684062,0.1362499743700027,0.2163668423891067,0.3357012293837966,0.446324173894799,0.5695041584652916,0.6031288559352685,-0.0042146104387938,-0.0266211852431297,-0.0127805033698678,-0.009408414363861,0.0054509937763214,-0.0011945888400077,0.0036633815616369,0.0357535295188427,-0.0424140773594379,-0.1562740057706833,0.0210017984312027,0.0554307953208684,49
1733294898076996400,1.5207674054019151,2.839449519187212,-0.4869102047076448,1.5406683299191295,9.675789577424526,-0.4192957447160035,-0.1238247901201248,0.110547162592411,-0.1451188325881958,0.3348410514910582,0.4444878752279061,0.5690418812757234,0.6053951509876192,0.0035343894269317,-0.0251533575356006,-0.0148878628388047,-0.0087149143218994,0.001489907503128,0.0065270662307739,0.0019343243911862,0.035166148096323,-0.0006248539000749,-0.1244197338819503,0.0174507731524296,0.0334296836540102,50
1733294898116996400,1.0484693346209824,1.202151099205017,-0.5367383942484856,1.442098942356557,9.694010293769836,-0.3419337976919487,-0.2579469680786133,-0.0170783177018165,-0.355712354183197,0.3390770245335535,0.4396700409473331,0.569318914313095,0.606294547684367,0.0089057190343737,-0.0130438050255179,-0.0088346302509307,-0.0081626772880554,-0.005720168352127,0.0063474215567111,-0.0057962071150541,0.0224791131913661,-0.0161941789537668,-0.0881276875734329,0.0065627743153832,0.0300035085976123,51
1733294898156996400,0.2574345461338758,0.2434159576535224,0.147066876488924,1.3025374730616808,9.716762223803997,-0.2414877295373007,-0.2276927679777145,-0.0561052523553371,-0.3306717872619629,0.3463081072664657,0.4343775901003051,0.5688836054506391,0.6064307669962621,0.0037535675801336,-0.0088560376316308,-0.0105010364204645,-0.0030075311660766,-0.0009261071681976,0.0040216408669948,-0.0064921029843389,0.0102347582578659,-0.0074438862651586,-0.0510916784405708,0.0175480229818262,0.0197875272706151,52
1733294898196996000,0.3791499776147305,-0.1146171437829732,0.3295078486979007,1.1773803766943514,9.734070501479506,-0.1789728029080666,-0.1251170635223388,-0.0986379757523536,-0.3195432126522064,0.3523922994610021,0.4303403422007169,0.5691504748339992,0.6055531212529982,-0.0060857469215989,-0.0011008060537278,0.0037282332777976,-0.0059342980384826,-0.0051607489585876,0.0049723349511623,-0.00105916056782,-0.0009019616991281,-0.014822890600562,-0.0272374097257852,0.0062391135852783,0.0115977910742163,53
1733294898236996000,0.2061828631285578,-0.3781505913138389,0.4371826259970665,1.0573569168884307,9.748158063542842,-0.1606523342490196,0.0099995378404855,-0.0109260268509387,-0.291659265756607,0.3575879416992611,0.4275036709752172,0.5704661258154821,0.603274365552475,-0.0087483758106827,0.0021793560590595,-0.005136365070939,-0.0046377182006835,-0.0059587657451629,0.0014889203011989,0.0028896373696625,-0.005742943380028,-0.0186176067084074,-0.0167076420038938,0.00797393802125,0.0192871765330433,54
1733294898276996000,0.3995435810197144,-0.1667611725181341,-0.1906324619710445,0.9328296428572386,9.761075412783024,-0.1470998197773005,-0.0893449708819389,0.1480881124734878,-0.3664668202400207,0.3604901856433555,0.4224260186795244,0.5736342583453552,0.6021186748267882,-0.0071896277368068,-0.0071735060773789,-0.0105127543210983,-0.0051549077033996,-0.0016525089740753,-0.0003069639205932,0.0040401490405201,-0.011091249063611,-0.0162929631531238,-0.0058361468836665,0.0102709081183187,0.0193827458620071,55
1733294898316996000,-0.0884622734375298,-0.0897837312996387,-0.1339128050165716,0.800288427587971,9.77343279005289,-0.0998217805101536,-0.0888897776603698,-0.017733933404088,-0.2912504971027374,0.3650946520703396,0.4171781657435782,0.5753710737058964,0.6013456047472364,0.0027998895384371,-0.0018110710661858,-0.0026852579321712,-0.006319522857666,-0.0058124959468841,0.002354260534048,0.0038169538602232,-0.0150050083175301,-0.0270364754855632,-0.006428881548345,0.0045391047343611,0.0168096805036067,56
1733294898356996400,0.2472751903649419,-0.1224824703305959,0.2616051098167896,0.6803283153418451,9.782638425293564,-0.0868277949703391,-0.001999232918024,-0.0486486814916133,-0.3684481978416443,0.3694310470897912,0.4137619445501331,0.5772590743340763,0.5992443639381034,-0.0002249288372695,-0.0071474071592092,-0.0027440472040325,-0.0047916173934936,-0.0079999566078186,0.0038224421441555,0.0074201831594109,-0.0128644639626145,-0.0437602312713861,-0.011970323510468,0.0076196812234818,0.0333621713757514,57
1733294898396996400,-0.2991005816049873,-0.0180938750952482,0.2863677951514721,0.5519881319589912,9.790475694790482,-0.1106930748075712,0.1123645976185798,0.2001187950372696,-0.2574898898601532,0.3724884873833846,0.4100685603321213,0.5809367881356882,0.5963291310298982,-0.0223051980137825,-0.0051279850304126,-0.0055058784782886,-0.0040553212165832,-0.012143850326538,0.0015560463070869,0.0104216989129781,-0.0094399470835924,-0.0318698869913816,-0.0166782736778259,0.0253635921035893,0.0446563033282756,58
1733294898436996000,0.1480908857744187,-0.1064355908930301,-0.2096189019918441,0.4806861425610259,9.793824420696495,-0.1426284921826794,0.0867862626910209,0.5592800378799438,-0.1875543892383575,0.3692177978136635,0.4038714312165704,0.5866514265580994,0.5969977099913767,-0.0333623774349689,0.0021932576783001,-0.0039087142795324,-0.0036957263946533,-0.0070889890193939,0.0016016960144042,0.008497922681272,-0.0225678011775016,-0.0522837294667959,-0.0220333859324455,0.0110683603726327,0.0172165077388286,59
1733294898476996000,-1.2875585151165725,-0.0581394697576761,-0.4440156868875026,0.4627560066601261,9.794311327430606,-0.1665054076587781,0.1098683029413223,0.6952831745147705,0.1598266214132309,0.360789720531919,0.395414880561835,0.5934108905178327,0.6011168284818106,-0.0264006070792675,-0.0138807836920022,-0.0045515345409512,0.0013919472694396,-0.0074431002140045,0.0029064491391181,0.0082997251302003,-0.0099193640053272,-0.0334089331269264,-0.0300238542258739,0.0095148655866272,-0.0038406010761857,60
1733294898516996000,-0.161970832969062,-0.1252326458215713,-0.6259539702713489,0.5621015296943486,9.788830265671017,-0.1823883652389049,0.0295828264206647,0.82521653175354,0.2923900783061981,0.3482134560316076,0.3896671868394897,0.5978785008323821,0.6078226498570592,-0.0227299705147743,-0.0003926715871784,-0.0058782547712326,-0.0066426992416381,0.0011366009712219,-0.0012205839157104,0.0075700636953115,-0.0079956538975238,-0.0564887799412012,-0.039273839443922,0.0140210361657664,-0.0122059861004352,61
1733294898556996000,-1.3118389698922632,-0.6791963156372308,-0.3505634962081909,0.6914412455085664,9.780902979803084,-0.1619454062668606,0.1400657296180725,0.4484191238880157,0.3222717642784118,0.3348006655139519,0.3837017984691796,0.6008575931862564,0.6161587367077345,-0.01558977086097,-0.0028932732529938,-0.0021107476204633,-0.0060374736785888,-0.0014861226081848,0.0011648014187812,0.0087902676314115,-0.0060990895144641,-0.042956513673067,-0.0449064075946807,0.0158344239969737,-0.0145922967150807,62
1733294898596996400,-0.6016389556389302,-0.6254337457895278,-0.2727695144424215,0.797664143498987,9.769040692573784,-0.3162041670212522,0.5371430516242981,0.4764121472835541,0.2514159679412842,0.3240334143351968,0.3852804212553338,0.6063669866584293,0.6155327508562135,-0.0140435388311743,-0.0065049454569816,-0.01283176895231,-0.0014128684997558,0.0044820606708526,-0.0001716613769531,0.0141715202480554,-0.0065079270862042,-0.0297609320133924,-0.0466732829809188,0.0133816788163036,-0.0080652330338954,63
1733294898636996400,-1.3782996932715177,-1.3585124582618475,-0.6048842211704701,0.9560223023962228,9.750187523543834,-0.4361440036643296,0.1741712987422943,0.7287955284118652,0.545518159866333,0.3096915868057501,0.3852854337360606,0.6113855489156311,0.6179432455560067,-0.005641265772283,-0.0042707133106887,-0.010175198316574,-0.0018501877784729,0.000970721244812,0.0012656524777412,0.0139687806367874,-0.0055306036956608,-0.0168003281533718,-0.050457876175642,0.0141860540017485,0.0045224458605051,64
1733294898676996400,-1.1758370927751065,-1.3032540968984363,-0.6251192730128765,1.2385352487504482,9.719920980095862,-0.399449838321656,-0.1987707912921905,0.978483021259308,0.764617919921875,0.2903591374418843,0.3827913986732028,0.6114221281190059,0.6287490517947203,-0.0013730176724493,-0.0036710225977003,-0.0109086334705352,-0.005276083946228,-0.0002756714820861,0.0022472143173217,0.0140228839591145,-0.0072089741006493,-0.0272860663324594,-0.0448961816728115,0.0012056859953328,0.011686053879559,65
1733294898716996000,-0.7610868094690144,-1.1713912192821505,-0.1259247197389602,1.5588047289818523,9.679635731458664,-0.2125554851667024,-0.4033954441547394,0.9900404810905457,0.8194550275802612,0.2709122795385729,0.3780921377465076,0.6065341285424783,0.6448017373200288,-0.015539969317615,0.0019236393272876,-0.0103506343439221,-0.0052629113197326,-0.0067263841629028,0.004103772342205,0.0127717088907957,-0.0159580074250698,-0.015104630151391,-0.0564913377165794,0.0257831692225299,0.0029334231033921,66
1733294898756996000,-0.404385395027697,-0.8478314653337001,0.1224526597142219,1.8669433341756465,9.62721931552291,-0.0395530253725126,-0.2171550691127777,0.5227861404418945,0.725481390953064,0.25344025492422,0.3756991395262251,0.6007218987763542,0.6585980807316351,-0.0152414282783865,0.0054409294389188,-0.0108077665790915,0.0004248023033142,-0.0007270872592926,-0.000449426472187,0.0176782086491584,-0.0170864351093769,-0.0311889189898967,-0.0861633121967315,0.0248283709820359,0.0236260825201869,67
1733294898796996000,-0.4666043891839683,-0.5584679954975843,0.8303449084818363,2.1675350311212243,9.56380862736404,0.0758605523180449,-0.1294121295213699,0.7977638244628906,0.8690813183784485,0.2371256617862222,0.3762234011690376,0.5954730394051941,0.6690585087422747,-0.0111353667452931,-0.0094000147655606,-0.0235119089484214,0.0005350112915039,0.0039444267749786,-0.0062596797943115,0.0262383799999952,-0.0045693274587392,-0.0470008206278085,-0.1280369907617569,0.0147435508871916,0.0536272530302405,68
1733294898836996400,0.0368999901130795,0.1451350316435098,0.4071820400089025,2.4906287749931213,9.48284766946733,0.2067810847500339,-0.1385333389043808,0.8390515446662903,0.8255481123924255,0.2148491559543896,0.3729627157465742,0.5919087017204454,0.6814563598991831,0.0088242264464497,-0.0162152051925659,-0.0211796481162309,-0.0016360878944396,-0.0003448724746704,0.0004018619656562,0.0351433306932449,0.0023094196803867,-0.040285833159089,-0.2002542912960052,0.0218869929010514,0.0411447880759835,69
1733294898876996400,-0.056265200318396,0.0896463686555624,0.5640630390256643,2.760964596015215,9.403363213863967,0.3524674301333725,-0.3889981210231781,0.0074978065676987,0.6976146101951599,0.2030151237823012,0.3755642786247631,0.5839354722850126,0.6904750213290445,-0.0198164731264114,-0.0265902411192655,-0.0370839796960353,-0.005886435508728,-0.0058952569961547,0.0014063119888305,0.0404920242726802,0.0174948517233133,-0.0001017068088054,-0.2607440948486328,0.0393975242835469,0.0884983676642179,70
1733294898916996400,0.209938050943613,-0.1328296768218279,1.6259937666356563,3.039591860042512,9.31294586083591,0.4475348009243607,0.0187309440225362,0.1509318649768829,0.7826306819915771,0.1935381377163302,0.3822857704174442,0.575360465737663,0.6966784109609107,-0.0155290504917502,-0.0270288102328777,-0.0235738288611173,-0.006020963191986,-0.0066408812999725,0.0006794929504394,0.0571245178580284,0.0146854184567928,0.0126332716017961,-0.2812317013740539,0.0378088485863059,0.0994181133463978,71
1733294898956996000,0.5648626649707555,-0.0271434429913759,1.230452480059862,3.331999519880116,9.213395937803387,0.4260359031585976,0.3314845860004425,0.799857497215271,0.9182413816452026,0.1750397411145756,0.3857917550161484,0.5739711979946237,0.7007730730865598,-0.028561495244503,-0.0070284698158502,-0.0252465605735778,-0.0098825693130493,-0.0027310252189636,-0.0011713467538356,0.051480758935213,0.0280006974935531,-0.0347609322577714,-0.3204467892646789,-0.0074052895541302,0.0193207865417003,72
1733294898996996000,1.0338339294165373,-0.2047369751691818,0.1260258054932579,3.639198506136238,9.095903530845046,0.4372099523954093,0.0977063849568367,0.6218069791793823,0.7920242547988892,0.153167855375947,0.3869139724123698,0.5727181454318362,0.7062797359923939,-0.0291812121868133,-0.0136437620967626,-0.0366439558565616,-0.0055657029151916,-0.0034063756465911,-0.0014538764953613,0.0331691540777683,0.0235180258750915,0.0246148012965917,-0.3322294354438782,0.0510527081008069,0.0430187652543187,73
1733294899036996000,-0.3206502962425351,-0.3375421020716428,0.3369594068128615,3.940833428524434,8.962355476620793,0.5625124120501801,0.1682468205690384,1.7150719165802002,1.0571154356002808,0.1279777939137262,0.3826388107446546,0.5700064815606831,0.715752694220821,-0.0400812663137912,-0.0152687160298228,-0.0355033241212368,-0.0129302144050598,-0.0005090534687042,-0.0022941790521144,0.012276254594326,0.059474129229784,0.003064063745737,-0.3322070240974426,-0.0064155478644184,-0.0215989606067538,74
1733294899076996400,1.2354068875968456,-0.054245384928584,-0.0148393302787095,4.276942867444455,8.788591731864214,0.7992393569264561,0.2955460548400879,1.6522880792617798,0.9632891416549684,0.0866087858113558,0.3662455115088772,0.5701880022965244,0.7302388067560867,-0.0163762010633945,-0.0027089826762676,-0.0078525226563215,0.0005005002021789,-0.004976063966751,0.0095592737197875,-0.0340667366981506,0.0428124740719795,0.0181406368464231,-0.2379152029752731,0.0562271333303302,0.0589145457834005,75
1733294899116996400,0.431193030193448,-0.2006973443895578,-0.6146423026621342,4.498617825672031,8.667342602720856,0.9000012130320072,0.0295463670045137,0.2399096041917801,0.5964537858963013,0.065233764106395,0.3620356928751491,0.5683685986292146,0.7359564385358625,-0.0396801941096782,0.0217633359134197,0.022546662017703,0.0003474354743957,-0.0298336148262023,0.0197776518762111,-0.1213966906070709,0.0307298880070447,0.022980478093028,-0.1448205113410949,0.1081394904677756,-0.0407137031823396,76
1733294899156996400,-0.9205907043352722,-0.4880611648410558,0.2723630890659987,4.744579376155138,8.524796418526769,0.993570892611146,0.0112346112728118,1.2453405857086182,0.98981910943985,0.047850346342075,0.3630819940882868,0.5634833177105177,0.7405189365583347,-0.0369797497987747,0.0750732645392417,0.106206476688385,0.0014932751655578,-0.0210032761096954,-0.0026569403707981,-0.1859777420759201,-0.0152625571936368,0.1256698681950569,-0.1224835216999054,0.3012992241604253,-0.0205824770405888,77
1733294899196996000,-0.0650888505041599,-0.1991197198092937,-0.1512115750782191,5.004028184720873,8.32189893374443,1.3697111670158804,-0.0508682504296302,2.208847045898437,1.0332671403884888,0.0107770452490246,0.3459725657914946,0.5571957925171703,0.7547978802768578,0.01557507365942,0.0705109536647796,0.1663923859596252,0.0079110264778137,0.0071105062961578,-0.0187062062323093,-0.1569002270698547,-0.0479405149817466,0.0661731386095285,-0.1361899822950363,0.3625311800407245,0.0026031682357192,78
1733294899236996000,0.3827928641617298,-0.0823509509503841,-0.8737631944477557,5.204076709812879,8.108313466209173,1.8284512525655328,-0.6021179556846619,1.324602723121643,0.894773006439209,-0.0214288332422752,0.3294285030430952,0.5461243369503784,0.7699129499256924,0.0268034934997558,0.0585896894335746,0.1689193248748779,-0.0055316686630249,0.0283320844173431,-0.0195704735815525,-0.1057170554995536,-0.031685322523117,-0.120313309597969,-0.1786266416311264,0.220043393236678,-0.1392141171619296,79
1733294899276996000,-0.2940577651321888,0.1318926882326603,-0.4766719019509852,5.414955256476998,7.845885934093594,2.300155887497961,-0.9574323892593384,1.0042511224746704,1.0179959535598757,-0.0418983344614533,0.3237499192168409,0.5271723436588706,0.7845507220387739,0.0675317496061325,0.0460597276687622,0.1142051443457603,-0.0359915494918823,0.0618468523025512,-0.0222913101315498,-0.0721714943647384,0.0442946478724479,-0.3180675862729549,-0.1655825972557068,-0.0371323375642299,-0.2090554228901863,80
1733294899316996000,0.9458628004968166,0.3698234924733639,0.1902928547531366,5.601530552011728,7.4991691764414306,2.925012417921424,-1.223235011100769,1.7386153936386108,1.0255935192108154,-0.0650569771564283,0.3150004271724771,0.5016379211236254,0.8030577115763345,0.1274203807115554,0.0375907160341739,0.0308384820818901,-0.034819483757019,0.0662148892879486,-0.0081566609442234,-0.1225594654679298,0.1532376706600189,-0.4181090922147035,-0.1127626746892929,-0.2532484743545763,-0.2801905678212642,81
1733294899356996400,0.8136708370566368,0.4360901545852422,0.1369359430968761,5.600545048105716,7.10220341002047,3.789854347027838,-1.511810302734375,2.172506093978882,0.8978719115257263,-0.092674616853736,0.2924181136746228,0.4703858525390101,0.8274299202797939,0.1940129846334457,0.03128632158041,-0.0026214753743261,-0.0190465450286865,0.0510309636592865,0.0014687851071357,-0.2078147530555725,0.1995547413825988,-0.2130173122584819,-0.0518820397555828,-0.3186240145793184,-0.2363978955850005,82
1733294899396996400,1.1320394521027803,0.3579290565401316,0.8368228723242879,5.465481913143396,6.674588822835683,4.663556166677177,-1.341443419456482,2.1756324768066406,0.7270201444625854,-0.1176011245533043,0.2671257394816033,0.4368851733990624,0.8508496445884441,0.1645605564117431,0.003995472099632,-0.0816655606031417,0.0033584237098693,-0.0055126547813415,0.011958010494709,-0.2531959414482116,0.1986839473247528,-0.0942711058467626,-0.0098667442798614,-0.2264860665700398,-0.0870052064970135,83
1733294899436996000,8.553744280591607,1.4381184944182634,10.374183345484733,4.943717216143011,6.504046962735057,5.424703912553191,1.1891825199127195,3.8813552856445312,-1.0094822645187378,-0.1405526064680591,0.2223484707226346,0.4171069622876731,0.8699585337322404,0.0758559927344322,0.0006426055915653,-0.097510240972042,0.0017170906066894,-0.0459295809268951,0.0072175227105617,-0.2380049228668213,0.1489475518465042,0.0022597616255283,-0.0218535922467708,-0.1397124220728874,0.0465256043314933,84
1733294899476996000,-4.005028252798319,1.1170289299756289,-1.3063105618596076,4.270036449056864,6.8032894370287655,5.626049491718411,0.1774127036333084,1.3015834093093872,0.1677779704332351,-0.1528534315393741,0.1743796758375773,0.4274845459139795,0.8737760572254057,-0.0233925655484199,0.0060022706165909,-0.0672105178236961,0.0068938136100769,-0.0595695376396179,0.0072635486721992,-0.1583119630813598,0.1026276499032974,0.1005155531942844,-0.0288824997842311,0.068921633600071,0.2344198735103011,85
1733294899516996000,-4.05748733883202,0.5556956081748008,-0.8241752799361943,4.411080996516347,6.7027756374001495,5.637867355284095,0.0614201724529266,0.1321900486946106,0.9855148792266846,-0.1683993125817158,0.1757551084045065,0.4262146249788167,0.8712593805435835,-0.0987115576863288,-0.0525367818772792,-0.0618409216403961,0.0134935975074768,-0.0362809598445892,-0.0058951452374458,-0.0569488406181335,0.0216746777296066,0.0996218192249536,-0.1078902781009674,0.1204139386945404,0.1282943714797496,86
1733294899556996000,1.2301572965055705,0.902446268096566,-0.8761135569661855,4.492134308871627,6.567612549194693,5.7321530741781,-0.4104065597057342,0.4630067348480224,0.2438929677009582,-0.1767096376626418,0.1775072379676924,0.419800793728928,0.8723715765507283,-0.117749698460102,-0.0330219343304634,-0.0659387335181236,-0.0086501836776733,-0.0048185586929321,-0.004422903060913,-0.0224202722311019,0.0533892028033733,-0.0016676409512758,-0.1987663209438324,0.0576886937828734,0.1354506729751825,87
1733294899596996400,-0.250591548371315,0.7793325141251086,-0.8512766373515128,4.473663709418475,6.37199820715785,5.962747544181346,-0.7734348773956299,0.0119043681770563,0.2971946597099304,-0.1827259794076048,0.1752059051370853,0.406555487662088,0.8778535489796292,-0.0398548953235149,-0.0495532415807247,-0.0622489862143993,0.0025860667228698,0.0126843154430389,-0.0007758177816867,0.032631155103445,0.0440167337656021,0.0692424630522727,-0.2143128216266632,0.1006351609859615,0.1124988364547491,88
1733294899636996400,1.7748337902769444,1.1527128222972154,-0.2980594019889831,4.471937616278231,6.172047881743311,6.170736214622855,-0.6331048011779785,0.3521575927734375,-0.0184859167784452,-0.1839160167686508,0.1762729886351519,0.3928203568329835,0.8836260455927365,-0.0305346325039863,-0.0533561259508132,-0.063338816165924,-0.0006561279296875,-0.0172947645187377,0.0075546577572822,0.0442603826522827,0.0232938174158334,0.0236591080069541,-0.2125404775142669,0.0686676771053113,0.0742278502494096,89
1733294899676996400,0.027450901505351,1.9516326649457207,-0.3127928607404232,4.277473321059346,6.068344346162676,6.406933326938748,-0.2090557962656021,0.9891665577888488,0.1569368988275528,-0.1885733622974655,0.1640739136663187,0.3826448046425378,0.8894395565728916,-0.0868948400020599,-0.026537561789155,-0.0171990860253572,-0.0075283050537109,-0.0405482351779937,0.0070859268307685,0.0658863261342048,0.0250407457351684,-0.0059264674395322,-0.1627019643783569,0.069851480062399,0.0605012304529547,90
1733294899716996000,-1.1879776124238968,1.8429758908718823,-1.8495535156965253,4.148557602810859,5.956136017087101,6.594262655711174,-0.0590840876102447,0.5929517149925232,0.5246496796607971,-0.2061086762105984,0.1505043681992915,0.3756788609843048,0.8909169963898228,-0.176101416349411,-0.0262901540845632,-0.0309091731905937,-0.004020869731903,-0.0244857370853424,0.0040856562554836,0.09027049690485,0.0142049407586455,-0.0029150106638669,-0.1418329179286956,0.064317080680374,0.0393257559552788,91
1733294899756996000,-1.7337360562130808,0.7923153298169374,-1.933606594389677,4.187493190404773,5.774530326658487,6.729790485575795,-0.8434420824050903,-0.1235021576285362,0.347330242395401,-0.2140608995304525,0.1513617790695405,0.3660133647665773,0.8929175119170694,-0.1440148502588272,-0.0376714393496513,-0.0139282587915658,-0.0104891061782836,0.0082718431949615,-0.0013636350631713,0.0875735804438591,-0.0059934379532933,-0.0015028057783842,-0.1258585155010223,0.0454823423562571,0.0241501063942909,92
1733294899796996000,-2.7232632263913747,-1.1512018332123757,-1.5119763423115014,4.356557379168272,5.392978402468562,6.935889981269836,-1.240991234779358,-0.3963445723056793,0.6457862257957458,-0.2162766165591028,0.1640677356153514,0.3456151029010651,0.898251845080029,-0.1314868181943893,-0.0254574920982122,-0.0229246821254491,-0.0166468620300292,0.0168886482715606,-0.0016586780548095,0.0717689767479896,-0.0195328891277313,-0.0417933151125907,-0.1258317977190017,0.0228522120708599,-0.0382967051684856,93
1733294899836996400,-3.4271213973373174,-1.862976476371288,-2.446531566852331,4.740939558348059,4.882364045035839,7.060905769470334,-0.8753337860107422,-0.6200578808784485,1.683975338935852,-0.2303186552882184,0.1858200447514171,0.3247535875031182,0.8983091285738607,-0.0511522926390171,0.0152951581403613,-0.0054449588060379,-0.0214086771011352,0.0360763370990753,-0.0038833618164062,0.039198137819767,-0.0039916401728987,-0.1205073708653449,-0.1229493245482444,-0.0396399364709854,-0.0930994317188858,94
1733294899876996400,-0.7083265485316514,-0.3375751275584101,-2.542411861461401,5.246386157754063,4.300427787928283,7.081817624595761,-0.7244543433189392,-0.476210355758667,1.609668850898743,-0.2526377506483291,0.2130434202462957,0.3058435477161681,0.8928866070432099,0.0284599773585796,-0.0080493669956922,-0.0161004662513732,0.0098580121994018,0.0458008050918579,-0.0146298445761203,0.0196508262306451,0.001922155264765,-0.0216524443596601,-0.0959103181958198,0.0351838338449597,-0.0049158290922641,95
1733294899916996400,-1.2990332643330096,-2.316999762532115,-0.3260352041512727,5.649746009126305,3.861408886414766,7.024262676727771,-0.2127347439527511,-0.8265561461448669,1.350513219833374,-0.2703163209120134,0.2354060865783973,0.2940174339163742,0.8860398774304447,0.0664731413125991,-0.0347651317715644,-0.0330691970884799,-0.0012001991271972,0.0075107514858245,-0.0044567584991455,0.0309419557452201,0.0017976609524339,-0.0249514859050512,-0.0669693499803543,0.053686691599898,-0.0034738135904073,96
1733294899956996000,-1.3422463831156493,-1.5008759793654085,-1.7464672352313997,6.158781572934985,3.4798332890883086,6.791947958803177,0.0698337778449058,-1.0531563758850098,1.829851031303405,-0.2935606066919121,0.2619477894462813,0.2917025610925712,0.871845877152375,-0.0284911878407001,0.0086652720347046,-0.0159092508256435,-0.0162935853004455,-0.0287188589572906,0.0063954554498195,0.0300710685551166,0.0073753846809268,-0.0232610486000776,-0.0635932683944702,0.0381744670283049,-0.0611065028697252,97
1733294899996996000,-0.3604600363224745,-0.6212187584429979,-1.1280436604648827,6.604986878821253,3.012876579335332,6.592958587375283,-0.296501487493515,-0.7091824412345886,1.6948972940444946,-0.3178393484601513,0.2869257218118408,0.2855280868241752,0.857394587635214,-0.0351104736328125,0.0267018508166074,-0.0077778878621757,-0.0178849697113037,-0.0039816200733184,0.0152781084179878,0.0320509076118469,0.0027796197682619,-0.0426332730680704,-0.0328397154808044,0.0205360075503587,-0.0390378789246082,98
1733294900036996000,-1.698248270985484,-1.404295427532494,-1.7725158687233924,7.079665414997935,2.3175337232783435,6.377912399637699,-0.9239432215690612,-1.3368854522705078,2.2935545444488525,-0.3426631073860771,0.3189398591610011,0.2703596365741714,0.8412877888421287,-0.0082631474360823,0.0354312658309936,0.006371353752911,0.0021153092384338,0.0083979666233062,0.0037873946130275,0.0221735648810863,-0.0054706325754523,0.0419563967198133,-0.0180222485214471,0.079689604520332,-0.0658843847960233,99
1733294900076996400,2.632873053631186,-0.9699981477133928,-0.0267453835844993,7.518990898242593,1.4217539273336528,6.1330070802092544,-1.3503447771072388,-0.9257127046585084,1.6142821311950684,-0.3621156327272198,0.3571360882802935,0.244453453134604,0.8255716300125848,-0.0061850836500525,-0.0107043255120515,-0.03382533416152,0.0036676526069641,0.0067026913166046,-0.0020332261919975,0.029729027301073,-0.0248388163745403,-0.0090285251080989,0.0002660024911165,0.065788267477788,-0.0014180501043796,100
1733294900116996400,-0.3427139517515897,-1.83756292591244,-0.1341986270874738,7.857364774963259,0.6813133077912032,5.828208725354076,-1.1050584316253662,-1.4353708028793335,1.36616051197052,-0.3710946165296064,0.3919341950725714,0.2218820375547314,0.8120620437898746,-0.0566834099590778,0.0147232702001929,-0.0228433236479759,-0.0156635046005249,-0.0229667425155639,0.0024080350995063,0.0162192247807979,-0.0390471518039703,0.0099257662087678,0.0138497743755579,0.1335857193535193,0.1089464046701788,101
1733294900156996400,0.6840916864633559,-1.4848780536361037,0.7016098074972629,8.19884538552761,0.0459629380805883,5.38026154423654,-0.9650832414627076,-1.3183271884918213,1.1447372436523438,-0.3772381175921158,0.4280434001247272,0.2060627576366986,0.7949895752190964,-0.0645293518900871,0.0008619969012215,-0.0116994585841894,-0.003097653388977,-0.0103143751621246,-0.0017435550689697,0.009431779384613,-0.0244707949459552,-0.1035147350102663,-0.0485717579722404,-0.051681087398529,-0.0022843115448951,102
1733294900196996000,-0.0048363341152668,-1.3241948858574033,0.4392822286248207,8.432575815469026,-0.387060604608804,4.991216633942723,-0.8376575708389282,-1.5493534803390503,0.995789110660553,-0.3795572862536104,0.4551478419801443,0.1958551143641326,0.781292241248204,-0.0697504803538322,0.018293984234333,-0.016243876889348,-0.0063380002975463,-0.0036151111125946,0.0100023709237575,-0.0154026132076978,0.0017589256167411,0.0244254162043333,-0.11656504124403,0.0657097954140976,0.0988239468455314,103
1733294900236996000,1.020600353834033,-1.379500008971989,1.0952870537668469,8.692975056627393,-0.8960391044680028,4.449683991155028,-0.7893935441970825,-1.443751573562622,1.0615965127944946,-0.3818918906521358,0.4887956808315302,0.1849541475601361,0.7622528580277569,-0.0724075138568878,0.0207508038729429,-0.0231748204678297,-0.0132577419281005,0.0010756254196166,0.0052114799618721,0.0147851761430501,-0.019861452281475,-0.0223304897516965,-0.1708317697048187,0.0289710602773353,0.0939835210770368,104
1733294900276996000,0.4500140505194663,-0.5434453445412218,1.1138523457661271,8.871210978361963,-1.3502183849081395,3.955869377353787,-0.4360569715499878,-1.2554160356521606,0.9581611752510072,-0.3859435379142863,0.517096218413064,0.175835983722286,0.7434653611920536,-0.0662433579564094,0.0259670298546552,-0.0170203223824501,-0.0043081641197204,0.0052993595600128,-0.0043859407305717,0.0204273145645856,0.0011711083352565,-0.0422977575033903,-0.218686819076538,0.0517942106504924,0.0928144772976636,105
1733294900316996000,1.296429219314456,0.1049614266872406,0.3062257573097944,8.95973214237988,-1.7930230885706842,3.560708906789124,-0.6205693483352661,-0.8095778226852417,1.1226130723953247,-0.3924171843779063,0.5394730555675101,0.1655994710621467,0.7263293678345085,-0.031535979360342,0.0052136550657451,-0.0270161647349596,0.0005725622177124,0.0134574472904205,-0.0069381035864353,0.0503494776785373,-0.0097647495567798,-0.0360036257952451,-0.2158698290586471,0.0771784802159294,0.0209019182533025,106
1733294900356996400,0.7320178052425385,-0.0745763714261353,0.5624705091372132,8.964947246679664,-2.29388732862249,3.246255419360101,-0.682553768157959,-0.5975445508956909,1.1793203353881836,-0.3990745715323698,0.5588119708887549,0.1490510620404376,0.7115141545185046,-0.0376303568482399,0.0227001309394836,-0.0048684505745768,-0.0011177062988281,-0.0102450251579284,0.0006681606173515,0.052279245108366,-0.0216535832732915,-0.0200531924694776,-0.1751586496829986,0.1206333901314996,-0.0012228197932243,107
1733294900396996400,1.576776439002156,-0.5625999807357788,0.4385553756549954,8.888876983433962,-2.8323773888438937,3.0225623993083834,-0.7389273047447205,-0.3191918134689331,1.275352954864502,-0.4072994657564087,0.5740411559786887,0.1279412505685566,0.6987237756937935,-0.0510867796838283,0.0160866491496562,0.0067497892305254,-0.0046685338020324,-0.0085296928882598,-0.0066462755203247,0.0598705001175403,-0.0471755862236022,-0.0524251837641,-0.1143972501158714,0.078114098831918,-0.0911982742726802,108
1733294900436996000,1.0468681830346585,-0.1936822049304842,0.427505866113305,8.776840503793954,-3.373678268702328,2.784914503662288,-0.3390820324420929,-0.3972705900669098,0.7761998176574707,-0.4165336092237758,0.5887021606623922,0.1069516151026944,0.6844639118550688,-0.0588839799165725,0.0057088434696197,0.0017471740720793,0.0007113814353942,0.0016274750232696,-0.0084863826632499,0.0593153461813926,-0.0500483065843582,-0.0877460879921913,-0.0710333585739135,0.0970156918471679,-0.0815343738704919,109
1733294900476996000,1.8986212057262657,-0.4358808957487344,0.8656400937467813,8.750787778648734,-3.565877541598677,2.6227120173618195,-0.1524865925312042,-0.3733827173709869,0.1531994789838791,-0.4192948224076259,0.596711862082248,0.101063651739796,0.6766926622535929,-0.0605591088533401,-0.0108481887727975,-0.0020070842001587,0.0021121501922607,0.0088548064231872,-0.0096031427383422,0.0732348188757896,-0.0650399699807167,-0.1111228719264268,-0.0345946624875068,0.0765525120710022,-0.1163794772803783,110
1733294900516996000,1.0434288562357426,-0.468677834457159,0.8910054211497306,8.804970035213232,-3.548642621420324,2.459679802238941,0.1535949110984802,-0.4287354946136474,-0.197134718298912,-0.4174425229417643,0.6029067926641836,0.1053310821208603,0.6716773778737051,-0.0213320776820182,-0.0148888425901532,-0.0017092761117964,-0.0022257566452026,0.0128246545791625,-0.0043538734316825,0.0645699128508567,-0.037668839097023,-0.1427864226907491,-0.0243672672659158,0.0547047826012596,-0.1099614269316196,111
1733294900556996000,0.7672983774602413,-0.3241308318346738,0.6289426306933165,8.86532308936715,-3.441349829176068,2.394484861011803,0.4563038051128387,-0.2343562394380569,-0.1920711994171142,-0.4177152259174687,0.6039319237711659,0.1148106131506532,0.6690283088615285,0.0004278121050447,-0.0014954333892092,0.0024528452195227,-0.0117921233177185,0.0041857063770294,0.0045548640191555,0.0596924200654029,-0.0418633632361888,-0.1473357565581798,-0.00962087046355,0.0535689104391261,-0.1205301672190427,112
1733294900596996400,-0.0856833102434873,0.0047112464308738,0.2077116070657968,8.903228749391436,-3.3483635024428366,2.385657849825173,0.5682259798049927,-0.1522011458873748,-0.0747338607907295,-0.4220492827068805,0.602216693051332,0.1253010625629209,0.6659647643334716,0.01077685598284,-0.0008042365079745,-0.0013789109652861,-0.0062907934188842,0.0060691535472869,0.0020598173141479,0.038724597543478,-0.0006068274378776,-0.1895686321318149,-0.0109776882454752,-0.011456263711676,-0.1599438937187194,113
1733294900636996400,0.4218447716116905,0.2656497090324759,-0.0149500241115689,8.920778434607387,-3.250470991228521,2.4544915859460827,0.4901699125766754,0.0354830771684646,-0.1945535391569137,-0.4266494980622601,0.5974233721378148,0.1339442997398472,0.6656683774593259,-0.0022997977212071,-0.0092312777414917,-0.0164302997291088,-0.0027036070823669,0.0011220276355743,-0.0023992136120796,0.0216173343360424,-0.0034977598115801,-0.1098421844661235,0.0117276860401034,0.0252403493164107,-0.1315554191023111,114
1733294900676996400,0.041076691275835,-0.2211108946040272,-0.4152458117380738,8.966357697999477,-3.1316689629763363,2.442835196552425,0.2687684297561645,-0.3691365420818329,-0.2211942225694656,-0.4278386158439227,0.5957487200754029,0.1432952585176664,0.6644576299938308,-0.0073049422353506,-0.0144699811935424,-0.0106049003079533,-0.001615822315216,-0.0058320462703704,0.0030747652053833,0.0110406009480357,0.0075592184439301,-0.0689911186397075,0.0341727547347545,0.0398834081043489,-0.0548082795083522,115
1733294900716996000,0.2163695452958345,-0.1076841296494007,0.0170902510106563,9.020909372398256,-3.0531106823071834,2.3392530953943727,0.0438750684261322,-0.3568996787071228,-0.1197469905018806,-0.4262991488185144,0.5984376928962811,0.1503449680159161,0.6614664401693982,-0.0094860717654228,-0.0089579299092292,-0.002706296974793,-0.0012570619583129,-0.0080673098564147,0.001678355038166,0.0198810342699289,-0.0147850019857287,-0.0644137277215719,0.05108243227005,0.0308501154895871,0.0054769701063632,116
1733294900756996000,0.2086070946007966,-0.3789037477687001,0.1177681551598012,9.066828827530143,-3.047347880996764,2.162559288535267,-0.1376502215862274,-0.4574863314628601,0.0241466127336025,-0.4238134298351723,0.6050074950445489,0.1539678197371585,0.6562331905730789,-0.006344074383378,-0.0064459834247827,-0.0019745936151593,-0.0097795724868774,-0.0094392299652099,0.0060648918151855,0.0348354652523994,-0.0150659326463937,-0.0482692331284284,0.0474784672260284,0.0462504771845415,0.0166395846337079,117
1733294900796996000,0.2940717936575412,-0.0026852935612201,0.0525400423154234,9.087755880224703,-3.0817946327388284,2.021287362060696,-0.2484752237796783,-0.2533731758594513,0.0620641224086284,-0.4209844586866026,0.611066468096232,0.1534301011224776,0.6525557222178178,-0.0155735248699784,0.0002299754414707,-0.0017868406139314,-0.0114195942878723,-0.0044237971305847,0.0038466453552246,0.0350882150232791,-0.0114849852398037,-0.056610360494256,0.0310827381908893,0.0257560437535867,-0.0076858783274888,118
1733294900836996400,0.0375607921093702,0.036744215029478,0.1509673910588026,9.107242086461186,-3.099377051180601,1.903257487224788,-0.1323669254779815,-0.3213936388492584,-0.0385191366076469,-0.4178392492065326,0.6160932397376916,0.1529378837644579,0.6499611285171869,-0.0325463823974132,0.0054476936347782,0.0027921320870518,-0.0111297965049743,0.001999020576477,0.0032165125012397,0.0268641449511051,-0.0029058838263154,-0.0818254657715559,0.0151787400245666,0.0234306330133229,-0.0407616339772939,119
1733294900876996400,-0.1906628571093082,0.5170706939652562,-0.0893034004367887,9.12761851953566,-3.0821582053542134,1.8322817706391208,-0.0463547296822071,0.0536485910415649,-0.1420478522777557,-0.4154048167807648,0.6187650358705051,0.1539787559612608,0.6487365612468745,0.0138805042952299,0.0008206113707274,0.0093577560037374,-0.0020893216133117,0.0099151134490966,0.0020527802407741,0.0134097477421164,0.0035328343510627,-0.055582771012187,0.0086084771901369,0.0206288369329646,-0.0442430463522672,120
1733294900916996400,-0.2384609655946493,-0.1530360140264034,-0.1162368539392948,9.141299838885663,-3.024218934343755,1.8604126172326505,0.3820529580116272,-0.0436703376471996,-0.1065625846385955,-0.4155547157433117,0.6168000131015576,0.1571721983762959,0.6497453412955511,0.0238923914730548,0.0053040962666273,0.0124909654259681,-0.0034264922142028,-0.0019465386867523,0.0017286539077758,-0.0022930027917027,0.0046834824606776,-0.0325584537774324,0.0114182429388165,0.0480976759538054,-0.0453928009092807,121
1733294900956996000,0.2133937443554401,-0.4425777630388736,0.1427582195095718,9.164543936350942,-2.92920607021898,1.8976998530976472,0.5592145323753357,-0.3706943690776825,-0.1472968906164169,-0.4201176170465387,0.6127406652522553,0.1667126718703188,0.648272262354011,0.0086260866373777,-0.0009692460298538,0.0118263736367225,-0.0053560733795166,-0.0077821910381317,-0.0013322867453098,0.0074378661811351,0.0016892298590391,-0.0438823963463306,0.0324130952358245,0.0368449719902128,0.0012058686584234,122
1733294900996996000,-0.0309112710922956,-0.9359197908923028,-0.589427781906724,9.219109054753185,-2.9001895268321034,1.6635262094333767,0.047183372080326,-0.911271870136261,0.3376004099845886,-0.4210417483647189,0.6195611305557119,0.1769965323244232,0.6383886948886611,-0.0220551267266273,0.000161319199833,0.0092614833265542,-0.0019346475601196,-0.0103969573974609,0.0012905597686767,0.0193376429378986,-0.0025783840101212,-0.0317021292090415,0.0369188375771045,0.0395819957386702,0.0016699790388345,123
1733294901036996000,0.4378910665273666,-0.8680120835751295,0.6299694895230233,9.146696144971251,-3.218291307635605,1.4666028306245802,-0.328823059797287,0.0734715983271598,1.0353935956954956,-0.4277918764428212,0.6299705141954611,0.1684078845971377,0.6259153169728021,-0.0344806388020515,-0.0060602510347962,0.0124587407335639,-0.0092081427574157,-0.0075102448463439,0.0003668032586574,0.0237549468874931,-0.0048310300335288,-0.033456279399991,0.0479760356247425,0.0383698434699326,0.0060357730329036,124
1733294901076996400,0.507641479101777,-0.1236526831537485,0.6423081620924175,8.998984540838002,-3.5722461998477577,1.5581126550644635,-0.4433317482471466,0.5396714806556702,0.8866443037986755,-0.4356607359442032,0.6312113297870168,0.1487636319639594,0.6242125841065761,-0.0296536572277545,-0.0165261011570692,0.0088251903653144,-0.0076265335083007,0.0006552040576934,-0.0027227401733398,0.0207997467368841,-0.0036173379048705,-0.03310381270051,0.0407831817865371,0.0524406735941767,-0.0079325465649366,125
1733294901116996400,0.4350146343082189,-0.2030932996153831,0.5909029690258205,8.826654043754935,-3.93214129576385,1.6729641921252012,-0.3780603408813476,0.5266432166099548,0.9086652994155884,-0.4430842885610263,0.6313153853355676,0.1270568699805093,0.623677523430732,-0.0213411338627338,-0.005116106942296,0.0155343590304255,-0.0094928741455078,0.0084011852741241,-0.0011770725250244,0.0179360657930374,-0.0047271265648305,-0.04668108715415,0.015959920361638,0.036781624430418,-0.0374479793846607,126
1733294901156996400,0.5705348653882741,0.2279717202842235,0.4361749102592468,8.67048499239981,-4.216561756239831,1.7926770516119896,-0.1264689862728119,0.4040572643280029,0.6033155918121338,-0.4504536235039132,0.6296578293336262,0.1101359476801691,0.6232917935706674,-0.003415928222239,-0.0022317972034215,0.0091420402750372,-0.0066784024238586,0.0112964212894439,-0.0046325959265232,0.0176138188689947,0.0053117689676582,-0.068223641398549,-3.22125852108e-05,0.0296534530509263,0.0123690677076578,127
1733294901196996000,0.4935293671190738,0.6430638027653097,0.3638672144174575,8.57615543436408,-4.355722389648855,1.9098760285817085,0.080053225159645,0.2816670835018158,0.1617783606052398,-0.4561772575679657,0.6262807780648264,0.101959848759726,0.6239221683911494,0.0138083323836326,-0.0236847326159477,0.0004351011011749,-0.0030428767204284,0.0104054808616638,-0.0080417431890964,0.0210828222334384,0.0126683767884969,-0.0578922169983386,-0.0272980369627475,0.0475501981388777,-0.0019938041657209,128
1733294901236996000,0.5877952122688294,0.1426040518611669,-0.0351505160972476,8.568979843646288,-4.336796739904583,1.9837316845178603,0.0794351920485496,0.004372261930257,-0.1377651393413543,-0.4571397794144917,0.6232777839034368,0.1018952257457216,0.6262312362468662,0.0080561712384223,-0.0327420867979526,-0.009058934636414,-0.0051507353782653,0.0007957220077514,-0.0041090250015258,0.0271388925611972,0.0297157764434814,-0.0759697254806757,-0.0555174276232719,0.0435146955450996,0.0305704948306083,129
1733294901276996000,0.2536865917772054,0.0650187078773975,0.2002127757430076,8.583611595588922,-4.31502592986226,1.967886319001764,0.0084831528365612,-0.0593182556331157,0.021861957386136,-0.4570597822349005,0.6235923189434645,0.1039150762820531,0.625644298373351,-0.0145759051665663,-0.0293583311140537,-0.0099835181608796,-0.0041229724884033,-0.0110812187194824,-0.0013942718505859,0.023039486259222,0.0135477948933839,-0.046496378237009,-0.0742769986391067,0.0582164074514061,0.0225935246020555,130
1733294901316996000,0.6738572926968336,-0.4046256335243582,0.715953390148282,8.579582486203313,-4.32122916841656,1.9718373947151004,0.035381693392992,0.1656324565410614,0.0540497973561286,-0.4571088302715497,0.6235190267569654,0.1033842112369294,0.6257694205773127,-0.0290864035487175,-0.0352874882519245,-0.0179870501160621,-0.0042598247528076,-0.0077884197235107,0.0023202896118164,0.0386969894170761,0.0281741209328174,-0.0189934542834758,-0.0772730857133865,0.0521707340789958,0.0273275673866271,131
1733294901356996400,0.3930564840227365,-0.5349336829140782,1.033494906720519,8.504395435532928,-4.36345327616185,2.1922429175287483,0.3506157696247101,0.733119547367096,0.3134427070617676,-0.463240808620617,0.6151397717723311,0.0991452473030069,0.6302232227885893,-0.0265532061457633,-0.0352010391652584,-0.0140661438927054,-0.0053338408470153,-0.0049156546592712,-0.0021253749728202,0.0482090041041374,0.0325429067015647,-0.0348515331506729,-0.0612292997539043,0.0336809184687212,0.0146235686361789,132
1733294901396996400,1.7940549158364534,2.456047583216429,1.343693951575458,8.381602584078907,-4.389665283522009,2.5787568480402228,0.3412929475307464,1.6350919008255005,-0.3088751435279846,-0.4711983240099243,0.6000335336928072,0.0920855900054488,0.6398845998974122,-0.0437878519296646,-0.0335831679403781,-0.0128280408680439,-0.0071526765823364,-0.0043386816978454,0.002814769744873,0.0359463542699813,0.0157416984438896,-0.0175964469671249,-0.0365943945944309,0.0253237167509272,-0.0320621946930885,133
1733294901436996000,1.2278911051392554,-0.6287818871736526,-0.5932777353331447,8.290855560705065,-4.25045116636008,3.0603529085204,0.5535795092582703,0.6235290169715881,-0.2675666511058807,-0.4748736986020287,0.5796572704265907,0.0892349500450421,0.656147469614533,-0.0089707495644688,-0.0328599065542221,4.414911381900311e-05,-0.0040724277496337,0.0062980353832244,0.0046157911419868,0.0294891688972711,-0.0064650326967239,-0.0088888243764638,-0.0095763523131608,0.065330806033872,-0.0206692785412073,134
1733294901476996000,-0.3970943612366914,-0.1249158349573612,-0.2537286773532629,8.25651022351086,-4.094715245725214,3.3516759879916904,0.697152316570282,0.3523744940757751,-0.1513106226921081,-0.4808090447607199,0.565704465600625,0.0953442975245167,0.6631067983706813,-0.0056729577481746,-0.0531938858330249,-0.0151804098859429,-0.0027599334716796,0.0011855363845825,0.0072400644421577,0.0253437347710132,0.0127617456018924,-0.0989437738329172,-0.0165404547005891,0.004835018941015,-0.0489028548568487,135
1733294901516996000,-0.4903437228202819,-0.0925812530636787,-0.3328741102606058,8.246808913707733,-3.9618493285462257,3.530480065003037,0.3445797860622406,0.2314580231904983,-0.079876996576786,-0.4856538477213028,0.5563494848635554,0.1023272455954825,0.6664419384677963,0.013760395348072,-0.0315147452056407,-0.0076286839321255,-0.0017056465148925,-0.0044896006584167,-0.0006651915609836,0.0138882119208574,0.0218769330531358,-0.0951297685027122,-0.023468367755413,-0.0071295230863615,-0.0313899945199489,136
1733294901556996000,0.0722235246896743,0.3022539310693741,-0.4279600396215915,8.176399744963646,-3.9773534794092176,3.673898648117482,0.0640501677989959,0.7241191864013672,0.0620333179831504,-0.4891544366595067,0.5503118826928767,0.0991974086951785,0.6693613570802903,-0.0138115780428051,-0.0449194461107254,-0.0184110905975103,-0.0037555694580078,-0.0085049569606781,0.0004373751580715,0.0088110491633415,0.0230763498693704,-0.0727051707267761,-0.0279515609145164,-0.0047534416047856,-0.0556949992150068,137
1733294901596996400,0.2420166122496128,-0.5034364286273718,-0.9075631727188824,8.0869620506227,-3.905785203757882,3.9390713872879743,0.1381831020116806,0.4436187148094177,-0.1149768084287643,-0.4901471029037667,0.5385519412998252,0.0955251740971225,0.6786697794365647,-0.0462621971964836,-0.0484980978071689,-0.0192376710474491,-0.0028483867645263,-0.0145742297172546,0.0029418468475341,0.0063961958512663,0.025240147486329,-0.0651665919154882,-0.0173878632485866,0.0186558563595637,0.0081979195028543,138
1733294901636996400,-0.5048614929944276,-0.8228323408946394,-0.1448345873922109,8.054976428297161,-3.912150354875624,3.997852954341471,0.1887608021497726,0.064367800951004,0.2269254028797149,-0.4928443837722068,0.5358251598743264,0.0951715328734707,0.6789243377769667,-0.0648979321122169,-0.0489398054778575,-0.0272307489067316,-0.0008322596549987,-0.0124379098415374,0.0011487081646919,0.0202854312956333,0.021146411076188,-0.0774836371749639,-0.0217524841427803,0.0010583134138956,0.0082359134256839,139
1733294901676996400,0.0687175623953342,0.0636368981301784,-0.3971417075097561,8.025030787366628,-3.9498751053750514,4.02091555776,0.218407541513443,-0.1100154072046279,0.1797303408384323,-0.4985657571714632,0.5345135601111013,0.0963619109158432,0.6756048235032606,-0.0797993838787078,-0.0708826631307601,-0.0340495035052299,0.0045666098594665,-0.0096910893917083,0.0018776655197143,0.0281546339392662,0.0167450867593288,-0.0463420644581317,-0.0308671593666076,0.0267551377935335,0.029082886621356,140
1733294901716996000,0.100396895250678,0.1995192405208945,-0.3821256324246525,8.032107009363173,-3.9536274436458942,4.003056075942516,-0.0403907112777233,-0.1124960780143737,-0.0492870882153511,-0.4999841460333147,0.5350897211142648,0.09787713490798,0.6738803988828063,-0.0633176118135452,-0.0670341253280639,-0.0202737729996442,-0.0047436356544494,-0.0010616481304168,0.0004193820059299,0.0378282666206359,0.0065328292548656,-0.0694476302355527,-0.0418093204498291,0.0187734913898631,0.0484673860490322,141
1733294901756996000,-0.0328828634262085,0.1052025419667363,-0.2302630460917949,8.061089942741393,-3.9507393209889528,3.947261123484373,-0.0907654464244842,-0.1958900839090347,-0.0468415580689907,-0.4983388892728098,0.537579653319602,0.0987613760133967,0.6729878279565159,-0.0587982274591922,-0.0654489547014236,-0.0253124739974737,-0.0030769705772399,0.0006780326366424,0.0019620694220066,0.0442597568035125,0.0047620073892176,-0.0666302347272634,-0.0737435817718505,0.0173231099184602,-0.0182055187761783,142
1733294901796996000,0.2222159332364797,0.052555824406445,0.1217073943048715,8.116938086691498,-3.932060047221184,3.850273159894347,-0.018508518114686,-0.3089270293712616,-0.1370342224836349,-0.4960100508181846,0.5416346521727494,0.1016002257164057,0.6710315565785728,-0.0568040534853935,-0.0699395835399627,-0.026601642370224,-0.0016242861747741,-0.0003080070018768,0.0006896220147609,0.0418887138366699,0.002988465828821,-0.0524596705555915,-0.0587203502655029,0.0394497111285105,0.003707622346282,143
1733294901836996400,0.0964297451853752,-0.1557759603843092,0.1308235976964235,8.175237715446949,-3.904640709897876,3.753618958303332,-0.0178967360407114,-0.2237946093082428,-0.0259603038430213,-0.4939704007613135,0.5454811782140521,0.1052091895480546,0.6688606770397237,-0.0184374898672103,-0.0844204649329185,-0.0136203970760107,-0.0006330609321594,0.0014977157115936,0.0034143887460231,0.0353554785251617,-0.0235438887029886,-0.0447831445783376,-0.0434878058731555,0.0344096346020698,-0.0739180536478757,144
1733294901876996400,0.1263064125329256,-0.0604959697559475,0.1840893239378929,8.202372975131869,-3.910886034028232,3.6873344682738174,-0.0207276567816734,-0.1524662971496582,0.0045843282714486,-0.4933921369477473,0.548288479948777,0.1066677142463923,0.6667578153635123,-0.0628241300582885,-0.0348346941173076,-0.0109317358583211,-0.0118494629859924,-0.0130876004695892,0.010576132684946,0.0355738960206508,-0.0212069433182477,0.0236123462557792,-0.0046848729252815,0.0483394853530451,0.018814006063342,145
1733294901916996400,0.1548608913660049,-0.0634065965056419,0.2201855964526534,8.225891213363408,-3.9069273595303295,3.638818566907942,-0.0031814388930797,-0.1300295144319534,-0.0431246422231197,-0.4926772778154877,0.5502679624558993,0.1080604386999214,0.6654299942029147,-0.0349235199391841,-0.0401714034378528,0.002769295591861,-0.006723940372467,0.0017792582511901,0.0040299855172634,0.03063889965415,-0.0268200803548097,0.0149456401973962,-0.0008059081155806,0.0339079686902463,0.026287118422985,146
1733294901956996000,-0.048503041884303,-0.0236938870593905,0.0825493961319327,8.250289157038926,-3.896362126374244,3.594645078660548,0.0301479678601026,-0.1635402590036392,0.0002101904246956,-0.4922682006524403,0.5519294745914779,0.1099907402597091,0.6640390937806873,-0.0660249814391136,-0.0259805358946323,-0.0086352257058024,-0.0070651173591613,-0.0004565119743347,-0.0016070567071437,0.0352912843227386,-0.0186846181750297,-0.0159913498580455,-0.0105457408353686,0.0518180116511881,0.0872545050829649,147
1733294901996996000,0.0215098210185766,-0.0749599639162421,0.1785454260751605,8.270358131599426,-3.8977684860408304,3.54668242726326,0.0304872076958417,-0.1559020727872848,0.0389711745083332,-0.4925037052273343,0.5537800277686833,0.1117909142159847,0.6620200615565824,-0.0472502298653125,-0.0315526686608791,-0.0097850458696484,-0.002548336982727,0.0069148540496826,-0.0028036832809448,0.048582550138235,-0.0063262656331062,-0.0078904609888792,-0.0222007557749748,0.0538290226800367,0.1071159743726253,148
1733294902036996000,0.158445179593563,-0.0316150354474782,0.2931929649963974,8.290392034846544,-3.890834887385368,3.5073028952941296,0.1162340641021728,-0.1657769978046417,-0.023948535323143,-0.4930614534743904,0.5551161459365578,0.1141200574174607,0.6600855438671931,-0.0341136530041694,-0.0402501262724399,0.0149408066645264,-0.0093145966529846,-0.0014884173870086,-0.0008387565612792,0.0482045114040374,-0.0019067106768488,0.0248871884971857,-0.0603648088872432,0.0633161052105948,0.0198065242320299,149
1733294902076996400,0.1231827275544404,-0.022633564351499,0.0994751042306423,8.314582473251223,-3.863903625839949,3.4797067400991915,0.0808564499020576,-0.1053977310657501,-0.018952501937747,-0.4934765578314236,0.5557301932829596,0.1172530475896008,0.6587083206437814,-0.018438022583723,-0.0275194179266691,0.0002099975245073,-0.0137666463851928,0.0002097785472869,-0.0074100494384765,0.0321869067847728,0.0186065882444381,-0.0706260263651609,-0.049798846244812,-0.0001094151912257,0.0517056373178958,150
1733294902116996400,0.0467629202187061,-0.0220800221219658,0.0307321151331067,8.32605897603333,-3.855927824655175,3.461061368601024,0.0749779790639877,-0.1002642288804054,0.0218882374465465,-0.4941713188659161,0.5562058139373456,0.1190381420990456,0.6574645702871091,-0.0296355485916137,-0.0117156328633427,0.0102238161489367,-0.007699966430664,-0.0093388855457305,-0.0030456781387329,0.0136117916554212,0.0216126106679439,-0.0221808521479368,-0.0386443957686424,0.0276784631835296,0.0407464364081621,151
1733294902156996400,0.0973129577606916,-0.0023912790507078,0.0383522347480058,8.338357316592335,-3.848083248634637,3.440123502251505,0.1000425070524215,-0.1171034350991249,0.0157217029482126,-0.4950302708125219,0.5567333827900538,0.1210390691737628,0.6560050415545093,-0.0253156349062919,0.0008737148018553,0.0232366193085908,-0.0123404264450073,-0.0017969906330108,-0.0005967617034912,0.0035055028274655,0.0334873311221599,-0.0441799179881811,-0.0395993776619434,0.018476079345867,0.0530325020074844,152
1733294902196996000,-0.0679892481207847,-0.1360652977421879,-0.0192886378377676,8.349233515393733,-3.854021406511962,3.4069340570941566,0.1638926267623901,-0.1745329648256302,0.1200059801340103,-0.496978125085436,0.5577131222796513,0.1234940340047215,0.6532365864796412,0.0079922545701265,0.0063150320202112,0.0302754901349544,-0.0066986083984375,0.0120359361171722,-0.0030858553946018,-0.0099517619237303,0.0417954362928867,-0.0164770875483751,-0.0577061176300048,0.0525554590802639,0.0501215829968452,153
1733294902236996000,0.2244721877306699,-0.1294543551698327,0.1803624123692512,8.33629512336552,-3.877092485497892,3.412436746163666,0.2440147548913955,0.0727199465036392,0.2003730982542038,-0.501037181228117,0.557075454456759,0.1252241645391485,0.650344206400223,0.0059727793559432,0.004417956341058,0.0123281124979257,-0.0094838142395019,0.0051213204860687,-0.0029467307031154,-0.0291092656552791,0.0604344829916954,-0.0467646737843751,-0.0862782895565033,0.0068383946526795,0.0180903679639101,154
1733294902276996000,0.4615378995746373,0.2179158979550003,0.0578705896884202,8.277148522391915,-3.900945947033167,3.527297051052749,0.150455355644226,0.3339565098285675,0.0917243659496307,-0.5061307600715946,0.5521248218907595,0.1237581622951873,0.6509022753866058,0.0334187857806682,-0.002091129310429,0.0219228826463222,-0.0060952901840209,0.0086280405521392,-0.0039800405502319,-0.0305679664015769,0.0803546458482742,-0.0238455704897642,-0.0755711644887924,-0.0039432212004438,0.0713613549023866,155
1733294902316996000,0.1561655442237854,0.1145516773313283,0.052986617039144,8.228180201083422,-3.9065184864684936,3.634084231862426,0.0511534214019775,0.2593182027339935,0.0300453994423151,-0.5082952139383573,0.5477305783246627,0.121262067622873,0.6533933294680228,0.0057573299854993,0.0292311608791351,0.0329405814409256,-0.0143676400184631,-0.0160858333110809,0.0022988319396972,-0.0275420788675546,0.0647647455334663,0.0256365455597639,-0.0474698692560195,0.0068193976912647,0.0549491492837667,156
1733294902356996400,0.3619038053900003,0.0053352235481143,0.5453922408252955,8.179111342009902,-3.90234733826369,3.747560681177676,0.1997580975294113,0.3475082814693451,0.0167613252997398,-0.5106850060362798,0.5428553602004008,0.119313186916809,0.6559522030644526,0.0064356373623013,0.0350591130554676,0.0359606072306633,-0.0057563781738281,-0.0030023157596588,0.0039408206939697,-0.0276111420243978,0.053201962262392,0.0370920055538415,-0.0414770171046257,-0.003216550893709,0.0224345346480608,157
1733294902396996400,0.6338397550851106,0.3275181361854076,0.0041673488125205,8.144948960167168,-3.8351729136571286,3.888654328475892,0.1842915415763855,0.2482424974441528,-0.2340269237756729,-0.5126395661179449,0.5360162963700407,0.1200846785859937,0.6598990697355047,0.0389022342860698,0.0374513790011405,0.0392357595264911,-0.0028783679008483,0.010306566953659,-0.0079622268676757,-0.022645378485322,0.0180144757032394,0.0008604162216186,-0.0462368205189704,0.0324326719732955,0.0247433961123228,158
1733294902436996000,0.00095101711452,-0.1458785434871912,0.0916267288178205,8.13319948566258,-3.7390132175847888,4.005151586917043,0.2282473295927047,0.2498230338096618,-0.1682592332363128,-0.5126481223649725,0.5300043230893076,0.1220225986864218,0.664377804885289,0.018476853147149,0.0343854986131191,0.0179189536720514,-0.0044347047805786,0.0020005106925964,-0.0048764981329441,-0.0135474894195795,0.0271659288555383,-0.0436421578496694,-0.0506858080625534,0.0063845864705741,0.0024964929908514,159
1733294902476996000,-0.1137614037364721,-0.124103057269752,-0.2307654426559805,8.134934931153058,-3.6482606412529934,4.08453199762404,0.2436080425977707,0.0437729768455028,-0.1635116338729858,-0.5133270308955185,0.5253617840936998,0.1254664281301536,0.6668945914993996,0.0566857568919658,0.0237129833549261,0.0092967022210359,0.0025751590728759,0.0129251778125762,-0.0100401602685451,-0.0201160423457622,0.0376300737261772,-0.0625029256641864,-0.0503446534276008,-0.0011813918042927,-0.0155325001746416,160
1733294902516996000,-0.3187321876615285,-0.0885705561175942,-0.7131272268116474,8.163034651955961,-3.564981177280843,4.10197003915906,0.1334434896707534,-0.1167376562952995,-0.1307287067174911,-0.5132691911509687,0.5233791159439941,0.1301231522967242,0.6676053999348738,0.0176981464028358,0.0135251143947243,0.0035796952433884,-0.001906394958496,-0.0121550261974334,-0.0094099044799804,-0.0113819576799869,0.0449148863554,-0.0794762722969055,-0.0367458872497081,-0.0062569415029138,0.0272802211135625,161
1733294902556996000,0.0335749373435974,-0.1864429013267159,-0.3192582573622465,8.19754073266983,-3.5160403285011648,4.075312041597068,0.0885608196258544,-0.1881010383367538,-0.0739467591047287,-0.5127529263932658,0.5237363265339726,0.133855052848733,0.6669839091381305,0.0047642374411225,0.0128302425146102,0.0091778598725795,-0.0043007135391235,-0.0142297148704528,-0.0015919245779514,-0.0010056989267468,0.0304831806570291,-0.0295399827390909,-0.0288319326937198,0.0102712186455726,-0.0213274501889944,162
1733294902596996400,0.0279717105090618,-0.1099284014448523,-0.3097872491836547,8.224392499238252,-3.5032211789384484,4.0320229349687695,-0.0169707890599966,-0.124868705868721,0.026936650276184,-0.5126378316839039,0.52523282461379,0.1362150014596183,0.6654160370535958,-0.0159836523234844,0.0110153518617153,0.0111695043742656,-0.0025463700294494,-0.0112971663475036,-0.0007945299148559,0.0041785147041082,0.0085244514048099,-0.0047597617477178,-0.0152062317356467,0.0135610539712011,-0.010712532672286,163
1733294902636996400,0.1866296560704708,0.1241772915497422,-0.0059393269211053,8.237370054233073,-3.5136189465731382,3.996325890904665,-0.0562688745558261,-0.0720575228333473,-0.0254771281033754,-0.5119506062348985,0.5269272925819705,0.1363514488800471,0.664577028683384,-0.0357208736240863,0.0034680063836276,0.0004225177690386,-0.0026472210884094,-0.0075037479400634,-0.0035595931112766,0.0184725243598222,-0.0091643538326025,-0.0126303489923477,0.0024427520111203,-0.0200461051415652,0.0641442631304264,164
1733294902676996400,0.1076414595514535,0.0407388376235961,0.0803513015657663,8.2594947922796,-3.5078421167373657,3.955524509438872,-0.0267204381525516,-0.1370440274477005,-0.0337054654955863,-0.5107561396964129,0.5286506756131205,0.1373056363946342,0.6639305402425387,-0.0264296345412731,0.011920453980565,0.0211586225777864,-0.0034422278404235,-0.0074301958084106,-0.0026863813400268,0.0341088101267814,-0.0234245564788579,-0.0194119719564914,-0.0071090506389737,0.0017263854011893,0.0182411746114492,165
1733294902716996000,0.0477326420336961,0.0070040335431694,0.1553898836761713,8.284687685725093,-3.507177223087847,3.9030814977571366,-0.0378364734351635,-0.1370687931776046,0.0038656112737953,-0.5098514221710946,0.5308392987267397,0.1385924604303955,0.6626110112616321,-0.0275287218391895,0.0132054826244711,0.0081890281289815,-0.009525716304779,0.0055381655693054,-0.0028307475149631,0.0352314077317714,-0.0209190119057893,-0.0322872356206178,-0.028814673423767,-0.0065040481317788,0.0170534261316061,166
1733294902756996000,0.1142547402113676,-0.0112263274133205,0.2694382876604795,8.30226192086041,-3.511691777902841,3.86145740173161,-0.0147828310728073,-0.0941611602902412,-0.0018246807157993,-0.5092710090407336,0.5326249151169368,0.1393956952731622,0.6614549264263729,-0.0125548327341675,0.0052191950380802,-0.0074670971371233,-0.0043389797210693,0.0128127634525299,-0.0034053362905979,0.0298130605369806,-0.0240982938557863,-0.0234101016819477,-0.0254747010767459,0.0141729022592306,0.0272591783255338,167
1733294902796996000,0.170953948032856,0.0004001052334904,0.2769622534245252,8.317089487636089,-3.507306986947357,3.833432791991532,-0.0046920012682676,-0.0537425242364406,-0.0439494661986827,-0.5085747166351534,0.5337634587338094,0.1401637983858953,0.6609103587068498,0.0265382416546344,0.0012774500064551,0.0054882494732737,-0.0068130493164062,0.0073828697204589,-0.001755952835083,0.0220333691686391,-0.0269729532301425,-0.0317757789671421,-0.0294334627687931,0.0314968889605253,-0.0030254853010177,168
1733294902836996400,0.0819119750112295,-0.011091010595858,0.1571408189967274,8.331012799048423,-3.4853409465938805,3.823219441013038,0.0289310682564973,-0.0463267788290977,-0.0533918999135494,-0.5080196382396218,0.5338971502544521,0.141505795750849,0.6609432368583475,0.0006661650259047,0.0193145070225,-0.0003883481258526,-0.0093520283699035,-0.0017648041248321,0.0026717148721218,0.0157177075743675,-0.0192121565341949,-0.0451204137086868,-0.0283429659903049,0.0295645326584577,0.0021831892579793,169
1733294902876996400,0.0550286442607641,-0.0293245864227414,0.0567863015830516,8.3439815862149,-3.4703996903106566,3.808503225657344,-0.0003754398785531,-0.0334640480577945,-0.0537922158837318,-0.5074020290998817,0.5343317045951949,0.142513174711921,0.6608501557901153,0.0099731143563985,0.0159346889704465,-0.0009241761872544,-0.0009540915489196,0.0013940036296844,-0.0020924806594848,0.0115642864257097,-0.0011842157691717,-0.0737947195291519,-0.0247826743870973,0.030931875488907,-0.0420551809191703,170
1733294902916996400,0.1384434250503778,0.0342015448093414,-0.0200911863923072,8.356483340391517,-3.445190722513199,3.803976980404556,0.0276959128677845,-0.024285327643156,-0.0732486546039581,-0.506656209984676,0.5342319016428998,0.1436921142104338,0.6612476259769151,-0.0002028245944529,0.0147283840924501,-0.0077323475852608,-0.0064253211021423,-0.0009700655937194,-0.00291383638978,-0.0089637581259012,0.0209712237119674,-0.0735807845175266,-0.0131150903180241,0.0540400716148316,-0.0190074828088283,171
1733294902956996000,0.0264133751511573,-0.0128556821808218,0.0324660993188619,8.365263443696499,-3.4255171770110726,3.8024461175754665,-0.0072301598265767,0.0087234722450375,-0.0275583919137716,-0.5060492540576602,0.5340827322971452,0.144515866161296,0.6616532894916393,0.0255507417023181,0.0200630687177181,0.0148278893902897,-0.0050642490386962,0.0004132986068725,-0.0012460947036743,-0.0232786294072866,-0.0075861010700464,-0.0277273803591728,0.0153659982606768,0.0674561641573905,0.004011573728919,172
1733294902996996000,0.1553226636588573,0.0366647200524807,-0.0018646248281002,8.373721475440263,-3.4148829702720045,3.793381936632096,-0.0013057156465947,-0.0620288476347923,-0.0639182701706886,-0.5053793953711705,0.5343865212819542,0.1449909997621083,0.6618159368790665,-0.0141996005550026,0.0227313954383134,-0.006240511778742,-0.012610375881195,-0.0026109516620635,0.0027287006378173,-0.0154588436707854,0.0063096722587943,-0.0028162264645099,0.0022778566926717,0.0688105744410306,-0.0113449853569269,173
1733294903036996000,0.1276484747916459,-0.0020481647014617,0.0712970574945211,8.394511165490746,-3.384250516121089,3.774837687420845,0.0314887687563896,-0.0630639493465423,-0.0883136689662933,-0.5042492562598525,0.5347991006093153,0.1467199918272095,0.6619635616929079,0.0410559326410293,0.0146838035434484,0.0058658858761191,-0.0102032423019409,0.0097720921039581,-0.0023465156555175,-0.0144379707053303,0.0088643748313188,-0.0124906482607126,0.0020768605172634,0.0579064647193998,0.0185433724284172,174
1733294903076996400,0.0309323138803243,0.0571937133401632,-0.1166378359556198,8.420300271263718,-3.351465560111403,3.7465468279600143,0.0193897243589162,-0.1197401508688926,-0.1066653281450271,-0.5031387508897223,0.5355286488067074,0.1489575052474031,0.6617191211049072,0.0210497342050075,0.0228282809257507,0.0061127608641982,-0.0077146887779235,-0.0045709311962127,0.001024842262268,-0.0161389466375112,-0.0019554551690816,-0.0206938284605741,0.0069796969182789,0.0661556760180741,0.0340811333000659,175
1733294903116996400,0.0685112261682748,-0.0077270871207118,-0.0443038366287946,8.45843798647821,-3.304052067029476,3.70249404348284,0.0307586025446653,-0.1732213348150253,-0.1244427487254142,-0.5013163995930269,0.5367348179395472,0.1521218949899154,0.6614050495575519,0.0413036048412323,0.0229123309254646,0.0087029514834284,-0.002199113368988,0.0039302110671997,0.0044549740850925,-0.0155245773494243,0.0032350928522646,-0.0146370126396417,-0.0047096903435885,0.0590367473909631,0.0131716162621974,176
1733294903156996400,0.0841641378521919,0.0161222827613353,-0.0706540834158658,8.500994102656842,-3.263407921952009,3.6405581040516495,-0.0182503052055835,-0.172024980187416,-0.1212331429123878,-0.4992705000275966,0.5387571750790665,0.1553186910888804,0.6605648356965375,0.0212832912802696,0.0246611759066581,0.0086315115913748,-0.0087956190109252,-0.0077583789825439,1.6812235116958618e-05,-0.0195212308317422,0.0114767644554376,-0.0089010993361473,-0.00958195887506,0.0944005409127101,0.0336257907480001,177
1733294903196996000,0.1572849036425352,0.0441273110181093,0.063540744279325,8.538903854334354,-3.22347689357996,3.587017944782972,-0.0092415157705545,-0.1361392587423324,-0.1167539805173873,-0.4969666133683976,0.5405278009172715,0.1579325155378133,0.6602357101159715,0.0156624242663383,0.0177228953689336,0.0097354594618082,-0.0056252479553222,-0.0031855404376983,0.0021952390670776,-0.0217395387589931,0.0235374793410301,-0.0549725301593542,-0.0114148370921611,0.0559905480954796,0.0274175837576389,178
1733294903236996000,0.0100911859035491,0.0480959223881363,-0.0568318942904472,8.574019591379166,-3.191832339777052,3.53111807064563,-0.0450400114059448,-0.1699644029140472,-0.0987435951828956,-0.4948702289620239,0.5424752346789556,0.1602613608127348,0.6596517785704741,0.0042798081412911,0.0204913057386875,0.0046483553014695,-0.001905083656311,-0.0078001320362091,0.0022667646408081,-0.0205235742032527,0.0190597642213106,-0.0306499898076057,-0.0107772164046764,0.0778515571719035,0.0079793083161115,179
1733294903276996000,0.0567395398318767,0.0042535657912492,0.1326847153931856,8.611916483575104,-3.161906572590768,3.465201829406619,-0.0091762617230415,-0.1793502569198608,-0.116080567240715,-0.4925705848577335,0.5448529688900687,0.1626625947076704,0.6588249631586962,-0.0013101669028401,0.0196944866329431,0.0103573072701692,-0.0036659836769104,-0.0023761987686157,-0.0016539096832275,-0.0143680330365896,0.0191843342036008,-0.0512567245066165,-0.0127718765288591,0.0530839764663949,0.0048240591555833,180
1733294903316996000,0.0361444955706596,-0.0891542012244463,0.1708726994901895,8.653608676400781,-3.1114442133322355,3.4065129090726374,0.0196961071342229,-0.173583909869194,-0.1353516727685928,-0.490300161329089,0.5465578169786686,0.1661045745414221,0.6582472205078393,0.0091062551364302,0.005988688673824,0.0051478310488164,-0.0026529431343078,0.0013415217399597,-0.0011621750891208,-0.0046991575509309,0.0118834748864173,-0.0131242699891328,-0.0096111018210649,0.0780628253024071,0.0256301158189773,181
1733294903356996400,-0.0218809924185276,-0.0111971013188362,0.1190416822269558,8.690238909661769,-3.0704397105097767,3.3500071779966354,0.0045861564576625,-0.1661068797111511,-0.125778466463089,-0.4883448516539366,0.5482676844415022,0.169114504570867,0.6575121871630755,0.0081986496224999,0.0054680937901139,0.006527348421514,-0.0034422278404235,-0.0025238990783691,0.0001039505004882,0.0030994424596428,0.0012884987518191,-0.0279874926000833,-0.0047898991033434,0.0686615213591605,0.0119353524655103,182
1733294903396996400,0.1284247198611497,0.0645303398385643,0.1162596502929925,8.749574311205745,-3.006704904963076,3.251933172735572,0.0451949909329414,-0.3141523599624634,-0.1629029512405395,-0.4854630246366977,0.551206644614954,0.1742664080653569,0.655841576232298,0.0049605122767388,-0.0014161244034767,0.0067534511908888,-0.0039411187171936,-0.0038922131061553,-0.0001430585980415,0.013950228691101,-0.0029863282106816,-0.0840413882553577,-0.0121838375926017,0.0361347048290073,-0.0286141000658273,183
1733294903436996000,0.1702688883781433,0.0045496261283755,0.3530404077157378,8.818163863307237,-2.918592321746051,3.1451880775019525,0.1441796869039535,-0.3337858915328979,-0.2428368926048278,-0.4823627368237024,0.553952073635893,0.1810445880197695,0.6539772542617548,-0.0014238837175071,-0.009606409817934,0.0032877463381737,-0.0065231323242187,-0.0083080530166625,0.0009938403964042,0.0087336841970682,0.0024251355789601,-0.0544166498422622,-0.0081272879615426,0.0286952024780213,-0.0606564210146665,184
1733294903476996000,-0.0307645560979843,0.0160465871766209,-0.0298854351758956,8.878387153601645,-2.831328464312852,3.0542113370254635,0.100277192890644,-0.2828563749790191,-0.1684656739234924,-0.4801917498633536,0.5558349198297663,0.1879524000122824,0.6520255753573421,-0.0209970511496067,-0.0042235222645103,-0.0022387125063687,-0.0059370994567871,-0.0005943775177001,0.0012162998318672,0.0074454331770539,-0.0059255794622004,-0.0001554828226566,0.0058648660778999,0.068077036002092,-0.0104570966064929,185
1733294903516996000,0.1343301445126533,-0.1154530100852251,0.2376359129473567,8.921589166468381,-2.742326238779724,3.0092011056929824,0.064301922917366,-0.1117652952671051,-0.1900010704994201,-0.4779738470021662,0.5560849807357229,0.1932431867433157,0.6518954521331971,-0.023614939302206,-0.0039478852413594,0.0005958896363154,-0.008241593837738,-0.0065243542194366,0.0032436847686767,0.0024238554760813,0.0165109690278768,-0.0921089593768119,0.0142115335911512,-0.016124255522713,0.0040372926920652,186
1733294903556996000,-0.0571060350567102,-0.0792781193763017,-0.0192538587853312,8.955455195713043,-2.6900647211447355,2.9552929898947475,0.0299452636390924,-0.0900568664073944,-0.0847396776080131,-0.4761125610466097,0.5572903789745657,0.1968487199018185,0.6511488614820347,-0.0308752506971359,-0.002176723210141,-0.0035126355942338,-0.0034887790679931,-0.00108402967453,0.0015554502606391,-0.0018167239613831,-0.0064097121357917,-0.0006160860717296,0.0145199783146381,0.0390788685221225,0.0159656308948993,187
1733294903596996400,0.1124064819961786,0.0146659464731812,-0.0066872226789593,8.976880261057614,-2.666842835511267,2.9110034740522504,0.0598796010017395,-0.1587506085634231,-0.0898825675249099,-0.4749666874387533,0.5585848283233802,0.1989047946547438,0.6502510340505949,-0.0280272662639617,-0.0061335945501923,-0.0074112368747591,-0.0060154795646667,-0.0009366869926452,0.0029463768005371,0.0024509639479219,-0.0014155814424157,-0.0231833071887493,0.0114529822021722,0.0291160582385957,0.0570540126085281,188
1733294903636996400,0.1137333466857671,-0.0645379386231303,0.1216036416694521,9.013114188477395,-2.605446117523313,2.854090038958192,0.1650573462247848,-0.2341359257698059,-0.1482781320810318,-0.4739929628282661,0.5593691308249709,0.2039315500375112,0.6487287226684569,-0.0018803495913743,-0.0071018668822944,0.0093617504462599,-0.0064185857772827,0.0023505985736846,0.000893585383892,0.0200080554932355,-0.0162233524024486,-0.0029383915394544,-0.0032787946984171,0.0585537131143733,0.0297410582691431,189
1733294903676996400,0.0932552068024873,0.0227589442968368,-0.0695838238358497,9.061274116012454,-2.527243518424034,2.770692209303379,0.126797929406166,-0.3136453032493591,-0.2068400382995605,-0.4721242462741905,0.560858261852376,0.2101714096268024,0.646811184110328,-0.0214375406503677,-0.007505708374083,-0.0074987215921282,-0.002386450767517,-0.0046541988849639,0.0030035972595214,0.0311935432255268,-0.0340471044182777,-0.0324035554766654,-0.0146955186501145,0.0425182683862745,0.0243868377596139,190
1733294903716996000,0.0088350483626127,-0.0813172239884734,0.0760465901091694,9.103048726424577,-2.454142334116995,2.6985338588044048,0.1059029027819633,-0.1549188792705536,-0.0844389647245407,-0.4706124426111573,0.5619287142370544,0.215984211206068,0.6450666159129188,-0.0203616209328174,-0.0056669553741812,-0.0022961036302149,-0.0051012635231018,-0.0046296715736389,0.0021152570843696,0.0279038660228252,-0.0296889226883649,-0.0388876567989587,-0.0241812840104103,0.0591377966126427,-0.0164092830091714,191
1733294903756996000,0.0596124649196863,0.0640251667954027,-0.1678755635008215,9.12364610877335,-2.423810031956434,2.6560496388182044,0.0198242049664258,-0.1628151535987854,-0.088991105556488,-0.4696916273699603,0.5628475762806676,0.2185904142512213,0.6440578733252166,-0.0391651391983032,-0.0058319647796452,0.0038128548767417,-0.0059455037117004,-0.013657659292221,0.0041668489575386,0.0212711356580257,-0.0035879127681255,-0.0215279411971569,-0.0105835702270269,0.0607330664474517,0.0024070611417293,192
1733294903796996000,0.0354670347005128,-0.0052501756131649,0.0366556599631905,9.15497472849488,-2.375633737808466,2.590980369797349,0.0603260360658168,-0.2196389734745025,-0.1429820209741592,-0.4677792859917397,0.5643626180779713,0.2222422272159122,0.642873011925016,-0.0430482923984527,0.0056724115274846,-0.0009890240617096,-0.0068856477737426,0.0007112622261047,0.0035732984542846,0.0172249190509319,-0.0065222438424825,-0.0327016616404056,0.0024096341803669,0.0445192694777622,-0.0042231706529855,193
1733294903836996400,0.2299596792310476,-0.2085233618400991,0.3275000160068273,9.185986537352203,-2.314666058887541,2.5358158241972326,0.0917993783950805,-0.0551222339272499,-0.1027346178889274,-0.4659681486823914,0.5652003580121931,0.2264021523077554,0.6420002507184774,0.0072164759039878,-0.0003950151440221,0.0207309853285551,-0.0084803700447082,0.0047786831855773,-0.0041347742080688,0.0074979336932301,-0.0003615315072238,-0.027969372421503,-0.0037782303988933,0.0613031579529866,-0.0039367549270391,194
1733294903876996400,0.103498368397355,-0.0945301951743662,0.1572358038038015,9.184507696971297,-2.294284511246532,2.559584530058503,0.0579352863132953,0.1155350878834724,0.0091449785977602,-0.4667213084415898,0.5637035184845766,0.2274551610847369,0.6423968881409945,-0.0043749324977397,-0.0010495670139789,0.015247669070959,-0.0037946701049804,-0.0063552260398864,-0.0033518075942993,0.0086169438436627,-0.0061584683135151,-0.0043880058258771,0.0107726724818348,0.0760461151851341,0.0597375526040792,195
1733294903916996400,0.0156821377784013,-0.0578967470429837,0.1696256220385432,9.168477184146642,-2.298147616415471,2.613035257478058,0.0680546313524246,0.1220165938138961,0.0360933057963848,-0.4681399196545395,0.5616591584136263,0.2265199120265974,0.6434849462686028,-0.0113002164289355,0.0028565980028361,0.0138005074113607,-0.0038254261016845,0.0001231729984283,0.0019913911819458,0.0110446317121386,-0.0021629026159644,-0.0011000701963901,0.0015375474467873,0.0536233075074851,0.0251034615963697,196
1733294903956996000,0.1471820273011923,0.026972616469115,0.0685965663641691,9.161324389782548,-2.287398404994607,2.647325941875577,0.1581287980079651,0.0229570362716913,-0.0232952181249856,-0.469890817506994,0.559721231067244,0.2274556764251677,0.6435671797905681,-0.0217392742633819,0.0070070810616016,0.0069212964735925,-0.0067999958992004,0.0028836727142333,-0.0032701417803764,0.0066535635851323,0.0072966506704688,-0.0537117164433002,-0.0133451502770185,0.037993265242502,0.0283574949562549,197
1733294903996996000,0.0575625466525554,0.0620128040596842,-0.0368570277541875,9.159664932137726,-2.2652768818184734,2.671975522224605,0.0999304056167602,0.0499691292643547,-0.0098952911794185,-0.4712989303237694,0.5579135420320275,0.2291280175572119,0.6435139592697317,0.0325481966137886,-0.0036356027703732,0.0250428430736064,-0.0059955120086669,0.0079337954521179,-0.0065298117697238,0.0006674593314528,0.0157415829598903,-0.0531365469038486,-0.0279551595449447,0.0291146699991077,-0.0178711722552776,198
1733294904036996000,0.0539817655563354,0.0804326962389051,-0.1059288104146718,9.15471636981964,-2.2566123677171763,2.696155731496215,0.0447151996195316,0.0391157828271389,-0.0084614222869277,-0.4721820303123084,0.5566399581684335,0.2295349162450216,0.6438243749014372,0.0269781947135925,0.0083497408777475,0.0203725229948759,-0.005854845046997,-0.0023108124732971,0.0026822090148925,-0.0004370749229565,0.0080883232876658,0.0571434444576501,-0.0166944414377212,0.1071469175001606,0.0139601362913846,199
1733294904076996400,0.0814344206273555,0.0208763454206287,-0.1635726056098937,9.155245946651696,-2.245987513328344,2.703222016620636,0.0214199442416429,-0.018320508301258,-0.0020167382899671,-0.4724280507121578,0.5560685788825959,0.2301342299036886,0.6439237818108404,0.0107238590717315,0.0074718026444315,0.0097132874652743,-0.0070469379425048,-0.0087885856628417,0.0003491640090942,0.0028613829053938,0.0234541911631822,-0.0754448248237371,0.0017586257308721,-0.003196457953751,0.0392553210675716,200
1733294904116996400,0.100857498499751,0.0073838266409933,-0.1203156476855278,9.15542539487183,-2.252097374510765,2.697524097239971,-0.0395084545016288,-0.0046926657669246,0.0347782596945762,-0.4724578182729212,0.5563862355222418,0.2299976252815172,0.643676271681355,0.0101984180510044,-0.0094190826639533,0.0083766477182507,-0.0055804252624511,-0.0032581090927124,-0.0062079429626464,0.0049358559772372,0.0099898632615804,-0.0568009146302938,-0.012477041222155,0.0236717482928186,-0.0396019425481557,201
1733294904156996400,-0.042975218373537,-0.0718934159524738,0.0454907083258032,9.144831520143152,-2.28609579796344,2.704847864256799,-0.07418904453516,0.0751817747950553,0.1054540425539016,-0.4728422981225246,0.5568752978751333,0.2279935082931173,0.6436838919637163,-0.0335759632289409,-0.0018870779313147,-0.0016106724506244,-0.0037500858306884,-0.0074851810932159,-0.0025533437728881,-0.0070242285728454,0.0320045091211795,-0.050036242800951,-0.0081692561507225,-0.0011822685871273,0.047307694619894,202
1733294904196996000,0.2322971822679042,-0.0112977852143347,0.2177174527734517,9.13022840977311,-2.319158255740255,2.7259537806496024,0.0499766804277896,0.0296083930879831,0.0328795611858367,-0.4740173306353527,0.556631633064852,0.2262217196030907,0.6436555984503161,0.0162600390613079,-0.0100117428228259,0.0041928878054022,0.0005323886871337,0.013088971376419,0.0016766749322414,0.0019780425354838,0.0137044601142406,-0.0065063131541013,-0.0038866056129336,0.025541633817926,-0.010546528455615,203
1733294904236996000,0.1295043317914009,-0.0084052786432206,0.0961851227745413,9.124984079378844,-2.3216019956305622,2.7413930495828387,0.0391949377954006,0.0497281290590763,0.0346543230116367,-0.4750996828196424,0.5558346139512834,0.2264414508115702,0.6434691685975767,0.0268290601670742,-0.0135798463597893,-0.0002263614442199,-0.0074191689491271,0.0011715590953826,-0.0005056858062744,0.0080462154000997,0.0032524457201361,-0.0669189885407686,-0.0140785071998834,0.0146153853297233,-0.0118821609735488,204
1733294904276906000,0.1283656831502914,0.0123110539101064,0.0887786459103226,9.113101333883405,-2.335285068546236,2.769149656036496,0.0517921559512615,0.0620680637657642,0.0616499558091163,-0.47647929947541,0.5548306713182697,0.2257777383506731,0.6435485158114124,0.0345469005405902,-0.0147699061781167,0.0247745309025049,-0.0060698986053466,-0.0149711370468139,0.0015697479248046,0.0083710579201579,-0.0019627092406153,-0.0450619341202545,-0.0053916587494313,0.0195044588458025,-0.0456403733290266,205
1733294904316906000,0.1562830331236123,0.1550884165115654,0.0469967289745807,9.104040075549484,-2.3418925039872525,2.7932746279895304,0.0650453940033912,0.0323152989149093,0.0089505678042769,-0.4779130447207311,0.5537441627169842,0.2257211421785783,0.6434411631170754,-0.0419558659195899,-0.00027187060914,-0.0017037499928846,-0.0004785060882568,-0.0209286212921142,0.0085045173764228,0.0041478532366454,-0.0002465773141011,-0.0456815547227859,0.0023718038573861,0.0171207192141562,-0.0157218852669,206
1733294904356906200,0.1020066685348749,0.0585410362958908,-0.0840919493988156,9.104895231074094,-2.3340799305401743,2.7970217055633664,0.0217592436820268,-0.0241829007863998,-0.0166938733309507,-0.4783137486766062,0.5532933274292247,0.226402466261903,0.6432917862551747,-0.0191405639052391,-0.0051112072542309,-0.0044386833906173,0.0001933574676513,0.0031279921531677,-0.0016572475433349,0.0079646930098533,0.0067849373444914,-0.040832361125946,-0.0028709941543638,0.0192700062025338,0.0147802205026149,207
1733294904396906200,0.1139782613575458,-0.0132664549387991,0.0422115405246615,9.1078873986274,-2.3279633473560213,2.792373002974689,0.0096726920455694,-0.0123007614165544,-0.0017138894181698,-0.4782315883123088,0.5533138388394303,0.2268752701135986,0.6431686276757278,-0.0271566770970821,-0.0077593480236828,-0.0058336467482149,-0.0064414143562316,-0.0045815110206604,-0.0057729557156562,0.0144867822527885,0.0023717009462416,-0.0318815774291753,0.0002873577177524,0.0165146430797874,0.0303226575493812,208
1733294904436906000,0.0296317526757717,-0.0813787449173629,0.0707388390898704,9.108138158518075,-2.3285348636336622,2.7910800405547023,0.0262635517865419,-0.0031359826680272,0.0174951069056987,-0.4784445539386474,0.5532928746153822,0.2270715964492531,0.6429590010422741,0.0087880073115229,-0.0075808628462255,-0.0007074613822624,-0.0038132667541503,0.0075459480285644,0.0014491155743598,0.0168952085077762,0.0018046898767352,-0.0255856921553611,-0.0064743245020508,0.0168153795920312,0.0069978960633277,209
1733294904476906000,0.0720505062103271,-0.089672233749181,0.0133414198711514,9.109562638363242,-2.328770718216151,2.786228508870304,0.0326534062623977,-0.0370934642851352,0.0132724288851022,-0.4788757159400559,0.5532959948206285,0.2276080550343525,0.6424454145580399,0.0046598413027822,0.0005153598031029,0.0023986496962606,-0.0085212588310241,-0.0039185583591461,0.0048780404031276,0.0120744928717613,-0.0045637506991624,-0.0305073664665222,-0.0072143780998885,0.0174896255917847,0.0179383922725915,210
1733294904516906000,0.1450783330202102,-0.0105745855063199,0.0286485868573188,9.110755647540092,-2.330954784256965,2.780498148524761,0.0339191481471061,-0.0180139876902103,0.0097553338855504,-0.4793366626858796,0.5533636102131553,0.2280850060146002,0.6418740535033857,0.0195045657455921,0.0027646122034639,0.0048140701837837,-0.0026559829711914,0.0014678537845611,0.0019457265734672,0.0077332477085292,0.0029177190735936,-0.0352349795103073,-0.0112480893731117,0.0070095865011215,-0.0005512041419744,211
1733294904556906000,0.1250958676993847,0.0749896284021437,-0.0690565850913524,9.11053703635335,-2.3309259965538978,2.7812381532371044,0.0093994997441768,0.0076975105330348,0.0052654091268777,-0.4796885557465247,0.5532149814196663,0.2283626616331706,0.6416405567445435,-0.0016651661135256,0.0091173173859715,-0.0075679644942283,-0.0047090053558349,-0.0080136656761169,0.0008748732507228,-0.0018272246234118,0.0138310780748724,-0.0008639233529567,-0.0100176744163036,0.0467028605945408,0.0236895031452178,212
1733294904596906200,0.0250461784511804,-0.011706512145698,-0.0113973000660538,9.11017930895686,-2.3341622019961474,2.779692969621718,0.0056789903901517,-0.012357966043055,0.0159056391566991,-0.4797511639298197,0.5533213148130978,0.2282775281200657,0.6415322371577321,-0.0009304000996053,0.0128113869577646,-0.0036281500943005,-0.0028806328773498,-0.0041779577732086,0.0015134811401367,-0.0041637187823653,0.0005381004884839,-0.0603629910260438,-0.0131521299481391,-0.0003578004617244,0.0247469032436609,213
1733294904636906200,0.0916349121242761,-0.0875786224707961,-0.0195335525095462,9.111825907120108,-2.3355029490806163,2.773164444635808,0.0190515667200088,-0.0322096869349479,0.0183344297111034,-0.4799668510640223,0.553478723882885,0.2286247183189846,0.641111462951789,0.0094292964786291,0.0065147690474987,0.011159517802298,-0.0077947974205017,-0.0017028152942657,-0.0037833452224731,0.0027436749078333,0.0042355777695775,-0.0265367092698812,-0.0102661671116948,0.0299194835759699,0.0293915141791105,214
1733294904676906000,0.0474111549943685,-0.1041793363988399,0.045455637012422,9.112207015392183,-2.3462860627710818,2.7627932727470994,0.0217761620879173,-0.0258355643600225,0.0455366820096969,-0.4804532184109479,0.5538939403340555,0.2287755320526366,0.6403343361330833,0.0064247180707752,0.0131326178088784,-0.0003178409533575,-0.0059064626693725,0.0032456517219543,0.001721866428852,0.0013926100218668,0.0004088699351996,-0.0405155502617359,-0.0086503662168979,0.0219637753311544,0.0084328973025083,215
1733294904716906000,0.0810655873149633,0.0211260823979973,0.0144254157155752,9.10997531081736,-2.355921467731148,2.761950684443116,0.0229370556771755,-0.0052149044349789,0.0266152322292327,-0.4811697799729306,0.5539055644965508,0.228841285486662,0.6397624243983014,0.0423984304070472,-0.0010080215288326,0.0069149052724242,0.0004918575286865,0.0051794946193695,-0.0003859996795654,0.0007507032132707,-0.0021981808822602,-0.0342845469176769,-0.0130686927586793,0.030456001605466,0.0198363348484039,216
1733294904756906000,0.108593645709753,0.0557283169627189,-0.0261962252691388,9.110129624596238,-2.3622424874462187,2.7560347383975983,0.0009227551054209,-0.0321738272905349,0.0075297807343304,-0.481436042887444,0.5541501426465468,0.2289081856946045,0.6393262045763737,0.0177708491683006,0.0061321798712015,0.0073456047102808,-0.0105508565902709,-0.0124897956848144,-0.0004656314849853,0.0011282390914857,-0.0020868997089564,-0.0235088858813047,-0.0069183926098048,0.0457938559908419,0.0229220259040594,217
1733294904796906000,0.1237228257805109,-0.0273567934811115,0.0665206368729472,9.11250979773104,-2.364151535937935,2.7465166762068867,0.012543573975563,-0.020365223288536,0.0151637233793735,-0.481507537327307,0.5544634593170181,0.2292092814135596,0.6388927669992903,0.0077485754154622,0.017030207440257,0.004948959685862,-0.0009032487869262,-0.0058012008666992,0.0037771463394165,-0.0010910052806138,0.0021112053655087,-0.0114098672866821,-0.0102967219427227,0.0521540386725217,0.01671031178236,218
1733294904836906200,0.1213625263899564,0.0517433389797806,0.0353849093750119,9.113820880329609,-2.367235765688866,2.739494814746082,0.0119414385408163,-0.0266810320317745,0.007886272855103,-0.4816779915503252,0.5546941899155142,0.2294318990630265,0.6384837889954456,0.0297715850174427,0.0089341448619961,0.0113807599991559,-0.0032025575637817,0.0033867061138153,-0.0007115639746189,-0.0062292185612022,0.0129203274846076,-0.0100642978966236,-0.0147868916392326,0.0526017824400216,0.0317260946065187,219
1733294904876906200,0.0950719008356332,0.0222761292159557,-0.0411471261635422,9.11601985167861,-2.368892739115655,2.7307331238806247,-0.0062903482466936,-0.0246931426227092,0.012428130954504,-0.4817548908751293,0.5549753521617969,0.2297253178250093,0.6380758328455234,0.0019791033118963,0.0154931368306279,0.0114758349955081,-0.0106175541877746,-0.0126078426837921,-0.0016888380050659,-0.0061041638255119,0.0101086199283599,0.0005412672698497,-0.0155784888193011,0.0576068972509354,0.0532505286723375,220
1733294904916906200,0.0585065495043993,-0.0140454764872789,0.0689133772283792,9.116822400233149,-2.371926115462184,2.725419527642429,0.0028613386675715,-0.0192256737500429,0.0060053863562643,-0.4816544502361025,0.5552497938426573,0.2296517982132356,0.6379395160348211,0.0097289020195603,0.0199144650250673,0.0228269603103399,-0.0036503076553344,-0.000653862953186,0.0007668733596801,-0.006134046241641,0.0101643512025475,0.0028875381350517,-0.0199522506445646,0.0459571567937731,0.0454115056097507,221
1733294904956906000,0.0277706349790096,-0.0813219001635909,0.0708744481682777,9.118827894836665,-2.374530745002627,2.7164254893258213,0.0117306374013423,-0.0234889388084411,0.0269727762788534,-0.4817279236887312,0.5555626542471096,0.2298934184811898,0.6375244136457175,0.0044955243356525,0.0163159482181072,0.0054838554933667,-0.001992642879486,0.0022107362747192,-0.000873327255249,-0.0040039150044322,0.0106200193986296,-0.0036386487632989,-0.0266959182918071,0.0467724186994135,0.0519447067707777,222
1733294904996906000,0.0788064102113246,0.0194506965316832,0.0074722355768084,9.120014474272727,-2.381629471091926,2.706205416345596,0.0157363414764404,-0.0476208925247192,0.0240246448665857,-0.4821140360915318,0.555912807429725,0.2301800786658784,0.6368233828522626,-0.0014617005363106,0.010551162995398,-0.0028604939579963,-0.0026137232780456,-0.001451551914215,-0.0053856372833251,0.0048873955383896,0.0133881578221917,-0.0098790044575929,-0.037674318999052,0.056176133795455,0.0471159714400768,223
1733294905036906000,0.0348901115953922,-0.0263259891286492,0.0872524592563509,9.121436031508445,-2.390620586799085,2.6934634236723185,-0.0017383540980517,-0.029547793790698,0.0354534424841403,-0.4823026910673095,0.5564579867904441,0.2302739559208338,0.6361703069118732,0.0035290631931275,0.0099914735183119,0.0086464919149875,-0.0120264291763305,-0.0027717649936676,-0.0044362545013427,0.01026102155447,0.0064625144004821,-0.0159966105550527,-0.0380418486893177,0.0481675993848592,0.0351806189745664,224
1733294905076906000,0.1184866786926984,0.0402631829358637,0.0697787618860602,9.12073694332838,-2.40154427800402,2.6860964020356533,0.0069541120901703,-0.0096138445660471,0.0280488543212413,-0.4826835067369174,0.5568189491952847,0.2302169679989099,0.6355858229625551,0.0054262988269329,-5.796545883640647e-05,0.008336566388607,-0.0077347159385681,0.0017897188663482,-0.0038549900054931,0.0112348003312945,0.0048916060477495,-0.0179343006193637,-0.0378562621772289,0.0362902607169002,0.0101911391466856,225
1733294905116906200,0.1187508825868368,0.0594274637416005,0.0478337643206119,9.119575498333573,-2.410682839357853,2.6818554034650326,-0.0167881809175014,-0.0172558445483446,0.0217173136770725,-0.4828719784931436,0.5571096527530982,0.229983171183234,0.6352726471363157,0.0155532350763678,0.0051102712750434,0.0056246034801006,-0.0057315230369567,0.0046578049659729,0.0019241645932197,0.0077671278268098,0.0093775261193513,-0.014108604851365,-0.0310301706194877,0.0580189851831644,0.0505249031007289,226
1733294905156906200,0.1779313858300447,-0.0019895663820207,0.1750032234236598,9.119500679531694,-2.415255700231344,2.6779870375990864,0.0166948623955249,0.0061598448082804,0.0087793339043855,-0.4829485019113396,0.5573142935126095,0.2299161479783954,0.6350590462502795,0.0024017470423132,0.0163533929735422,0.0059893894940614,-0.0084743499755859,-0.0066941380500793,0.0045670233666896,0.0060860710218548,-0.0010341061279177,-0.0436462495028972,-0.017693068832159,0.0305806508984416,0.0390367098808288,227
1733294905196906000,0.0594645808815956,0.0272324364490807,-0.0205295778095722,9.118408208119869,-2.4139520702868698,2.682881823903322,0.0173104666173458,-0.0103611014783382,0.0089070098474621,-0.4833561610072336,0.5569856746526815,0.2301696217500724,0.6349454490148916,-0.0003333194181323,0.0052364519797265,-0.0033702896907925,-0.0024398565292358,0.0014790594577789,-0.0031596347689628,0.0147089501842856,0.0017277596052736,-0.0286199452847242,-0.0171084236353635,0.0444230790942907,0.0245727157205343,228
1733294905236906000,0.1359025083959102,0.0236931564070284,0.0706681119412183,9.120081109768153,-2.4153509772993624,2.6759303973302244,-0.0058594848960638,-0.0192218162119388,0.0020856633782386,-0.4833878022161316,0.5572196452998238,0.2303731514646074,0.6346423079675045,0.0022699204273521,0.0010945440735667,-0.0031198193319141,-0.0076243877410888,0.0004462897777557,-0.0036855936050415,0.0149765023961663,0.00060642499011,-0.0312380188286304,-0.008217996917665,0.0322919117957353,0.0121089554667472,229
1733294905276906000,0.0214274034321308,3.28793562948e-05,0.0475374117225408,9.11978417264819,-2.411891922886669,2.6800565373495218,0.0162242352962493,0.0170074142515659,-0.0061982781626284,-0.4834017618141877,0.5570025091224499,0.2304416301207028,0.6347973305525061,0.0175016038119792,-0.0016944778617471,0.0057658175937831,-0.0055384039878845,0.0073482394218444,-0.0029271878302097,0.0045581124722957,0.0006299293017946,-0.0270884979337453,-0.0064183394424617,0.0272432501040399,-0.0020323826104402,230
1733294905316906000,0.0458089804947376,0.0032506723590195,-0.065856912267208,9.121140263432263,-2.410620149385184,2.676584477324784,0.0263650864362716,-0.0415503494441509,0.0136622814461588,-0.4836246111902413,0.5569942102103234,0.2308454485660906,0.6344880878212195,0.0165724270045757,0.0065193502232432,-0.001251611742191,-0.0031050443649291,-0.0002740323543548,0.0043362379074096,-0.0022334307432174,0.0052187559194862,-0.0419546431541442,-0.0054207183420658,0.0346036228042095,0.0220347216755151,231
1733294905356906200,0.1798807663321495,0.0057432198271155,-0.0074134911268949,9.12278978420496,-2.413262772848457,2.6685686363905665,-0.0250254869461059,0.0022850784007459,0.002789087826386,-0.4836438376942799,0.5572958712041207,0.2310025465440074,0.6341512714121171,0.0166869424283504,-0.0007353138644248,-0.0067146206274628,-0.0038971304893493,0.0002713799476623,-0.0003073289990425,0.008213403634727,0.0143334623426198,-0.0217787010878324,0.0053446302190423,0.0632067630846053,0.0389238971561193,232
1733294905396906200,0.0291641351640224,0.0105973818600177,-0.0732686498284339,9.12341989880204,-2.417967005016654,2.662149124737084,-0.0260316804051399,-0.0374558344483375,0.0095283249393105,-0.4833923171187543,0.5577000169452888,0.2307354826912382,0.634084957774489,0.0169703029096126,0.0071968045085668,0.0089631415903568,-0.0059761404991149,-0.0070949494838714,8.579343557357788e-06,0.0242871344089508,0.0130081009119749,-0.0249549930363893,0.0188825279474258,0.0577956978213042,0.0302694660574197,233
1733294905436906000,0.1176098958581686,0.0405412692248821,-0.007152209842205,9.125953801193832,-2.425614889421314,2.646460557217896,-0.0482156202197074,-0.0011865218402817,0.0126677565276622,-0.482921237768881,0.5585375263759806,0.230442834177557,0.6338131168990495,0.0305036902427673,0.0092271454632282,0.0139373280107975,-0.0049788355827331,0.0034979581832885,-0.0005751773715019,0.0239485837519168,0.0060889418236911,-0.0379798943042755,0.0193938799202442,0.049729880265519,-0.0226595755755901,234
1733294905476906000,0.1132031853318214,-0.0465419709444046,0.0587082095563411,9.125123195588587,-2.4325042105436325,2.642998726326227,-0.0266159977763891,-0.0064971898682415,0.0006801967392675,-0.4825493577674447,0.55895066216015,0.2298232615488391,0.6339570744793159,0.0518382713198661,-0.0039103343151509,-0.0019724629819393,-0.0002713799476623,0.0114510655403137,-0.0019141510128974,0.0078483894467353,0.0073134638369083,-0.0579337180525064,0.0074157873168587,0.0278562674358487,-0.0572433977007865,235
1733294905516906000,0.1502864230573177,0.0144249773241579,0.0435796140074729,9.125898271614313,-2.4333169882312418,2.63957196674794,-0.0232646949589252,0.0134657965973019,-0.0032679815776646,-0.4822657468116578,0.5591772948906183,0.229651979041591,0.6340351190648126,0.0488480739295482,-0.0054262592457234,-0.0008986764005385,-0.0062665343284606,-0.009708285331726,-0.0015443488955497,-0.0100831482559442,0.0102742258459329,-0.0410509723126888,0.0080686453729867,0.0327866365101188,-0.0253244108706712,236
