time_imu,phone_acc_x,phone_acc_y,phone_acc_z,phone_gravity_x,phone_gravity_y,phone_gravity_z,phone_gyro_x,phone_gyro_y,phone_gyro_z,phone_ori_w,phone_ori_x,phone_ori_y,phone_ori_z,watch_gyro_x,watch_gyro_y,watch_gyro_z,watch_acc_x,watch_acc_y,watch_acc_z,headphone_gyro_x,headphone_gyro_y,headphone_gyro_z,headphone_acc_x,headphone_acc_y,headphone_acc_z,frame_imu
1733378164637891800,2.431329906067252,19.366101016676424,0.5958908404409885,0.320505736672692,9.801410345780848,-0.0027276773918551,-0.1941810995340347,-0.2067235112190246,-1.505356788635254,0.5792140752792668,0.5658116434619261,-0.4242596574791918,-0.4054280657164757,0.3074618875980377,0.0932121202349662,0.2303233593702316,-0.1399917602539062,-0.0259549617767334,-0.0347111299633979,-0.1442123651504516,0.0437576994299888,-0.5422270547926425,-0.0403675958514213,-0.8091317323222756,0.5321601265475153,0
1733378164677892000,4.700711885116994,11.92123158569932,-1.497819806665182,-0.5222315107945352,9.79238182067275,0.0831458824540488,-0.371059387922287,-0.4552824795246124,-2.5194997787475586,0.5608941786236274,0.5783646319144414,-0.4015658008099084,-0.4354732354363453,0.2440765351057052,0.1979500502347946,0.2754084765911102,-0.0891275405883789,-0.0178547799587249,-0.0299351215362548,-0.2922966480255127,0.1437352895736694,0.1739326715826988,-0.0307406745851039,-1.0683692362248898,0.3831928232647478,1
1733378164717891800,4.263265347486734,-3.0797412073403594,-0.8618237503290176,-1.4616002000316977,9.6941710372895,0.2390319338830187,-0.1036165356636047,-0.7277826070785522,-2.2096476554870605,0.5381711932552367,0.5879791462947725,-0.3769526311794917,-0.4717614900273019,-0.0364081226289272,0.3092561066150665,0.1961162686347961,-0.0092286467552185,-0.0014053881168365,-0.0355498790740966,-0.4353465735912323,0.1901201903820037,0.2455944707363843,0.0358106456696987,-1.0862788407944142,-0.0063736266851425,2
1733378164757891800,2.989178892883658,-15.230226369827983,-0.2786293098539114,-2.155847223675996,9.5647970538795,0.1933355834499001,0.4660002887248993,-0.2573969662189483,-1.4557565450668335,0.5133435691944107,0.5980029945390116,-0.3640536323962062,-0.4963222838754563,0.0932601317763328,0.192427858710289,0.0302973352372646,0.0817944407463073,0.0917337536811828,-0.0838621258735656,-0.4271563291549682,0.0499557107686996,-0.1017670145601034,0.1526913493871688,-0.8775555724680423,-0.4543307446748018,3
1733378164797891800,1.517012582913041,-19.83512605713606,-1.9493927770644424,-2.5616335715428,9.465841589608788,0.0793712958187796,-0.1469679176807403,-0.0520967058837413,-0.5646928548812866,0.498310957686955,0.6081668222995125,-0.3550863367328171,-0.5057006803488822,0.3911346793174743,0.1476710587739944,-0.1505300998687744,0.009693443775177,0.0658258199691772,-0.0711966156959533,-0.3523445725440979,-0.100245252251625,-0.3275461932361125,0.3398728370666504,-0.6268734232038259,-0.4441245540894568,4
1733378164837891800,0.956317266754806,-18.175355108582973,0.9182388805121184,-2.589162506720424,9.454025479608774,0.2966684773535467,-0.5405664443969727,-0.1639267355203628,0.2970483303070068,0.5033003778077657,0.6020826909879012,-0.3498150231943379,-0.5116781853497292,0.5446584820747375,0.1367211937904358,-0.2437707781791687,-0.0306737422943115,0.0093496441841125,-0.0423482693731784,-0.250051200389862,-0.1622409075498581,-0.2977963671386242,0.4554482102394104,-0.3407498120717704,-0.2304901328459382,5
1733378164877891800,-0.58370034417063,-11.400348932230472,3.601890519744157,-2.379423193219304,9.510276359140873,0.2517266350821592,0.8934794664382935,0.0400590784847736,0.9192544221878052,0.5069336088394029,0.598967069740758,-0.3583349871465289,-0.5058189117075782,0.7321236729621887,0.0424248427152633,-0.2205352932214737,0.0102943181991577,-0.0102734267711639,-0.0245240330696105,-0.2540132105350494,-0.153357595205307,-0.247637374740839,0.4287413656711578,-0.0593731032058596,0.1230510639987885,6
1733378164917891800,1.0745469019465148,-4.127908198013902,1.2629004592001438,-1.8764549666255712,9.622900283280014,-0.2215727582284249,1.2979042530059814,0.1201350092887878,1.5397063493728638,0.506007852864329,0.6024329220031229,-0.3851903955020882,-0.4823473838883685,0.6316130757331848,-0.0253397691994905,-0.1698741614818573,0.0413529276847839,-0.069966971874237,0.0116836950182914,-0.3718324601650238,-0.1530412435531616,-0.3285825505465269,0.4334678947925567,0.187019970562309,0.1603855730716138,7
1733378164957891800,-0.2438571255497634,3.313255364182591,-1.0558313147563487,-1.2342635627806189,9.704169868734478,-0.689991046700254,1.057608127593994,0.1754242032766342,1.7973259687423706,0.5080368089620717,0.6023312795385333,-0.4151828293113473,-0.4546635640115055,0.3081588447093963,-0.0569870173931121,-0.1831715255975723,0.0270073413848876,-0.1192807555198669,0.0531177520751953,-0.48050457239151,-0.1558488011360168,-0.1686684674441814,0.511269748210907,0.3335580008715391,0.1755739359837025,8
1733378164997891800,1.7067410817816853,6.114126438650488,-1.3184534195959567,-0.5759296371039003,9.73907985407412,-0.994495533175394,0.5739089250564575,0.2693298757076263,1.370977520942688,0.5161776944361863,0.5984202913573275,-0.4388602482414914,-0.427616031731972,-0.0045924000442028,0.0461753197014331,-0.1315760612487793,-0.0289779305458068,-0.1364465951919555,0.0948711037635803,-0.6197450160980225,-0.1746942847967147,0.0999152492135763,0.6293344497680664,0.4566274773098528,0.3341071226542815,9
1733378165037891800,0.7468233063168823,5.603990804645419,-2.2702479482293128,-0.1141556728842202,9.736107560265063,-1.1685742621652782,0.1388777196407318,0.1241594776511192,1.0344113111495972,0.5219670979334852,0.5937332932409192,-0.4550400870773891,-0.4098410450598297,-0.1602629572153091,0.1170191839337349,0.0507056042551994,0.0033587217330932,-0.1096065938472747,0.0969568490982055,-0.9199166297912598,-0.2096687704324722,0.2659071909248828,0.7285569906234741,0.6936083604145795,0.1706730487322434,10
1733378165077891800,0.5530003046762197,5.4710728650182485,-0.2963477757655084,0.1809723974937573,9.741833536696433,-1.110994179856032,-0.1924915015697479,0.0908623710274696,0.5127553343772888,0.5309310976823078,0.5864448552523613,-0.4612237768785079,-0.401829804150819,-0.0523276999592781,0.1101921200752258,0.2484576255083084,0.0090476870536804,-0.0508561730384826,0.0882391929626464,-0.9795891642570496,-0.2955469787120819,0.4418628927677869,0.658435046672821,0.6003315993674099,-0.4721109141783788,11
1733378165117891800,-0.4049865392586216,2.9209342086970804,0.2972363951683044,0.3779020233802497,9.73885598219037,-1.0873224315632135,0.0398835055530071,-0.0100566456094384,0.5590500831604004,0.5356337504017602,0.5810549756367294,-0.466704544017628,-0.3970623685056296,-0.0945281460881233,0.0865478813648223,0.3679069876670837,0.024129569530487,-0.014413982629776,0.0858965516090393,-0.9212560653686525,-0.2755384743213653,0.4481868350923061,0.6063904166221619,0.4856529346555471,-0.8081577727235854,12
1733378165157891800,0.4306165454797446,2.456122402018309,0.0012053572017699,0.565221890204586,9.728118899598718,-1.1020892811276015,0.0148552944883704,0.1706357598304748,0.3478147983551025,0.5397442428893456,0.5778558469785322,-0.4714589454123425,-0.3904935067537998,-0.2543793320655823,-0.006519956048578,0.3286982178688049,0.041677713394165,0.0471480786800384,0.0696011781692504,-0.691974401473999,-0.2568328976631164,0.0069733461439609,0.5412997007369995,0.4993700925039127,-1.0717565405756235,13
1733378165197891800,0.4134337938800453,4.053791991445422,-0.2041148977480828,0.6837089707560837,9.720646956282854,-1.1008750830322502,-0.0458595789968967,0.2139122039079666,0.1716889888048172,0.5437902799799941,0.5769528370689233,-0.4724980769722023,-0.3849195151097958,-0.3555155396461487,0.0036667950917035,0.108494333922863,-0.0343363285064697,0.0722468495368957,0.0636295080184936,-0.4028314054012298,-0.2321297377347946,-0.2384814238607883,0.5350501537322998,0.4249653878502547,-0.7020553593076765,14
1733378165237891800,0.6570834872242063,10.15331707329154,-2.151398281443119,0.629351065363735,9.736662856060263,-0.9857539352498949,-0.5649471282958984,0.1213824525475502,-0.5103879570960999,0.5472497652787257,0.5764073434951176,-0.4669197332929365,-0.3876316664753915,-0.1897763758897781,0.0208720937371253,-0.0220250561833381,-0.0724571347236633,0.0992975533008575,0.0287095308303833,-0.1931111514568328,-0.1846657246351242,-0.3984071974009275,0.4625226557254791,0.4696184032429009,-0.4549435793435201,15
1733378165277891800,3.047733665443957,13.8385721049428,-1.3321815006971358,0.260005492600426,9.778433959341047,-0.6964554204087704,-0.7868157029151917,-0.1645727902650833,-1.4948017597198486,0.5487555962162319,0.5774717917549367,-0.4494837849397076,-0.4041758483304031,0.007379840593785,-0.039892453700304,-0.0449694544076919,-0.0521826148033142,0.1007393896579742,0.022201657295227,0.0194349586963653,-0.1609426587820053,-0.1761836653798818,0.2176840901374817,0.5136625660222024,-0.30526113179503,16
1733378165317891800,4.723381982086599,9.848848973304031,-0.7499228797674179,-0.4997111610265448,9.785100431492925,-0.4153045927206054,-0.6680060029029846,-0.7782776951789856,-2.172008752822876,0.5367303889026309,0.5824731996155613,-0.4264969085407847,-0.4367446082541399,-0.2139695882797241,-0.1424947381019592,-0.0509338714182376,0.0164234638214111,0.0749183893203735,0.0462494455277919,0.1057636514306068,-0.1704258024692535,0.1704553508609533,-0.0085887312889099,0.4446916864529252,0.1659666611395776,17
1733378165357891800,3.537349366250634,-1.3514666314035653,-1.507331146854162,-1.3044570429474114,9.719201433649658,-0.076881862756377,-0.8807641863822937,-0.7014058828353882,-1.8900293111801147,0.5201601472688847,0.58326206770033,-0.40462976235317,-0.474882715498663,-0.3519490361213684,-0.1972551792860031,-0.1446047127246856,0.0693619847297668,0.0969136357307434,0.0577179826796054,0.0649119466543197,-0.1391166150569915,0.2936673045098781,-0.1040594801306724,0.3620389030117541,0.220913289672695,18
1733378165397891800,3.660397069248557,-10.547982746076585,-0.7234059711765497,-2.021566325132549,9.59195101826489,0.2795808384250849,-0.7528972029685974,-0.2124949693679809,-1.819153070449829,0.5083140358450882,0.5847878694349732,-0.379168157786359,-0.5058376077879791,-0.1905822455883026,-0.0211072601377964,-0.3578957319259643,-0.0116264820098876,0.0781939029693603,0.0459846891462802,-0.0053242817521095,-0.0563151761889457,0.125770405960083,-0.0137737616896629,0.2380038694769144,0.570904940809682,19
1733378165437891800,0.9426812478512524,-16.791210780936478,-0.3767168321836739,-2.5813623543635007,9.44804348258972,0.4913393827941268,-0.5103273987770081,0.2035860568284988,-0.985052764415741,0.5001045567260567,0.590266379528622,-0.3557165505133251,-0.5243536252606114,0.4593254625797272,0.1597823202610016,-0.3957370519638061,-0.0197201967239379,0.0565868914127349,-0.0061867237091064,-0.1200839504599571,-0.0564626343548297,-0.2465092474937439,0.0949783474206924,0.1760953295093029,0.587371908822842,20
1733378165477891800,0.8426777358323335,-16.688948676335812,0.6565220539491623,-2.796196360655129,9.374213107225298,0.6897673209469765,-0.4885015487670898,0.1695991903543472,-0.261373907327652,0.5022767672277155,0.5902647547584452,-0.3412025415748999,-0.5318705733406984,0.8064354658126831,0.2013298571109771,-0.3060740828514099,0.0078174471855163,-0.0354800522327423,-0.0226149000227451,-0.1737704873085022,-0.0252129230648279,-0.2409785013735294,0.0950501337647438,-0.0648723947418853,0.4858782313114032,21
1733378165517891800,-0.9470403198435902,-11.556699185371398,1.9815432345628736,-2.810808823375404,9.364507121247051,0.7587703492201864,0.1270961761474609,0.0777467191219329,0.2653174102306366,0.5049794006401355,0.5892782285766531,-0.3377345846563497,-0.5326183192063361,0.4359722137451172,0.1309343129396438,-0.2059536725282669,0.0073772072792053,-0.1414857506752014,-0.0347762741148471,-0.1855148375034332,-0.0092959124594926,-0.1855412763118744,0.0640111565589904,-0.1962492058742791,0.2216072267536074,22
1733378165557891800,-1.3107061664700508,-5.334080807819962,1.7005471955776217,-2.5114871463656425,9.46617242899835,0.504363261148706,0.9961720705032348,0.5038360953330994,1.356207251548767,0.508353029979541,0.5926290106855893,-0.3508211585278676,-0.5170033768348224,-0.1177796721458435,0.0203011129051446,-0.0870428085327148,0.0050554871559143,-0.1779243052005767,-0.0364976562559604,-0.1956714242696762,-0.0441731289029121,-0.0530196425259113,0.0335311815142631,-0.2558586020540446,0.1666851116072386,23
1733378165597891800,1.417739284864813,-1.4279834693729876,0.1533890652477741,-1.9145367138691245,9.61794996739626,0.0025336161244791,1.3402478694915771,0.3794850707054138,1.625449538230896,0.5136831793869873,0.598537672416831,-0.3763289468317559,-0.4860647353771031,-0.4552091062068939,-0.082125075161457,0.130843386054039,0.0279733538627624,-0.1444626152515411,-0.02547287940979,-0.2669071555137634,-0.0884649902582168,0.0023439327776432,0.0647933036088943,-0.2428383404286578,0.4324073378866538,24
1733378165637891800,0.1092941951945424,2.196974622225761,-1.2452255401693284,-1.27931003447026,9.7093884801656,-0.5113696327794343,1.08836567401886,0.4350074231624603,1.7203466892242432,0.5163203548591125,0.6019921756977923,-0.4045713968944377,-0.4553466259200549,-0.4611855149269104,-0.0682495236396789,0.2757107019424438,0.0053014159202575,-0.0653198361396789,-0.0323973894119262,-0.4907705783843994,-0.1712578237056732,-0.1661398257493972,0.1583921313285827,-0.0029437253016978,0.5494739571809768,25
1733378165677892000,1.7799616546846926,3.795202430057525,-1.973098062300682,-0.598722520202957,9.750741065773369,-0.857296993619576,0.5224590301513672,0.4525012373924255,1.5477796792984009,0.5255669476994264,0.6010191847193269,-0.4271837090268609,-0.4243458392822244,-0.2863990664482116,-0.0396230481564998,0.2651858627796173,-0.0066442489624023,0.0023313164710998,-0.0156693458557128,-0.7266725301742554,-0.2666614353656769,-0.0738204384922981,0.2038593888282776,0.0754029949760064,0.5195129725508392,26
1733378165717891800,0.5729562473163008,4.268600278773904,-0.5736216524224728,-0.0632905963100027,9.764114342087506,-0.910184826459363,-0.1526662409305572,0.3011230826377868,1.2226676940917969,0.5382855926500605,0.593662888200875,-0.4404212583051766,-0.4047740647428978,-0.1866540908813476,-0.0310084670782089,0.2194683849811554,0.0110723376274108,0.0292677879333496,-0.0061867833137512,-0.8198302984237671,-0.3066301941871643,-0.0044850364595651,0.229849100112915,0.0987855875965207,0.1656385251637548,27
1733378165757891800,-0.1319164344344288,5.006368610367178,-0.4664483949046581,0.3658000456435605,9.759270993709563,-0.8906147413317114,0.0519487671554088,-0.0002352026640437,1.039791226387024,0.5486274504517127,0.5844347949683647,-0.451491622225638,-0.391917264739485,-0.1660156548023224,-0.0104591445997357,0.1317768990993499,0.0076832771301269,0.0415748655796051,0.0017763376235961,-0.7403604388237,-0.2599990963935852,0.0637578941613435,0.2139610201120376,-0.0219163742591626,-0.1112429181095212,28
1733378165797891800,-0.0588285480003803,5.347446485349535,0.1634252330284565,0.7913043992087244,9.73482804184854,-0.8816859502710401,-0.0140733011066913,0.0740106701850891,1.0406445264816284,0.5577167946045394,0.5746799777184265,-0.4633534258677715,-0.3794715297630681,0.0017065084539353,0.0373248904943466,0.0385301001369953,-0.008107841014862,0.0505749583244323,-0.0161167364567518,-0.598159670829773,-0.175778329372406,0.0758884769380092,0.1780901700258255,-0.0881621579797938,-0.21291129460074,29
1733378165837891800,1.5198831699132918,8.803675319227576,-0.9831587311249226,1.082913236818835,9.705597271189092,-0.893895589633286,-0.0180587042123079,-0.0116275120526552,0.3864060342311859,0.5631194764315165,0.5681878663306832,-0.4719518389817457,-0.3705676877143586,0.1592319458723068,0.045342069119215,0.0245471037924289,-0.0058799386024475,0.0306444466114044,-0.0303199868649244,-0.4570883214473724,-0.1076972335577011,0.0490647674202919,0.1137445271015167,-0.0921868286523036,-0.2097634250290691,30
1733378165877891800,2.846685900181532,14.56372060893774,-2.2720586509130896,0.9982525476213544,9.726800218215583,-0.7504711612999438,-0.8679255843162537,-0.1439315527677536,-0.9147669672966005,0.5652125684275692,0.5654903476517712,-0.4674227722881204,-0.3771885934076985,0.1298543512821197,-0.0011019145604223,0.0344280339777469,-0.0009763240814208,-0.0054103136062622,-0.024624228477478,-0.3646801710128784,-0.0455454848706722,0.0130815998911857,0.0883792787790298,-0.1013108865567482,-0.1276984514132142,31
1733378165917891800,4.029429119083285,16.76463490869999,-2.187691245573759,0.4095705060480162,9.79559143036902,-0.2214744489531032,-1.632170796394348,-0.7127689719200134,-1.945594787597656,0.5657506886370809,0.5606230768433424,-0.443839858835951,-0.4106509910347178,0.1168440207839012,-0.0109974751248955,0.0481128841638565,-0.0105652213096618,-0.0096404254436492,-0.0236942172050476,-0.2680540084838867,0.0024687126278877,-0.0658417146980762,0.0366167835891246,-0.1087511743590235,-0.1848595045927911,32
1733378165957891800,6.40840281496942,3.945038186737895,-0.3119260513106361,-0.4824544674078002,9.788251589000224,0.3574159924514591,-1.2254152297973633,-0.9251680374145508,-2.548006296157837,0.5537209089421278,0.5550827352502392,-0.4167253445125291,-0.4600176743332733,0.0540392212569713,0.0204009804874658,0.0643137618899345,-0.0185016989707946,-0.0212186872959136,-0.0022228956222534,-0.1651681363582611,0.0027520598378032,-0.1063794767916202,0.0097941756248474,-0.1455660434719175,-0.2293357751790434,33
1733378165997891800,3.616578970310092,-7.391741067379713,0.1480260769098997,-1.4655385623939334,9.668776483792064,0.7330401340276003,-0.596439003944397,-0.1966602206230163,-2.447467803955078,0.534520396045029,0.5601075241904329,-0.38588199593335,-0.5016598738400861,0.0070639895275235,0.0230863001197576,0.0831629484891891,-0.01316499710083,-0.0032831728458404,-0.0104643106460571,-0.0622485652565956,0.0255418457090854,-0.1118506016790866,-0.0229220055043697,-0.1659097981194965,-0.2639710352305323,34
1733378166037891800,1.2125019589580597,-16.088956830316782,-0.1416752465784549,-2.275677133671194,9.496073061743378,0.9034805795803664,-0.3048587739467621,0.1395190507173538,-1.6873266696929932,0.5182785388210912,0.5714490850568129,-0.3569051027331353,-0.5267372110408715,0.034133955836296,0.052408393472433,0.0679712146520614,-0.0328055024147033,0.0123084783554077,-0.0106253623962402,0.0171170681715011,0.0206786356866359,-0.0952946036756038,-0.0008824188262224,-0.1344261887656524,-0.0529359097652137,35
1733378166077891800,-0.4235825551897287,-20.73029327414036,-0.7367506059180945,-2.645485282444954,9.398388932582735,0.9176625419288872,0.0247456599026918,0.2516827881336212,-0.1831011325120926,0.5106884546014548,0.57946731546086,-0.3426804053789766,-0.5347758798466782,0.1420606821775436,0.033081941306591,0.0432158634066581,-0.0187788009643554,0.0347588956356048,-0.0176222287118434,0.0112890182062983,0.0082218032330274,-0.0198924489498138,0.0614117607474327,-0.0761281857117079,-0.0343196182310581,36
1733378166117891800,0.7409858323350549,-16.667489708721636,-0.3896400266427546,-2.55758575745672,9.422783953648803,0.916663301758468,-0.0881405547261238,0.1451881229877472,0.4949023127555847,0.5150423206140958,0.5791142759476497,-0.3433508920431841,-0.5305357415476206,0.2080721855163574,0.0339407585561275,0.006507717538625,-0.018730342388153,0.0244288146495819,0.000183280557394,-0.0237247459590435,0.0030107148922979,0.0573088641524314,0.1157675832509994,-0.0758112104507163,0.1271365797467529,37
1733378166157891800,-0.5918469718776643,-10.327204152166845,1.1607242062520235,-2.23705163493976,9.51257528373301,0.8227222315836697,0.363365888595581,0.6860982775688171,1.3510557413101196,0.5252801746275716,0.5786411741135661,-0.3510373639229051,-0.5157788119548661,0.2681544423103332,0.0287509504705667,-0.0078796772286295,0.0033868551254272,0.0235756933689117,-0.0005949735641479,-0.0727816447615623,-0.0022594220936298,0.1677753179967403,0.1718366742134094,-0.1219271014701574,0.174388817852363,38
1733378166197891800,0.6906541137188673,0.689257690924406,0.1880517978280782,-1.652674414420873,9.648306527215242,0.590961713475734,0.6005725860595703,0.6593718528747559,1.6750887632369995,0.5409223559203051,0.5794076300006828,-0.3662733091104395,-0.4873742598720018,0.272283136844635,0.0406926684081554,-0.0467428527772426,0.0177147984504699,-0.0029032230377197,0.0200646556913852,-0.0797872990369796,0.0190959814935922,0.0584340687900781,0.1590255349874496,-0.1559550067456439,0.1674769195720553,39
1733378166237891800,0.6171901605140417,6.604692279788852,0.8327712588459253,-0.9965214129798112,9.752942375209926,0.2396816664960235,0.9890868663787842,0.4108045697212219,1.723720669746399,0.55188131062636,0.58096476726164,-0.3876332999263327,-0.4556834462399713,0.2176624983549118,0.0393629521131515,-0.0633421391248703,0.0272161364555358,-0.0277999937534332,0.0182250179350376,-0.0808951705694198,0.0144821191206574,-0.1485118146002292,0.1083143875002861,-0.1197989303350448,0.2076097541265189,40
1733378166277891800,0.450647124258615,7.57822751558721,-2.043814689558744,-0.3499408342652023,9.80038334082067,0.0198163537895889,0.1151475980877876,0.1328582316637039,1.5831421613693235,0.5619851425849638,0.5758184503921784,-0.4091732632168498,-0.4303288848786178,0.1127480790019035,0.0409805029630661,-0.0855142846703529,0.0101075172424316,-0.0535951852798461,0.0147671140730381,-0.0465083047747612,-0.0336679853498935,-0.3377671429991722,0.00995784252882,-0.0656067003658041,-0.0023326807312667,41
1733378166317891800,1.7280051113456487,6.935148222991824,-0.2390577624440193,0.0884455780310556,9.806157832568884,-0.0430092028415296,0.1481424868106842,0.0046816477552056,0.6775829195976257,0.5703621617865162,0.5690834827417678,-0.4222994776082703,-0.4153242549718594,-0.1479495614767074,0.0161519609391689,-0.0508041083812713,0.0002734661102294,-0.0909899175167083,-0.0015521086752414,0.0404102951288223,-0.0892449468374252,-0.2820008321136236,-0.1046727672219276,-0.0692606197634711,-0.2149921925280243,42
1733378166357891800,0.2461304773092269,4.108268847042322,-1.1342810935497285,0.2515643389262258,9.803388367855549,-0.0257094235663069,-0.2341061383485794,0.0158039592206478,0.2754364907741546,0.5740757301826558,0.5648160910892961,-0.4269585449028263,-0.4112494850259141,-0.2498455643653869,-0.0186010133475065,0.0386292338371276,0.0004727244377136,-0.0684093534946441,-0.0173615254461765,0.1065267324447631,-0.0894033536314964,-0.0714870271086692,-0.157237097620964,-0.0547938491242006,-0.2264349391710013,43
1733378166397891800,0.7061571686033159,2.4782225901454686,0.1277735442097298,0.3374155896151438,9.80043945492208,0.0889017882328014,-0.2534921169281006,-0.0634906142950058,0.1447340995073318,0.5792340960720443,0.5596485424333115,-0.4269201084553272,-0.411121013011018,-0.1790800541639328,-0.0503863729536533,0.1000716909766197,0.01362806558609,-0.0222092270851135,-0.0217968225479125,0.1448053866624832,-0.087671659886837,0.0172685301870107,-0.1538392454385757,0.0518069605342112,-0.2453185764044523,44
1733378166437891800,0.8669141322705894,1.0168594137400389,0.2298556526009924,0.3527820490404963,9.79879811745584,0.1717714201618917,-0.1920452564954757,-0.0097099393606185,-0.0564200468361377,0.5812746381273716,0.5561962767162049,-0.4264830555070391,-0.413373686239835,-0.0796421393752098,-0.0649081617593765,0.0524525046348571,0.0055716037750244,0.0099611580371856,-0.0153431873768568,0.179959625005722,-0.0382890477776527,0.1881932521253824,-0.1284349858760833,0.015242732580984,-0.2422517361797392,45
1733378166477891800,0.6291059314962476,-0.3398626539736986,0.4084224319914356,0.2776980751520954,9.799504219898582,0.2510303781799972,-0.1020761802792549,0.2361149340867996,-0.2575174272060394,0.5832320947301058,0.5567884616684825,-0.420936600990544,-0.4154990444437018,-0.0577893108129501,-0.0852566286921501,-0.007996923290193,0.015308141708374,0.0127749741077423,-0.0008621737360954,0.2238473296165466,0.0255121067166328,0.1582142934471368,-0.130799263715744,-0.0047497152777388,-0.3590888940997421,46
1733378166517891800,0.2962151988944038,-0.0114887777417898,1.7777134373664856,0.1453652145370375,9.803923205384612,0.179845603687223,0.521970272064209,0.2191888093948364,-0.3505416214466095,0.5803487649154306,0.5636955952978799,-0.4160260827470403,-0.415168509174823,-0.0410886257886886,-0.0906851142644882,-0.074922427535057,0.0026346445083618,0.003628671169281,0.0061385072767734,0.3861094117164612,0.0417900308966636,0.0316214651882648,-0.2171040475368499,0.0738238223260501,-0.9079333212055264,47
1733378166557891800,-0.5835010587388649,-0.0538888265758752,0.99231358602643,0.05109034583061,9.80607132332921,-0.0935902931089047,0.8584650754928589,0.4716225266456604,-0.0868128985166549,0.573370686522132,0.5767149801312499,-0.4149356681631593,-0.4080127522939397,-0.0845585986971855,-0.0620797835290432,-0.0543628893792629,-1.9550323486328125e-05,-0.0299798846244812,0.011521641165018,0.8572195768356323,0.1147408112883567,0.1543470966249704,-0.5006114840507507,-0.1248452539391815,-1.3550931513376534,48
1733378166597891800,0.0369785809077788,0.0238426478803157,-1.3540274218022823,0.0372416774069308,9.796124514332414,-0.4526970059931278,0.8371856808662415,1.0102087259292605,-0.0504575483500957,0.5676746035648161,0.5929434611142241,-0.4141245895837023,-0.3932739466754173,-0.040300864726305,-0.0663231611251831,0.0041309134103357,0.0105904936790466,-0.02178555727005,-0.0197185315191745,1.3814916610717771,0.2573226988315582,0.2021668324202299,-0.8384708166122437,-0.1028821179288439,-1.1381675065290182,49
1733378166637891800,-0.1386241153795272,0.0354348859965801,-0.5251391418695449,0.1074995211969595,9.781389886537193,-0.6951553706608712,0.4661979377269745,2.105116128921509,0.2642699182033539,0.5741778376671353,0.6120595497566143,-0.4010313792687832,-0.3672557353969355,-0.0479886122047901,-0.1192535385489463,-0.0096653932705521,0.0122124552726745,-0.0104458630084991,-0.0212520360946655,1.671688437461853,0.3798568844795227,0.1309603758186102,-0.9415863156318665,0.041218784893956,-0.2263792634610086,50
1733378166677892000,-0.1325841228292323,-1.013296752822399,-1.3089035009622574,0.2702507000219076,9.766647075435518,-0.8425853083085268,0.2487772107124328,0.958393692970276,0.1748396605253219,0.5850704337952707,0.6272418842109792,-0.3866878776090047,-0.3387221080561441,0.0020276857540011,-0.1835667937994003,-0.0730929002165794,0.0066887140274047,0.0054994821548461,-0.0245860181748867,1.7467904090881348,0.3940563797950744,0.0262426947593688,-0.8939934372901917,0.229403926778119,0.2521387047480791,51
1733378166717891800,-0.8123478448245673,-1.463906431147456,-2.62104291510582,0.2733532326145097,9.775825822669267,-0.7272481796879321,-0.782089114189148,-0.262907326221466,-0.0587229058146476,0.589500173584008,0.6244890726388087,-0.3835267102146209,-0.3397207980581401,0.0057079079560935,-0.170219674706459,-0.0831876844167709,0.0041311979293823,-0.0194143652915954,0.0112530589103698,1.482332706451416,0.3784376978874206,0.0158937347024679,-0.6855396032333374,0.2089394683603197,1.067709749402851,52
1733378166757891800,-1.4217229476734996,-0.6623690994769335,-0.7651239560306072,0.344032742732577,9.794901694539188,-0.3345627939999103,-1.1126042604446411,1.1420241594314575,0.4500740468502044,0.6051703997265098,0.6133866964381679,-0.3752528697518866,-0.3416297443737983,-0.0121512506157159,-0.1537498831748962,-0.0721918866038322,0.0060005784034729,-0.0369465053081512,0.0243390873074531,1.1397302150726318,0.2467952966690063,-0.0580056142449378,-0.533810019493103,0.2221974477317184,0.6644902563493699,53
1733378166797891800,-2.346744181802124,-1.2104425422102212,-1.1197393579781054,0.6631715019010007,9.783480136814712,0.1188132072333246,-1.1017802953720093,1.6951862573623655,1.1432676315307615,0.6347947420996781,0.604260822737002,-0.358902591582566,-0.3210817798995816,-0.08714559674263,-0.0805383697152137,-0.0365215055644512,-0.0086513757705688,-0.064010351896286,0.0514155700802803,0.8296035528182983,0.2049655765295028,-0.0132253922760486,-0.4527358412742615,0.1046870667252689,0.5708083485674113,54
1733378166837891800,-1.7653097367368638,-1.0832336278796195,-1.063392543790862,1.1966869155149906,9.711638304919004,0.6499439907331019,-1.315983772277832,2.2437820434570312,1.7010570764541626,0.6711138484293534,0.5903818132331796,-0.3439642307955162,-0.2876530124771595,-0.1117870286107063,-0.0299825109541416,0.0413546487689018,0.001236617565155,-0.0532394349575042,0.0257049798965454,0.5749643445014954,0.1829089522361755,-0.0486743067979812,-0.4094543755054474,0.0472888437889516,0.5871813546868041,55
1733378166877891800,-2.4114028241954744,-1.678248270007968,-1.1129144803941249,1.8469696366831656,9.525542901855706,1.4223648988388478,-1.8878308534622192,3.121399402618408,2.3495981693267822,0.7175543476038722,0.5692113297835115,-0.3216800217562136,-0.2400754333938896,-0.1691201031208038,-0.0100806020200252,0.0442327260971069,-0.0016579031944274,-0.0400652289390563,0.0120549201965332,0.3965296745300293,0.1342648267745971,-0.0701987408638,-0.3546463847160339,-0.0121932727493345,0.5574605720207095,56
1733378166917891800,-2.2242989747419952,-1.6707938623487948,0.574736993253231,2.541081489640474,9.128283705446124,2.52740017029047,-1.975513219833374,4.845672607421875,2.9276821613311768,0.774756906883665,0.5385386242894156,-0.2848062631310128,-0.1691550289078857,-0.1727545112371444,-0.0433801300823688,0.0384069271385669,0.011541724205017,-0.0162997543811798,-0.0062630102038383,0.2407798916101455,0.1249385252594947,-0.0897486599862575,-0.3861189186573028,-0.0166201492808759,0.5294024984024465,57
1733378166957891800,2.2027263176202774,-0.5274269605457782,0.9719099726840852,2.8227026747867465,8.600374514341354,3.7730981502771375,-1.8892717361450195,5.038908004760742,1.9947922229766848,0.8281170969667088,0.5075840763186107,-0.22357086584746,-0.0812182019500368,-0.1234159842133522,-0.0314217917621135,0.039297092705965,0.0035327672958374,-0.0087057650089263,-0.0042414665222167,0.1361878514289856,0.1400773674249649,-0.007221183425188,-0.5270143151283264,-0.0947947643946856,0.4487997793588787,58
1733378166997891800,0.8220373911246657,-0.6534323443055152,1.1708856078475711,2.5771307081431147,8.139951298010349,4.823896073976159,-1.813251256942749,2.8432633876800537,0.774906575679779,0.863198355442885,0.4751533894303234,-0.1681636399676619,-0.0289621857566486,-0.0785334631800651,-0.0217945165932178,0.0433523505926132,0.0028079152107238,-0.0081594586372375,0.002820611000061,0.0075901597738265,0.186926320195198,-0.0664507865071296,-0.6681895852088928,0.0133346248041838,0.5919225943971425,59
1733378167037891800,-0.3909671105280518,-0.5632330179423094,2.643603121960163,2.358252541027218,7.770078705698252,5.498627226898074,-0.9908908605575562,1.8765535354614256,0.8402429223060608,0.8833752096474503,0.4485196959920062,-0.1359342257269524,0.0003489132149789,-0.0346333906054496,0.0010337276617065,0.0780506134033203,0.0060503482818603,-0.0131394267082214,0.0120309516787529,-0.1015959605574607,0.1961988657712936,-0.1693839222371578,-0.8834776282310486,0.1787475245185196,0.4401319773219525,60
1733378167077891800,1.0849408701889216,-0.3526373798727989,0.4998199916958808,2.2069366287916896,7.486311448433994,5.937589722049236,-1.1183860301971436,1.3016560077667236,0.622491717338562,0.8955406135781675,0.4296383810836384,-0.1125967745310819,0.0272030408512546,-0.0342493616044521,0.0318408012390136,0.0756192803382873,-0.0017797946929931,-0.0146333575248718,0.001826100051403,-0.1872174441814422,0.1929256021976471,-0.1260275955915451,-0.9362967014312744,0.2601763921879231,0.4906267775453626,61
1733378167117891800,-0.0614171762540936,-0.7637222725391387,1.0350286921590566,2.077634103182703,7.161777881017327,6.368890304270386,-1.0716980695724487,1.3386998176574707,0.6892496943473816,0.9069977489213392,0.4074317647908654,-0.0963136642833729,0.04558698382421,-0.0342847816646099,0.068003125488758,0.1030184775590896,-0.0123291015625,-0.0156894922256469,0.0054298751056194,-0.26286181807518,0.2307609617710113,-0.0143283850818872,-0.9240542054176332,0.0447939582332968,0.2398126724645495,62
1733378167157891800,0.0930861338458955,-0.873809371677041,0.8082090645194053,1.8168882405437528,6.769530959811807,6.858772254797816,-1.3432018756866455,2.256720542907715,0.930819571018219,0.918855392468578,0.381256093486078,-0.0703115687655185,0.0735184375702949,0.0754499733448028,0.0922062471508979,0.1484103947877884,-0.027944803237915,0.0049097537994384,-0.0045050382614135,-0.3113854229450226,0.27681365609169,0.0374620079100131,-0.9214930534362792,-0.0893904941983521,-0.0982470237404108,63
1733378167197891800,0.8501464642778038,0.0230213946253061,0.39422494328022,1.5899937941022215,6.40900136538446,7.250310735473036,-0.9045533537864684,0.2926096320152282,0.2354087978601455,0.9279937140891408,0.3572747901116542,-0.0518821287881328,0.0921442888873661,0.1162919476628303,0.1393366456031799,0.1278365403413772,-0.0449658036231994,0.0191408693790435,0.0058351196348667,-0.3716175556182861,0.2692911624908447,-0.1656675320625305,-0.7538285255432129,-0.0880173061490058,0.00802870041579,64
1733378167237891800,-0.7327743226982653,-0.7442728911817074,1.5635814418643712,1.5147804399468003,6.163548348945379,7.47572692605555,-0.8321619033813477,0.8757922053337097,0.3193641602993011,0.933556751640569,0.3415418134751909,-0.0468315261465389,0.0981209956875626,0.1361817568540573,0.1326576322317123,0.0579063929617404,-0.0077744722366333,0.0444571077823638,-0.0032137036323547,-0.3903933763504028,0.2248290479183197,-0.1563467460095882,-0.6158666610717773,-0.2249552950724959,-0.2412599486634135,65
1733378167277891800,0.1548664443239569,0.048480830052495,1.3283774322390556,1.2096787912961096,5.880460306116938,7.754176203167438,-0.813317060470581,1.402706503868103,0.2577980160713196,0.939542590988908,0.3223537083044416,-0.0271131414052806,0.1123067659158138,0.1571632027626037,0.1173463240265846,-0.0708524510264396,0.0076237320899963,0.0330150425434112,-0.0143948793411254,-0.3528230488300323,0.1884290426969528,-0.0564180527925491,-0.4774122238159179,-0.3073115067198872,-0.2934726587206125,66
1733378167317891800,-0.3143604023180902,0.1146954697161912,0.3624035716056824,1.030226625639573,5.669845378825068,7.934851919269561,-0.4783063530921936,-0.0354321114718914,0.1397261172533035,0.943434428242122,0.3084951473661997,-0.0163062201895614,0.1204008906704933,0.1798501461744308,0.0860626026988029,-0.0643603950738906,0.0158782601356506,-0.0027622580528259,-0.0341989435255527,-0.3101367950439453,0.1403933763504028,-0.0651718526124954,-0.3391244411468506,-0.2573715639002621,-0.1611217053264379,67
1733378167357891800,-0.6194329710047691,0.1359375797092914,0.7552204016536473,1.056673976125568,5.529491736239194,8.029853677478432,-0.4127406179904938,0.376255601644516,0.1813839823007583,0.9456934953209912,0.3004474288747412,-0.0179649425205144,0.1227703905501284,0.1255794465541839,0.0182017423212528,-0.0480161122977733,0.0187546014785766,-0.0399817526340484,-0.0273613333702087,-0.2837267518043518,0.0855424553155899,-0.0810264243483543,-0.2757031321525574,-0.1722296670570969,-0.0876987417191267,68
1733378167397891800,-0.0932758111990988,0.1732908665478229,-0.3102794166147709,0.9105964760001748,5.348785040476918,8.168947090870141,-0.6578133702278137,0.598296046257019,0.1948397606611251,0.9484233965695764,0.2888147458757661,-0.0092552903242178,0.1303588705127475,-0.0235082991421222,0.0190346725285053,0.0082581462338566,-0.0091477632522583,-0.0666928887367248,-0.0091322101652622,-0.2528608739376068,0.0607826560735702,-0.1256476563632488,-0.2723833918571472,-0.0935958369337022,-0.0512494179829955,69
1733378167437891800,-0.0080775079935789,0.2952262243896723,0.3420131100058555,0.8319822273600846,5.129286549505591,8.316766247031092,-0.5500457882881165,0.2191945910453796,0.1084066927433013,0.9517563540968508,0.2755585542404914,-0.0055136461158374,0.1348956186135774,-0.0121049107983708,0.0544810779392719,0.126771479845047,-0.0071303248405456,-0.0392076969146728,-0.0017719864845275,-0.2148908525705337,0.0129999369382858,-0.1130950487822294,-0.228909432888031,0.0260096166558563,0.1388525903731584,70
1733378167477891800,0.0330904417622834,-0.2288426578998565,5.391130728775263,0.6453663806192577,5.003928231477738,8.409196693447232,-0.0323852561414241,1.337818622589111,0.1890337169170379,0.9535691021558758,0.2668889874800497,0.0045326890494787,0.1394840644829744,-0.0142961600795388,0.0896543487906456,0.1465758085250854,-0.0044814348220825,-0.0122115015983581,0.0046215690672397,-0.1727690994739532,0.0110612455755472,-0.0603583148509263,-0.3017101883888244,0.0149577690266072,-0.1545990255594253,71
1733378167517891800,-0.7309525871638208,0.0013718728750944,0.3055617404431104,0.3284273965174332,5.029444365528225,8.412325054600835,0.0986813232302665,0.3560117781162262,0.2335642874240875,0.9523332707178171,0.265568622182348,0.0237508854070355,0.1482249481081995,0.0249641612172126,0.1065767705440521,0.1280924677848816,-0.0067697763442993,0.0208196341991424,-0.0089136324822902,-0.1141402721405029,0.0494924634695053,0.0400952790230512,-0.3131338655948639,0.016292670892179,-0.0899327843815088,72
1733378167557891800,0.1703246371533721,0.150696172901988,0.3744599201023578,0.3632830213213339,5.071955473521352,8.385324819472432,0.1567714065313339,-0.0513690933585166,0.2189420312643051,0.9507965204929074,0.2681462439090702,0.0237696078840058,0.1533578825404582,0.1030560359358787,0.0582890287041664,0.0680441781878471,0.0061774849891662,0.0432680547237396,-0.0252721905708313,-0.0938602238893508,0.0794243738055229,0.0732639736533165,-0.2313706874847412,0.0291360781133174,-0.0911705094829201,73
1733378167597891800,0.5887042899377644,0.4109954608172178,-1.7502151895880698,0.3706223512334748,5.076663797342777,8.382154372742772,-0.2323180884122848,0.2920112311840057,0.1242546960711479,0.950023311818576,0.2683709061289164,0.0246197732512741,0.157564920099154,0.0950050354003906,0.0293098930269479,-0.0051193772815167,-0.0049139857292175,0.0219507813453674,-0.0212820749729871,-0.0981684178113937,0.108075127005577,0.0233750303685665,-0.1900596916675567,-0.005117489144206,-0.1545788595542311,74
1733378167637891800,0.2294195444723591,0.0765185915350914,-1.183325402703881,0.2058762083321809,4.912697808501124,8.484892278161645,-0.6393513679504395,0.7374281287193298,-0.0047119278460741,0.9521904162002248,0.2575498093012647,0.0325418928995204,0.1610672654144714,0.1045580580830574,-0.0077114012092351,0.0124845169484615,0.0016403794288635,0.0065821707248687,-0.0241393409669399,-0.0805841833353042,0.0752205476164817,-0.0759492672145366,-0.1050114631652832,-0.0199633222289383,-0.189687874597311,75
1733378167677892000,-0.5489101858183741,-0.1052680084183812,-0.3762766141355037,0.116607075491175,4.661733042903244,8.62699481024146,-0.6874973177909851,-0.2958946228027344,-0.1193903982639312,0.9559898290679062,0.2427815470520003,0.0346815659536407,0.1610523170937488,0.0598491728305816,-0.0314440540969371,0.00821746699512,-0.0025270581245422,-0.0044875442981719,-0.0140607394278049,-0.0397324748337268,0.0368280671536922,-0.0088081603556871,0.0078230574727058,-0.1126087265700101,-0.272246038557589,76
1733378167717891800,-1.3591495871216055,-0.703858755467832,1.7342887216597795,0.1132669347504153,4.498518749211728,8.713259135243296,-0.2637849748134613,0.5743785500526428,0.2308786958456039,0.958135017684719,0.2337232004186312,0.0334796177660267,0.1619565395465878,0.0304979421198368,-0.0547505989670753,0.0063148387707769,-0.0001251697540283,-0.0060769021511077,-0.0071919001638889,0.037880603224039,0.0011194087564945,0.0097299513757228,0.1385045647621154,-0.156168174572289,-0.3529974453568458,77
1733378167757891800,1.1755604677908122,0.302160699827969,0.4432891261786222,-0.1375244561750907,4.462150966279208,8.731590910747647,0.0854213088750839,1.0244026184082031,0.2375491112470626,0.9568744328644588,0.229043638231883,0.0484950557831267,0.1719841825317566,-0.0011550581548362,-0.059655237942934,0.0089534977450966,0.0006946921348571,-0.0080820322036743,0.001704454421997,0.1357876807451248,-0.0449399314820766,-0.0029097499668598,0.2140325307846069,-0.1529877909705042,-0.3029419133335351,78
1733378167797891800,-0.6547325401838868,0.1234352410107851,3.059213967618346,-0.457523805095069,4.547053939799964,8.676713657656311,0.6372723579406738,0.6764708757400513,0.1116610169410705,0.954124873876643,0.2302918265515055,0.0676490653127107,0.1789834856020359,-0.0037215463817119,-0.0760445445775985,0.0005854468327015,-0.002676784992218,-0.0051362812519073,-0.0060712099075317,0.1713810563087463,-0.0319878160953521,0.0487163923740386,0.2142743021249771,-0.1626851552508771,-0.0471942973732948,79
1733378167837891800,0.9779990102741868,-0.0114002226755023,0.0293652106940746,-0.5507836515400558,4.898564361469448,8.477681616130472,1.1216834783554075,0.1374223381280899,-0.1432332992553711,0.94904294114936,0.2489071977746347,0.07618218238369,0.1776485829747328,-0.0555916689336299,-0.1109255105257034,-0.0251843649893999,-0.0094311237335205,-0.0101532340049743,-0.0012305974960327,0.1312863230705261,-0.0494770258665084,-0.095758714056015,0.2066276669502258,-0.0469685257934033,0.2188841584652662,80
1733378167877891800,-0.1895525577798485,-0.0003495440900325,-0.1964975546121597,-0.512995991872251,5.229734298160672,8.279920909714699,0.8973903656005859,-0.3239665031433105,0.1089600324630737,0.944150854956585,0.2680286528582329,0.077473527674246,0.1753214831938526,-0.1245880499482154,-0.0962475016713142,-0.0064221289940178,-0.0155009031295776,-0.021814078092575,0.0112422108650207,0.0764338374137878,-0.07715605199337,-0.1384802499294281,0.1666624248027801,-0.0346446124017238,0.2882069932773709,81
1733378167917891800,-0.4703585540857166,0.1958370448768139,0.6367214480012655,-0.3381334555609152,5.523910721236467,8.095829832211136,0.9630140662193298,-0.4045531749725342,0.2238676249980926,0.9392900336834789,0.2865242592174774,0.0716337334558653,0.1746618041121297,-0.1379752308130264,-0.0769987031817436,0.0113416872918605,-0.0153972506523132,-0.0112695395946502,0.0087463892996311,0.0760536417365074,-0.089258000254631,-0.0712912122756242,0.1102667152881622,-0.0385359207518398,0.075929977992177,82
1733378167957891800,-0.2186017978599294,0.6151040749549865,0.0003851999253034,-0.172999792913068,5.834724975380301,7.880128979957103,0.8701913952827454,-0.3108096122741699,0.2940584421157837,0.9331092125403232,0.3061007289440062,0.0672872136492197,0.1763007388629459,-0.2038967162370681,-0.0638307034969329,-0.0044017219915986,-0.0128000974655151,-0.0046952366828918,0.0124875232577323,0.1105826497077941,-0.055615410208702,0.0335638314276933,0.0576460547745227,-0.0956862333416938,0.05733955155164,83
1733378167997891800,-0.750175904680416,1.6954688694000244,0.0319938056319952,0.1047889196645468,6.095562607955932,7.681375170850753,0.8311459422111511,-0.4652393758296966,1.0058557987213137,0.9257968071949624,0.3238060085058918,0.059232885593735,0.1858531434004682,-0.1928310245275497,-0.0567864291369915,-0.0222169384360313,-0.014810025691986,0.0151610374450683,-0.0023612976074218,0.1426555514335632,-0.021817147731781,0.040371757876873,0.0305622816085815,-0.0793902014486491,0.1261491761445999,84
1733378168037891800,-0.8975469517476856,0.3592600128829479,-0.2651058114141225,0.4882880689321086,6.343008259516954,7.463123465070128,0.8145033121109009,-0.5120212435722351,0.8760604858398438,0.9175447407364826,0.3425614082309232,0.0462416359381213,0.1965327416082603,-0.1418637037277221,-0.0328424796462059,-0.0266959089785814,-0.0215276479721069,0.0207228958606719,0.0011388696730136,0.1294828653335571,-0.0220323354005813,0.0430377622157335,0.0306554939597845,-0.0611368980079889,0.2132344621405005,85
1733378168077891800,-0.7619540938228369,1.48249305819571,-1.5422341179311274,0.887200548974052,6.512943970417976,7.277693832439183,0.3490469753742218,-0.4955847859382629,1.3206262588500977,0.9089341827443164,0.3575101358932891,0.0335763227981929,0.2118913573456935,-0.0934381112456321,-0.0181472115218639,-0.0308583639562129,-0.0308155417442321,0.027031272649765,-0.001006182283163,0.087045818567276,-0.0304397735744714,-0.056886254826188,0.0041626207530498,-0.0206720550201833,0.1100382915601134,86
1733378168117891800,-1.0863621351636945,-0.0232499426841735,-2.15676769952178,1.4597079565443098,6.351273983559012,7.328093647855519,-0.8867732882499695,-0.3134204745292663,2.1660163402557373,0.9031375618740316,0.3552741656544503,0.0123079668869066,0.2407723123709462,-0.0721780955791473,0.0027892300859093,-0.0411074049770832,-0.0225078463554382,0.0287549197673797,-0.0011597871780395,0.0482586957514286,-0.0387072935700416,-0.0104220252931118,-0.0165681354701519,-0.0255044436126947,0.1284159520328044,87
1733378168157891800,-1.3685980912074447,-0.3783586811065673,-1.6463181772619484,2.0451095516748725,5.779677626419067,7.653968693009018,-1.7676177024841309,0.254466712474823,2.520546197891236,0.900066046347056,0.3310871916944137,-0.0117245845355409,0.2830634125388143,0.004428525455296,0.0242581441998481,-0.0653092861175537,-0.0240252614021301,0.0351137220859527,-0.0032808780670166,-0.0335475094616413,-0.054664172232151,-0.0426397028088569,-0.0057812305167317,0.0497927894338965,0.2111813290029764,88
1733378168197891800,-1.5640879300817847,-1.4374801965147257,-1.537070451557636,2.461464639829099,4.88587848289758,8.138781669709086,-2.2439534664154053,0.7183230519294739,2.906355381011963,0.8964910096101315,0.2898345824537999,-0.0321484108674634,0.3335661398922661,0.0703449621796608,0.0297289155423641,-0.0841109305620193,-0.0163037180900573,0.0312202870845794,-0.0103873573243618,-0.1241550743579864,-0.0390110872685909,0.0246358440846204,-0.0179149974137544,0.0531005988076329,0.2150344972997903,89
1733378168237891800,-0.5296119033694267,-0.9408668919056652,-0.669117404693365,2.72988322905302,3.8953117405384776,8.575818749755621,-1.7133903503417969,0.7033830285072327,2.8740034103393555,0.8869860462027352,0.2455671155699865,-0.0495147827072271,0.3879443861379535,0.1068944483995437,0.0251855086535215,-0.1087521612644195,-0.0076006054878234,0.020331859588623,-0.0064648352563381,-0.2078319191932678,-0.0161564573645591,0.0369219096839427,-0.0417486131191253,0.0702206604346633,0.187296887807548,90
1733378168277891800,-0.6071648063883185,-1.3972887636408209,-0.8744850789815187,2.863550233481824,3.0923835390314456,8.854808125093578,-1.2143179178237915,0.7802121639251709,2.7104570865631104,0.8711236060403155,0.2116981004114358,-0.0609453847586543,0.4388771616361692,0.1124138534069061,0.0195527113974094,-0.1229349598288536,-0.0014615058898925,0.0032596588134765,-0.0093532800674438,-0.2660580277442932,0.0270343869924545,0.0844499690562486,-0.0438859798014164,0.0697090576507151,0.2727493119046091,91
1733378168317891800,-1.1958499532341955,-0.8918822039842605,-0.1439087047189474,2.85937119423151,2.4454196600876745,9.056174747046828,-0.6242102980613708,0.975085437297821,2.8409035205841064,0.8511313592008422,0.1841880231831833,-0.0658661866556117,0.4871466991080823,0.1059183999896049,0.0214583631604909,-0.1137854754924774,0.0032058358192443,-0.0150440335273742,-0.0048833489418029,-0.3790389895439148,0.0441955178976058,0.0250794961988925,-0.0416034646332263,0.1252124798163771,0.3552469778493046,92
1733378168357891800,0.1560451327145099,-0.7433462778560816,-1.0149076951503753,2.782238854712248,1.9076763265803456,9.208165051412582,-0.5385330319404602,0.958406150341034,3.2066447734832764,0.8220525114927334,0.161771696523976,-0.0659102608893139,0.5419551573664714,0.0551612116396427,0.017797527834773,-0.0759209096431732,0.0018957257270812,-0.0319467782974243,-0.0035111904144287,-0.439207911491394,0.0239290241152048,-0.0308031345427036,-0.0458470992743968,0.1438470376595854,0.1229582711488008,93
1733378168397891800,1.7601456319719553,0.5715479879535734,-0.5513000035643577,2.6576053438276053,1.4419756082378328,9.32889161798656,-0.4107595682144165,0.7558538317680359,1.9019248485565183,0.7954727517749773,0.1412660652609647,-0.0663534678281548,0.5855460482711035,0.0083686728030443,0.0356404408812522,-0.03178720921278,-0.004591941833496,-0.0308059751987457,0.0026523470878601,-0.3320413827896118,0.0269921440631151,0.1224064824849367,-0.0256926901638507,-0.0603176905795931,-0.1159501459524035,94
1733378168437891800,1.0258739103227854,0.2007562349699437,0.5400689999759197,2.468164137467742,1.2790100286103785,9.404397233086824,0.2556256949901581,0.5015823841094971,0.5525504946708679,0.782316062999682,0.1299657882917949,-0.0601505385436273,0.6061950658076822,-0.0013412130065262,0.0416173189878463,-0.003186787944287,-0.0003537535667419,-0.0118731558322906,-0.0029401220381259,-0.2000284790992736,0.0857615247368812,0.1401081433922052,0.0027389004826545,-0.0993738358132541,-0.237588566674292,95
1733378168477891800,-0.1077314759224653,-0.1407074244596064,0.0733528209805488,2.3772850121468303,1.456470728188753,9.401999524295327,0.6539875268936157,0.2088777273893356,0.0760479196906089,0.779100223384894,0.1345961005276352,-0.0501530360027291,0.6102224604313153,0.0273114703595638,0.0278134644031524,-0.0225908458232879,0.0017680525779724,0.0082090198993682,-0.0071088075637817,-0.0457109063863754,0.0804767906665802,0.0211620304942131,-0.0058240592479705,-0.0360267144098877,-0.081786010544002,96
1733378168517891800,-0.4457346196345985,-0.0428542223423719,-0.8467378248780966,2.2443786168269813,1.596092549368739,9.41199426408708,0.1727331578731537,0.5388746857643127,0.5621643662452698,0.7739268979323426,0.1363494766645803,-0.0391236407268036,0.6171833238339411,0.0692251026630401,0.0098569393157958,-0.0381940379738807,0.0104964971542358,0.0090741217136383,-0.007623016834259,0.0484756827354431,0.067110039293766,0.030073066702485,-0.064987301826477,-0.078573624368757,-0.0669143123656511,97
1733378168557891800,0.7514930516935885,0.3085955551810562,0.0031710312515497,2.061843536593765,1.5199759627632796,9.466195809873938,-0.2889350652694702,0.6939871907234192,0.4053235650062561,0.7681296835535839,0.1276134721693295,-0.0327589049237955,0.6265927332597643,0.1108718812465667,-0.0023453445173799,-0.040885429829359,0.0099394917488098,-0.003482848405838,-0.0061648450791835,0.1626974940299987,0.0353274159133434,-0.0459644633173942,-0.0951233729720115,-0.0668321870401501,-0.165994864320755,98
1733378168597891800,-0.0480436076790094,-0.0043114334583282,-0.1233960780441761,1.8377093486458065,1.3437176247119902,9.538743744212388,-0.4909766018390655,0.3303505778312683,0.0325078181922435,0.7663307543767856,0.1132394037580597,-0.0289180846779357,0.6317260680473696,0.0622191205620765,-0.00417658733204,-0.0066305883228778,0.0057443380355834,-0.022789180278778,-0.0052443742752075,0.3495916724205017,0.0028542764484882,-0.0927308906674385,-0.1637750566005706,-0.1351331314586102,-0.3522691310822963,99
1733378168637891800,-0.3089068130873143,0.03098696667701,-0.3110048082798719,1.7705669266127049,1.1925997192665934,9.571477554556727,-0.4147580862045288,0.1630182564258575,-0.1701831519603729,0.7688702606236038,0.1048779695887955,-0.0314812463815738,0.6299587623065123,0.0499802976846694,-0.0017697820439934,0.0350497476756572,-0.0030609369277954,-0.0238042473793029,-0.0010740756988525,0.5038536190986633,-0.0474382005631923,-0.2023983030885457,-0.2444953024387359,-0.0663062634699046,-0.027156302472949,100
1733378168677892000,0.437695397824794,-0.1829444647517055,1.0480354732483623,1.6700998887352645,1.0405177180293947,9.607209377673268,-0.388457715511322,0.2437596470117569,-0.2819482088088989,0.7725703086589428,0.0953344273346857,-0.0328631020308836,0.6268705250576938,0.0414019897580146,-0.0072658541612327,0.0477930419147014,-0.0055019855499267,-0.0093980729579925,-0.0026728585362434,0.47302907705307,-0.0700054615736007,-0.0948918680936098,-0.3260461091995239,-0.0753112615719437,0.3903048472270369,101
1733378168717891800,-0.3940184609226882,-0.859293574264273,0.8396510814875364,1.7006540169529616,0.9564084521695972,9.610590252283217,-0.1228111609816551,-0.3769215047359466,-0.1297601908445358,0.7758390275402726,0.0927761214431139,-0.0372674430126955,0.6229586531246799,0.0222144462168216,-0.0132924281060695,0.0180814824998378,-0.0104445219039917,-0.0012108981609344,0.0033208131790161,0.3640836775302887,-0.1005598157644271,-0.1107166292130947,-0.3904933333396911,-0.0440749963089823,0.4620344509199261,102
1733378168757891800,-0.0511176082968711,-0.0599628857925534,0.6636912879914045,1.8129506088338792,0.9161892545059322,9.59396644974053,-0.2237723767757415,-0.1722144037485122,-0.1414575576782226,0.7771778208764165,0.0946963978076938,-0.0433178570286729,0.6206052582153653,-0.0193689502775669,-0.0236674640327692,-0.0052040657028555,-0.0041942000389099,-0.0006095468997955,0.0022987201809883,0.3004695177078247,-0.1811533272266388,-0.0875391672432422,-0.3952387571334839,-0.0044812370672822,0.3720136959940195,103
1733378168797891800,-0.2322479362986981,-0.4536880628570914,1.322819213590026,1.8166108849070963,0.8258368564728646,9.601474048891664,-0.1861398965120315,0.1013373509049415,-0.0736870616674423,0.7789278562219037,0.0910564420777328,-0.0465809856554178,0.6187167825723981,-0.035312496125698,-0.0226778872311115,-0.0094182519242167,-0.011585533618927,-0.0063840448856353,0.0054287351667881,0.2131092548370361,-0.1752771139144897,0.0914735840827226,-0.3321956098079681,-0.0424804205939173,0.3308692001789808,104
1733378168837891800,-0.6984739936895669,-0.5520885966587812,1.1156833605855705,1.8129750126227733,0.8281699025303125,9.601960371103882,0.1693748831748962,-0.0520326271653175,0.0300451945513486,0.7793184230841758,0.0910044668384601,-0.0464161629460198,0.6182446657519056,-0.0614961646497249,-0.006308713927865,-0.0004076460609212,-0.0135111212730407,-0.0118927061557769,0.0040346980094909,0.1633709520101547,-0.171831414103508,0.1521288360536098,-0.1848590224981308,-0.0320092954620718,0.1760521479547023,105
1733378168877891800,-0.8848400303877889,-0.2085430163886397,0.1305097094416618,1.8209728795088824,0.8772735406562685,9.596084172546863,0.0821979492902755,-0.0039746272377669,0.1614512056112289,0.7778444839307433,0.0933437634270283,-0.0449756168150393,0.6198565344395532,-0.0695290490984916,-0.0002502356073819,0.0087613509967923,-0.0121519565582275,-0.0089150369167327,-0.0004897713661193,0.0994337573647499,-0.1516225934028625,0.1694049650251865,-0.0243161469697952,-0.0166525902457535,-0.0010714286237955,106
1733378168917891800,-0.287185687405616,0.0406906876329332,0.2286462585449218,1.899231592709571,0.9130993256665766,9.577554828643798,0.1513558328151703,-0.3158290088176727,0.0714812874794006,0.7752312970365071,0.0974956114881356,-0.0466392411183201,0.6223630273419963,-0.0629659593105316,0.0211201403290033,0.0242797918617725,-0.0057345628738403,-0.0040744841098785,0.0002040900290012,0.0849110037088394,-0.1146532148122787,0.1480418590009212,-0.0097252447158098,-0.1024026821151375,-0.2236743153512477,107
1733378168957891800,-0.230444686269015,-0.145816438036412,0.8140390858471394,1.9746204495623707,0.979746876854822,9.55569721710086,0.2115441113710403,0.0074997060000896,0.1542795449495315,0.7737975977739942,0.1027153699778596,-0.0473768980481159,0.6232513980895026,-0.01385407615453,0.0204126462340354,0.0089199421927332,-0.0074696540832519,0.0094522833824157,-0.0075202584266662,0.0837489068508148,-0.1019933000206947,-0.0210065476715564,0.0507827475666999,-0.0340448929429054,-0.0773521197497844,108
1733378168997891800,-0.222478383564949,-0.1086809586670249,0.3676268592119217,1.9247557639360424,1.0235651949889957,9.561277063059809,0.1350889652967453,0.2659332752227783,0.3419585525989532,0.7702970672431684,0.1030987723546971,-0.043372747896338,0.6277992724055516,-0.0229809954762458,0.0085249338299036,-0.0179316457360982,-0.0022454261779785,0.0022476613521575,-0.0094321370124816,0.1241989433765411,-0.1148978918790817,-0.0644932226985692,0.0620073415338993,-0.1114994501538574,-0.1829348932057619,109
1733378169037888000,0.1877560297518968,-0.0018375176254659,0.3541507070451974,1.8640747930020087,1.0569323348008095,9.569665536698698,0.2247095853090286,0.0664704367518425,0.2384539097547531,0.7661217620095995,0.1027088275767713,-0.0391628494629808,0.63322555107663,0.0209566354751586,-0.0059833289124071,0.0014561006100848,0.006065547466278,-1.6450881958007812e-05,-0.0141260027885437,0.1564056575298309,-0.1464414745569229,-0.122750382285472,0.0753039270639419,-0.1196901453314814,-0.1089883441157639,110
1733378169077888000,0.1860962798461317,-0.0333202319301664,0.1287304248094558,1.8658840343810617,1.1787960887111724,9.555066517981889,0.4182007610797882,0.0612081550061702,0.1736613363027572,0.7630529523522595,0.1077803315413803,-0.0347933140033659,0.6363356456625396,0.0318481661379337,-0.0156810712069273,0.0094059035181999,0.0063768029212951,-0.0056416988372802,-0.0083609223365783,0.1920037567615509,-0.1769666671752929,-0.0734621265739202,0.0847573578357696,-0.1359068923100829,-0.0729521312251687,111
1733378169117888000,0.0054807694986462,-0.0823820767410099,-0.4091699989557266,1.809473726503551,1.2752930539138614,9.553523964715003,0.1719484776258468,0.2881000339984894,0.2724280059337616,0.7597680450533888,0.1098822140583416,-0.0288399867381766,0.6401926181575313,0.057711187750101,-0.0189549997448921,0.0115531431511044,-0.0081769824028015,-0.008133441209793,-0.0089544057846069,0.2234233617782592,-0.2148956507444381,-0.1065694464057683,0.0974668487906456,-0.1323531453512609,-0.0669502604618668,112
1733378169157888000,0.1861561933398246,0.0752424341194331,-0.3928764512807131,1.7226210802197457,1.319529670525342,9.563566635301708,0.1952016949653625,0.1715922206640243,0.2234044224023819,0.7560569141720311,0.10886174214596,-0.0233009634897939,0.6449683242167435,0.0147906187921762,-0.018328359350562,0.0066027259454131,-0.0018401741981506,-0.0211104154586792,0.0037911534309387,0.2288349717855453,-0.2258412986993789,-0.1051367832541465,0.1020613387227058,-0.10813304246068,-0.0128746791422367,113
1733378169197888000,0.0912820070333778,0.0437603774018585,-0.5177525387495756,1.698084312595427,1.3807894642606378,9.559304886204004,0.1549673527479171,0.055186353623867,0.1390231996774673,0.7535652454154015,0.1105228844374601,-0.019893982510273,0.6477101073906603,0.0174385998398065,-0.004752735607326,0.021896393969655,-0.0032463669776916,-0.0177865028381347,0.0066082514822483,0.2044926285743713,-0.2111853063106537,-0.0594628273159265,0.1061456352472305,-0.0796279557272791,0.0767918555185198,114
1733378169237887700,0.0581380084529519,-0.0656501376487314,-0.364506096842885,1.686486667651683,1.40730089295879,9.557491699302195,0.0639146864414215,0.067727193236351,0.1768365055322647,0.7513399900748693,0.1112337913565336,-0.0181815937686626,0.6502190299012129,0.0293898023664951,-0.0003924483899027,0.0177103038877248,-0.001076340675354,-0.0137921273708343,0.0011649057269096,0.1232160553336143,-0.1936522126197815,0.0343044206619262,0.1859081089496612,-0.071562138171494,0.146455174331367,115
1733378169277888000,0.1802025456324219,-0.0095250764533877,-0.2675426831722259,1.6684204112157224,1.4246480413399636,9.558092587804794,0.085474781692028,0.0828470736742019,0.1567796170711517,0.748913756681016,0.111360947417327,-0.0164813568126041,0.6530355068104696,-0.0141515498980879,-0.0088373851031064,-0.0011517998063936,-0.0089277625083923,-0.0239981710910797,0.0008752942085266,0.0617822222411632,-0.1669721603393554,-0.0079874916225671,0.2324622571468353,-0.0377685896411538,0.0034548166289925,116
1733378169317888000,-0.0050108138993382,0.0049910862855613,-0.3615226971179247,1.651473221937567,1.432277951696515,9.559895253312588,-0.0068173804320394,0.0765436887741088,0.1231362223625183,0.7472701984693447,0.1111189328185842,-0.0152827975049625,0.6549858092620073,-0.077271394431591,0.0040705832652747,0.0131461126729846,-0.0096494555473327,-0.0283681154251098,0.0166292786598205,0.0101351551711559,-0.1336868107318878,-0.0493295558363199,0.2405222952365875,-0.028725597616285,-0.0719590285345912,117
1733378169357888000,-0.110012864857912,0.0100752576820552,-0.1660322737216949,1.6379625829793512,1.4029526346214114,9.56656581711769,-0.0734046846628189,0.013784410431981,0.1749123036861419,0.7453249066603717,0.1095608385779823,-0.0154044165046256,0.657457100615559,-0.0913107842206955,0.0307755377143621,0.0441676117479801,0.0045323967933654,-0.013805478811264,0.0022617615759372,-0.005911087617278,-0.1134695038199424,-0.1158978312432765,0.217439591884613,0.0061583034340292,-0.0904813581749796,118
1733378169397888000,0.1484478094533085,0.0169233700111508,0.3702127840518951,1.648400536493957,1.3809911243125796,9.567968669652938,0.0165053606033325,0.0244939681142568,0.1747264713048935,0.7431148889792554,0.109121781506339,-0.0161802022335003,0.6600083347657001,-0.0683876201510429,0.02551712654531,0.0151981450617313,-0.005163550376892,0.00828617811203,-0.0088830664753913,0.0017859223298728,-0.0819133222103118,-0.1077367366194725,0.1681040227413177,0.0047247634995728,-0.066235682451725,119
1733378169437888000,0.5458325319387018,0.2379720130339264,0.29183599742949,1.6261572866342962,1.3775155571565032,9.57227484241426,-0.0028666798025369,0.114996924996376,0.0781358480453491,0.7412648245746072,0.1082634052642793,-0.0151273483037337,0.6622512456847288,-0.0218235850334167,-0.0270099975168705,-0.0005294190486893,0.0043564438819885,0.0192266404628753,-0.0217233896255493,0.0208943020552396,-0.0601614639163017,-0.104475688996911,0.10590111464262,0.0295088569484651,-0.0444596117123961,120
1733378169477887700,0.0991077322229743,-0.0784568661212921,0.4751362168163061,1.5847640767551958,1.3882346657000482,9.577667056846618,0.1091951429843902,0.1098021566867828,0.0960440039634704,0.7402660550063109,0.1072656934000231,-0.0129976025976012,0.6635746743129968,0.0171829350292682,-0.0486536659300327,-0.0387422516942024,-0.0006299614906311,0.0145973861217498,-0.0071447491645812,0.0400026813149452,-0.0384096093475818,-0.1009217959076166,0.043698213994503,0.0542046875920146,-0.0228062905699014,121
1733378169517887700,0.1843758857943117,0.0135806354545056,-0.003787701845169,1.5467814059719442,1.4428423080697654,9.575805939149856,0.1741363406181335,0.1228066608309745,0.1392580866813659,0.7382945448823411,0.1080837734618548,-0.0093633933002053,0.6656962710788905,0.0415956005454063,-0.0496355220675468,-0.0375607386231422,-0.0014740228652954,-0.002182126045227,0.001811146736145,0.000673085451126,0.0213332660496234,-0.0080161331951618,0.0483372062444686,0.0152286218572407,0.1243453415930271,122
1733378169557888000,0.1479423441492021,0.1719490965500474,-0.3730412854760885,1.5040568013586102,1.4924699700698256,9.575005728682877,0.1138475015759468,0.1272917985916137,0.0902749150991439,0.7364863724115952,0.1085248254708943,-0.005739794111069,0.6676654657460834,0.0244315266609191,-0.0337818302214145,-0.0285946764051914,-0.0061968564987182,-0.020500361919403,0.0202863737940788,-0.0331765674054622,0.0040910933166742,-0.0551157380223274,0.0281993765383958,0.0422450774680823,0.0236672913134098,123
1733378169597888000,0.0724791068859398,0.1486105987995863,-0.5467407328248024,1.464897634141892,1.5170055686503647,9.577220482122897,0.0371091924607753,0.0802583321928978,0.0637967884540557,0.7353250682726045,0.1081079595078193,-0.0032117252281343,0.6690287409133432,-0.0185279212892055,-0.0099507998675107,-0.004715974908322,-0.0044670701026916,-0.0214506387710571,0.0168776549398899,-0.0741014555096626,0.0150546347722411,0.0538064089894294,0.0421950705349445,0.0264351485915482,0.1317322369739413,124
1733378169637782300,0.055210576698929,0.044669601201266,-0.2373947976678609,1.4516399470314385,1.5262259630687534,9.577774024352433,0.0518858097493648,0.0319498926401138,0.0367078892886638,0.7346993013545793,0.108000829678045,-0.0022878607499303,0.6697370081498415,-0.0037540369667112,-0.010958113707602,0.0053060329519212,0.0039783716201782,-0.005746990442276,0.0028435587882995,-0.1311175972223281,0.0401944667100906,0.0829073244578205,0.1014638021588325,-0.0075206350167543,0.1042236321982927,125
1733378169677782300,0.02972819878757,0.0044474809281528,-0.2953156562387943,1.449439514377713,1.5329292600996791,9.577036942249537,-0.0088270809501409,-0.0164986159652471,0.0387466587126255,0.7340751130916164,0.1081826884290352,-0.0018743875818054,0.6703928892307063,-0.0070339860394597,-0.0149118965491652,-0.0114702843129634,-0.0060864090919494,-0.0041351616382598,0.0048456192016601,-0.2408605962991714,0.0585115700960159,0.0525122775256633,0.156755119562149,0.0038726767148822,0.093850834608078,126
1733378169717782300,-0.0696186028882861,0.0298491948187351,-0.1348673201292753,1.4578066529676317,1.5317688380181789,9.575952654144167,0.0189825929701328,-0.0419555604457855,0.0103441327810287,0.7338453951459889,0.1084318372585598,-0.002197617892469,0.6706032654427634,-0.0297432951629161,-0.0251431763172149,-0.0093872919678688,-0.0032857656478881,-0.0113081634044647,0.0015727207064628,-0.362112283706665,0.0734840035438537,-0.0265600901454687,0.171906903386116,0.0285781519696116,0.2005389389574527,127
1733378169757782500,-0.1125441369011998,0.1113033430598676,-0.1891314097583293,1.479633138719946,1.5345606606937945,9.572157353514433,-0.0316123738884925,-0.0349613800644874,0.0579965226352214,0.7333195260588068,0.1093053574466345,-0.0028537022937762,0.6710341077170452,-0.0281251557171344,-0.0094932690262794,0.0005078155081719,-0.0060548186302185,-0.0098678171634674,0.009797565639019,-0.4596734046936035,0.0748159885406494,-0.0622989275246858,0.1405661404132843,0.0335064021520316,0.1180553015381097,128
1733378169797782500,0.0583433217667043,0.16827011577636,0.1910240916371345,1.4787339979231358,1.495250979090482,9.578515198108551,-0.1049362048506736,0.0196567270904779,0.0428608544170856,0.7328029842874232,0.1077729281430539,-0.0040779665597977,0.671839465504574,-0.0299920327961444,-0.0003351904451847,-0.0067607499659061,-0.003048837184906,-0.0055376589298248,0.0029065012931823,-0.4941557645797729,0.0834275186061859,-0.0237169756740331,0.0881461352109909,-0.0248876268886029,0.0621855302780866,129
1733378169837782300,0.0987928210549056,0.0338853184670209,0.4733990177601576,1.4851212147422137,1.4937649783164262,9.5777588267833,0.0894353538751602,-0.0479795150458812,0.0011848388239741,0.7325595171258258,0.1079417144926732,-0.0043342045920263,0.6720760963325895,-0.0360355451703071,-0.0169741958379745,-0.0184496976435184,0.0025969743728637,-0.0060676038265228,-0.0009205937385559,-0.4832883477210998,0.110030360519886,-0.0377168594539165,0.037940640002489,-0.0191535402160137,0.0023325346007943,130
1733378169877782300,0.0145705232746899,-0.0586040185295045,0.319186361169815,1.494674348246306,1.518019567998499,9.57245779776573,0.0475701317191123,0.0440609641373157,0.0069775143638253,0.7326201934756918,0.1092035398005335,-0.003880950066626,0.6718090112868255,-0.0374440923333168,-0.0174322053790092,-0.0106297237798571,-0.0046028494834899,-0.0090768635272979,0.0023848488926887,-0.4846644401550293,0.1444537341594696,0.0079302084773778,0.0097404643893241,-0.0230539086554199,0.0317544439181685,131
1733378169917782300,0.1177761923357844,-4.0916532278e-06,-0.1419692610889673,1.470327696366608,1.5399246719449755,9.572729600444436,0.0632983222603797,0.097928337752819,0.0601756386458873,0.7317894491515758,0.1091895217711964,-0.0020653820065657,0.672724123124009,-0.0191811956465244,-0.0116202821955084,-0.0026942361146211,-0.0025803446769714,-0.0063901543617248,-0.0026034638285636,-0.4686223268508911,0.1656061261892318,0.0294715936779975,0.0161716062575578,-0.0163739925000816,-0.0072910337910056,132
1733378169957782300,-0.0064214113496243,-0.1164503505595028,0.0266810861766338,1.439650234030187,1.5677854694254696,9.57286988569796,0.1448001861572265,0.0707180052995681,0.0441962480545043,0.7311191827626493,0.1091761594562856,0.0001693130985258,0.6734576533588309,-0.0408886224031448,-0.0089309150353074,-0.0070345229469239,-0.007189393043518,-0.0058143138885498,0.0026914477348327,-0.4570981860160827,0.1998065412044525,0.0433563266456127,0.0342654474079608,-0.0280799931891262,-0.0234472188219428,133
1733378169997782500,0.0815248753897845,0.1834784985631704,-0.374153630632162,1.413354786170274,1.6317752726465462,9.566092354387044,0.160910815000534,0.1111815869808197,0.0498307347297668,0.7298654734043423,0.1106900228201701,0.0035705659871853,0.6745600865303831,-0.0306013636291027,0.0005220278399065,-0.0105785904452204,-0.0025796890258789,-0.0004763007164001,0.0004510357975959,-0.4152964651584625,0.2062430530786514,0.0058270987182855,0.0422981232404708,-0.0485066951461136,-0.054019759479165,134
1733378170037782500,0.0280685950122773,0.1746314675018191,-0.3959335007637738,1.3601194550670683,1.675936778195202,9.56617477197349,0.0847504064440727,0.1554643809795379,0.0201382711529731,0.7291147286957065,0.1104919125106533,0.0072370407294737,0.6753745437466556,-0.033155869692564,0.0174306500703096,-0.0059698577970266,-0.0070405006408691,-0.00442835688591,0.003893919289112,-0.3645729124546051,0.216308519244194,-0.0161140994548797,0.0465331822633743,-0.0570500670857727,-0.0659232555016875,135
1733378170077782300,0.1641072970084846,0.016180734950304,-0.1040302833169698,1.3316701901741326,1.7034546074569223,9.56531669383943,0.0748334378004074,0.0091154975816607,-0.0665172114968299,0.7292815126822969,0.110540718729294,0.0092373574213042,0.675162219020795,0.0071188504807651,0.0163722578436136,0.0080122705549001,-0.0046371817588806,0.0003759264945983,-0.0042842626571655,-0.2978788614273071,0.2122627347707748,-0.0445849916577339,0.0383150018751621,-0.0643812136914581,-0.0674000500559806,136
1733378170117782300,0.1070752039708197,-0.0283348447330296,-0.0951157399773597,1.318073334237188,1.7261230969913304,9.56313584266901,0.016215244308114,0.0524266473948955,-0.0492114275693893,0.7300075470693328,0.1109383692191269,0.0104137481396047,0.6742946979098506,0.0055457213893532,0.0194100197404623,0.0044722636230289,-0.0084088444709777,-0.001085877418518,-0.0017387270927429,-0.2451640367507934,0.204478919506073,-0.039894203492999,0.0180265773087739,-0.0870253725022077,-0.0122255675837397,137
1733378170157782300,0.0165780637048184,-0.1087817156277596,0.0522936663389205,1.282725103610754,1.7238202268764375,9.5683562076658,-0.0172649808228015,0.1207611933350563,0.0350145921111106,0.730165689055144,0.1096073077958341,0.0116545021004642,0.6743208673204697,0.0141147086396813,0.0277528502047061,0.0055907247588038,-0.0055745244026184,0.0014828741550445,-0.0005055665969848,-0.2116298079490661,0.1819099336862564,-0.076360770624876,0.0053368527442216,-0.0783401078738272,0.007435702958703,138
1733378170197782300,0.1343481185607612,0.0721127577915787,-0.0035784430086612,1.244262978747487,1.7184506626673042,9.57439899496138,0.0031350157223641,0.0837131291627883,0.0202488228678703,0.7296440999313958,0.108037284363536,0.0130168226168812,0.6751132788129374,0.0153147289529442,0.0318307876586914,0.0102242259308695,-0.0072898864746093,-0.0037868916988372,-0.0014417767524719,-0.183602824807167,0.1656218767166137,-0.1107388410449028,-0.0190846156328916,-0.0951633785113692,-0.0680453622221946,139
1733378170237782300,-0.0142510089967399,0.1078762912206351,-0.0971007763147354,1.2249688610170035,1.7256334137782454,9.575595511269569,0.0144815165549516,0.0077742142602801,-0.0219328142702579,0.7296867739613133,0.1076326962428564,0.0139897607168737,0.675112451728305,0.0448912605643272,0.0308954864740371,0.0154934898018836,-0.0015995502471923,0.002555638551712,-0.0106262639164924,-0.1516807079315185,0.1517480164766311,-0.0792144064903259,-0.0416574031114578,-0.0976434318240731,-0.0649298605501651,140
1733378170277782500,0.0790329124435782,0.0701107703194022,0.1668412520170211,1.2184747497573494,1.7276354012504218,9.576063128781318,0.0154121126979589,0.0321566574275493,-0.022683560848236,0.7300254588305668,0.1074875477667151,0.0142512694862394,0.6747638616078934,0.02555937692523,0.0101695423945784,0.0018216194584965,-0.0051367878913879,0.0011128187179565,-0.0064973831176757,-0.128369927406311,0.1259543597698211,-0.0938736309617757,-0.0227140337228775,-0.0948703138489276,-0.0432578347072005,141
1733378170317782500,0.0018706892427057,0.0712007575131952,-0.0995773955613374,1.1995695582792163,1.7421078709781168,9.575827566459774,0.0295814424753189,0.0462877489626407,-0.0106013622134923,0.7300983933282734,0.1073769224955925,0.0154549178284074,0.6746760517677379,0.0650050565600395,0.0062967729754745,-0.0046934047713875,-0.004987895488739,0.0053513348102569,-0.0079259350895881,-0.1075031161308288,0.1070946007966995,-0.049696635583043,-0.0066780447959899,-0.106743633928895,-0.0479988917544484,142
1733378170357782300,-0.0385832670249044,0.039032618227601,-0.0139952076047658,1.180318183711916,1.7477900082677602,9.577184826287626,0.0270838029682636,0.0189150609076023,-0.0286400727927684,0.7304219228333859,0.1069243230806558,0.0163300644003719,0.6743771009544688,0.0407551079988479,0.0136686684563755,-0.0083486596122384,-0.0059710144996643,-0.0086077153682708,0.003700315952301,-0.0986688658595085,0.1033350825309753,-0.042104280757904,0.0054709827527403,-0.095047570111975,-0.0744315561279654,143
1733378170397782300,-0.0405423652034252,0.1077180319190025,-0.3089659959286451,1.1807809058528391,1.766044188491255,9.573778232714533,0.0052433758974075,-0.013603095896542,-0.0309338849037885,0.730706423420021,0.1076464972001161,0.0168935028911835,0.673939838631371,0.019310001283884,0.0119944997131824,-0.0022395013365894,-0.002445638179779,-0.0105974972248077,0.0022743269801139,-0.0879871174693107,0.088303655385971,-0.0476420411407947,0.0199832003563642,-0.0842385913278907,-0.0501397031754255,144
1733378170437782300,-0.1102482079837471,-0.0122848965555429,0.044148353806138,1.166240777716413,1.7486797967143357,9.57874666877687,-0.0447457358241081,0.0560676157474517,-0.0003975194413214,0.7311265425519182,0.1064806644056335,0.0167841475090226,0.6736722327550586,0.0008436442585662,0.0182312503457069,0.0059935944154858,-0.0075214505195617,-0.0108404755592346,-0.0019248127937316,-0.0856215059757232,0.0718912780284881,-0.0589987169355154,0.0477939248085022,-0.074191244566068,-0.0034597850650548,145
1733378170477782300,0.1119452211599797,0.0977807214029133,-0.0151665894716978,1.1580291219491512,1.7595212164632974,9.57775765773952,0.0830936729907989,-0.0157828126102685,-0.0172350294888019,0.730974554889326,0.1066034559501759,0.0174921461303843,0.6737996148876919,0.0205481052398681,0.0075940522365272,-0.00388646684587,-0.0081299543380737,8.341670036315918e-05,-0.0069538429379463,-0.0788204297423362,0.0525233596563339,-0.06898644246459,0.0505147688090801,-0.0803156457304954,-0.0301762348160147,146
1733378170517782500,-0.0184339207045733,0.0509311458140611,-0.2955103020280599,1.1636105022780596,1.7773410969227552,9.573789923152328,-0.030884850770235,0.0063253967091441,-0.0197315048426389,0.7312759228706229,0.1074904195218755,0.0178428951950578,0.6733223663130974,-0.0022506825625896,-0.0032152927014976,-0.0104931034147739,0.0007652044296264,-0.0044585466384887,-0.0017806887626647,-0.0725021734833717,0.0413148179650306,-0.0700444270849227,0.038686491549015,-0.0710685825008898,0.0213274501889944,147
1733378170557782500,0.0402191976636648,0.0260506793186068,0.0282949511140584,1.143563885679841,1.7652610752895472,9.578439210262896,-0.0108919767662882,0.0406774990260601,-0.0302370246499776,0.731643336075803,0.1063329334968262,0.0181332612757384,0.6730991926499289,0.0082898419350385,-0.0040688356384634,-0.0141775868833065,0.0022599697113037,-0.0046171844005584,-0.001977801322937,-0.0598990693688392,0.0330379046499729,-0.0724807143211364,0.0281929597258567,-0.0538449143689125,0.0131175479874014,148
1733378170597782300,-0.0483484358444809,-0.0431349389798939,0.1361708039432764,1.1326225126877427,1.7698033948943015,9.578900982555746,0.0348321497440338,0.0174156390130519,-0.0254465993493795,0.7319925321729611,0.1061326323461733,0.018650025085118,0.6727370567528718,-0.0066670030355453,-0.0079881567507982,-0.0027609483804553,-0.0017989873886108,-0.0111507177352905,-0.0004507303237915,-0.0466188713908195,0.0432826876640319,-0.0156985043913126,0.0259970277547836,-0.0781942696623504,0.0618158201828598,149
1733378170637782300,-0.0181141872309148,0.1013276002295315,-0.2085059723138809,1.1240857166193423,1.795777940236777,9.57507177965641,0.0555983781814575,0.0034145612735301,-0.0371800027787685,0.7322136650562092,0.1068364056166768,0.0198291071678916,0.6723510195477953,-0.0302940346300601,0.0059366603381931,0.0020975898951292,-0.0118135213851928,-0.010049283504486,0.0004888214170932,-0.0393797345459461,0.0452368445694446,-0.0146177234172821,0.0191277861595153,-0.0843183055005967,0.0343517669349908,150
1733378170677782300,-0.0505748066570609,0.1145268351510167,-0.1741851850390434,1.1200346876628695,1.8009839844472706,9.57456850630939,-0.0180073827505111,0.0123412339016795,-0.0095946872606873,0.7324797402767207,0.1069021940322398,0.0201191850002411,0.6720420742609989,-0.0181835778057575,-0.0002199821756221,0.0066263615153729,0.0001159310340881,-0.0001439154148101,-0.0014768242835998,-0.0423907227814197,0.0434921607375144,-0.0238180979609489,0.019303310662508,-0.0761369718063622,0.0707093207344412,151
1733378170717782300,-0.0365070452727377,0.0527595302850008,-0.1311164431631565,1.1167409068144858,1.79810799061954,9.575493804460764,-0.0162272881716489,-0.000457884336356,-0.0268735010176897,0.7327662649169808,0.1066848007414953,0.0201007446290548,0.6717647549532125,-0.0188935734331607,0.0026628896594047,-0.0182202644646167,-0.0053246617317199,-0.0007176101207733,0.00111585855484,-0.0533841699361801,0.043693620711565,-0.0354202729493379,0.0177489314228296,-0.0769317023806274,0.0896273716941475,152
1733378170757782500,-0.1444501911845058,-0.0685647099211812,-0.052540919098258,1.10572215773724,1.7922402676299214,9.577872224029898,-0.0175654552876949,0.0339793153107166,0.0079539744183421,0.7329721483491206,0.1060794204603418,0.0202872930567733,0.6716303831350643,0.0062176370993256,0.0054940963163971,-0.0042197611182928,-0.0048406720161437,-0.0019852519035339,-0.0080203413963317,-0.0564834102988243,0.0325796082615852,-0.0288122529864311,0.0063091591000556,-0.0828511555574834,0.0740478175073862,153
1733378170797782500,0.014153978363052,0.0458064962767064,-0.095574005138874,1.0930146518554538,1.7851592233277855,9.580652794659136,-0.0265900790691375,0.0368250869214534,0.0082351192831993,0.7328268043249115,0.1053577718447978,0.0205520202459317,0.671894508577161,-0.0367719084024429,-0.0027491329237818,0.0018033769447356,-0.0076696276664733,-0.0124637484550476,-0.0013434961438179,-0.0540714189410209,0.0234089065343141,-0.0188368024170398,0.0048078773543238,-0.082659724638611,0.073680737760663,154
1733378170837782300,0.0670229603718966,0.0204192493028938,0.0092915599584579,1.078153694266826,1.7714912018507718,9.584873042702675,-0.0267161857336759,0.0324654094874858,-0.0101843113079667,0.7329306844646545,0.1043154936353567,0.0206340741069959,0.6719412618963856,-0.0106636080890893,0.0150530338287353,0.0216184947639703,-0.0025931596755981,-0.0011715590953826,0.0002074837684631,-0.0420599319040775,0.0241721402853727,-0.0301753580331802,-0.0041348598897457,-0.0895046220973134,0.0320680399119853,155
1733378170877782300,0.1095146330121904,0.0750159318871796,-0.1594756916850805,1.069330409407243,1.7721106489233671,9.585746902927756,0.0014292653650045,0.0016461298801004,-0.0107596712186932,0.7329982083199014,0.1040324182752105,0.0209806596683481,0.6719007860269377,0.0075654629617929,0.0264563690871,0.018797805532813,-0.0047576427459716,0.0015841424465179,0.0003204345703125,-0.0323619209229946,0.0172748211771249,-0.0398877737522125,-0.011606678366661,-0.0806217160049825,0.0269663328588008,156
1733378170917782300,-0.0482975824400782,0.0409054263621568,-0.1485866334021091,1.0637382884886115,1.763125378435105,9.588025369253756,-0.0380529463291168,0.022500604391098,0.0008238062146119,0.7332028610440149,0.1034979747769434,0.0208545986267889,0.6717639539312766,0.0069377557374536,0.0221391189843416,0.0111982766538858,-0.0073155164718627,0.002219408750534,-0.0054907798767089,-0.0264892745763063,0.017138672992587,-0.0438683678209781,-0.0217998884618282,-0.0918541808981448,0.0154787241607904,157
1733378170957782300,0.086622417724505,0.1327712246328592,-0.2039911252379417,1.0721711857911198,1.7626883021920918,9.587166706597804,0.005676326341927,-0.0570348538458347,-0.0230763498693704,0.7332894583394017,0.1037789794068119,0.0205052248032059,0.6716368130232467,0.0076320418156683,0.0085040014237165,0.0039246510714292,-0.0061345100402832,0.0027460157871246,-0.0068510174751281,-0.0228631887584924,0.01413737796247,-0.0599842208415269,-0.0289970841258764,-0.1000988621521741,0.0027434534892439,158
1733378170997782500,-0.0011123451560735,0.0534160944975912,0.0504775568276643,1.0752110649436712,1.7432826138459143,9.590373978206514,-0.0776936039328575,0.0416306890547275,0.0003204057575203,0.7337088754629191,0.1031525029550669,0.0196614975726495,0.67130044821443,0.0200498290359973,0.0031399154104292,-0.0115754781290888,-0.0064734816551208,0.0042176842689514,-0.00885009765625,-0.0178517140448093,0.0057734129950404,-0.0556166732817888,-0.0273516606539487,-0.0940827436678111,-0.0190007608070969,159
1733378171037782500,-0.0760336575623601,0.1082313882686197,-0.1328092185556888,1.0572074254151431,1.720489767279476,9.596489830738305,-0.0672561973333358,0.0307801123708486,0.0093192905187606,0.733705898737877,0.1016477840271977,0.0195685501492145,0.671535926187677,0.0161467008292675,0.0010910921264439,-0.0044924691319465,-0.0068845152854919,-0.0018483698368072,-0.0039157234132289,-0.0136638414114713,-0.0067926757037639,-0.047317046970129,-0.0141918770968914,-0.0601885112419724,-0.0101247959122061,160
1733378171077782300,0.0163205818124115,0.0020250760868191,0.2099777984321117,1.0470041574392468,1.7005514333613216,9.601160745158792,-0.0073697101324796,0.0269766822457313,-0.0183781459927558,0.7339210503274202,0.1005322447276538,0.0192430082204804,0.6714781473096341,0.0026647136546671,0.0084087131544947,0.0020021819509565,-0.0032861232757568,-0.0078431069850921,0.0036284327507019,0.001955360174179,0.000359256286174,-0.0144260002374649,-0.0038707125931978,-0.0733214759942144,0.0082058105483651,161
1733378171117782300,-0.0482199871592223,0.0925755539752542,-0.1641606346309184,1.0518393955759704,1.7099590209148825,9.5989611892879,0.0234867576509714,-0.0471694320440292,-0.0120464581996202,0.7340463257343605,0.1010658257374638,0.0193616328836376,0.6712577642823542,0.0325818657875061,0.0179990231990814,0.0016332007944583,-0.0025736689567565,-0.0004323720932006,-0.0047292672097682,0.0112517308443784,0.0052871820516884,-0.0158908120930194,-0.0008232523687183,-0.0726995447035878,0.0264887784749269,162
1733378171157782300,0.0393991865176707,0.2117594211518764,-0.2298006892770528,1.0566962610226125,1.698813503652811,9.600406711921096,-0.0946097299456596,0.0385249182581901,-0.0078598819673061,0.7342641708028168,0.1008138193235784,0.0187630580598423,0.6710742292292846,-0.0065460950136184,0.01042041182518,-0.0009987346129491,-0.0054472684860229,-0.0081619918346405,0.0018221177160739,0.0110999904572963,0.0039172144606709,-0.0410211616963148,-0.0068612922914326,-0.0632367198314517,0.0196601014986634,163
1733378171197782300,-0.0558561080608516,0.0577899256676435,0.1108984155207872,1.0488512466106563,1.672020773795247,9.605969022223352,-0.0007087993435561,-0.0303011294454336,0.0018699860665947,0.7344127720653431,0.0995157545260661,0.0181243892999451,0.6711230159097694,0.0013421879848465,0.0065380553714931,0.0060818786732852,-0.0069385170936584,-0.0025950670242309,-0.002764519304037,0.0078204553574323,-0.0086649674922227,-0.06499532700181,-0.0112989302724599,-0.0580417815368622,0.0442439231351017,164
1733378171237782300,0.1748387535769492,0.1228418051622807,-0.0445721321761608,1.0664051696103063,1.676400742445141,9.603272622746228,-0.0198431480675935,0.0020577609539031,-0.0095184631645679,0.7344878147537542,0.1002986043805591,0.0175940876230573,0.6709383123263494,0.0001416350714862,0.0090076578781008,-0.0019077381584793,-0.0026995539665222,-0.0018974244594573,-0.001672089099884,0.0097992438822984,-0.0215871036052703,-0.0481119967401027,-0.0154025088995695,-0.0614362462807446,0.0304284560114145,165
1733378171277782500,0.0434925933111459,0.035661534359306,-0.0783370391339063,1.0529021294366567,1.6594332410313188,9.60770855936706,-0.0468430146574974,0.0273641366511583,-0.0053348168730735,0.7346430568292903,0.0991803031952776,0.0175060117091319,0.6709370319517772,-0.0202424675226211,-0.0015347846783697,-0.0101453615352511,-0.0011643171310424,-0.004117339849472,-0.0023682750761508,0.0169108435511589,-0.0277179926633834,-0.0401432098180055,-0.0270361751317977,-0.0385814403939992,0.0134162386730313,166
1733378171317782500,0.0478886363130062,0.0896747179672122,-0.040479894426465,1.0491046368498351,1.653154453022778,9.609206104448438,-0.0105436071753501,0.0088594174012541,-0.0210521388798952,0.7348917005533532,0.0988133913099897,0.0173995875262596,0.6707214750527314,-0.0181332416832447,-0.0035349254030734,0.0010395823046565,-0.0056063532829284,-0.0051702558994293,0.0040841102600097,0.0267464183270931,-0.0258932225406169,-0.0035486323922872,-0.0207372084259986,-0.0481041787598282,0.0288245279461145,167
1733378171357782300,-0.0548975652270019,0.0692046152599155,-0.0908002148658037,1.0362209706835448,1.6401057324878872,9.612839492514729,-0.052445963025093,0.0293721258640289,-0.0100724743679165,0.7350920346169602,0.0978686961946874,0.0174156345487925,0.6706399803283655,0.010013174265623,0.0129071651026606,0.0067960722371935,-0.0064756274223327,-0.0016258656978607,-0.000166829675436,0.0278883464634418,-0.0233054738491773,-0.0026408698976039,-0.0147014241665601,-0.0345672363165766,0.0352530996888875,168
1733378171397782300,-0.0567076833888888,0.084079966700077,-0.0853249983251094,1.035337611977756,1.6385481277823448,9.613200142520666,0.0243091341108083,-0.0188081059604883,0.0073723690584301,0.7350913820541951,0.0977781240067601,0.0173962137695339,0.6706544499001786,-0.0204834826290607,0.0048773079179227,0.0079934950917959,-0.0028942823410034,-0.0061529576778411,0.0006969012320041,0.0149865569546818,-0.0181006155908107,-0.015319149684906,-0.0208331812173128,-0.0146969261333346,0.0688207305088639,169
1733378171437782300,0.0463051665138453,0.1073614735662937,-0.1728250026017427,1.0366221718955784,1.627387266820669,9.614957799842951,-0.0886311382055282,0.0294416286051273,-0.0072102509438991,0.7351355098096338,0.0973958761887781,0.0169598148249146,0.6706729900643302,-0.0185668058693408,-9.51863476075232e-05,0.0097318068146705,-0.0045831799507141,-0.0012005567550659,-0.0009499751031398,0.0021558366715908,-0.0110867228358984,-0.0059638768404722,-0.0244260635226964,-0.0140204881764948,0.0788245303899049,170
1733378171477782300,0.0176120098624378,0.0290823020994663,0.0761877521455288,1.0195262217964975,1.605409389898926,9.620478609091045,-0.0065189590677618,0.0196069963276386,0.0033723644446581,0.7351825278594796,0.0959585381288565,0.0168537998072754,0.6708312791209473,0.0208053663372993,0.0079579465091228,0.0080184629186987,-0.0069414973258972,0.0036094784736633,-0.0013749562203884,-0.0029770107939839,0.0031924173235893,0.0026642507731914,-0.0325989574193954,-0.0348902577258646,0.0735626643389463,171
1733378171517782500,-0.0741252666577696,0.0416965767398476,-0.2931242836743593,1.0291124538525938,1.6109009730525314,9.618539749982952,-0.0183115154504776,-0.0506012476980686,-0.0035210829228162,0.7352227341265272,0.0965041074796849,0.0166704276195799,0.6707135285027568,-0.0018871612846851,0.0150785995647311,0.0021374705247581,-0.0029777884483337,-0.0053699910640716,0.0026360154151916,-0.0084839425981044,0.0135780200362205,-0.0108995796769857,-0.0450070202350616,-0.0585148789413273,0.0644572746023535,172
1733378171557782500,-0.0311566241554915,-0.0002320551902055,0.0040980829685926,1.030735817270726,1.585792104628682,9.622537879708409,-0.077879749238491,0.0357210300862789,0.0094115259125828,0.7353498312659215,0.0956011797217705,0.0157330709790484,0.6707261537882568,0.0023786902893334,0.0208048745989799,0.0203927084803581,-0.0041382312774658,-0.006186157464981,0.0001471042633056,-0.007187723647803,0.0159079581499099,-0.0298135389834642,-0.0645896643400192,-0.0750394588932395,0.0223331201002001,173
1733378171597782300,0.0061125645961612,0.0990079251103103,-0.0699374595791101,1.025489075723663,1.574838310546428,9.624897010055184,-0.0085956323891878,-0.0264742579311132,0.0040217316709458,0.7351789080472092,0.0949947068722613,0.0155830934945761,0.6710031961004708,-0.035384401679039,0.0108432155102491,0.0123033551499247,-0.0019834637641906,-0.0078921616077423,-0.0020697712898254,-0.0016131121665239,0.0050982916727662,-0.0399812972545623,-0.0573857314884662,-0.0662908467050641,0.0270016964331269,174
1733378171637782300,0.0842066618196666,0.0290467923946678,0.0087982234835624,1.0310424720671028,1.5630973116092384,9.626217445003986,-0.0439644753932952,0.0233143046498298,0.0020363139919936,0.735225605174721,0.0947395397920079,0.014963959377164,0.6710020009374456,0.0007176767103374,0.0147906588390469,0.0218334756791591,-0.0052981376647949,0.0036659240722656,-0.0036535300314426,0.0055949748493731,-0.0024976041167974,-0.0436672922909259,-0.0586937703192234,-0.071097735530138,0.0092599957764148,175
1733378171677782300,-0.0515851527433842,0.0551243597202003,-0.1901256814926862,1.0207879122953862,1.558418067751825,9.628068625828623,0.0062982821837067,-0.0072370423004031,0.0114981671795248,0.7351278098695345,0.0942009205240397,0.0152082854210114,0.6711795444354661,0.0062453337013721,0.015623802319169,0.0189298316836357,-0.0088803172111511,-0.0002545118331909,-0.0047377943992614,0.0124317407608032,-0.016165554523468,-0.0348842663764953,-0.0581116862595081,-0.0641105800565332,0.0094686700910329,176
1733378171717782300,-0.0108440500974655,0.0900993731200694,-0.1855021133452653,1.0304746821165085,1.5500784016907214,9.628383098605276,-0.0509669482707977,-0.013263750821352,0.0186180137097835,0.7350100257062417,0.0942165517656944,0.0145711218379177,0.6713205357218582,0.0104366168379783,0.0009511163225397,0.0054437848739326,-0.0024874210357666,0.0008905231952667,-0.0032138787209987,0.0150386076420545,-0.0116542037576437,-0.0266314018160104,-0.0564834214746952,-0.0653345688935369,-0.0002764788538217,177
1733378171757782500,0.0921934958551079,0.1143169917926192,-0.1199380465447902,1.0272454178716988,1.532744112791121,9.631502691930532,-0.0348612740635871,0.0089049795642495,-0.0118030961602926,0.7349580921337263,0.0934396204780222,0.0141087981600244,0.6714958222664155,0.0021581805776804,0.0057590273208916,0.0034986785613,-0.0058551430702209,-0.0071951448917388,0.0022043585777282,0.0132782878354191,-0.0105901211500167,-0.0273866040974855,-0.0538101941347122,-0.0584377220518887,0.0118193248704075,178
1733378171797782500,0.0052129123426973,0.0439455247104167,-0.0184767369329929,1.0259398151658474,1.5109388159573078,9.63508698015809,-0.0693642273545265,0.0105453375726938,-0.0062598749063909,0.7352161397058319,0.0925653246640146,0.0133774125146713,0.6713492856846012,0.0118201291188597,0.0141782918944954,0.0174157600849866,-0.0073029398918151,-0.0065448284149169,-6.688013672828674e-05,0.009771722368896,-0.0161783229559659,-0.0561602786391973,-0.0540746562182903,-0.0423477341249585,-0.0060720133900642,179
1733378171837782300,0.0758067169386893,-0.0182725926630198,0.1204208616256713,1.0262742347519844,1.4965424802057443,9.637297641944883,-0.0028749946504831,-0.0210809726268053,-0.0070550357922911,0.7353557418186238,0.0920290906821643,0.0128535163694093,0.6712804782564801,-0.0083562452346086,0.012971400283277,0.0217144340276718,-0.00857675075531,-0.0059926509857177,0.0032746195793151,0.0053834524005651,-0.0085879601538181,-0.0116191261231899,-0.0531398169696331,-0.0717467009581625,0.021415712994337,180
1733378171877782300,-0.0062622752651572,0.0776570940457284,-0.0980652374327182,1.0249950816616415,1.5011692632235585,9.636714289098975,0.0076888273470103,0.012944022193551,-0.008905878290534,0.7354869678742952,0.0921640662172932,0.0130422788651184,0.6711144097162824,0.0230615995824337,0.0086624594405293,0.006568637676537,-0.0010600090026855,0.0074768662452697,-0.0028941668570041,0.0031419694423675,-0.001631464343518,-0.0212269124239683,-0.0382471308112144,-0.0726315940339118,0.0349216757774353,181
1733378171917782300,-0.1541685982529073,0.083608988187462,-0.3387695980399847,1.0216177141830325,1.4952172229513525,9.63799789916873,-0.0399049073457717,-0.0091175101697444,-0.0045352727174758,0.735642694635043,0.091821837331769,0.0129461858662069,0.6709926149214788,0.0095194242894649,0.007099449634552,-0.0139413652941584,-0.0056625604629516,-0.0051408112049102,0.0022740326821804,0.0033832360059022,0.0081529635936021,-0.0533165796458721,-0.0462314784526824,-0.0738860510744154,-0.000915653540194,182
1733378171957782300,0.0576251635599881,0.055734600573033,-0.0355032750576734,1.037722095961496,1.4740106226630507,9.63954395956695,-0.0604750365018844,-0.0622846744954586,-0.0171615332365036,0.7358456827471286,0.0915746345428999,0.011580941249944,0.670828643763707,-0.0069362483918666,0.0145204542204737,0.0088698752224445,-0.0128834247589111,-0.0151563286781311,0.0013655424118041,-0.0041512735188007,-0.0034896479919552,-0.0427881713688373,-0.0391181744635105,-0.0812210701376199,0.0077685881748795,183
1733378171997782500,0.0080679364476352,-0.0084093702964484,0.0776660080045461,1.050917385360226,1.4589963011436164,9.640398530569673,-0.0312692821025848,-0.0081281932070851,0.0072841895744204,0.7360614295786114,0.0914628052931716,0.0105362471358134,0.6706245089018915,-0.019390519708395,0.014083057641983,0.0240173358470201,-0.0043777227401733,-0.0087262690067291,-0.0006150603294372,-0.0004933930467814,-0.0125128468498587,-0.0410047950834035,-0.0246963780373334,-0.0745605162698775,-0.0052785249248147,184
1733378172037782500,0.0910506094302982,0.0983617361612617,-0.07920680770576,1.048290032531321,1.4466463765278457,9.64254547947049,-0.0393641665577888,0.0030554381664842,-0.0027995163109153,0.7359826335576134,0.0908979349885247,0.0102254186673891,0.6707924593713782,-0.002031238283962,0.0141520863398909,-0.0026554204523563,-0.0057966113090515,0.0029599070549011,-0.0004643760621547,0.0108653306961059,-0.01076833717525,-0.0356207639575004,-0.0206109471619129,-0.0840998404443263,-0.0259463421612977,185
1733378172077782300,-0.0739380735225975,0.0173078392840921,0.0170493344783782,1.0497248876400291,1.4328301787517963,9.644452189874649,-0.0213111042976379,-0.0084046516567468,-0.0055895471014082,0.7362244211851114,0.090423140623718,0.0096664045715751,0.6705995546048853,-0.0167947374284267,0.0069571305066347,0.0023663025349378,-0.001177966594696,-0.0046331286430358,0.0009661316871643,0.0136956674978137,-0.0117739848792552,-0.0347691155642271,-0.0207410715520381,-0.0809337045636028,-0.0054211482658982,186
1733378172117782300,0.0597867255080491,0.0331825770251452,0.001672901648283,1.0596521882187575,1.4328170270092784,9.64336848629117,0.0140645839273929,-0.0386056303977966,-0.0032449713908135,0.7361667858666562,0.0907669004307538,0.0092954913859655,0.6706217329067158,-0.0014884858392179,0.010323685593903,0.0055403243750333,-0.0044582486152648,-0.0063567161560058,3.2782554626464844e-05,0.0103386119008064,-0.0136320190504193,-0.0351326881796121,-0.0105874864384531,-0.0507232021518051,0.0157186703965067,187
1733378172157782300,-0.043992067265883,0.0125279115311801,-0.0108013799995183,1.0537466174367816,1.427734024656564,9.644769585260748,-0.0323679260909557,0.0534450113773345,0.0076873861253261,0.7362494295203337,0.090368434418918,0.0093358430541041,0.6705840980178683,-0.0060265120118856,0.0162261556833982,0.0103884758427739,-0.0033386945724487,-0.0009748637676239,-0.0023522414267063,0.0045030149631202,-0.0050937673076987,-0.0206201787024736,-0.0066498219966888,-0.0469633381616324,0.0115723643720149,188
1733378172197782300,-0.055407779771462,0.0876958191096782,-0.1862193217039108,1.0516949456039817,1.430976221448183,9.644512980151177,0.0258398167788982,-0.0542549304664135,-0.0011831859592348,0.7361028812761499,0.0904189979984981,0.0095444427131149,0.6707352554534797,-0.0186363123357296,0.0080243656411767,0.0057057733647525,-0.0038118958473205,-0.0035529434680938,-0.0038255378603935,-0.0003567324019968,-0.0017903507687151,-0.0153816935271024,-0.0098927188664674,-0.0419974593825638,0.0151236271128058,189
1733378172237782300,0.0226609638150781,0.0569910303749144,-0.0274988323003053,1.0611642002169042,1.42771327412948,9.643959437921644,-0.0450873300433158,0.0433999001979827,-0.0007924642995931,0.7362258218774603,0.0906251367865667,0.0090556833872523,0.6705793373918648,-0.0105624087154865,0.0077928304672241,0.0147822927683591,-0.0025205016136169,-0.0004123449325561,-0.0023339986801147,-0.0031400274019688,-0.003335332032293,-0.0340635976433753,-0.0065959054045379,-0.0415541725944727,0.0197124162077903,190
1733378172277782500,0.0127495183926075,0.0175565533481538,0.0753828655034303,1.0451883401889352,1.4177671957850455,9.64717080118358,0.012151408009231,-0.0020719207823276,0.0077014802955091,0.7361385472585417,0.089688429016389,0.0093365089239225,0.6707971297606159,0.0204828605055809,0.0087081594392657,0.0060987891629338,-0.0051560401916503,0.0020322501659393,-0.0036196671426296,-0.0014678484294563,0.0012562512420117,-0.0369295084685087,-0.0089258197695016,-0.036808658567816,0.024864099882543,191
1733378172317782500,0.1315427788164466,0.0487535095140337,-0.0363625222355127,1.056130809159577,1.4322098548963664,9.643844871631265,0.0319555923342704,-0.0137121584266424,-0.0031214300543069,0.7360511635286807,0.0906196522295725,0.0094245557193581,0.6707666687692426,0.0048240050673484,0.0072728749364614,0.0098059093579649,-0.0072550773620605,-0.0051101148128509,-0.0005906820297241,-0.0067533096298575,-0.0018976621795445,-0.043307226806879,-0.0145553555339574,-0.0293581964313983,0.0195139710262417,192
1733378172357782300,-0.0005087532397359,0.0712885819271206,-0.1765045678973197,1.0451288650866597,1.4316715102359652,9.645123221004008,-0.0205171555280685,0.0201908908784389,0.0150181008502841,0.7359876440145486,0.0902156188210164,0.0098338033895694,0.6708849288275671,0.0053169559687376,0.0053661046549677,0.013207365758717,-0.0058250427246093,-0.0040686726570129,-0.0004087686538696,-0.0141235990449786,0.003614681540057,-0.0278477918684482,-0.0175032299011945,-0.0513000521916896,0.0420984355390071,193
1733378172397782300,0.0168102650254964,0.0630029841408133,0.038887072277069,1.042773607197404,1.4297817509666084,9.64565864305496,0.0166523549705743,0.0016492014983668,0.0012259013019502,0.735902347024317,0.0900602479286562,0.0098704098711777,0.6709987734698676,-0.0087559865787625,0.0075667276978492,0.0132100284099578,-0.0008318424224853,-0.007828801870346,0.000271201133728,-0.0094709135591983,0.0074560870416462,-0.0090039751887321,-0.0133569557219743,-0.0654262657649815,0.0417874698936939,194
1733378172437782300,0.0289916281413286,0.1217171850465238,-0.3005617401987314,1.0464537570148706,1.4387036008298395,9.643933134436606,-0.0024558920413255,-0.0219835005700588,0.0027415491640567,0.7357731846481687,0.0905272779606972,0.0100524178435183,0.6710749877623017,-0.003839524462819,0.0130120404064655,0.02064117975533,-0.0076616406440734,-0.0042499303817749,0.0029444135725498,-0.0126126846298575,0.001940643414855,-0.0278320097774267,-0.0134861730039119,-0.0600548749249428,0.0393932682335376,195
1733378172477782300,0.0169129216823726,0.0524121781520545,-0.0019008651852607,1.0434191385593266,1.4206205393895506,9.646942253124712,-0.0523840151727199,0.0408735200762748,0.0002744275261647,0.7359325426980946,0.0897330458905836,0.0095288808716993,0.6710145993207501,0.0179722979664802,0.0160200279206037,0.026608258485794,-0.0053576827049255,0.000506967306137,-0.0043573975563049,-0.014383653178811,0.009065818041563,-0.0319423677057027,-0.0311180930584669,-0.0542917813535779,0.0328331790655851,196
1733378172517782500,0.0444844538927078,0.113293493963778,-0.206954066696763,1.0293149906873702,1.4050792713865636,9.650732877579332,-0.0459174662828445,0.0117847947403788,0.0124983927235007,0.735828376286717,0.0886474888216479,0.0095486803049535,0.6712727949407479,0.0124678099527955,0.0063552558422088,0.0118155311793088,-0.0017980337142944,0.0017683506011962,-0.0021474361419677,-0.0117567526176571,0.0063683013431727,-0.0252928466886281,-0.0292487777769565,-0.0580210310097783,0.0163107910707592,197
1733378172557782500,-0.0038269378770142,0.0455117511138319,0.0940554172694683,1.0385709678757935,1.3926552586212753,9.651542440396549,0.0011615981347858,-0.0434734337031841,-0.0554946810007095,0.7362055791640995,0.0884998523954416,0.0087221038496841,0.670889764244435,-0.0008466641884297,0.001412482233718,0.007222709711641,-0.0037879943847656,-0.0030823349952697,-0.0008366666734218,-0.0077732140198349,0.0111179547384381,-0.0559825839847326,-0.0258588381111621,-0.0526745554152876,-0.016906126615405,198
1733378172597782300,-0.0908984876085072,-0.0525238218329846,-0.0152864164590835,1.062046536009386,1.412430364801735,9.64611223204136,0.0576118305325508,-0.0381708033382892,-0.0078796092420816,0.7366432620643889,0.0900768588075477,0.0084443101502275,0.6702026179953916,0.0030870910268276,0.01251354906708,0.0242356490343809,-0.0089364051818847,-0.0087114870548248,0.0052628479897975,-0.007822984829545,0.0012996746227145,-0.0661585255622863,-0.0271954983472824,-0.0374469564713537,-0.0155325001746416,199
1733378172637782300,0.0883808787643909,0.1077602636255323,-0.0363005629152059,1.046919694026187,1.4151016298376022,9.647374214801191,-0.0075334175489842,0.1252435743808746,0.0073616812005639,0.7364173277875059,0.0896505468531392,0.0091422791894114,0.6704987660471701,-0.0037116929888725,0.0146222934126853,0.0289206132292747,-0.0085020065307617,-0.0034814476966857,0.0040173530578613,-0.0085512679070234,-0.0057952390052378,-0.0484936895340681,-0.0155122457072138,-0.0080734163403511,0.010188508798182,200
1733378172677782300,0.241908914091438,0.1206616846442222,0.2330740118592977,0.9753929924942552,1.4654969152092934,9.647347326794266,0.2941050827503204,0.1077339649200439,-0.1589903831481933,0.7371990787599465,0.089108847859693,0.0134827808864513,0.6696382708354912,0.010755131021142,0.0199669394642114,0.0191946178674697,-0.0059874057769775,0.0040835738182067,0.0006588101387023,0.0008932976052165,0.0026946882717311,0.0241378314346075,-0.0018794396892189,-0.0456598543476313,0.0136956401363015,201
1733378172717782300,-0.2093723798848688,-0.0945841173186898,-0.1667395452082157,0.9601041648823768,1.60756992893368,9.62622971996367,0.3709957897663116,0.0577573925256729,-0.0494492165744304,0.7381863811524649,0.094056561922031,0.0187676421684773,0.6677440159267484,0.0414675027132034,0.011733615770936,0.0208295993506908,0.0008528232574462,0.0065802931785583,-0.00405740365386,-0.0038300724700093,0.0215514600276947,-0.0227834942162036,-0.0077351760119199,-0.035119828698039,0.0369274626418948,202
1733378172757782500,0.0544344777598977,0.1685541934147477,-0.4581663773149251,0.8951658287648111,1.7177774395808576,9.613443888148664,0.1789120882749557,0.2403315305709839,-0.004527878947556,0.7376369620073132,0.0960316884298085,0.0250736411382658,0.6678628691279322,0.0067465407773852,0.012407342903316,0.008965415880084,-0.0059790611267089,-0.0045806765556335,0.0038686990737915,-0.0166821926832199,0.022459065541625,-0.0378027841717004,-0.0193679891526699,-0.0437470064636319,0.0312348039582371,203
1733378172797782500,-0.0464867336258292,0.0823942055702209,-0.0501700983136892,0.8055983705643563,1.7677251273155212,9.61231225377023,0.1531292647123336,0.1577588468790054,0.0113024245947599,0.7372711943003109,0.0948357903082406,0.0302431733689861,0.6682235147264276,0.0198250599205493,0.0094345090910792,0.0254421271383762,-0.0058634281158447,-0.0005170106887817,-0.0013850331306457,-0.0276797823607921,0.0214369930326938,-0.0707160427361726,-0.0197869054973125,-0.0267909032266587,0.0052680035308003,204
1733378172837782300,0.1596574049275368,-0.0508365993984043,0.3299421484619378,0.7899427554666996,1.8448416847437616,9.59911141141355,0.2485492080450058,0.0548061355948448,0.0126339187845587,0.7367621752390044,0.097245006900878,0.0335402201508246,0.6682814650099906,0.0053670234046876,0.0093504060059785,0.0168471746146678,-0.0128082036972045,-0.004513680934906,-0.0019371509552001,-0.0223275944590568,0.0166073702275753,-0.0404074137121438,-0.0208455547690391,-0.0294664791114628,-0.0119523036003112,205
1733378172877782300,0.1307110772326588,0.0473597170680761,-0.1219002865284681,0.7560413626477122,1.9245644791476428,9.586179449126124,0.1392015665769577,0.0865196958184242,0.0225171465426683,0.7359854985569642,0.0991074556629575,0.03766405416603,0.6686437293409386,0.0063236309215426,0.007446885574609,0.0230870936065912,-0.0016404390335083,0.0026392042636871,0.0060266852378845,-0.0151180177927017,0.0128163108602166,-0.0166541976809501,-0.024681944400072,-0.0121381815612316,-0.0049237201377749,206
1733378172917782300,0.0719141664795577,0.0070895198695361,0.2037076321214437,0.7207162206359207,1.9790502487033603,9.577803250446916,0.213163137435913,0.0885309129953384,-0.0046923700720071,0.7354982085410812,0.0999587954661696,0.0409412208325857,0.6688605459415564,0.0281666107475757,0.0145994434133172,0.0169608928263187,-0.0034657716751098,0.0058897137641906,0.0045579671859741,-0.0101290214806795,0.0191634912043809,-0.0035083003818988,-0.0177359338849782,-0.0052398003496229,0.0114183428540825,207
1733378172957782300,0.1119123418036848,0.069661565247178,-0.0203495450675487,0.7085507126763463,2.0914045621208843,9.554808743828534,0.3486964106559753,0.0197132807224988,-0.02466856315732,0.7350953195609687,0.1038659457977331,0.0453012769704849,0.668426855017488,0.0260017290711402,0.0063452427275478,0.0023023202084004,-0.0063492655754089,0.0011659562587738,0.0011936426162719,-0.0073776002973318,0.0240548215806484,-0.0315963307470083,-0.0138762835413217,0.0156801650170236,0.0434857982441782,208
1733378172997782500,-0.0038020956967025,0.09673778822124,-0.3827262286663055,0.6723827631648629,2.215911231755465,9.52932417396009,0.2325619906187057,0.1157600358128547,0.0180233586579561,0.7342276870228117,0.1073858313596857,0.0510681350164267,0.6684086530661527,0.0117716593667864,0.0162682346999645,0.0318792536854743,-0.0111867189407348,-0.0117232203483581,0.0037361420691013,-0.0198739133775234,0.0195535905659198,-0.0090799630343914,-0.0174896866083145,0.0028157150078564,0.0238230663970112,209
1733378173037782500,0.1079519868053495,0.0530330865293741,-0.0532037669211626,0.6309585005603731,2.2693425238221883,9.519577855971455,0.1203671619296073,0.0816722065210342,-0.0120749194175004,0.7338300950154742,0.1079926627551565,0.0545361953663972,0.6684734908958396,0.0522229447960853,0.01022285874933,0.0373850725591182,-0.001707375049591,0.0050238668918609,0.0016361474990844,-0.0238396059721708,0.0290302485227584,-0.0168213709414005,-0.0279824472963809,-0.0200874600652605,0.0316682269394397,210
1733378173077782300,0.1000164445657283,0.0970075450733304,0.0008639233529567,0.5960976881247013,2.354505171192437,9.50112391539216,0.3014970123767853,0.1068809032440185,-0.0529399141669273,0.7336838528938346,0.1100910886791535,0.0588000215997089,0.6679300787442889,0.0169528387486934,0.0105609726160764,-0.0057924245484173,-0.0004738569259643,0.0030791163444519,0.0081771034747362,-0.0252379551529884,0.0443105474114418,-0.0367383698105812,-0.0232998337596654,-0.036614231974259,0.046086043870449,211
1733378173117782300,-0.1430626458162441,-0.0189162973940372,-0.2359738249540328,0.5575587716981768,2.4403520014345643,9.481782086062433,0.1356727331876754,0.0706242471933364,-0.0345634222030639,0.7338603760167518,0.1121277144006366,0.063174533854992,0.6669972200412991,0.0345917530357837,0.0242385957390069,0.0196817759424448,-0.0113054513931274,-0.0078482329845428,0.0010503530502319,-0.0267023630440235,0.0357884243130683,-0.0734305623918771,-0.0253566019237041,-0.0173939831975847,0.0522302457138895,212
1733378173157782300,-0.0009796586871147,-0.0165428462609648,-0.0755272424101829,0.5175287033984437,2.47119809833616,9.476060785806178,0.0502420216798782,0.1032662764191627,0.0124241234734654,0.7336187333830086,0.1119205657234202,0.0657962481331978,0.6670443392075932,0.0206743404269218,0.0191815737634897,0.0414283499121665,-0.013002336025238,-0.0092059075832366,0.0018143616616725,-0.029504070058465,0.0273167584091424,-0.0594336012214422,-0.0335568785667419,-0.0165058752514421,0.0547606409743428,213
1733378173197782300,0.1375591164965182,0.0341305253997445,0.0813461578220128,0.504535841236636,2.5133000410065054,9.465682599654793,0.1941805183887481,-0.0261662006378173,0.011070255190134,0.7330582084305345,0.1130664328782363,0.0678267861973294,0.6672639273872831,0.0071606622077524,0.0212928727269172,0.0329011753201484,-0.0071256756782531,-0.0013273060321807,0.004353167489171,-0.0295994039624929,0.0206533633172512,-0.0394125574558973,-0.0395974405109882,-0.0099070615082979,0.0132397130623459,214
1733378173237782300,0.1107021257637068,0.1012307157263159,-0.2025789203524589,0.5164290350608527,2.5943410784021017,9.443149865329264,0.1828960925340652,0.0160804502665996,-0.0090503245592117,0.7326800668592751,0.1166342592040655,0.0702125053583087,0.6668182866393677,0.0134632997214794,0.0219208467751741,0.0197643358260393,-0.0002422332763671,0.0072774291038513,0.0036092400550842,-0.0255960933864116,0.021898403763771,-0.0170212774276733,-0.0481387004256248,0.0095439272843301,0.0352668359532952,215
1733378173277782500,0.1393997028619051,0.1603404918208718,-0.3067196783065796,0.4883299718450755,2.632196469543874,9.434164594841002,0.0342811718583107,0.0848990008234977,0.0133249508216977,0.7322077000206465,0.1170962481158015,0.0726631972199966,0.6669936317142672,0.0444976463913917,0.021784545853734,0.0303589235991239,-0.0071443915367126,0.0053575336933135,-0.005172012373805,-0.0228283423930406,0.0313096940517425,-0.0037982232391834,-0.0423205569386482,0.0208669200051575,0.0379758026510477,216
1733378173317782500,0.1165772283421829,0.1133992924258112,-0.1793640489816665,0.4704510181421413,2.639782686889172,9.432953465485571,0.0189394503831863,-0.0076138321310281,-0.040658600628376,0.73225425704188,0.1167765207176892,0.0735966992933886,0.6668962475240992,0.0468849055469036,0.0151624353602528,0.0404015704989433,-0.0047342181205749,0.0037415027618408,-0.0024327039718627,-0.0268588848412036,0.0361040160059928,-0.0067407064318656,-0.047327633947134,0.0359825099419802,0.0338376799330115,217
1733378173357782300,0.0978521426713094,0.0098883568078279,0.0419172337532043,0.4731649167433381,2.654109902927279,9.428796345806122,0.0602798089385032,-0.0120049566030502,-0.0224587935954332,0.7326287566270893,0.1174789153011512,0.0739180883178903,0.666325650788277,0.0558802634477615,0.0163538809865713,0.0374226234853267,-0.0050278306007385,0.0091772377490997,-0.0006678141653537,-0.0361697599291801,0.0394164808094501,0.0069739306658506,-0.0471708476543426,0.0447271035421639,0.0682987524613738,218
1733378173397782300,0.2184150796487927,0.1357265673071146,-0.2067670196920633,0.4652791319295764,2.67671219535768,9.422797397652268,0.0173934251070022,0.0367430262267589,-0.0234860889613628,0.7327120611543225,0.1181072513173795,0.0749780714680633,0.6660045816980967,0.0729386135935783,0.0264525357633829,0.0452962592244148,-0.0060977935791015,0.0076211094856262,0.003553207963705,-0.0468481890857219,0.0455124787986278,0.0310199921637773,-0.0461619421839714,0.0061184828802943,0.0462403576493263,219
1733378173437782300,0.0688309961745515,-0.0055409752532839,-0.0283715234816074,0.4468200767837464,2.66729437867105,9.426360643091796,-0.0282127726823091,0.0367020070552825,-0.0205082930624485,0.7330759140834759,0.1171316949643414,0.0752962050658804,0.6657405452840863,0.1024349853396415,0.0363463908433914,0.0425462760031223,-0.0026941895484924,0.0082572400569915,0.0054116863757371,-0.0537818968296051,0.0732949152588844,0.0720604430824518,-0.0578188337385654,-0.0474218225188553,-0.0197974641427397,220
1733378173477782300,0.0004260068597272,0.104451431338489,-0.1847580169796943,0.4413041629064828,2.671326118405163,9.42547859956026,0.0140221891924738,-0.0149404546245932,-0.0305668152868747,0.73336852824499,0.1171322882222863,0.075593290810258,0.6653843492763297,0.0962197035551071,0.0327256619930267,0.0192046705633401,0.0078566670417785,0.0018115937709808,0.0063211917877197,-0.0485208481550216,0.075887307524681,-0.0274736978590488,-0.0531728751957416,-0.0636399668700993,-0.0539697828575968,221
1733378173517782500,-0.1433813198439776,0.0464855645820498,0.0743272189706563,0.4395140646193176,2.6628528890922665,9.42795989498198,-0.0333811230957508,0.0203577205538749,0.0035559723619371,0.7336365351500117,0.1167647116041836,0.0753248145721896,0.665183998186863,0.0689308196306228,0.0314145348966121,0.0107482019811868,-0.0047780871391296,-0.0160031020641326,0.0020326972007751,-0.0439188480377197,0.0580525696277618,-0.1064782609909772,-0.0296204127371311,-0.1246481239318847,-0.0905962167263031,222
1733378173557782500,-0.1964826127713546,0.1173734567537903,0.0989431893110275,0.442486760287173,2.6663345937281844,9.426836443910002,0.0515161715447902,-0.0121483150869607,0.0239517651498317,0.7334252579434284,0.1169822384834805,0.0753674142496265,0.6653737613222838,0.0708213970065116,0.0131731079891324,0.0329893939197063,-0.0076162815093994,-0.0214958488941192,-0.0076047182083129,-0.0210156049579381,0.0373896956443786,-0.1557411813318729,-0.0164392292499542,-0.1670867512106895,-0.147713942220807,223
1733378173597782300,-0.1004654669748619,0.0491337410032749,0.0767746121227741,0.4384968504007905,2.6811539771974084,9.422819024962186,0.0156777277588844,0.0582505762577056,0.0043029258958995,0.7331942027703426,0.1174039223355898,0.0760674326317134,0.6654745061754449,-0.0187455043196678,-0.0104957884177565,0.0283516980707645,-0.0001817941665649,-0.0309405624866485,-0.0011187195777893,0.0081217754632234,0.0163611602038145,-0.1468669700026512,-0.0069541549310088,-0.1713976001471281,-0.141514795319736,224
1733378173637782300,-0.0587074423713609,-0.0016296470284461,-0.059368719291687,0.4230749709937721,2.687923617462814,9.421595036125185,0.0269126389175653,-0.0103725437074899,0.0101513778790831,0.7328881931757747,0.1170993950374813,0.0769419129466823,0.6657646741766408,0.0106233041733503,-0.0046933474950492,0.0380252301692962,0.0050594210624694,-0.0070893168449401,-0.0059816837310791,0.0343972146511077,-0.0016194656491279,-0.1230973873585462,-0.0066767437383532,-0.142681354881078,-0.1285670509412884,225
1733378173677782300,0.0439994833873584,-0.0215261876314878,-0.0160685067474842,0.4188295519763603,2.706024799081683,9.41660205014348,0.0557651668787002,0.0486017242074012,-0.0035116744693368,0.7327523097835453,0.1176528381435904,0.0777477603691787,0.6657231271849252,0.0093987826257944,-0.0193469114601612,0.0231635272502899,0.0085237026214599,-0.0086727738380432,-0.0027680974453687,0.0472406148910522,0.0031950278207659,-0.0666214668989181,-0.0027657588943839,-0.0985924761772155,-0.061903206205368,226
1733378173717782300,-0.0189911161959171,0.0435299296468496,-0.3249339649111032,0.3876980987947434,2.7178821178749204,9.414520567694304,0.0077721653506159,0.0746539756655693,0.0041624940931797,0.7324548348606792,0.1170023015063357,0.0793946674323743,0.6659707434691712,-0.0138149270787835,-0.0263738743960857,0.0171166844666004,-0.0071057081222534,-0.0130703449249267,-0.003084659576416,0.0450333766639232,0.0082301339134573,-0.0474082323849201,-0.005080871284008,-0.0448122245423495,0.0023930326163768,227
1733378173757782500,-0.0460835231197997,-0.0468497217193245,-0.0213677821993827,0.3817207048855722,2.719078049661219,9.41441944540739,0.0178229752928018,-0.0032278492581099,-0.0203941874206066,0.7326731857958166,0.1168674371561615,0.0796254231323576,0.6657265187659139,-0.0479116439819335,-0.0326698534190654,0.0392341054975986,-0.0031662583351135,-0.0194866359233856,0.0018271766602993,0.0310507155954837,0.0136598087847232,-0.0454606054484844,-0.0175719875842332,-0.015970014809072,0.0457426372602581,228
1733378173797782500,0.0951689314693212,-0.1017912722185254,-0.113631055355072,0.3740945939213037,2.7301757822588084,9.411513202571868,0.0116014163941144,0.0418412685394287,-0.0113147618249058,0.732767723380627,0.1170532687615081,0.0802802035708127,0.6655111733593831,-0.0141787147149443,-0.0220395810902118,0.0558535642921924,-0.0004084706306457,-0.0025149285793304,0.011792603880167,0.019978180527687,0.0117326593026518,-0.0378664970576763,-0.0333287492394447,0.0342762174807488,0.0914987185239791,229
1733378173837782300,0.1056988010510802,-0.1084016302689909,-0.2518973702728748,0.3617690000291914,2.7308009284198285,9.411813646823168,0.0222519971430301,-0.0220429431647062,-0.0046486360952258,0.7328473255517303,0.1166583155614575,0.0807582275956168,0.6654350923186974,0.000210610916838,-0.0037894702982157,0.0502404160797596,-0.0026264190673828,0.004192441701889,0.016069408506155,0.0137960622087121,0.0181412100791931,-0.0249736977368593,-0.0467950925230979,0.0847493903942406,0.0760059658378362,230
1733378173877782300,0.1873796341875568,0.0066711483269929,-0.3172328890144825,0.368823338987492,2.7346894602909684,9.41041079428792,-0.0121162040159106,-0.0002805518452078,-0.003581270109862,0.7329026449289939,0.117065090429207,0.0806123766538133,0.665320301468973,-0.0165249593555927,-0.0072668124921619,0.0444733425974845,-0.0117432475090026,-0.0042694211006164,0.0105744004249572,0.0205208323895931,0.0347583144903183,0.0021808511704206,-0.0632405430078506,0.1148741872839629,0.0521864065721631,231
1733378173917782300,0.0150912957457825,0.0116606271773576,-0.3939174847662449,0.3706744102142751,2.7388281675308943,9.409134198480844,0.0146640706807374,-0.0224271807819604,0.0277503747493028,0.7328429872945599,0.1172866190642897,0.0806939724395582,0.6653371683842222,-0.0218451581895351,-0.0237470921128988,0.07265505194664,0.0019862055778503,-0.003057450056076,0.0061798691749572,0.0340457558631897,0.0308851357549428,0.018862521380186,-0.0629646554589271,0.1546804202325642,0.0783756175786256,232
1733378173957782300,0.2901504920279607,0.1511439166694879,-0.1921352677494287,0.3909998802864924,2.7352155299916863,9.40936216201782,-0.0165798682719469,-0.0147719234228134,0.0213209707289934,0.7324246540092056,0.1178012174296741,0.0798680667438062,0.6658062548991022,-0.0317696928977966,-0.0121669759973883,0.0809812843799591,-0.0094674825668334,-0.00209841132164,0.0086510740220546,0.0341727249324321,0.0355919823050498,0.0718225426733493,-0.0532086789608001,0.2061400469001382,0.1880252020820975,233
1733378173997782500,0.0910578063560649,0.0679079995781183,-0.5475672467768192,0.3783554297035559,2.7337568556159733,9.410303242260218,-0.0030854644719511,-0.0154535779729485,-0.0478891432285308,0.7326510665891306,0.1173297831424239,0.0802607686662151,0.6655931230130989,-0.052669383585453,-0.0233443155884742,0.1123439967632293,-0.0044676065444946,0.0060338973999023,0.005379918962717,0.0452376008033752,0.031676348298788,0.0716039314866066,-0.0620133467018604,0.2796575569231063,0.2593605457603931,234
1733378174037782500,0.1104003663381561,-0.1523591376781463,-0.1997556796252727,0.4458026068368926,2.7351041785717007,9.406957438963651,0.0642462968826294,-0.3190361857414245,-0.0192063171416521,0.7332447930299617,0.1198044273949186,0.0776243824211005,0.6648108297731187,-0.0626820623874664,-0.0343048237264156,0.1244623214006424,-0.0177375078201293,0.0102163851261138,0.0075568594038486,0.0505354851484298,0.0394404530525207,0.1283493165373802,-0.0680174008011818,0.347427755465731,0.4564475906983017,235
1733378174077782300,-0.10946180684641,0.1051008351579308,-0.4882850367248058,0.5860575748212635,2.797270127366483,9.380949137482046,0.1922554671764373,-0.4303196966648102,0.0332166627049446,0.7334836461020611,0.1271982762279231,0.0743324740086732,0.6635488919732521,-0.0429440513253212,-0.0384193547070026,0.1638173162937164,-0.0054450631141662,0.0163471698760986,0.0086371302604675,0.0345793068408966,0.0630908980965614,0.1821259149104356,-0.1257216930389404,0.3710530342683196,0.5573752318248152,236
