time_imu,phone_acc_x,phone_acc_y,phone_acc_z,phone_gravity_x,phone_gravity_y,phone_gravity_z,phone_gyro_x,phone_gyro_y,phone_gyro_z,phone_ori_w,phone_ori_x,phone_ori_y,phone_ori_z,watch_gyro_x,watch_gyro_y,watch_gyro_z,watch_acc_x,watch_acc_y,watch_acc_z,headphone_gyro_x,headphone_gyro_y,headphone_gyro_z,headphone_acc_x,headphone_acc_y,headphone_acc_z,frame_imu
1733405669284933400,-1.0313561411261558,13.342228849446771,-2.331796934169531,-0.2012087827767245,9.739969496390223,-1.1237843955852092,-0.5545760989189148,0.3554434776306152,0.0522013790905475,-0.2977271473417274,-0.3477629280913432,0.6605739968171803,0.595030660908459,0.2861119210720062,0.1329181939363479,-0.8649241924285889,-0.7736920714378357,0.510671854019165,-0.5906183123588562,0.442816287279129,0.0110384672880172,0.1023041901767253,-0.2153269946575164,-0.1894241821598261,-0.3493298627600074,0
1733405669324933400,1.6917441497884689,11.88333469350338,-6.260407133197784,-0.2166166519246995,9.786135035237669,-0.5958377220142632,-2.154209613800049,0.3014637231826782,-0.2470021694898605,-0.3112231663676477,-0.3450211912891139,0.6413576592133085,0.6105414456759624,1.888274073600769,1.05151629447937,-1.2050862312316897,-1.2279629707336426,0.9041353464126588,-0.6746871471405029,0.4355519413948059,0.0990954786539077,0.4212240093648433,-0.2743666470050812,-0.2868555786684155,-0.2811649658113718,1
1733405669364933400,3.1299884625434875,3.690114746642113,-6.070272099354863,-0.4362121369970962,9.789390237641332,0.3846415242357179,-2.682462215423584,-0.4923992455005646,-0.9156023263931274,-0.3201988743477575,-0.335214247110679,0.6066466422362077,0.6458204045581054,1.4976003170013428,1.1449626684188845,-1.8999887704849243,-0.630730926990509,0.6476290822029114,0.0596401691436767,0.3507179915904999,-0.1290996223688125,1.0332798026651144,-0.2231974601745605,0.4047003427283838,0.5785147582262754,2
1733405669404933400,-0.0530242456357926,-6.324726752895116,-5.057130244833231,-0.7599567825257778,9.664188571479915,1.4819883235439657,-2.883577823638916,-0.8279742002487183,-0.7178470492362976,-0.3171865971854874,-0.3179382464040965,0.568643027515437,0.6891682906198702,1.5178624391555786,0.6052547097206116,-2.292552947998047,0.1113357543945312,0.2981906235218048,0.3372839093208313,0.3031790256500244,-0.2445529103279113,0.488691279438138,-0.036164790391922,0.0761350903765298,1.059929324659705,3
1733405669444933400,-0.9172804838087408,-13.90119661116004,-1.2279060104474424,-0.8484431674912571,9.42628290168047,2.568209735062718,-2.513514518737793,-0.218470349907875,0.1042136922478675,-0.3227600359887171,-0.2956169149773383,0.5307243946539267,0.7257879203029636,1.6947150230407717,0.3738919794559479,-1.802948951721192,0.76087486743927,-0.041678100824356,0.7153306603431702,0.3251304030418396,-0.1140569299459457,-0.1876999156504869,0.2863697111606598,-0.2587669820477254,0.6883622033894061,4
1733405669484933400,0.2208839539803564,-16.52566365549564,1.0275815910235049,-0.7820248219490051,9.20539149504602,3.289313347581029,-1.2668464183807373,0.480113685131073,0.2535933554172516,-0.3397470379920247,-0.2831919094528417,0.5020896740973914,0.7431555878488835,1.376611828804016,0.3057127296924591,-0.6786896586418152,1.304017186164856,-0.4164859354496002,0.6998856663703918,0.3069839477539062,0.0008967742323875,-0.6019014790326357,0.1672463417053222,-0.3253523729862645,-0.2478846275001764,5
1733405669524933400,0.7024344948183745,-15.225506940090655,0.8811950980141758,-0.7408911397889256,9.160394999977946,3.4217838357016443,0.3285581171512604,0.206590250134468,0.1335613876581192,-0.3485332141809015,-0.2830004243191385,0.4954274306304171,0.7436308681558705,-0.2249803990125656,0.3470778167247772,0.8268502354621887,1.3947356939315796,-0.7027828693389893,0.705346941947937,0.2698228359222412,0.0875071734189987,-1.259821197885275,-0.1936889886856079,-0.2433257768857292,-0.795305743804574,6
1733405669564933400,-0.4752738717213273,-10.416362445044516,0.7178522095069289,-0.7176371054515243,9.26519977479875,3.132322750709951,1.2355234622955322,0.1781305372714996,0.1539077460765838,-0.3474801879271522,-0.2895376521740978,0.5064226754154616,0.7341399442164304,-0.8538475036621094,0.0405292995274066,1.840583562850952,1.1118662357330322,-0.6329902410507202,0.6526516675949097,0.2061028182506561,0.1440651714801788,-1.2166957573860884,-0.3971448540687561,-0.4171030935099348,-0.2720177827596664,7
1733405669604933400,-0.8420666912619024,-2.2401883255302906,0.5701508345067501,-0.670021221665293,9.462297633391618,2.487244685512781,2.05340313911438,0.5454819798469543,0.4297279417514801,-0.3450973083844671,-0.3044465879160172,0.5296207073078029,0.7125461843863434,-1.811999678611756,-0.4655560553073883,2.2662479877471924,0.532831072807312,-0.2388231754302978,0.4006232619285583,0.1764028221368789,0.2208390086889267,-0.4652864384531974,-0.1919708102941513,-0.4060888379447162,0.2683043151944875,8
1733405669644933400,2.468933952796459,5.683863382783532,-0.724944505855441,-0.5053893162608146,9.651596800932287,1.6618252507343887,2.134155750274658,0.6579077839851379,0.3217549622058868,-0.346617893470665,-0.3217421090634658,0.5583480182306316,0.6816052130693327,-1.064099907875061,-0.8708183765411377,1.6202787160873413,-0.3162003755569458,0.2355433106422424,0.0578442215919494,0.1276477724313736,0.2270140349864959,0.8191250108093023,0.3310782313346863,-0.1445619079306721,0.9674503629267216,9
1733405669684933400,0.8185176925659179,7.807817192462086,-1.9060656765133144,-0.500537784576416,9.75050959510505,0.9205526373472064,1.6571680307388306,-0.1444738507270813,-0.0936799198389053,-0.336474237392153,-0.3365682933309894,0.5829122248676794,0.6585744254770263,-1.7792502641677856,-0.9090412855148317,1.370997428894043,-0.4338473081588745,0.2860485911369324,-0.1148707866668701,0.0797496736049652,0.0514949113130569,0.641276627087593,0.1348690539598465,0.0107654684359207,-0.1442480196759104,10
1733405669724933400,0.0336216260295361,6.402996572011709,-1.654692622375488,-0.56737895864062,9.78255483866334,0.3874117926666512,1.1254043579101562,-0.3939168751239776,-0.1461167633533477,-0.3214676213887532,-0.34440674860034,0.6013580351356541,0.6452992401838878,-1.2120667695999146,-0.73967444896698,0.5869809985160828,-0.5164036750793457,0.5476999878883362,-0.3075999319553375,0.054294615983963,-0.0684516876935958,0.7542348977476357,0.0435198284685611,-0.0189884493147954,0.7396414319887756,11
1733405669764933400,-1.3579315896339714,3.5830747601151463,-1.8298644803643225,-0.5189728743247688,9.792132814347744,0.1232476734162773,0.2680309414863586,-0.2665475904941559,0.3325843811035156,-0.313774681667221,-0.3427978110635155,0.613356159351976,0.6386151790157859,-0.3633217513561249,-0.5303335189819336,0.2167467474937439,-0.4258688688278198,0.4424084424972534,-0.20058673620224,0.0498020946979522,0.0135331973433494,0.1034282257705926,-0.0987250804901123,-0.1355086502401158,0.3863753988236189,12
1733405669804933400,-0.9236113673307002,2.35378606313765,0.0020212766945362,-0.4089114941500127,9.796787362155316,0.1616826271448284,-0.2926440834999084,0.0188009515404701,0.2648029923439026,-0.3173590066730752,-0.338084488469336,0.6143739564901664,0.638378276548874,0.1259517967700958,0.0426501333713531,0.1080775186419487,-0.2756972908973694,0.1621140241622924,-0.1244240701198577,0.0715915188193321,0.0125473290681838,0.0518599510967731,-0.1462295800447464,-0.1003197383612394,0.0863356366723775,13
1733405669844933400,0.4957676110325381,0.9313438612788916,1.4547095637351273,-0.2793915629306808,9.80006594543457,0.2258704188897274,-0.0290609132498502,0.0756188780069351,0.3152377605438232,-0.3238425068587997,-0.3340977147370775,0.6138913021352416,0.6376850060636344,0.25322425365448,0.183847039937973,0.1768178939819336,-0.1445711851119995,0.099853515625,-0.1211053729057312,0.0935481861233711,-0.0336235389113426,0.0909323168128728,-0.1430345028638839,-0.0046369390856474,-0.0555412699580192,14
1733405669884933400,1.0758131224900482,0.0874573341786861,1.542291401076317,-0.2115063779725693,9.80284008632302,0.1731536317679099,0.3037554621696472,-0.0009670267463661,0.0285416785627603,-0.3253820415701354,-0.3330656226511249,0.6166351536028005,0.6347873051083152,-0.1406948119401931,0.0133344298228621,0.1391727924346923,0.0057403445243835,-0.0756901502609252,0.0106222331523895,0.0911890789866447,-0.0479040406644344,-0.0359381593436002,-0.0966376066207885,-0.0382235303344205,-0.173093005888164,15
1733405669924933400,0.5956876460190862,-0.3857201497852802,0.9171171830058096,-0.2253345401810482,9.804059983506798,0.0021065653737307,0.5526273846626282,0.0752424895763397,-0.0833445861935615,-0.3223875084474778,-0.3366927932707947,0.6217158177301573,0.6294232652862756,-0.2585484683513641,-0.2053595632314682,0.148385465145111,0.0556161999702453,-0.0370283126831054,0.0363394021987915,0.0589379556477069,-0.0343187823891639,-0.0866325737923383,-0.0443625263869762,0.0184380488904193,-0.187947752931714,16
1733405669964933400,0.5665780540538952,-0.3112725193053484,0.4226934973955154,-0.2869056283552199,9.799344060900808,-0.246869404309336,0.7193629741668701,0.1124907508492469,-0.2352640330791473,-0.3172168499654465,-0.3438310310616163,0.6279865114232828,0.6219218164817211,-0.4109047353267669,-0.3210040628910064,0.1487801373004913,0.0522084236145019,-0.0557555556297302,0.0656387209892273,0.0264987461268901,-0.0371043160557746,-0.1068190372526645,-0.0063775852322578,0.0317576953211799,-0.101747140815854,17
1733405670004933400,0.3852024460541084,0.7888555447518825,-0.440426722484827,-0.3784686442870646,9.784986449724435,-0.5302724861700088,0.6445523500442505,0.0941179692745208,-0.2214218080043792,-0.3105568951999184,-0.352619044954771,0.6345834709750652,0.613610656981742,-0.3982003927230835,-0.3348423838615417,0.048235960304737,0.0123227834701538,0.0257328748703002,-0.0061711072921752,0.0333847776055336,-0.0485424660146236,-0.1088987661361694,0.0330361686646938,0.0165524908721447,0.0647524581566452,18
1733405670044933400,-0.6572945726916194,5.508048550716042,-1.039790718929097,-0.4524179333234205,9.770548174527288,-0.7085751895304769,0.1892366111278534,-0.2695498764514923,-0.1134571284055709,-0.3043569463407691,-0.3571514058672925,0.6391949257168057,0.6092942869402109,-0.2958127558231354,-0.175000324845314,-0.2754710614681244,-0.2140588164329528,0.1921703815460205,-0.1792066693305969,0.0925732851028442,-0.0205327048897743,0.078376786622405,0.0427085943520069,-0.0115281599041074,0.1425038063570857,19
1733405670084933400,-0.9686873573757708,12.213379133296012,-1.5665782855927943,-0.4317710127444937,9.780355867314338,-0.5732393385739997,-0.9396398663520812,-0.2256050556898117,0.252802163362503,-0.3044428004772742,-0.3512298641992646,0.637075078491545,0.6148882509782471,0.8095064163208008,0.7259530425071716,-0.9449856281280518,-0.9060786366462708,0.6854446530342102,-0.6615544557571411,0.1310075372457504,-0.0273078866302967,0.3526677750110626,-0.066360667347908,-0.1260796911049634,-0.0984767408430576,20
1733405670124933000,-0.0513637102787382,11.568429370653629,-3.4309073456168173,-0.2776893803889863,9.802364285504815,0.0832153766268398,-2.342211961746216,-0.0411668866872787,0.3726179301738739,-0.3193153951465092,-0.3342989860291563,0.6196784524019235,0.634255851067297,2.30385971069336,1.2102975845336914,-1.2217649221420288,-1.0671972036361694,0.8884505033493042,-0.5161136984825134,0.1461102664470672,-0.0836469978094101,0.6410545087695121,-0.2157738953828811,0.0300188522972166,0.028957798936963,21
1733405670164933400,1.40564567309767,3.71044792509675,-3.183957953140139,-0.2143805999683216,9.745114458063243,1.0757136807035654,-2.49280333518982,-0.6758385300636292,-0.0644334927201271,-0.3337819832746056,-0.3120188032178234,0.5897441240723066,0.6659096510194479,2.668242931365967,1.0265746116638184,-1.794079303741455,-0.5446001887321472,0.4946555495262146,0.141400545835495,0.1082570701837539,-0.0698659047484397,0.4245967006683349,-0.1523565948009491,-0.1610537911893799,0.5377762128636241,22
1733405670204933400,0.1688059944850392,-4.836970075082778,-3.865191327562928,-0.1807768201227299,9.611606151327493,1.937709645794332,-1.962022304534912,-0.8109255433082581,0.0407694056630134,-0.3367795246032004,-0.2863449184386399,0.5649875125322061,0.6966887321461702,1.961957335472107,0.5421910881996155,-2.087872266769409,0.1720543503761291,0.1654163897037506,0.4015899896621704,0.0688189715147018,0.0018849745392799,0.0415098219960927,0.0237731486558914,-0.1003252913191914,0.4045318177610635,23
1733405670244933400,0.8923721063930541,-11.993716976195572,-3.809418002414703,-0.0991430501315277,9.441498006469011,2.6492776604652404,-1.8468964099884035,-0.3598154187202453,0.0678203254938125,-0.3411570791271416,-0.2643268880317589,0.5431903292992294,0.7201995837378241,1.5521903038024902,0.4317494928836822,-1.9354259967803955,0.8878366351127625,-0.0532644093036651,0.7983740568161011,0.0290755741298198,0.0291950721293687,-0.617289017778635,-0.038772128522396,-0.003768303024955,-0.157964118078351,24
1733405670284933400,2.5578791874453426,-15.385565400099754,-0.8055486131384968,-0.0952933341671247,9.236808377572894,3.2928248628333208,-1.415920615196228,-0.0077191703021526,-0.3530494272708893,-0.3475912874631268,-0.2504769141495676,0.5190124930077196,0.7396403343081291,0.5713346004486084,0.0838371962308883,-0.8821216821670532,1.3792755603790283,-0.3971288502216339,0.7505625486373901,0.0340030454099178,0.0837328359484672,-1.0309019676178692,-0.2177404165267944,-0.1507098726337775,-0.4389008280918002,25
1733405670324933400,0.1998821920817717,-14.969998393583296,1.9285121938601133,-0.3831879644265398,9.143408793863651,3.5244314324885604,0.2530413568019867,0.1576523184776306,-0.8936169147491455,-0.3405787174868455,-0.2551742568848026,0.5051634427426063,0.7508009217430985,-0.8724638223648071,0.3049956858158111,0.85447758436203,1.3677990436553955,-0.6425989866256714,0.7690945863723755,0.0697539001703262,0.1660774648189544,-0.9634814592957496,-0.2216524183750152,-0.251098584578,-0.3259858120515942,26
1733405670364933400,-1.4295586097352206,-11.13619296888709,1.260427054823935,-0.6180825793091207,9.248366128897668,3.20251476957202,1.292978048324585,0.4576182961463928,-0.161459594964981,-0.3306629765104545,-0.2704335565726075,0.5134032330604469,0.7442747981393567,-0.9476128816604614,-0.0644245967268943,1.5629206895828247,1.0057134628295898,-0.4483983516693115,0.5164357423782349,0.0961434766650199,0.1770444363355636,-0.4101163398951292,-0.0458080470561981,-0.2997377104647457,-0.0873126650109887,27
1733405670404933400,-0.8180299090489744,-3.741577807375789,0.8423053953886032,-0.6499152030300349,9.434839717623593,2.5945713800266383,1.889735221862793,0.667357861995697,0.3025117814540863,-0.3297885558889853,-0.2888222430355056,0.5331935772885379,0.7235509019140973,-1.689125657081604,-0.5012140274047852,1.979397773742676,0.4006833434104919,-0.1745943129062652,0.2222436666488647,0.1045598536729812,0.1175895482301712,0.1802139438092708,0.1966599076986313,-0.1717579578921198,0.3787988260895014,28
1733405670444933400,-0.4964508805889636,3.626020167872309,-0.2140928325355053,-0.5595418352741748,9.635313190129398,1.7372540012061597,2.425500631332397,0.3558763861656189,0.4068259298801422,-0.3273289106051983,-0.306842068533984,0.5632695973722767,0.6938524369456196,-1.8437904119491573,-0.9249770045280457,1.7114779949188232,-0.2776175141334533,0.0689187049865722,0.0731738209724426,0.1366946548223495,0.098662756383419,0.4436386702686548,0.2896398305892944,-0.109213677304238,0.1830702100232243,29
1733405670484933400,1.0671730121776462,5.562910606238246,-1.986537389588356,-0.4415382273906841,9.761177119591832,0.8335795064888895,2.064842939376831,0.2360491901636123,0.3024499416351318,-0.3214357959300056,-0.3223804371021188,0.594617629558911,0.6627063893450778,-1.4318419694900513,-0.9508412480354308,1.4366623163223269,-0.3851275444030761,0.4442811608314514,-0.1711825132369995,0.0905621796846389,0.0263764709234237,0.3167781309843063,0.170243501663208,-0.168742482528463,0.1972594788953661,30
1733405670524933400,-0.1230237923993729,5.797734676635265,-2.29511467846036,-0.2955127131808549,9.800489139282703,0.1829800475217401,1.3258639574050903,0.0248995181173086,0.4585359990596771,-0.3162244226775901,-0.3291633126722024,0.6183220256414717,0.6397902571403659,-0.9378449320793152,-0.6373439431190491,1.035668969154358,-0.5445381999015808,0.3940010070800781,-0.2738661468029022,0.0522304810583591,0.0738810896873474,0.0200514389038085,0.0804718732833862,-0.1820723580922931,-0.0080932900846004,31
1733405670564933400,0.952455769021064,5.343732433262467,-1.868691931408644,-0.1360331673045642,9.804531108149886,-0.1518644494963809,0.3486957848072052,0.1989911794662475,0.2904797196388244,-0.3173171770673663,-0.3310553941083338,0.6309875260013862,0.6257531077333389,-0.0952029600739479,-0.3256738781929016,0.6886677742004395,-0.3588815927505493,0.3535038232803345,-0.2348986566066742,-0.0068781003355979,0.0316678248345851,0.0155278239995241,0.0131468251347541,-0.1429089530918747,0.0824924052476882,32
1733405670604933400,0.5034031474122778,3.6485306903660297,0.7026724682927131,-0.0387785064692143,9.80403952524066,-0.2229347672966308,0.2070636749267578,0.2316145747900009,0.2316013425588607,-0.3217827362435813,-0.3316912636714066,0.6335198615966094,0.6205557118041718,-0.0886401385068893,-0.1041219979524612,0.4499519765377044,-0.2847949862480163,0.2372772693634033,-0.1947028934955597,-0.0035929754376411,0.0290637295693159,-0.041546646875143,-0.0518771484494209,-0.1049684409499168,-0.0026589900761842,33
1733405670644933400,0.9173174548182635,2.026543236762285,-0.11971822978165,0.0204614969924441,9.80126070817709,-0.3244062147099524,0.2325492352247238,0.0365888960659503,0.0446696244180202,-0.3237103633357488,-0.3332733148257285,0.6367644867303688,0.6153628515481101,-0.1245230361819267,-0.0365711860358715,0.170561671257019,-0.1665774583816528,0.0575371980667114,-0.0774397253990173,0.037705410271883,0.0325794368982315,-0.0464256510883569,-0.0983367785811424,-0.1132415445808321,-0.0753495477557182,34
1733405670684933400,0.7491075447965413,0.7340466807216406,-0.0144879230251535,0.0079092227715649,9.798194890865682,-0.4070412067661061,0.2058897614479065,-0.0325960777699947,-0.0951683893799781,-0.3218036172247263,-0.3349338537440858,0.6391968709665341,0.6129347772847881,-0.1731595396995544,-0.0837193056941032,0.0860924571752548,-0.0415768027305603,0.0547016263008117,-0.0225862562656402,0.0509685277938842,0.0090195443481206,0.007034720942378,-0.0659510046243667,-0.0890416807606816,-0.051929216940701,35
1733405670724933400,0.5362395778808743,0.0429664505451917,-0.0893698898017406,-0.0307637341140769,9.79435925822556,-0.4898778588742017,0.212289810180664,0.0978447347879409,-0.1045944839715957,-0.319718970652656,-0.3381241399007447,0.6408189174003912,0.6105759812959126,-0.1013846918940544,-0.1155236288905143,0.0088916150853037,0.0409196019172668,0.0441807508468627,0.0155189037322998,0.0563181489706039,-0.0245220605283975,-0.0257861831635236,0.0196229144930839,-0.1038186863929033,0.0063400166764855,36
1733405670764933400,0.4305693088045343,0.6467167723149061,0.0044809813389554,-0.0729353673200355,9.789757317388055,-0.5707098200963809,0.2001284211874008,0.1523836553096771,-0.1214974373579025,-0.3185544284705371,-0.3424557896883542,0.6417336953490441,0.6078033595434087,-0.0759459137916565,-0.1060096472501754,-0.0484018325805664,0.012690782546997,0.0440154671669006,-0.0127482414245605,0.0640552267432212,-0.0615725442767143,-0.1547603536009788,0.0606816262006759,0.0217919989608228,0.1615147962972521,37
1733405670804933400,-0.0356335595069918,4.286953097066283,-0.7744576015651226,-0.0891641928954981,9.787810274973513,-0.6010109964663163,-0.1321213543415069,0.1627810001373291,0.0230123456567525,-0.3195351569470033,-0.3456125170158131,0.641244898759641,0.6060150829887964,0.2713039219379425,0.0802727192640304,-0.4340320229530334,-0.2423752546310424,0.2138497829437255,-0.2055011987686157,0.0957400202751159,-0.1091093271970748,-0.3191869456917047,0.04279675334692,-0.0551263324815779,0.4493248992115259,38
1733405670844933400,-1.1772451329421252,13.101231643372774,-1.225851123744249,-0.0168627875138889,9.799605926707386,-0.3712315326403826,-1.2008193731307983,-0.0039500705897808,0.3845081031322479,-0.3261098120611695,-0.3397910287372499,0.6351925668237053,0.6121476846295653,1.7594623565673828,1.13440203666687,-1.122605562210083,-1.044477462768555,0.7073261737823486,-0.8600819706916809,0.1945313811302185,0.1123397797346115,0.5770061072289944,0.0572800189256668,-0.1093885954797267,0.1175301086202263,39
1733405670884933400,0.8295408986225724,12.062602880895136,-3.415734326404333,0.1073403303135652,9.800348269507287,0.3346958457950502,-2.2867109775543213,0.7134163975715637,0.1985049247741699,-0.3469069448429355,-0.3285757522899992,0.6123505827449203,0.629857299473476,3.2174198627471924,1.365138292312622,-1.2933807373046875,-0.9347937107086182,1.1587958335876465,-0.300645500421524,0.1680796444416046,0.0213409811258316,0.7842740621805191,-0.169524684548378,0.0600274754613637,-0.0443920994341373,40
1733405670924933400,2.510109136010706,3.645915539431572,-4.765830253976583,0.0847561397954355,9.713281980472802,1.34735934221521,-2.7302165031433105,0.0032990644685924,-0.3567464053630829,-0.3682797234010476,-0.3157095966383624,0.5758743258323961,0.6580778001185718,2.0550668239593506,0.5287756323814392,-2.1714892387390137,-0.3047178387641907,0.3731667399406433,0.3003786206245422,0.1308236420154571,-1.67768448591e-05,0.514558711144328,-0.174468457698822,-0.0090525635708123,0.2010802062273025,41
1733405670964933400,1.7334714139275251,-6.726222563961148,-2.7270237479686736,-0.1580866484794765,9.5403073402673,2.2644940608777104,-1.9709211587905884,-0.299938827753067,-0.9445763230323792,-0.3709663916612737,-0.3022424680424601,0.541472462175897,0.6912604391409786,1.8199645280838013,0.3216932117938995,-2.3084805011749268,0.4642871618270874,-0.0779303908348083,0.7740285992622375,0.1096561849117279,0.0183847937732934,-0.0455816014796495,0.0004104524850845,-0.0114497609056532,0.0634270547717809,42
1733405671004933400,0.8878161966543644,-14.328403786587714,-2.3548767809838056,-0.5095322612844407,9.356544764065742,2.8923750536888835,-1.4506065845489502,-0.5119233131408691,-0.9903767704963684,-0.3630815735693006,-0.2963278609095798,0.5145092004174018,0.718082076925383,0.30387943983078,-0.1503666639328003,-1.4007573127746582,1.1451220512390137,-0.4888340830802917,0.6859540939331055,0.101803258061409,0.0124606732279062,-0.7322855162680149,0.0041677672415971,-0.0502588725756853,-0.3839946411669254,43
1733405671044933400,-0.0202914582047611,-16.744532031869888,1.157467323347926,-0.7510903891768306,9.192622029843928,3.3319594801306724,-0.580951452255249,-0.4403746128082275,-0.6886104345321655,-0.3506032129225105,-0.2875832844914558,0.497406466940945,0.7395675218722503,-0.2803283333778381,0.0360490083694458,-0.0590498186647892,1.2778252363204956,-0.4766171276569366,0.6617504954338074,0.105727344751358,0.0334980860352516,-1.0247159724593162,-0.089497335255146,-0.0541068532407283,-0.4672913485348224,44
1733405671084933400,-1.7103443669706582,-14.168977779263257,2.0484750825852154,-0.8664151697725057,9.215524182003737,3.2394179745554923,0.9482517838478088,0.5233657360076904,0.1428343206644058,-0.3460186282086835,-0.2934693868701804,0.4987097004205745,0.7385360672803226,-0.762336254119873,0.2431879639625549,1.0225839614868164,1.2151762247085571,-0.4382122159004211,0.6132174134254456,0.0924312174320221,0.0727518498897552,-0.7576292163610457,-0.1557523608207702,-0.0950060690578073,-0.4544976256743073,45
1733405671124933000,-0.6460504904258996,-8.54920663716197,1.41866356010288,-0.780444786215946,9.397351990750431,2.6927786562785503,1.8837753534317017,0.5482344031333923,0.625532329082489,-0.3498971752213325,-0.3078627527428392,0.5176166737892279,0.7175412483704081,-1.3038562536239624,-0.0628961026668548,1.7480063438415527,0.7798815369606018,-0.4458089768886566,0.5060350894927979,-0.0110694840550422,0.0952968597412109,-0.2874929997891187,-0.1840264648199081,-0.2077509892281144,-0.1184188741534948,46
1733405671164933400,0.1878377166859805,0.0525783284991979,-0.7564402988374233,-0.5547493768332525,9.61386182129979,1.85373255494684,2.226183652877808,0.3886722326278686,0.7766658067703247,-0.3512897485571438,-0.3222892431764493,0.5491953994905882,0.6863743185893745,-1.92478346824646,-0.4627023935317993,1.838362693786621,0.1658564209938049,-0.1713559627532959,0.1965535283088684,-0.0161926634609699,0.0155456215143203,0.4912006319105625,-0.1455630809068679,0.0813357825584709,0.1975397571414709,47
1733405671204933400,1.008728860384971,4.134180117890239,-1.645331358181685,-0.332217436450161,9.747252639135718,1.025233201266453,2.051586151123047,0.051638551056385,0.4599701166152954,-0.3478735049914405,-0.3331810124840459,0.5802741309942672,0.6567012005830919,-1.7362394332885742,-0.7330067753791809,1.5808449983596802,-0.2496953606605529,0.1755455136299133,-0.0163998007774353,-0.0008480455726385,-0.0393930040299892,0.4302472737759351,-0.1642640531063079,-0.0544886921651661,0.3217766699239611,48
1733405671244933400,1.8274533275693647,6.048781567558646,-1.7421686612546443,-0.1838339792036451,9.800683785071968,0.2884394868589937,1.6773823499679563,0.034579824656248,0.2844618260860443,-0.3411524995410588,-0.3426963182349071,0.6065087902361617,0.6311270436248411,-1.376258373260498,-0.7539501190185547,1.1089398860931396,-0.4071760177612304,0.3919637203216553,-0.186531662940979,0.0294798389077186,-0.0608774311840534,0.1249357087016105,-0.1785920113325119,-0.1434891641326248,0.1333525316521525,49
1733405671284933400,-0.0698474797407165,5.399324556624889,-1.881468410873413,-0.1043305175057146,9.8028073530972,-0.2538603226426057,1.08250892162323,0.1646110266447067,0.1464840173721313,-0.3340567696156042,-0.3494919897680166,0.6251388833695101,0.6127501011012227,-0.9958150386810304,-0.4764515459537506,0.6308176517486572,-0.4339232444763183,0.3636617064476013,-0.1805014908313751,0.015049192123115,0.0281575508415699,0.0981686978071928,-0.1643962264060974,-0.1087006132155656,0.0738379741489887,50
1733405671324933400,0.3359498279115185,4.255266749948263,-0.6403250254511833,-0.0444556433567544,9.789419463735818,-0.5793717769144102,0.6576042175292969,0.1516651660203933,0.1859360337257385,-0.3335463731000356,-0.3567541171129681,0.6342446220031874,0.5993388445146774,-0.5075268745422363,-0.3449639081954956,0.3357526957988739,-0.318571388721466,0.3452082872390747,-0.2734339535236358,-0.0023160995915532,0.0126394620165228,-0.0516536148697137,-0.1430819630622863,-0.1519972455631941,-0.0679296268880367,51
1733405671364933400,0.4423267474198714,2.5177123044908045,-0.9995850383341311,0.0339696517326287,9.77651322041154,-0.7674854975301771,0.256789356470108,0.0999789759516716,0.1364099532365799,-0.3335198962821827,-0.3585038206601178,0.640785362155442,0.5912982932170092,-0.1998899579048156,-0.1353562474250793,0.2341314554214477,-0.246634840965271,0.2033150196075439,-0.1715493500232696,0.0017569363117218,0.0365308113396167,-0.1374035606086254,-0.1648766249418258,-0.0966965794280171,-0.1908718236848711,52
1733405671404933400,0.0977305073193274,1.0689309617608784,-0.7510650355398655,0.0698634079622104,9.775006907501815,-0.784066776105389,-0.0949070528149604,0.1918329000473022,0.0671408548951149,-0.3359841272223995,-0.3594407628508136,0.6409201348381143,0.5891845656440463,0.0969036296010017,0.0768337249755859,0.0781860053539276,-0.0928065180778503,0.0856157541275024,-0.0429826378822326,0.0244393832981586,0.0391188338398933,-0.086261986914277,-0.0977118983864784,-0.1011621805347502,-0.0485956886038184,53
1733405671444933400,0.0756693451614584,0.1446259130775928,-0.0776969876646995,0.1356190700783394,9.776945766609906,-0.7505477336674928,-0.0304856598377227,0.1983142644166946,0.2533712983131408,-0.3409848800331171,-0.3593244689045616,0.6396508500446296,0.5877601960371013,0.1219898089766502,0.0992485359311103,0.0392728894948959,-0.0271840095520019,0.1097912192344665,-0.0237334966659545,0.024975337088108,0.0270719621330499,-0.0347854821771383,-0.0253017023205757,-0.0384657050598412,-0.0491521534428,54
1733405671484933400,0.6352211264409124,-0.0431511594623327,-0.1116553713679313,0.2316294938731007,9.777975109657644,-0.7126979685489088,-0.1389462351799011,0.2632864117622375,0.1442347764968872,-0.3475146873781178,-0.3587388360378377,0.6384699914808336,0.5855732946003679,0.1268740445375442,0.0303357820957899,-0.0006741927936673,0.0329259037971496,0.0036749839782714,0.0095643997192382,0.0048440694808959,0.0108157042413949,-0.0492950690448284,-0.0045947544276714,-0.0451263319928199,-0.0882896933495998,55
1733405671524933400,0.2327793397616595,-0.0794458771586418,0.403598336303234,0.2771856869168579,9.77790788964033,-0.6971870226189494,0.0541982315480709,0.2503112554550171,0.0692647621035575,-0.3520354237282076,-0.3601112086822275,0.6370765748738108,0.5835446939883536,0.0020061475224792,-0.0283893160521984,-0.0061463899910449,0.0224081873893737,-0.0199975967407226,0.0512948930263519,-0.0025681420229375,0.0069225449115037,-0.0535141480445861,-0.0163658633828163,-0.0214085526011884,-0.0121872813999652,56
1733405671564933400,0.9536335806287825,0.0207177938580513,0.8300761014778166,0.313048589067161,9.775756849086283,-0.7120117398504168,0.0558715611696243,0.3516743183135986,0.0156330876052379,-0.3570424090167264,-0.3638232473176206,0.6355589188439202,0.5798432449062052,0.083548404276371,-0.1084686517715454,0.0488277114927768,0.0278064608573913,-0.0064042806625366,-0.0221673846244812,0.0022795693948864,-0.0052709253504872,-0.0403144747316837,-0.0431519448757171,0.0037448856167495,0.0047431028738617,57
1733405671604933400,0.2298625024668872,-0.069622402280569,-0.2411328882176429,0.3220007244708016,9.769133047032357,-0.7942100575223565,0.266783058643341,-0.0236299224197864,-0.0148489577695727,-0.3574582029406337,-0.3668924364947271,0.6370897770732292,0.5759603576363486,-0.0162801817059516,-0.1369199007749557,0.0813295990228653,-0.0034717917442321,0.0317124128341674,-0.0034476518630981,0.0010815535206347,0.0069029759615659,-0.0856271961420774,-0.0436856485903263,-0.0174279585324227,-0.0416638435140252,58
1733405671644933400,0.1355769297033548,0.1683405506640672,-0.519130329908803,0.2685941649865359,9.769243521669509,-0.8124942675579339,-0.0425211489200592,-0.0389160327613353,-0.2111721336841583,-0.3552276935519424,-0.3686229556411365,0.6368224205690822,0.5765307486454601,-0.1147455051541328,-0.097507394850254,0.0435875430703163,0.0168542861938476,-0.005131185054779,-0.010197639465332,-0.0293242614716291,0.0337585099041461,-0.0862444512575864,-0.0263277105987072,-0.0457885952938348,-0.0390180051803588,59
1733405671684933400,-0.2159587725378572,0.1455669933199882,0.1099906530261039,0.2179040248541161,9.768672443783284,-0.8342368744190782,0.1137021631002426,0.0560603067278862,-0.1034054383635521,-0.3535346787630118,-0.3709056126171848,0.6363672436172302,0.5766099748798491,-0.0188996661454439,0.0450218394398689,-0.0218355376273393,-0.0769849419593811,0.0147538185119628,0.0810407996177673,-0.0533094108104705,0.0671129077672958,-0.0744575673520565,-0.005586665123701,-0.0473949345119297,-0.0864674463585019,60
1733405671724933400,-0.0206071274246554,-0.0903904650211334,-0.3453028722662478,0.1433097798445727,9.769251120454072,-0.8435675973441451,-0.0438995100557804,0.2934957444667816,-0.2801312208175659,-0.3531622784769086,-0.3757103329108623,0.6339177591566899,0.5764256558307611,-0.0460386089980602,0.1154046580195427,-0.0581690445542335,0.0044487714767456,-0.0390052795410156,0.0638555884361267,-0.0700283870100975,0.0535340495407581,-0.0270978502839803,-0.0010419301688671,-0.0159823628339916,-0.0215770410358905,61
1733405671764933400,0.055213421676564,-0.2252934409856796,-0.5078570946138352,0.0638981109162094,9.772471251544356,-0.8155380191680044,-0.1675744950771331,0.3803949952125549,-0.2015278190374374,-0.3554030168894198,-0.3821932456793159,0.6288952128268256,0.5762879420221684,0.0238131769001483,0.1131239235401153,-0.0952232033014297,0.0018402934074401,0.0191679596900939,0.0221138000488281,-0.0635619536042213,0.0748643949627876,-0.0480202268034219,0.0103487381711602,-0.0486561866194009,0.0243219558298587,62
1733405671804933400,0.0191087512262165,-0.2895744822382927,0.1329495768744498,0.0093225236355909,9.782284205028414,-0.6907984175603836,-0.3211846053600311,0.3130599558353424,-0.0832948610186576,-0.3604545082367775,-0.3862145135288693,0.6213366785551,0.5786636251689266,0.0988485366106033,0.0147282751277089,-0.0847169607877731,0.0338279604911804,-0.0004888176918029,-0.0378656089305877,-0.0632122308015823,0.0527150258421897,0.0253682500123977,0.0005978150293231,0.0159305595815181,-0.0089569211766123,63
1733405671844933400,-0.0112573824219987,-0.0608487287163734,0.6440087554652244,0.0115566416464978,9.785197462126613,-0.6481980969138443,0.1156037896871566,-0.2194994539022445,0.0800738334655761,-0.3624123310079544,-0.3864824835964003,0.6194192412728546,0.5793171899348231,-0.1956496685743332,-0.071733221411705,-0.0389620624482631,0.0193245410919189,-0.0166786909103393,-0.0231299698352813,-0.0663270577788353,0.0492610037326812,-0.0545119269102811,-0.026465505361557,-0.018021394380927,-0.0212190213784575,64
1733405671884933400,-0.0011641621082788,-0.032389526951313,0.3412262704771012,0.0493472787226783,9.779185654491185,-0.7317810008119792,0.2624649107456207,-0.4845509529113769,0.1537329405546188,-0.3568957066926448,-0.3814460766928046,0.6259467548711749,0.5790640193210154,-0.1965250521898269,-0.036259114742279,0.013399614021182,-0.0192269086837768,-0.0123089551925659,0.0128121674060821,-0.0684563443064689,0.0498007796704769,-0.0344867914915084,-0.067194327712059,0.0341961379818618,-0.0107622170329093,65
1733405671924933400,0.1235171288742683,0.1763970158696174,0.1466997236769646,0.1036326623015105,9.770165312689542,-0.8387739333268255,0.2657542824745178,-0.1624214202165603,0.1705647855997085,-0.3527314707943402,-0.3776209686667769,0.6325883110383367,0.5769012525990361,-0.1367045938968658,-0.0404206775128841,-0.0269095916301012,0.0030127167701721,0.0019881129264831,0.0098924338817596,-0.0578128322958946,0.0251000523567199,-0.0169768537640571,-0.0675490200519561,0.0689299630369991,0.049713586717844,66
1733405671964933400,0.1905420802738517,0.0710275929033756,-0.7007552364945411,0.1262405807550996,9.766148478263617,-0.881362928861752,-0.0672612637281417,0.4154301881790161,-0.0678636059165,-0.3536633318225508,-0.3788572995150646,0.633564636989154,0.5744434702953033,-0.0618391446769237,0.0452268496155738,-0.1175532117486,-0.0028585791587829,0.0350737571716308,0.0735344588756561,-0.0403698682785034,0.0297292098402977,-0.0420469976127147,-0.0555835291743278,0.0290624283552169,0.0751993256300687,67
1733405672004933400,1.0634621018957346,0.210417358893156,0.0295510155897587,0.1096967207139823,9.772806182587146,-0.8066185073923319,-0.111015684902668,0.4353867173194885,-0.1792138814926147,-0.3621390646571039,-0.3862558957088444,0.6260451102062075,0.5724764775771005,0.2645743787288666,0.1963837593793869,-0.253400444984436,-0.0271859765052795,-0.0022504925727844,0.0569381415843963,-0.008505817502737,0.0129324272274971,0.0046516251981258,-0.0468074083328247,0.0743517688900232,0.094180797214806,68
1733405672044933400,0.2127399018228985,0.1121720887184143,0.0825496883928775,0.0362571553150308,9.771840552425385,-0.8247516185194254,0.1388411819934845,0.4267249703407287,-0.2186106443405151,-0.3643867296789284,-0.3941319789421418,0.6218606061797299,0.5702383064139024,0.1971466094255447,0.1149981543421745,-0.2435735911130905,0.0092018246650695,-0.0122159123420715,0.0124798715114593,0.0067874193191528,0.0172912459820508,-0.0939759222924709,-0.0669323876500129,0.0130504741005599,0.0552355650097131,69
1733405672084933400,-0.183334523515217,-0.0478290881454944,-0.8989409633893519,0.0088568577647994,9.771880884435772,-0.8250337964616715,-0.1873866617679596,0.9310426115989684,-0.0794635191559791,-0.3700101240213446,-0.4020073299098441,0.6168104433678707,0.5665929888328568,0.2915625870227813,0.0287536531686782,-0.2369093596935272,0.0264195799827575,0.058020532131195,-0.0500337779521942,-0.0072228843346238,0.0371407940983772,-0.0625169541895389,-0.0904339700937271,-0.0057546180039644,-0.0345531347259879,70
1733405672124933000,-0.7083833932854234,0.3557575577199459,-0.4576794705808162,0.1219536332840565,9.774259304004907,-0.7870061174929142,0.0318139679729938,2.4829540252685547,0.4802919924259186,-0.3939336305935345,-0.4194280999565651,0.603494999853511,0.5519875072865864,0.0248129274696111,-0.138981282711029,-0.049989677965641,-0.0058167576789855,-0.0012854933738708,-0.0277245342731475,-0.0143178515136241,0.047563798725605,-0.0446796842038631,-0.0975356549024581,-0.0085125384099781,-0.0464531236171722,71
1733405672164933400,-1.0816173517894,-0.1361860015124082,0.5764321067333221,0.4972826187053695,9.760876675340532,-0.805227418360114,0.1580497026443481,2.076517105102539,0.9703567028045654,-0.4279247226262838,-0.4350147826194021,0.5931418986913137,0.5251907163096095,-0.1227187439799308,-0.1582777500152588,-0.0772870779037475,0.0695208311080932,0.0759824514389038,-0.0645740628242492,-0.0015510888770222,0.0024647936224937,0.0379945073515176,-0.0936071649193763,0.0273416689772158,-0.0073579615473747,72
1733405672204933400,-0.780317944965884,-0.1572100848406553,0.2102291428446769,0.9808325531996784,9.721596804353592,-0.8360136017680168,0.2580975592136383,2.209307909011841,1.0800118446350098,-0.4625495385636091,-0.4473258066265061,0.5852558886402284,0.4933793088808574,-0.1287025958299636,-0.0273357667028903,-0.1027759984135627,-0.002166748046875,0.0725746750831604,0.0905298292636871,0.0094255218282341,0.002002416178584,-0.0652589463740587,-0.0928006470203399,-0.0608918372057378,-0.0087649057358503,73
1733405672244933400,-0.8310022033467889,-0.1030249056667089,-0.3624759792547672,1.4858162112690507,9.657684596413374,-0.8317814440909773,0.2300572842359542,1.3856592178344729,1.2034672498703003,-0.4905882671643913,-0.4508079693094216,0.5823926723431191,0.4657403630591936,-0.0339635722339153,-0.0268534179776906,-0.1086232960224151,-0.0054838061332702,-0.0182598233222961,-0.0080986320972442,0.0218810029327869,0.0110104335471987,-0.0543400774747133,-0.0837451145052909,-0.068387892049551,0.0394219098061323,74
1733405672284933400,-0.1373034612350165,-0.0772884068638086,-1.697507681751251,1.9925104726485907,9.56371510386169,-0.8577041131157428,0.2175406813621521,1.072390913963318,1.2215700149536133,-0.5134176578258725,-0.4509558311101644,0.5834120131284776,0.4389437981244081,0.0581509098410606,-0.1010569706559181,-0.0622283034026622,0.020978569984436,-0.0131896138191223,-0.0480308532714843,0.0343364849686622,0.0200184509158134,-0.0433247624635696,-0.0746895745396614,-0.0758678725413978,0.0875444279402494,75
1733405672324933400,0.6952548855125904,-0.2320505140304565,-1.6469968071758747,2.476164196310937,9.464240584152936,-0.6834589415177702,-0.6292287707328796,1.1977293491363523,1.0849924087524414,-0.5377083622204949,-0.4439374120258855,0.5811766349138825,0.4195507949511253,0.047559518367052,-0.1354530155658722,-0.0058318702504038,0.0375992059707641,-0.0046126842498779,-0.0077662765979766,0.0532529950141906,-0.0059729106724262,-0.0350087695389986,-0.1122909858822822,-0.0086874565854668,-0.0023334113836288,76
1733405672364933400,0.878509219931066,-0.7762105827122926,0.1021416930913925,2.8721570260465143,9.374088019540906,-0.2181106168095022,-0.9089797735214232,1.6114791631698608,0.9366663098335266,-0.56909759026019,-0.4346927956717936,0.5675937986843057,0.4062110380787304,0.0431511886417865,-0.1859622746706009,0.0145877180621027,0.0118749141693115,-0.0166473984718322,-0.0087721943855285,0.046521708369255,0.0049033192917704,-0.0425087699055671,-0.1731350570917129,-0.0245253694474697,-0.0401765275657176,77
1733405672404933400,0.6923568259835243,-0.3412561541587114,1.6597721175968645,3.19642492826432,9.266391030409933,0.2953927948619239,-0.744046151638031,1.475908875465393,0.8111093640327454,-0.6009227840400426,-0.4270631534584758,0.5500511080903924,0.3923680423500207,0.0407122634351253,-0.1620582640171051,0.006615478079766,-0.0042672157287597,0.0091570019721984,0.0192866623401641,0.0278065241873264,-0.0266327299177646,0.0823737473040819,-0.186296597123146,0.0935054552365094,-0.0165413849562406,78
1733405672444933400,0.5250856581166387,-0.625135055103898,2.4523686024427414,3.460661263367533,9.15387816542983,0.6330090764146298,-0.0288251433521509,1.5251266956329346,0.8189994692802429,-0.6262959247987591,-0.4251143174506501,0.5357269221699308,0.3742028183311,0.0325723104178905,-0.1053580716252327,0.0016866328660398,-0.0203513503074646,-0.0034131407737731,0.0208168923854827,0.0053942911326885,-0.0539540201425552,-0.0460761069983243,-0.1746860742568969,0.0358577875837683,-0.0184328977912664,79
1733405672484933400,0.6031003334283829,0.028527006304264,1.6041455074429511,3.731152859473229,9.039212506330012,0.7358873401522636,0.3994882702827453,1.1262013912200928,0.797054648399353,-0.6437347685444379,-0.4277549023811688,0.5286832054229902,0.3508923237354821,0.0173624660819768,-0.0283467583358287,-0.005273871589452,-0.0278675556182861,0.0171816945075988,0.043706476688385,-0.0029677459970116,-0.0417829416692256,-0.0126245037734508,-0.1396287083625793,0.0950851256433874,0.034112697482109,80
1733405672524933400,0.8622297007814049,0.0066962827682495,0.80662683682926,3.940688759356737,8.945973081618547,0.781627273998782,0.4142034947872162,1.367663025856018,0.5827799439430237,-0.6582953178294533,-0.4347333864433617,0.5207254404032063,0.3263423224552064,0.0064506968483328,0.0377566814422607,0.0028553609736263,-0.0196261405944824,0.0005663633346557,0.0100485682487487,-0.0137941697612404,-0.0295822992920875,-0.1043418334841728,-0.1093578189611435,0.0397707232438027,-0.0349041401207447,81
1733405672564933400,0.0884340702563524,0.2552326521754264,0.7799164514929056,4.10126890515238,8.874606466019154,0.7689823850244283,0.4980762898921966,0.6202375888824463,0.4457413554191589,-0.6669361222045996,-0.4405103431236679,0.516472115769278,0.3072513301842988,-0.0727802142500877,0.0889234095811843,0.0262685418128967,-0.0090999007225036,0.0152811408042907,0.0296811163425445,-0.0293287150561809,0.0007206387817859,-0.069767948231101,-0.0834460631012916,0.0200520234256982,-0.0341740722805261,82
1733405672604933400,0.1318900578841567,-0.089087565729022,0.4100977082598954,4.23333841125667,8.820143638947606,0.6740271693710237,0.6835712790489197,0.7161430716514587,0.4383921325206756,-0.6711202367810277,-0.4477481948871832,0.5149327437867851,0.2897646459741569,0.0051481453701853,0.0906705483794212,0.0083774924278259,0.0005124807357788,0.0083584785461425,0.0027555227279663,-0.0538006536662578,0.0209190286695957,-0.045811903104186,-0.0638262033462524,-0.0137067460522055,-0.0404512528538703,83
1733405672644933400,0.6600774814084172,0.0642354485452175,-0.9631704936504364,4.339165222601593,8.777102369600534,0.5518168670453131,0.4291774332523346,0.4092462360858917,0.1805754154920578,-0.6732705372268457,-0.4558870343746861,0.5138406191545521,0.2735719257723631,-0.0360360443592071,0.1101429983973503,0.0509521849453449,0.0247678756713867,0.0022585988044738,0.0067143738269805,-0.0439579412341117,0.0174966603517532,0.0173819274336099,-0.0372356809675693,0.0050248424246907,0.0648334144383668,84
1733405672684933400,0.6605480215296149,-0.0209884274929761,-0.9028512687008828,4.35096525824964,8.77074920118153,0.5598821731444448,-0.0260800123214721,0.5304034352302551,0.0017391522414982,-0.6761942210926912,-0.4600255448619528,0.5097356691190267,0.267034784847155,-0.0479342490434646,0.0590896680951118,0.0403364226222038,0.0332067012786865,-0.002262532711029,-0.006813645362854,-0.0172277241945266,-0.0007240213453769,0.0059849196285009,-0.0362780541181564,-0.0020496990714222,0.0765969174683093,85
1733405672724933400,0.0862295459493994,0.1300128658354282,-0.4022966791201383,4.347082863858342,8.758909125784038,0.7448170810610055,-0.2613310813903808,0.8518163561820984,0.0864493548870086,-0.6853544023986012,-0.4612795161547768,0.4992455346421362,0.2612745005870882,-0.0668347030878067,0.131775215268135,0.1451178938150406,0.0222197771072387,0.0175164341926574,0.0365767478942871,0.0132271945476531,-0.0202513448894023,0.0146335055083036,-0.0471037663519382,0.0253831553205847,0.0696013594925403,86
1733405672764933400,-0.2195616193354129,0.0992880572259426,-0.161321027290821,4.342825498674809,8.738009545618295,0.9784917622271924,-0.3057949244976043,0.5148323178291321,0.0021146603394299,-0.6957901942549202,-0.4604589640739802,0.4879429759489976,0.2564472942468003,-0.2123932242393493,0.1551018953323364,0.1353280544281005,-0.0008825659751892,0.0037010908126831,0.0242564976215362,0.0202428363263607,-0.0107291545718908,-0.0662426967144012,-0.069044753909111,-0.0143655022218823,0.0200081842839717,87
1733405672804933400,-0.4235620969235897,-0.0638023178249597,-0.035866336216405,4.310548199926316,8.73350521993637,1.146925617197901,-0.2521249055862427,0.3219715356826782,-0.0620232783257961,-0.7022997510925485,-0.4594328554245779,0.4800463734758377,0.2554446356008305,-0.1062814444303512,0.1404731571674347,0.1267978101968765,0.0080320239067077,0.0245767831802368,-0.0227686464786529,0.0195093359798192,-0.00844207406044,-0.0402127679228782,-0.0890933126211166,0.017329978050664,-0.0055313306421041,88
1733405672844933400,-0.2417339959159493,-0.0765501557171344,0.3857334476582705,4.290328710979223,8.726949806943535,1.2664150431923566,-0.1303891688585281,0.3216253817081451,0.024938229471445,-0.7067425783125667,-0.4581546542565789,0.4748948487515725,0.2551158768078504,0.0436396114528179,0.1768462359905243,0.0756406858563423,0.0067771673202514,0.0072512626647949,0.0047496855258941,0.0192473456263542,-0.0059612127952277,-0.051574704414606,-0.0942728444933891,0.0245733733076602,0.0059136079579591,89
1733405672884933400,-0.208548642411828,-0.2304261276990175,0.20645605404675,4.296049718974531,8.712783334425092,1.3422929987363517,-0.043538823723793,0.2790911793708801,0.0855684205889701,-0.7105032626134248,-0.4580561667813715,0.4708998325515772,0.2522360714140845,0.0167739074677228,0.1366337239742279,0.0609295144677162,0.0239695310592651,0.0273043513298034,-0.0057724118232727,0.0248036868870258,-0.0070110633969306,-0.037087329378724,-0.0860791802406311,0.0325828575663268,-0.0055710781306028,90
1733405672924933400,0.1538096287474036,-0.0643862551927566,0.192307263315469,4.317811176666617,8.695036080810427,1.3868186614222824,0.0632970258593559,0.3350886404514313,0.1323860138654709,-0.7135587572211938,-0.4585950091474757,0.4679557108126712,0.2480768182295662,-0.0579719692468643,0.0913420394062995,0.1226151809096336,0.0342287421226501,0.0052785277366638,0.0195174515247344,0.0298921782523393,0.0033493526279926,-0.0334364056557416,-0.071957916021347,0.0316592399153858,-0.0209177003443241,91
1733405672964933400,-0.288342894616723,-0.2370844165444374,0.03735138714239,4.349207600927353,8.673053381583093,1.4258052485510706,0.031214490532875,0.3083152770996094,0.1722095310688018,-0.7168389714194527,-0.4595804995700205,0.4648547409154395,0.2425649323430733,0.0013635269133374,0.0941755399107933,0.110765054821968,0.0383446216583251,-0.0006355047225952,0.0193564593791961,0.0380432903766632,-0.0025108708068728,-0.0353016150057315,-0.055140808224678,0.0093967738986015,0.0254734639525413,92
1733405673004933400,-0.2277443412691354,-0.232329330971837,0.0938449893891811,4.406225080917776,8.637174258950353,1.4679223887905477,0.1274314522743225,0.375213623046875,0.2852990925312042,-0.7206465084172445,-0.4599908539635713,0.4621311510458817,0.2356095711111033,0.091855876147747,0.169597327709198,-0.0236767139285802,-0.015628159046173,0.001992642879486,0.0565445125102996,0.0491386726498603,0.0082872668281197,-0.0629015695929527,-0.039731778204441,-0.0112174134545028,0.0320545959085226,93
1733405673044933400,-0.4304781599223613,-0.383318349340558,-0.3247721984781325,4.515135245230794,8.577922444036602,1.4843139900125562,0.1547987014055252,0.4919906258583069,0.5250616669654846,-0.7247771155858076,-0.4608700248524007,0.4603475536787881,0.2244484085915475,0.131562277674675,0.2126152068376541,-0.0764231532812118,0.0179493427276611,0.0961804389953613,0.0828890800476074,0.055907554924488,0.0309885814785957,-0.0052992754518985,-0.0267752110958099,-0.0050856327012181,0.089216160544753,94
1733405673084933400,0.3951297831654548,-0.0781914931833744,-0.2686784092038869,4.688657874707878,8.472561204376817,1.5500250640682876,0.0455152802169323,0.5998555421829224,0.6465853452682495,-0.7313642124889482,-0.4588940965038505,0.4586795397199478,0.2100850090690044,-0.004900227766484,0.2515754401683807,-0.1013127863407135,0.0150730609893798,0.0423544645309448,0.0184413790702819,0.0680044367909431,0.0203198194503784,-0.0022866496324539,-0.0399756878614425,0.0372023340605199,0.0457674794405698,95
1733405673124933000,0.7687178888693451,0.0262280817121267,-0.1953741035401821,4.862743398764729,8.354825051790476,1.649552190747112,0.1014083549380302,0.7016995549201965,0.6062660217285156,-0.7392839600729019,-0.4568817832119938,0.4551431445859618,0.1938118641283757,-0.0134564321488142,0.2873667180538177,-0.0176767446100711,0.0227636694908142,-0.0472428798675537,0.0225141048431396,0.0688884481787681,0.0195322763174772,-0.0458843838185071,-0.0866421163082122,0.0123415951788425,0.0327168592095375,96
1733405673164933400,0.6274538534402847,-0.1331879887402057,-0.2272359533555805,4.978418527168035,8.262998416486383,1.76311602608487,-0.0710838437080383,0.5050055384635925,0.3576208353042602,-0.7463880339890626,-0.4551337410659993,0.4505101271154392,0.1811042555488715,-0.2686317265033722,0.3225865066051483,-0.0422149747610092,0.0108493566513061,-0.0234010815620422,0.0551081001758575,0.0683761239051818,0.0096129039302468,-0.0416764107346534,-0.1032039001584053,0.0095471421547234,0.0074275196522474,97
1733405673204933400,0.1081511626392602,-0.0992068086832761,0.471271942603588,5.049408126148581,8.194900447294115,1.875494597160816,-0.0283062476664781,0.440652072429657,0.2994788885116577,-0.7522812831294007,-0.4532319397718043,0.4460461833104196,0.1723268408451725,-0.0782783105969429,0.2483438551425933,-0.0357641354203224,0.0026079416275024,0.0273436307907104,0.0014916360378265,0.0578309670090675,0.0134486844763159,-0.0627986937403678,-0.0895393341779708,-0.0124605453833937,-0.0078998133391141,98
1733405673244933400,0.510484009051323,0.0869300954341888,0.3339905470699071,5.100776494336128,8.15002085660398,1.9312237909063696,0.0239611435681581,0.0477930791676044,0.1346775442361831,-0.7554141115419909,-0.4520366162494377,0.4440696856085758,0.1667769527962234,-0.099764160811901,0.1973845213651657,-0.1467503756284713,-0.0290268659591674,-0.0147650837898254,0.0220729708671569,0.0290348082780838,0.0021258508786559,-0.0768985307633876,-0.10523621737957,-0.0118615565769374,-0.1380728381723165,99
1733405673284933400,0.2597434075981378,0.0804074156671762,0.4582885423898696,5.129155032080412,8.124072760877013,1.965092596630007,0.0378243774175643,0.295387715101242,0.1196829080581665,-0.7573638328356951,-0.4516296048273217,0.4425368437745334,0.1630700419342279,-0.2080125957727432,0.064517080783844,-0.2001707255840301,-0.0254576802253723,-0.1438556313514709,-0.0797809958457946,0.0153004666790366,0.0144479386508464,-0.1057668978512287,-0.1002689972519874,-0.0700669311776757,-0.0894230812937021,100
1733405673324933400,-0.0662520490646362,0.1824544162124395,0.3475464864745736,5.128941097068786,8.119438086813688,1.9847049134641883,0.1233762949705123,0.1490321010351181,0.0250653270632028,-0.7587500246414656,-0.4530233153513449,0.4399750981212715,0.1596560423233706,-0.2652018368244171,0.0941553488373756,-0.1695980280637741,-0.0159468054771423,-0.0057421326637268,0.0524334609508514,0.0108557660132646,0.0162814352661371,-0.0348638081103563,-0.0600904002785682,-0.0403116982527077,-0.0099205055117607,101
1733405673364933400,-0.1300257253170013,0.1826981618404388,0.0768798260629177,5.139593423986435,8.11755008111,1.9647757857657968,0.2547808587551117,0.2893123626708984,0.1311471462249755,-0.7590924180666162,-0.4558925499911006,0.4381624065571483,0.1547720194902925,-0.3930831253528595,0.1728889793157577,-0.1643661111593246,0.0118683576583862,-0.062670350074768,0.0464487671852111,0.0030451593920588,0.0195629876106977,-0.0342857159614563,-0.0459005907177925,-0.0426480322457849,-0.0005506196200847,102
1733405673404933400,-0.539092848420143,0.0680173051714897,-0.3534410974711179,5.177559289765358,8.096509631168843,1.951870273093879,0.1837856620550155,0.4573068916797638,0.2951429188251495,-0.7602209099671319,-0.4587748146970666,0.4358990509088853,0.1469076272534786,-0.2284174710512161,0.1280086040496826,-0.2851047813892364,0.0389497876167297,0.1443136930465698,-0.0277088284492492,-0.0019877045415341,0.0252254381775856,0.015994272467494,-0.0459470152854919,-0.0354901233151555,0.0257324071496725,103
1733405673444933400,-0.4652274017423391,-0.0078933835983276,-0.2033686094254255,5.2605146363496775,8.020687205204368,2.0410678750686344,0.1415453255176544,0.7568106055259705,0.5008595585823059,-0.7656732209489686,-0.4590914487951324,0.4303133090832569,0.1334544292683355,-0.2160601317882537,-0.0313663035631179,-0.3297725915908813,0.0445021986961364,0.1011931896209716,-0.0380100905895233,-0.0013338946737349,0.0404732078313827,0.0172246910452842,-0.0613414384424686,-0.0375347808852791,0.088059976246953,104
1733405673484933400,-0.1773947947353124,0.0142921447247266,-0.3743566058583557,5.360092616432905,7.913806208631396,2.193501100896299,0.1129439547657966,1.159909963607788,0.6281353831291199,-0.7736756567133887,-0.4587789778672035,0.4215262976767536,0.1151664888306882,-0.0009512926917523,0.0031882650218904,-0.2213164120912552,0.0595965385437011,-0.0502398610115051,-0.0553368926048278,-0.0006800848641432,0.0557209812104702,0.0185310974687337,-0.0767358615994453,-0.0396180169001221,0.1503448752462864,105
1733405673524933400,0.0456108275741338,0.0993143607109785,-0.4810895722627639,5.46793632055819,7.76668555612862,2.439396600405872,0.0423520691692829,1.3009768724441528,0.770636260509491,-0.7847794321071644,-0.4565667707888589,0.4088669347905176,0.0921731651717204,-0.0607315339148044,0.0038158122915774,-0.1554188877344131,0.0331534147262573,-0.0180221796035766,0.0430881977081298,0.0293075572699308,0.0524148344993591,-0.0306312851071357,-0.0632438957691192,-0.0259847744755446,0.1062678331106901,106
1733405673564933400,0.0129909989982843,0.0818015003740787,-0.4632689611509442,5.562206257361173,7.600742129734158,2.7314757589414715,0.044348768889904,1.3212069272994995,0.774360179901123,-0.7966601555917224,-0.4528587534339306,0.3945281304896043,0.0678163714205289,-0.1823232173919677,0.0022631895262748,-0.1273768842220306,0.0173724889755249,0.0279083847999572,0.0498925149440765,0.0367607399821281,0.0605982467532157,-0.0556669421643018,-0.0742446035146713,-0.0733779554218053,-0.0123404261350631,107
1733405673604933400,-0.4063040881305932,0.1301408761292695,-0.9510276359140872,5.673847015681862,7.426259423053264,2.971284632013738,0.1662425994873047,1.144434928894043,0.9093302488327026,-0.806051219492471,-0.4497526168324878,0.3823993019825157,0.0421292551751361,-0.0647395998239517,0.0453815758228302,-0.0720091611146926,0.0392675399780273,-0.0327272415161132,0.0095663666725158,0.0326147302985191,0.0467732064425945,-0.0092483053386211,-0.0766088813543319,-0.0668237114727497,0.0241436766535043,108
1733405673644933400,-1.8980682480186224,-0.354811801302433,-1.1038467923194168,5.853289390596747,7.1779872575402255,3.222715261557698,-0.1376379579305648,0.909805953502655,1.3259886503219604,-0.814901154023021,-0.4418482149398946,0.3747764815613104,0.015777068435707,-0.1430248022079467,0.0119781345129013,-0.0372780114412307,0.0408018231391906,0.0181256532669067,0.0151728391647338,0.0435989201068878,0.0051483139395713,0.020211013379693,-0.0849956199526786,-0.0432883759759366,0.0404945074737072,109
1733405673684933400,-2.318054824543,-0.5099760595291852,-0.6754521606728434,6.154014212402701,6.775750857239961,3.519613510812819,-0.0040780110284686,1.5256662368774414,2.0973143577575684,-0.8240564158423879,-0.4280093037091708,0.3706179791391352,-0.0195259629857077,-0.2125519514083862,-0.0582340806722641,-0.0233995448797941,0.0431572794914245,0.0268651843070983,-0.015058010816574,0.0368808470666408,-0.0072476807981729,-0.0421405211150646,-0.1092957034707069,-0.064340662485361,-0.0491506921380758,110
1733405673724933400,-3.4546266593784094,-0.6780670193463564,-0.9204597714319824,6.6233519720733165,6.073699151194095,3.92578111308217,0.1004729717969894,1.503404140472412,3.346360683441162,-0.8329529157698298,-0.406835323938304,0.3665049530399952,-0.0796774746491575,-0.2873982191085815,0.0248160082846879,0.0346789397299289,0.0156660676002502,0.0044969916343688,0.0484055280685424,0.0186131726950407,-0.0221410375088453,0.0262000246614217,-0.0956332683563232,-0.0773933285430073,0.0684971976429223,111
1733405673764933400,-3.1704157499998806,-1.005150855767727,-0.1222387247025966,7.204944822570681,5.083823605969548,4.291142657710612,0.4033234119415283,1.7302037477493286,4.171899318695068,-0.8334316405486389,-0.3800144104668879,0.3698670822708398,-0.1554968292308096,-0.2934896647930145,0.0272239875048398,0.1154536828398704,0.0001840591430664,-0.0129015445709228,-0.0007755756378173,0.0242243967950344,-0.03669373691082,0.0495037433594465,-0.0994086787104606,-0.1260870706938207,0.0239408475577831,112
1733405673804933400,-1.0485708952993154,-2.1458573061898347,2.083808554033935,7.611525974076986,3.9109818956181406,4.789495207202434,1.1742784976959229,2.31106948852539,4.454517841339111,-0.8263899095463576,-0.3505138939576118,0.364614482955139,-0.2475397077452644,-0.3431794643402099,-0.0198574531823396,0.1966680437326431,-0.002314805984497,-0.067545473575592,-0.0163402259349823,0.0120108844712376,-0.0766435116529464,0.0026981530427932,-0.1359883844852447,-0.1028768754981458,0.0551285975039005,113
1733405673844933400,-0.3861053497105837,-2.0104177391305567,0.0862953046619892,7.758451396268605,2.804844069752097,5.301856116041541,1.294758439064026,2.3245232105255127,4.464928150177002,-0.8059590865329775,-0.3280652386069038,0.3493619420194767,-0.3474903622491547,-0.2584970593452453,-0.006517625413835,0.2248483449220657,-0.0463819503784179,-0.0055432319641113,-0.004768282175064,0.0276404470205307,-0.1530623435974121,0.1545733065962791,-0.1555014103651046,0.1451357622958719,0.1830424452334642,114
1733405673884933400,0.8913333379298448,-1.645330919790268,0.0575362431675195,7.58982735248804,1.7598039789274331,5.955501810836791,-0.0335231907665729,2.2211930751800537,3.1134707927703857,-0.7887299884174872,-0.2932306546006158,0.3322193393107118,-0.4260883138664474,-0.1274932473897934,0.0055118729360401,0.1568760126829147,-0.0459860563278198,0.0088752508163452,-0.0277869403362274,0.0759304016828537,-0.2293245494365692,0.0114127898961305,-0.1725524514913559,0.1598782811366021,0.1367746150553226,115
1733405673924933400,-1.367768946906924,-1.1103004254382105,2.522891168433428,7.2772571945875875,0.8927274226367473,6.512676259392499,-0.0144309503957629,1.4218538999557495,2.777549982070923,-0.7754443086220925,-0.2566234783771411,0.3195157326774115,-0.4803543937563777,-0.1245006695389747,0.0220699701458215,0.2074604928493499,-0.0289440155029296,-0.0722262859344482,-0.0296023488044738,0.0902750939130783,-0.1747775673866272,-0.1712310114085674,-0.1926181316375732,0.1612880018040537,-0.043219548523426,116
1733405673964933400,-0.6921212636619806,-0.8396199556969106,2.6101678853482007,7.004882853475213,0.156973298676405,6.861293882229924,0.1908935010433197,0.9164261817932128,2.660658121109009,-0.7550869210796493,-0.2293621097754612,0.3123529779676708,-0.5288405428900363,-0.1347258687019348,0.0460009239614009,0.179157018661499,-0.0454872846603393,-0.0125155448913574,-0.0143167972564697,0.0679041147232055,-0.1370277106761932,-0.0878045401811599,-0.1690159142017364,0.1820826602905988,-0.0409153632342815,117
1733405674004933400,1.4524305128872397,-0.6887713687121868,3.081956545302272,6.778385881918668,-0.4658323088329285,7.071553420212864,0.4090505540370941,0.7397758364677429,2.280612707138061,-0.7314460019989778,-0.2089515286414959,0.3095001993652914,-0.5705572971805314,-0.2212628871202469,0.0941711664199829,0.1628493517637252,-0.0356231331825256,-0.012185513973236,0.0129553377628326,0.0502919256687164,-0.075504258275032,-0.1990472390949726,-0.1519998461008072,0.0790510326221585,-0.1072913309395313,118
1733405674044933400,1.1561556562274693,-0.0952986222635954,2.2819570907235143,6.560805207267404,-0.79743924870193,7.245020227849483,1.0377166271209717,0.2226045876741409,1.870491862297058,-0.7078669958668614,-0.2004036962698195,0.3007409778968343,-0.6068918507973191,-0.2552812993526459,0.1592821478843689,0.1806015819311142,-0.0005528926849365,-0.050793707370758,0.0184391885995864,0.0324480012059211,-0.0372450724244117,-0.2116489465147256,-0.1497252881526947,0.0131787766553461,-0.1095756424844264,119
1733405674084933400,2.931436898010969,-0.1785479102931916,0.5171329455465078,6.483461270824074,-0.9030327627476304,7.3020304013162844,1.1044721603393557,0.0849736630916595,1.376462697982788,-0.6831358958107262,-0.2052957538850571,0.2924956878560616,-0.6368871903262542,-0.2319930344820022,0.1103875264525413,0.1903426349163055,0.0200741291046142,-0.0173966288566589,-0.0071948170661926,0.014604078605771,0.0010141097009181,-0.2239683298617601,-0.1474507302045822,-0.0525794975429773,-0.1120890866100788,120
1733405674124933000,3.0141788941055534,0.4913294459220022,0.0962742623627185,6.38156566144824,-0.8727556248404085,7.3948834570586675,0.908336341381073,0.4417577683925628,0.6670792102813721,-0.6670362772568759,-0.2100221493089792,0.2808141250693634,-0.6573406665064127,-0.1270034909248352,0.0508721619844436,0.1463661193847656,0.020455002784729,0.0381233692169189,-0.0119961500167846,-0.0167336855083704,0.019343789666891,-0.0268067583829164,-0.1132592782378196,-0.0432230556547641,-0.095122754240036,121
1733405674164933400,1.4309516715288162,-0.0762382402237504,-0.0051554830670356,6.180664318919182,-0.7717579141523688,7.57457308473289,0.7101430892944336,0.6997346878051758,0.4947412312030792,-0.6598807070147045,-0.2094395760458618,0.264460400626538,-0.6713815682061698,-0.1936046332120895,-0.0324840322136879,0.1937016695737838,0.0107490420341491,-0.0190843939781188,0.0031250864267349,-0.0114870546385645,-0.0035814847797155,0.0053361003309488,-0.0939075648784637,-0.0614075316429138,0.0164303257972002,122
1733405674204933400,2.1345231344878672,0.4614512442044913,-1.918869043985009,6.156596630111336,-0.6516407116483897,7.605396677541733,0.3164341449737549,-0.455102264881134,-0.2169272601604461,-0.6549153493231472,-0.2150022596512817,0.256917691485124,-0.6773870217775715,-0.1740093529224395,-0.1091300249099731,0.1765008568763733,0.0298945307731628,0.0140771269798278,-0.023445188999176,-0.0062404237687587,-0.0265067592263221,0.0375999550759792,-0.0745558515191078,-0.0796273712053895,0.1278705931097269,123
1733405674244933400,-0.2270586970925331,-0.0659503992369398,-1.5564917758643626,6.26867694889307,-0.5405310279970988,7.522094124954938,-0.0871150121092796,-0.1825351864099502,-0.2038276195526123,-0.6573610342416197,-0.2225407862710789,0.2587576933050772,-0.6718604279860132,-0.1129284277558326,-0.1154123172163963,0.2169095873832702,0.0138694047927856,-0.0105001926422119,0.0029596239328384,0.0256708562374115,-0.0418107509613037,-0.0259860896497964,-0.0884109511971473,-0.0901521262206137,0.0663099167317152,124
1733405674284933400,0.1051087262034416,-0.2176786551330238,-0.7960597770422697,6.250149358555674,-0.644682709204033,7.529302448898553,-0.4217525422573089,0.2394088804721832,0.2096175849437713,-0.6578837609442199,-0.2176755843156976,0.2621635751523728,-0.6716223043125463,-0.0725722163915634,-0.1165129989385604,0.274567037820816,0.0124653577804565,-0.0172180533409118,-0.0052020996809005,0.0409938432276248,-0.0474160239100456,-0.0112567225515842,-0.1011191383004188,-0.1181138998575508,0.0578705896884202,125
1733405674324933400,0.1540788010776042,-0.3263578602343797,0.2450853521704673,6.205519358712435,-0.7809604806531221,7.553278367769717,-0.2967196702957153,0.0160326082259416,-0.041361890733242,-0.6590337906250404,-0.2103543573364612,0.2657837947437489,-0.6714048602544266,-0.0924963951110839,-0.1417190134525299,0.2391448616981506,-0.009701669216156,0.0156484246253967,-0.0113692879676818,0.0157618094235658,-0.0461996011435985,-0.0027425767064094,-0.1272419244050979,-0.1884948654204606,-0.0985527286887168,126
1733405674364933400,-0.3582324234008789,-0.1599425054792314,0.4127916965842246,6.185868317303061,-0.832005242909491,7.563939462515711,-0.0922543033957481,0.2094174772500991,0.1342933475971222,-0.6601853662570764,-0.2072150499368486,0.2672233754951525,-0.6706778775089554,-0.0580891482532024,-0.150645449757576,0.221049815416336,-0.0081592798233032,0.0083714723587036,-0.0132308006286621,0.0202361196279525,-0.096354104578495,-0.010692074406147,-0.1254134029150009,-0.0984149276532232,-0.0010427870512008,127
1733405674404933400,0.3469569961488247,0.1837458442624658,-0.325661694663763,6.105566115576028,-0.9500400131162255,7.615107924216986,-0.2981486022472381,0.189497023820877,0.3087168037891388,-0.6585464603373996,-0.2003746283277504,0.2675585070901001,-0.6742247308659706,-0.1012283638119697,-0.103701539337635,0.1860940903425216,-0.0011096596717834,-0.0176683664321899,0.026840254664421,0.0247104279696941,-0.1465086042881012,-0.0183200850665569,-0.1235848739743232,-0.0082059566788375,0.0963093336760997,128
1733405674444933400,0.785613201829791,0.0986905297242105,0.148504800337553,6.01930588222742,-1.0987185625854878,7.663625579148531,-0.2603599429130554,0.3414292931556701,0.171143501996994,-0.6579717695220705,-0.1917447493733322,0.26925411700677,-0.6766161614107328,-0.0193332284688949,-0.1077760681509971,0.1790958493947982,0.0150952339172363,-0.0278576016426086,-0.0106666088104248,0.0551457069814205,-0.1189088076353073,-0.1705208173125982,-0.1179614290595054,0.0149712860953062,0.0305564663052558,129
1733405674484933400,0.2031517518043518,-0.0882322640739381,-0.5322960278868675,5.8899418356895445,-1.2290274156928065,7.743930703485011,-0.3738744258880615,0.3995203971862793,0.1396346539258957,-0.6588250183577657,-0.1816706233320393,0.2686358043679375,-0.678807924234784,-0.0092259999364614,-0.1530092060565948,0.0961784496903419,0.006382405757904,0.0240976810455322,0.0030424743890762,0.0377036035060882,-0.0870337784290313,-0.1420417418032884,-0.1152496635913848,0.0396664591517299,-0.0241448456972837,130
1733405674524933400,-0.2908142531663179,-0.0364627677395939,0.0442623355746269,5.810945455864071,-1.3895835960909724,7.776397387325764,-0.4691689610481262,0.0831310749053955,0.1300174295902252,-0.660313337262303,-0.172076924070819,0.2718522067831466,-0.6785809789120941,0.0571913719177246,-0.2159799188375473,0.0668421313166618,0.0309474468231201,0.0236915349960327,-0.0282965153455734,0.001532457768917,-0.0424786359071731,-0.0601888035029172,-0.0958144590258598,0.0700030721612274,-0.0663110857754945,131
1733405674564933400,0.0205231480687856,-0.0526443794727325,0.4205348580569029,5.761174586001038,-1.566733768415451,7.779755465582013,-0.3139554262161255,0.21340411901474,0.3168991804122925,-0.6591448342561771,-0.1639894121365802,0.2764965270235874,-0.6798420481751024,0.1350036114454269,-0.2135091572999954,0.1041687354445457,0.0156423449516296,0.0105351209640502,0.0048211216926574,-0.0188938789069652,-0.0350456424057483,-0.0787958888173103,-0.1126258075237274,0.0269626065317541,-0.038133623561263,132
1733405674604933400,0.2026736128985881,0.125558662905544,-0.4639496368914842,5.671649797898531,-1.734162757192552,7.8099588806658975,-0.3444286286830902,0.1788791716098785,0.2979166805744171,-0.6569711141268312,-0.1552424217349906,0.2787520517559499,-0.6830711482607479,0.4143833220005035,-0.1833118349313736,0.1637526303529739,0.0075097680091857,0.0300540328025817,-0.0159783512353897,-0.0004598405212163,-0.0372401438653469,-0.0910714330226182,-0.1075375825166702,-0.0765611885678023,0.0541033461093902,133
1733405674644933400,0.2022586023569107,0.3563724747478962,-0.4833446577131748,5.598143832182884,-1.9170925358317792,7.820225423136353,-0.3769599497318268,0.1854049861431121,0.3119024932384491,-0.6551781727730046,-0.1463481212268559,0.2825980965275271,-0.6851731011026153,0.4823791682720184,-0.175096720457077,0.1895622611045837,0.0195226669311523,0.0181778669357299,0.0130339860916137,-0.0104793161153793,-0.0451211407780647,0.1127326452106237,-0.1104087233543396,-0.0765256788630038,-0.03368190484941,134
1733405674684933400,0.1955325089722871,0.2539507956713437,-0.9075327775806188,5.480670129925012,-2.110504545518756,7.853560706505179,-0.3953755795955658,0.4758876860141754,0.4280833899974823,-0.6524962902625656,-0.1358351818366465,0.2848309217904844,-0.6889621850949647,0.7570309638977051,-0.2719351053237915,0.2801837027072906,0.0397679209709167,0.0214684605598449,-0.004278227686882,-0.0029852478764951,-0.2526159584522247,0.2605383573681116,-0.1277130246162414,0.2065429286126047,0.0545090043008327,135
1733405674724933400,-0.0579039074361324,0.1005734208613634,-0.5556166977196931,5.259157376521825,-2.355312834313512,7.9349951271325345,-0.5825479626655579,0.5426844358444214,0.3559697568416595,-0.6516605891849393,-0.1188417074138923,0.2851394330763722,-0.6927557779577048,0.2719966173171997,-0.3763151168823242,0.2496961057186126,0.0224724411964416,-0.0025317668914794,0.0453222393989563,0.0331866741180419,-0.2373894453048706,-0.0981932477265596,-0.1353680342435836,0.0767277042411267,0.1316378366887569,136
1733405674764933400,-0.1711591152161359,-0.1454895441696047,0.1444049638032913,5.111893516156077,-2.607543089802563,7.952336138033867,-0.5461648106575012,0.2385656535625457,0.3277091085910797,-0.6504258393156274,-0.1044239035382208,0.2892046549495055,-0.6945520939785729,0.2995944321155548,-0.3866521120071411,0.3410608470439911,0.0237598419189453,0.0104187726974487,0.00167877972126,0.060450654476881,-0.1993742734193802,-0.0226665898382663,-0.1518097966909408,0.1829988252874463,0.058519993507862,137
1733405674804841200,-0.0635474662810564,0.0167301855266094,0.4556418272733688,5.027774971011281,-2.805077293986082,7.938727883920073,-0.288849413394928,0.0070653832517564,0.2703429758548736,-0.648012340414206,-0.0948498839965679,0.293668197339252,-0.6963063472576935,0.2707153856754303,-0.3049346506595611,0.3996469676494598,0.0103425979614257,-0.0273273587226867,-0.0055603981018066,0.0588522516191005,-0.1659804135560989,-0.1377830523123498,-0.1517303735017776,0.1001118038321379,0.0522199617818929,138
1733405674844841200,-0.2458399699300527,0.3092877752289176,-0.1227215397834777,5.035290753468871,-2.9634099531158804,7.876193978595733,-0.2286300212144851,-0.2177737355232238,0.2434438616037368,-0.6431244021216238,-0.0911355836976202,0.3002002131723694,-0.698545045419674,0.2966966331005096,-0.1828186810016632,0.4288898110389709,-0.028157353401184,-0.0115818381309509,0.0165473222732543,0.0575514063239097,-0.1411124318838119,-0.1429699625641107,-0.1606684476137161,0.1050452325131744,0.0169879596799612,139
1733405674884841200,-0.4624216966718435,0.6396683151081204,-0.5753524948030709,5.130964711850881,-3.065892130208016,7.774566664767264,-0.142717644572258,-0.5432784557342529,0.2131882160902023,-0.6380853255975064,-0.0928597027291807,0.3081955420788104,-0.6994566262815861,0.254603773355484,-0.0966297835111618,0.3930802047252655,-0.0321153998374938,-0.0090234279632568,0.0200513303279876,0.0743873417377471,-0.1153735890984535,-0.100072485601902,-0.1578149646520614,0.1286814711011946,0.048697103151679,140
1733405674924841500,-0.5058323838531971,0.3989759371995925,-0.884234904101491,5.21582501527369,-3.2132100588485595,7.657730091369151,-0.4873940348625183,-0.1678796410560608,0.4128783643245697,-0.6319338290169492,-0.0930247520871666,0.3176646104036582,-0.7007819075931166,0.4085443615913391,0.0072151776403188,0.4439204335212707,-0.0286920666694641,0.0028022527694702,0.0229042172431945,0.0845063477754592,-0.0877849459648132,-0.0866115310043096,-0.1461047679185867,0.1143040592458099,0.0222580090373754,141
1733405674964841500,0.3202168732613324,0.2980252074584364,-0.1892787092745304,5.172829923155904,-3.4785724753722547,7.570452205410599,-0.5603561997413635,-0.0515740402042865,0.4032786786556244,-0.6265573038505194,-0.0836756240524245,0.3271280151221192,-0.7024326673731239,0.0137850418686866,-0.1447115987539291,0.3582015335559845,-0.0149629414081573,0.0082417130470275,0.0102582722902297,0.0946253463625907,-0.0601963102817535,-0.0729448247015476,-0.134394571185112,0.1001997652433812,-0.0044172319203615,142
1733405675004841200,0.5635404764562845,-0.1066191307663917,-0.0246738380074501,5.122838104018569,-3.720362585389614,7.489046426355839,-0.5740190744400024,0.0799212753772735,0.3650482594966888,-0.6220565995098618,-0.0745576232780901,0.3355682453049344,-0.7034776628526715,0.0849915742874145,-0.1678841561079025,0.3209947943687439,0.0012151300907135,0.0053738355636596,0.0005154907703399,0.1047443449497222,-0.0326076708734035,-0.0590787964344024,-0.1226843670010566,0.0863682968329638,-0.0313327113747596,143
1733405675044771000,-0.0315735343933105,-0.5229287723436952,0.6854150440216064,5.0197430557250975,-3.963505863581597,7.433921335983276,-0.5065762996673584,0.177892118692398,0.4124920964241028,-0.6187492969828919,-0.0628442530819885,0.3420907690913908,-0.7043960696597247,0.2164784967899322,-0.1731950789690017,0.2796947956085205,0.0015592277050018,-0.0015323758125305,0.0055071413516998,0.0573773272335529,-0.0221780966967344,-0.0433914938571164,-0.0938728153705596,0.094032264722744,-0.0717066566421417,144
1733405675084770800,0.6376008611842989,-0.1274970836222171,1.0957026488304138,4.892855336172879,-4.147050705379248,7.418377729892731,-0.1377188265323639,0.2157716900110244,0.4431656002998352,-0.613737695802221,-0.0534081224632293,0.3448413776099279,-0.7082076988972229,-0.0215732138603925,-0.2829886674880981,0.2577295899391174,-0.0047025084495544,-0.0397056937217712,0.0146065950393676,0.0410511344671249,-0.0149595821276307,0.0043038346737623,-0.0877016335725784,0.0762588446203619,-0.0061538464546203,145
1733405675124771000,0.1687926783457398,-0.1433122001305222,0.3269020501136779,4.816833003722131,-4.25737979657948,7.40562112417221,-0.1800622045993805,-0.1901675313711166,0.2498944401741027,-0.6094094516129137,-0.0483716547012337,0.3465235711277124,-0.7114786147740104,0.1910442560911178,-0.2678536176681518,0.256549596786499,-0.0097472667694091,0.002676784992218,-0.0349261760711669,0.0460269004106521,-0.0081250900402665,-0.0010901333242654,-0.0772079229354858,0.0260335820533335,0.0589373421370983,146
1733405675164771000,0.4983154323518275,-0.0051516836747527,0.2491962946206331,4.90464952660203,-4.330148972453177,7.305108493587374,-0.1234480142593383,-0.4732626378536224,0.0208340659737586,-0.6050297233069687,-0.0508628832857747,0.3534912890639549,-0.7116150208920532,0.5392876863479614,-0.1214376091957092,0.3516535758972168,-0.0110771656036376,0.0160224437713623,0.0105579495429992,0.0563736334443092,-0.0079940287396311,0.0048930327385663,-0.0682343244552612,0.0265804753463715,0.0581073210537433,147
1733405675204771000,-0.2889069582402706,0.0278577287405729,-0.2868143698751926,5.05232079872489,-4.37064026505649,7.179271452131867,-0.1331691890954971,-0.4849138557910919,0.1223659515380859,-0.6009223121781763,-0.0567349898800675,0.3615800829304252,-0.7105865778741464,-0.1191948503255844,-0.1096099242568016,0.3467862904071808,0.0060131549835205,-0.0852460861206054,0.0654456615447998,0.0554853789508342,-0.0128581747412681,0.0244353530764579,-0.0551962330937385,0.0270171862632036,0.0699240155756473,148
1733405675244771000,0.7636632358282804,-0.284672681671381,0.1920294692873954,5.0223739887505765,-4.47784333319068,7.13407797318697,-0.1998054236173629,0.4158515036106109,0.4111042320728302,-0.5962807837414477,-0.0537318372809891,0.3652069667149276,-0.7128717469769249,-0.1040316075086593,-0.2263702005147934,0.2719603180885315,-0.0031358897686004,-0.0003451704978942,-0.0189272761344909,0.0511038973927497,-0.021266046911478,-0.0168050043284893,-0.0548427551984787,0.0227837864771485,0.0597691167861223,149
1733405675284771000,0.7052969715774059,-0.0450511478647589,0.0380734178066253,4.8809740519821645,-4.60359065053612,7.152162495931982,-0.1331629157066345,-0.0081647895276546,0.347106397151947,-0.5924137605926255,-0.0454701603850447,0.3650666350936931,-0.7167320122132969,0.0838043391704559,-0.2941370904445648,0.179306298494339,-0.0008564889430999,0.0704615712165832,-0.0381867289543151,0.059054858982563,-0.0158610492944717,-0.0015139116942882,-0.05001962184906,0.0200385063569992,0.0336491716235876,150
1733405675324770800,0.4720613394156098,-0.3743286949381232,-0.2759644745588302,4.846059390467405,-4.72442301557213,7.096895951262116,-0.334886223077774,-0.0186293553560972,0.2233770489692688,-0.5884983237226614,-0.0413588463407439,0.3693893042176184,-0.717990855047352,-0.0029854150488972,-0.2284973710775375,0.1999374628067016,0.0104038715362548,-0.0088692307472229,0.0479300022125244,0.0488616004586219,-0.0264005083590745,-0.0405588048815727,-0.0321925655007362,0.0240575327400118,-0.0172071553885936,151
1733405675364771000,-0.1265086571067571,0.2858627682387828,0.1258838032066822,4.807472177919745,-4.840681789082288,7.044600531357526,-0.2760152220726013,-0.1221355199813842,0.017161913216114,-0.5874165676319912,-0.0358165214121762,0.3735538840568688,-0.7170191781054593,-0.0441557541489601,-0.2129271477460861,0.2633062601089477,0.0353463590145111,-0.0223936438560485,-0.0040983408689498,0.0366913676261901,-0.0301558598875999,-0.0808300249934196,-0.0264006145298481,0.0233071527641266,-0.036869302713871,152
1733405675404771000,-0.1352940211087465,0.3506406530976295,0.5177127912610769,4.893918873751163,-4.89274018536061,6.948455448332428,-0.1435551941394806,-0.1304429173469543,0.0469453558325767,-0.5855444191443987,-0.0378911043515905,0.3798573971972931,-0.7151295416951223,-0.1699962317943573,-0.1529950052499771,0.2455880343914032,-0.0021893084049224,-0.0320674180984497,0.0565305948257446,0.0312123429030179,-0.0274225901812315,-0.0715688601732254,-0.025593938305974,0.0133825555991381,0.0003793547064065,153
1733405675444771000,-0.1057940781190991,0.2724602658301592,0.1000473511606454,4.758325869695842,-4.986792972281575,6.975715795701742,-0.2915102839469909,0.5463394522666931,0.2994844317436218,-0.5850793547777093,-0.0292914146476664,0.3787868658635603,-0.7164806813723443,-0.092716634273529,-0.2419729232788086,0.1670125424861908,-0.0142808556556701,0.0262288451194763,-0.0355120152235031,0.0381429493427276,-0.034793671220541,-0.0689537092387676,-0.0476053208112716,0.0168257548555731,-0.0123030167341232,154
1733405675601723000,0.3382885365247726,-0.2533060680270195,0.3158861505806445,4.555609002177417,-5.24991608544588,6.917744668248296,0.311118870973587,-0.2723057568073272,-0.0050814426504075,-0.584116536163663,-0.0114575607331405,0.3836168527192909,-0.7152025840365563,3.784038782119751,-0.1970262676477432,0.8469864130020142,0.0084163844585418,0.0653176307678222,-0.0159922242164611,0.0603414550423622,-0.0445295386016368,-0.1144910514515824,0.0016454473370686,-0.0054525988543318,-0.0158898759446805,155
1733405675641504800,0.3643216801866888,-0.0119897130012512,-0.0168511815577745,4.631030446125567,-5.179986224651336,6.920382031014562,0.1676910519599914,-0.2112935781478881,-0.0545835085213184,-0.5825863644854687,-0.0179676190453785,0.3831917022213084,-0.7165433903164088,4.925605297088623,0.1843045651912689,1.066850662231445,-0.0824525952339172,0.0849571824073791,0.1065381169319152,0.0835265144705772,-0.03797522559762,-0.1394896644339896,0.0034181736409664,-0.0785539515539072,-0.0646479292030911,156
1733405675681504800,0.048594519560039,0.1783908200353384,-0.0288812265694141,4.680552309663594,-5.138428471860289,6.918046866065263,0.0952069908380508,-0.0991472601890564,0.0308799743652343,-0.5815999748854735,-0.0220433908377484,0.3831342714164635,-0.7172612462987683,2.714229345321656,0.0843574777245521,0.7903624176979065,-0.059474229812622,-0.0489813685417175,0.1904035210609436,0.0514387115836143,-0.0204752814024686,-0.1594844595134258,0.0208566151559352,-0.1120641713645309,-0.1440741244137287,157
1733405675721504800,0.0255707868471741,0.3115577659875154,-0.0507283167183399,4.678287287341058,-5.137669762447476,6.92014237703979,0.0069549558684229,-0.0236857291311025,0.0832070708274841,-0.580274998426299,-0.0226975763984213,0.3829566107338693,-0.7184079991200796,0.5504828691482544,0.2905859351158142,0.2513832747936249,-0.0788777768611908,-0.0424685478210449,0.0749823451042175,0.0107069686055183,-0.0188976898789405,-0.0956476548969745,0.030136588960886,-0.0833968067415058,-0.1520791516929864,158
1733405675761504800,0.0883148277908563,-0.1275859309494495,0.1085468839585781,4.678391039976478,-5.161355173939466,6.90242376499772,-0.030399752780795,-0.0295384768396615,0.0414320081472396,-0.5789969020693901,-0.0224109808878917,0.3841511268052666,-0.7188102624351043,-0.1753529161214828,0.0355623997747898,-0.0658113807439804,-0.0095668733119964,-0.0086061358451843,0.0327208638191223,0.0058339149691164,-0.0027409940958023,-0.0894914703547954,0.05196213722229,-0.061027080957964,-0.0562216534376144,159
1733405675801504500,0.1952560301184654,-0.0356353770047426,0.0087292499005794,4.6823315942958,-5.164570628854632,6.897345438820123,0.0245481021702289,-0.0325554497539997,0.0202032774686813,-0.5781533251506852,-0.0228765545395236,0.3844605684962525,-0.7193090425098605,-1.0635906457901,-0.1835507750511169,-0.202643409371376,0.0109227895736694,-0.0562338232994079,-0.032916247844696,0.0023369167465716,-0.0011165860341861,-0.0831570066362619,0.0623559728264808,-0.0425418684575706,-0.0729401485264301,160
1733405675841504500,0.366962257823348,-0.088844989144802,0.1281774671018123,4.668792021504045,-5.165679466879368,6.90568773522973,0.0303859151899814,0.0744821652770042,0.040906623005867,-0.5779298765334554,-0.0224458146403312,0.3839324019120814,-0.7197841426707509,-2.1928935050964355,-0.310194581747055,0.1220190972089767,0.0670311152935028,-0.1627935171127319,-0.0810394287109375,-0.0088757332414388,-0.0078807976096868,-0.0703559772521257,0.0619996041059494,-0.0081701547130942,-0.0656722033500671,161
1733405675881504500,0.4333683284059166,-0.0531067362874746,0.0318991130858659,4.658200484862923,-5.149492886710167,6.924902138787508,0.0408399738371372,0.0355587005615234,-0.1045618429780006,-0.5786699145934012,-0.0223196403123166,0.3826618324086028,-0.7198699913270437,-1.3928722143173218,-0.4516835212707519,0.2390449196100235,0.0884586572647094,-0.0991640090942382,-0.1063865423202514,-0.0272494908422231,-0.0063322829082608,-0.055467035678029,0.081219658255577,-0.0318245865449309,-0.0305383461266756,162
1733405675921504800,-0.0816214676320552,0.0976163246214389,-0.0979097546100616,4.68178068241477,-5.109727862554788,6.938443757405877,0.0885962098836898,-0.0773371160030365,-0.1072652861475944,-0.5803129795113704,-0.0239522678541417,0.3816596959255973,-0.7190264987804043,-0.4913082122802734,-0.4475660622119903,0.1362906545400619,0.0592531561851501,0.1904134154319763,-0.0763971209526062,-0.0403107292950153,0.004581437446177,-0.0425625459194183,0.0948225110769271,-0.0340589945334941,0.0140092361301183,163
1733405675961504800,-0.0673655632644891,0.0591740735024213,-0.4749029925823211,4.7285769203811885,-5.086399009415507,6.92383421729505,-0.0584759972989559,0.0176002662628889,-0.0510194599628448,-0.5808212989400399,-0.0263763810255061,0.3824748037594598,-0.7180973787262167,-1.1051751375198364,-0.2778178751468658,-0.0685260072350502,0.0276833176612854,-0.1302922368049621,-0.0362435281276702,-0.0224052835255861,-0.0089616021141409,-0.0266477684289217,0.0927939787507057,-0.0007389087338,0.0555102902978658,164
1733405676001504800,-0.2271215331956744,0.2159557037979364,0.2138110929846763,4.663277934257686,-5.1026709297806025,6.956074691164493,0.0028114756569266,0.2643791437149048,0.0812849402427673,-0.5822387780677545,-0.0225321239866023,0.3805669271145162,-0.7180941276031912,0.6587989330291748,-0.1637064963579177,0.3741269707679748,-0.1024431884288787,0.1008556485176086,0.1328142881393432,0.0012214966118335,-0.0151982754468917,-0.0383469740509986,0.0786875635385513,-0.019171660394594,0.0439975471585988,165
1733405676041504500,0.2284691484123468,0.3044417965024709,0.0198334122389554,4.603029217261076,-5.115589448064565,6.98664752408266,-0.0363580137491226,0.1069560870528221,0.0214243121445179,-0.5825664266191491,-0.0195916072257632,0.37867700993172,-0.7189131742795251,-0.0409410521388053,-0.1678246110677719,0.0945658385753631,-0.0947862267494201,0.0040894746780395,0.0249053835868835,0.008600739762187,-0.0070917252451181,-0.0401356110334396,0.0745157450437545,-0.040278526635468,0.0293453369498252,166
1733405676081504500,0.1729042053177952,0.1541074426501989,0.2328302662312984,4.597542602543532,-5.123871538719534,6.984190778580308,-0.0218980815261602,-0.0212036315351724,-0.0676221773028373,-0.5833869427559322,-0.018615677729477,0.3788915627425977,-0.7181603444342839,0.420660138130188,0.2628921568393707,-0.0021257488988339,-0.1108331084251403,0.1384052038192749,0.094534158706665,0.01130823045969,-0.015433557331562,0.0082195468127727,0.0591236352920532,0.0030891981869935,0.0256727859169244,167
1733405676121504500,0.014067688319087,0.0151958155661821,0.2093149506092071,4.6071907208547,-5.1100569483786815,6.98795393050611,0.0453693568706512,0.0357150100171566,0.006053511518985,-0.5838962728889668,-0.0192720786708338,0.3786054462375865,-0.7178800182257434,1.123179912567139,0.5939878821372986,-0.1464374512434005,-0.030402272939682,0.0606362223625183,0.1254756450653076,0.0122546469792723,-0.0095683205872774,-0.01393149471879,0.0628644078969955,0.0024761077899485,0.0313420637249946,168
1733405676161504800,0.1105488714307546,0.1183335339576005,0.0238368026614189,4.597499055662751,-5.106802330496907,6.996710068413615,0.0145582929253578,-0.0167118906974792,0.0217992756515741,-0.5836536780381185,-0.0191737887813959,0.3780203949156405,-0.718387990242714,0.6280825734138489,0.5351701974868774,0.089539922773838,0.0038625001907348,0.0103520154953002,-0.0751845836639404,0.0132010634988546,-0.003703084308654,-0.0360445423275232,0.0666051805019378,0.00183686003834,0.0369686714351177,169
1733405676201504800,0.1058586677879095,0.036997897529602,-0.2170890917420387,4.6146091804176566,-5.102829335212707,6.988340883997083,0.0056456197053194,-0.1481291204690933,-0.0165085103362798,-0.5830681692097142,-0.020280224631099,0.3785267437594454,-0.7185665009705213,-0.5070506930351257,-0.279816210269928,-0.0127255963161587,0.1086387038230896,-0.0980518460273742,0.1053211987018585,-0.0024755131453275,0.0046766283921897,0.0164595518916845,0.0756893530488014,0.0029141338810324,0.0513812276691198,170
1733405676241504800,-0.0939823520332574,-0.0630225656241178,-0.021132219877839,4.663615203388035,-5.10336534178555,6.955338778105378,-0.0581107214093208,-0.0653865858912468,-0.0284338127821683,-0.5829634453788007,-0.0221318701296442,0.3806397092059304,-0.7174797893741005,0.165176436305046,-0.5842522978782654,0.0918401628732681,0.1005651652812957,0.1334884762763977,-0.2839037775993347,-0.0023266582284122,0.0138577036559581,-0.0609504355251789,0.0711641237139701,-0.0249554314278066,0.1179682077765464,171
1733405676281504500,0.3692614746764302,0.2769669295996427,0.1435983235955238,4.619057976520061,-5.106670228549838,6.982593280255794,0.0950649082660675,0.1533898115158081,0.0954115465283393,-0.5825626947826287,-0.0205546093853535,0.3788988244077526,-0.7187725371960874,-0.7462009787559509,-0.4901582896709442,0.1263591945171356,0.0463803112506866,-0.1108955144882202,0.0915602445602417,0.0064044995233416,0.0619278065860271,-0.0277916777670383,0.0643162801861763,-0.000221460730955,0.1041693995267152,172
1733405676321504500,0.4415715086057782,0.46722120590806,-0.2506383101224899,4.613934934417904,-5.101348156744241,6.989866486129165,-0.0631506741046905,-0.0627717450261116,-0.0943008288741111,-0.5827966255261617,-0.0204587807243598,0.3784143520771875,-0.7188407998812951,0.8406131863594055,0.4368471503257751,0.001477308338508,0.0084966123104095,0.1505649089813232,0.0980631113052368,0.0062599866650998,0.0840359032154083,0.047268531653285,0.0669578909873962,0.027049554162845,0.1271831953674554,173
1733405676361504500,-0.1043380340918898,0.023450433692336,0.4168073619663715,4.631773373447358,-5.103497443732619,6.976487364596128,0.0209024231880903,0.0335786864161491,0.0151503160595893,-0.5834809783353213,-0.0206720412846622,0.3793030376356244,-0.7178104591886886,0.3877349495887756,0.1605419367551803,0.0657060965895652,0.0314352810382843,-0.160774827003479,0.0793619155883789,0.0005225203931331,0.0792039856314659,0.0593394931972026,0.0551196038722991,0.0012907704629004,0.1210702654451131,174
1733405676401504800,0.0893245893552899,0.1880997286230325,0.0234030874192714,4.62530768456459,-5.095016031113267,6.986968426600098,0.0657091587781906,-0.0844574272632598,0.0627428442239761,-0.5824948457853945,-0.0212994897809739,0.3785631674224263,-0.7189826711624268,-0.0485845915973186,-0.0782191902399063,-0.1054838970303535,-0.0058270096778869,0.0795567035675048,-0.1107125878334045,-0.0052149454131722,0.0743720680475235,0.0715069008529186,0.0432813167572021,-0.0244349877502769,0.1149362927347421,175
1733405676441504800,0.3497387358218431,0.0904728826075792,-0.1770224542915821,4.646661145977675,-5.096000365975499,6.972066041022539,-0.011328394524753,-0.0997783467173576,0.0167629122734069,-0.5811339970780629,-0.0227711149337545,0.3794799553917231,-0.7195552256757305,-0.1177061423659324,0.1835049837827682,-0.1692352443933487,-0.0770832896232605,0.0714126229286193,0.1030169129371643,-0.0121210282668471,0.0534835755825042,0.1326788701742887,0.0379514619708061,0.0455656001929193,0.0924158333688974,176
1733405676481504800,0.4149111729562282,0.0929822350800037,-0.0834177033990621,4.669624965196848,-5.095367328768968,6.957170669707655,0.0087916860356926,-0.0462052822113037,-0.037173893302679,-0.5807328764605068,-0.0238641077837036,0.3804123143305345,-0.7193513145659366,0.1983844488859176,0.3564046025276184,-0.2548964321613312,-0.0080101490020751,-0.0481172800064086,-0.0216526985168457,-0.0029163444414734,0.0160698853433132,0.0844663356691598,0.0354130454361438,0.0732177964240312,0.1031213517785072,177
1733405676521504800,0.0849634715363383,0.0797995129019022,-0.1635936483979225,4.679198264706135,-5.08682278778553,6.9569906369656325,-0.0058821020647883,0.0071623930707573,-0.0131364073604345,-0.5810585329799803,-0.0243971503771781,0.380390551457038,-0.7190818573367865,0.5428387522697449,0.3576138317584991,-0.3089972734451294,0.0275846421718597,0.0575267076492309,-0.0079074501991271,0.0032107667066156,0.005361390300095,0.021973346877098,0.0220804158598184,0.0941788244534283,0.038182138878107,178
1733405676561504500,0.252450912502408,0.1387660811334848,-0.2227355731964111,4.701750872775912,-5.0890772887140505,6.940116659054159,-0.0621883980929851,-0.0731636360287666,-0.1072147339582443,-0.5814423410261054,-0.0249400612641471,0.3814846099870297,-0.7181729800101467,0.3655183315277099,-0.3871515691280365,-0.178042322397232,0.1844660341739654,-0.0047956109046936,-0.3618948459625244,-0.0011863373219966,-0.0034172628074884,-0.0087216511160135,0.0082383444532752,0.1325597007740289,-0.0312041165590286,179
1733405676601504500,0.0730795569971203,-0.1888005703687667,0.0509580338209867,4.714875142765045,-5.091012640690804,6.929785819175839,-0.0385470911860466,0.1067134141921997,0.0039091743528842,-0.5822472142808353,-0.0249193136313487,0.3821757330844047,-0.7171533348154698,-0.5124651789665222,-0.3350301384925842,0.1073697879910469,0.0613200962543487,-0.2211690545082092,0.0516311228275299,-0.0007513284217566,-0.0114262262359261,-0.0326443784952163,0.0127844009548425,0.1250146922219544,-0.0194470432698726,180
1733405676641504800,0.4784256137505173,-0.0139040221899747,0.0766302352160215,4.695294536243379,-5.091282105281949,6.942869757154583,-0.0105068562552332,0.0295411627739667,-0.1090732738375663,-0.5834010641092575,-0.023568854989705,0.3813878282816838,-0.7166805799377095,-0.2737082540988922,-0.0915056467056274,0.6998070478439331,-0.1090840399265289,-0.0018619894981384,0.2697350084781647,0.0045277634635567,-0.0105675430968403,-0.0635714316785335,0.0337022356688976,0.0863916777085512,0.0133329443037509,181
1733405676681504800,0.269058640693128,0.1042366195440292,0.238991126948595,4.7357209469169375,-5.046915724810957,6.947803706425428,0.1116792261600494,-0.0440761484205722,-0.1745083779096603,-0.5856002610832973,-0.025715700988992,0.3809190298110074,-0.7150606914274146,-0.0383569858968257,-0.1613870412111282,0.1502635926008224,-0.0897742509841919,0.1606172323226928,-0.1048708260059356,-0.0096832122653722,0.0236333236098289,-0.0590641833871602,0.0476909726858139,0.0510149516399949,0.0176461313277482,182
1733405676721504800,0.0690250209093093,0.2544306881427765,-0.2995300590634346,4.773696749567986,-4.993154324007034,6.960647990429401,0.0227941833436489,-0.0186587087810039,-0.1451730728149414,-0.587583484634312,-0.0282695025298936,0.3798770161688269,-0.7138907810036584,0.0583770126104354,0.2252217084169387,-0.1069235354661941,-0.1080139875411987,0.0599089264869689,0.1060965061187744,-0.0220690965652465,0.0209034048020839,0.0068237085402011,0.0477016605436801,0.1032399366568773,0.071293550363183,183
1733405676761504800,-0.0013280337333679,0.1024585039556026,-0.0953846200466155,4.797212941972911,-4.97585539868176,6.956866718325019,-0.0335183963179588,0.0284306742250919,-0.084755890071392,-0.5893316572346232,-0.0289132385860102,0.380082266118344,-0.7123128940405996,-0.2025091648101806,0.60023432970047,-0.1804893612861633,-0.0866172015666961,0.0647289752960205,0.1637266874313354,-0.034454982727766,0.0181734878569841,0.0727291361242532,0.0477123446762561,0.1554912251587957,0.1249205111324787,184
1733405676801504500,0.1583364585220813,0.0124888946950435,-0.0244289233356714,4.796763444639742,-4.966690679973364,6.9637231600910425,0.0137079330161213,0.0700372979044914,-0.0541614405810833,-0.5905402984979029,-0.0286302284348528,0.3796435753965126,-0.7115570148640664,0.0834618583321571,0.5936115384101868,-0.3748081922531128,0.0014867186546325,-0.0238487124443054,-0.0182060599327087,-0.0320907793939113,0.0221580974757671,0.021199439895153,0.0455319508910179,0.1594254958678037,0.1524468159615993,185
1733405676841504500,0.1204860358163714,0.1566559580892324,-0.4322293875038623,4.804835691936314,-4.94640601683557,6.972589772635698,0.0062238024547696,-0.0486257821321487,-0.1072106286883354,-0.5917218216581208,-0.0291328031936137,0.3790094289303139,-0.7108927118065104,-0.3048539161682129,-0.21306212246418,-0.2803865969181061,0.1522155404090881,-0.1219991445541381,-0.1392232179641723,-0.0272102802991867,0.037997767329216,0.0266693957388401,0.0383664034307003,0.1867301207702607,0.1088011509805917,186
1733405676881504500,0.0762225311979651,-0.0233089793950319,-0.3166787622630596,4.82695253893733,-4.935232296392321,6.9652271349132056,-0.0609017983078956,0.121255338191986,-0.0458023585379123,-0.5932109693371288,-0.0296054278392798,0.3794677228648255,-0.7093859593550015,0.2836002707481384,-0.2021833658218383,-0.1146133467555046,0.0515938997268676,-0.000296413898468,-0.1033535003662109,-0.0397121459245681,0.0353984795510768,0.0333919819921255,0.0298145748674869,0.1814047610290348,0.0772293701529502,187
1733405676921504800,0.2279439554944634,0.0293073430269956,-0.2375485269248485,4.781174830363691,-4.956873050314187,6.981415468648076,-0.1351107507944107,0.1455563306808471,-0.0457380972802639,-0.5948779279843028,-0.0261536449220229,0.3786328813311966,-0.7085713620744931,0.491040825843811,0.3022685945034027,-0.0980266481637954,-0.0176025331020355,0.0175201296806335,0.0619010925292968,-0.0433767698705196,0.055766399949789,0.0025075989067554,0.032884519547224,0.1203431932795792,0.0636333909988403,188
1733405676961504800,0.2181958839401602,0.1363116737186908,0.0383650942295789,4.77745522531867,-4.97618974520266,6.970210184022784,-0.118368923664093,0.0467044152319431,-0.1221601516008377,-0.5968178516179239,-0.0241734844721091,0.3795178675032497,-0.7065339220708838,1.712177038192749,0.8800334930419922,-0.0791282579302787,-0.0184836089611053,0.0561316609382629,0.107045292854309,-0.0357920452952384,0.063575342297554,-0.0338140067964792,0.0338595807552337,0.1153152090497314,0.058147068542242,189
1733405677001504800,0.1283808807194232,-0.0109796591758728,-0.0678513009548187,4.789608604449033,-4.9831753663063045,6.956866718325019,-0.1114352792501449,0.053757082670927,-0.1141018718481063,-0.5990262069885969,-0.0231271728700762,0.3804781628775458,-0.704179734364184,3.977454900741577,0.5780498385429382,0.238720491528511,0.0573225021362304,0.2468437552452087,-0.0356478095054626,-0.0331887975335121,0.0677400082349777,-0.0707347474366426,0.0339895151555538,0.101135073332116,0.016367197433114,190
1733405677041504500,0.2774249025002122,0.0462146386861801,0.00594926379323,4.789753273616731,-4.98829577805996,6.95309655213654,-0.0677851364016532,0.0726425275206565,-0.1139162629842758,-0.60117305037861,-0.0217538092498986,0.3808116372967547,-0.7022109749917146,5.919848918914795,0.4103657305240631,0.7809668779373169,0.0364259928464889,0.1721192002296447,0.1346584558486938,-0.0296477228403091,0.0731197521090507,-0.0680453622221946,0.0406396985054016,0.0870916426714509,0.0271890356987714,191
1733405677081504500,0.3613531857699155,0.1276034666061401,-0.0694207422286272,4.804435878963768,-4.977357619938254,6.950805226328969,-0.0813759714365005,0.0549975223839283,-0.1927974671125412,-0.6037649476854235,-0.0213321128549281,0.380988852514357,-0.6999002210147772,5.47459602355957,0.1246968582272529,0.4560447931289673,-0.0345538705587387,0.114363819360733,0.2067274451255798,-0.0261066481471061,0.0784994959831237,-0.0653027855157852,0.0472898818552494,0.0730837947808206,0.038014381095767,192
1733405677121504500,0.2026172065362334,0.1065542488366365,0.0601765285432338,4.828198739606142,-4.960199564388394,6.946603682985901,-0.0681897178292274,0.0450004823505878,-0.2089158594608307,-0.6070667831479101,-0.0211018597537274,0.3812826974911689,-0.6968845476803137,3.656406879425049,0.2662698924541473,0.3841234147548675,-0.049134075641632,-0.109691247344017,0.1888718605041504,-0.0307482443749904,0.0814609453082084,-0.0415688587069511,0.0522650033235549,0.0538847349226474,0.046524435287714,193
1733405677161504800,0.2391319967240095,0.1021639049232006,-0.0681990914791822,4.877126728904247,-4.934260821011662,6.930878875109553,-0.0941460132598877,-0.0526703633368015,-0.2861098647117615,-0.6104268358471386,-0.0220836080795384,0.3822771867945865,-0.6933652829454259,2.850118637084961,-0.1055887043476104,0.3924721181392669,0.0392042100429534,0.1169505566358566,-0.0707279443740844,-0.0387008637189865,0.092058889567852,0.0103080435246229,0.055025465786457,0.0307427826575934,0.0584311461806297,194
1733405677201504800,0.1755114652067422,0.1311193657726049,-0.0654039078027009,4.959003632602095,-4.908898416218161,6.890674290493131,-0.1557579934597015,-0.0961382538080215,-0.353322297334671,-0.614307698755927,-0.023860936636795,0.3848428892430782,-0.6884422612287721,1.649261713027954,-0.2457583844661712,0.1907416433095932,-0.0468287467956543,-0.0627882629632949,-0.0027437806129455,-0.0376128703355789,0.0983761474490165,-0.0220528418540954,0.0555850341916084,-0.0175159290768206,0.0939525414168834,195
1733405677241504800,0.4803425532877445,0.2628480956152081,0.1003881274223327,5.099344415706396,-4.84564934836179,6.832770967578887,-0.0578887686133384,-0.2510690093040466,-0.6009840369224548,-0.6191721070320853,-0.0286668430551044,0.3883346954158327,-0.6819093740973424,0.9602282643318176,-0.2067525535821914,0.1356854438781738,-0.0313824117183685,-0.0175702236592769,0.06449955701828,-0.035271767526865,0.0801687091588974,0.099212653902173,0.0603640116751194,0.0433724740628153,0.09032207596004,196
1733405677281504500,0.8099076851308346,0.0460173625484108,-0.1932914520472288,5.382396218177676,-4.690319670440256,6.72317720491588,-0.0639799833297729,-0.6836015582084656,-1.0844178199768066,-0.6267975202144985,-0.0405561279386348,0.3944218095882375,-0.6707545591273555,0.5319659113883972,-0.146743819117546,0.1378511190414428,0.0418124198913574,0.0197929702699184,0.0116979479789733,-0.0226908028125762,0.0466873422265052,0.164353526854515,0.0788646936416626,0.0777621618553996,0.1517874752700328,197
1733405677321504500,0.1892208416074514,0.1286599899217486,0.604884878757596,5.829652494421601,-4.375973735038936,6.560212502071261,0.4221352636814117,-1.026429295539856,-1.2576797008514404,-0.6362218744856112,-0.0633800600499517,0.4018771072732964,-0.6555146768911334,-0.098403014242649,0.0322013273835182,0.0945234969258308,0.0635150969028472,-0.0728098154067993,-0.0347839593887329,0.0015025530010461,0.0461056642234325,0.1693172867417335,0.0936945378780365,0.0918928324081003,0.183751470285654,198
1733405677361504500,0.8365455166876316,0.3765665369927883,-0.2740139250129461,6.311492592790723,-3.90936043189615,6.407210390314459,0.7414761185646057,-0.9580114483833312,-1.3494828939437866,-0.643183486303215,-0.0950797226278195,0.4053184392988905,-0.6426443834735666,-0.4185064435005188,0.0022645744029432,0.2541218101978302,0.0688392221927642,-0.0454441010951995,-0.0749709010124206,0.0256959106773138,0.0455239862203598,0.1743885986566543,0.1085243821144104,0.1060467377059161,0.2156353858023881,199
1733405677401504800,0.5064911400228739,0.0706847708150744,-0.3989771062433719,6.671624712333083,-3.3579236502096057,6.354853011089563,0.7356016635894775,-0.1186350882053375,-1.3395843505859375,-0.6540363930547055,-0.1239638943572032,0.4007812714018006,-0.6294789012399363,-1.322463035583496,0.1197752729058265,0.5189204216003418,0.0403420031070709,-0.0968309789896011,-0.0417616367340087,0.016382347792387,0.0646781250834465,0.1939291654288768,0.1646557599306106,0.1128834518581628,0.2688958513468504,200
1733405677441504800,-0.03209668148458,0.0467579517826437,-1.2690624889612196,6.738554806789756,-2.899299592255056,6.508174271798134,0.311646044254303,0.6641841530799866,-0.9226277470588684,-0.6693907989103286,-0.136903362716447,0.3865655665095209,-0.6194679885648091,-2.170140266418457,0.3951022624969482,0.2295172065496444,-0.0356308966875076,-0.0764075815677642,0.1068989038467407,-0.0095084998756647,0.0703676640987396,0.2826519894987344,0.2324372380971908,0.1407924723945558,0.3200017692059278,201
1733405677481504800,0.7404243990600109,0.3977732834115624,-1.0473954217791557,6.587478694659471,-2.6643340675607323,6.75846420687437,-0.1703516989946365,0.9763609766960144,-0.9301091432571412,-0.6865401033536864,-0.1325307256227411,0.371281347702745,-0.6109407071241493,-2.4525630474090576,0.4552251696586609,-0.1744047701358795,-0.0461126714944839,-0.0713105946779251,0.1731315851211547,-0.0208198688924312,0.0826777964830398,0.4025619789928197,0.3148730993270874,0.1571147347074002,0.4166875349789857,202
1733405677521504800,1.3969780902564526,-0.0157848675005137,-1.0680921728491783,6.45405806620717,-2.3697378116376697,6.992844040635228,0.1125256195664405,1.3179000616073608,-1.815667033195496,-0.7091638762217266,-0.1284233960709899,0.3563307739676278,-0.5946616233748588,-2.2258107662200928,0.2588594555854797,-0.2642950415611267,-0.1039526760578155,-0.032111257314682,0.0025233030319213,-0.0442093089222908,0.1108196005225181,0.405150241920352,0.3838936686515808,0.1179713495817035,0.4778022211551666,203
1733405677561504500,0.7764993365257978,0.5353143527947366,-1.212320611041784,5.9283127751380205,-1.6875240478754043,7.627434321826696,0.3762761652469635,2.582857608795166,-2.0282318592071533,-0.7472561423283666,-0.1231563673279984,0.3097444104551513,-0.574890547339639,-1.6491332054138184,0.0988824069499969,-0.1949400752782821,-0.1284330934286117,0.1332027316093444,-0.0762107968330383,-0.0814654380083084,0.1608998924493789,0.4748714284002781,0.4625858068466186,0.1217594167530536,0.5424585254609584,204
1733405677601504500,-1.584747564011812,0.1213593115195632,-0.4020698115617037,5.944588787156343,-1.6962952372215687,7.612806661537289,-1.346116542816162,-0.5760729908943176,-0.7737465500831604,-0.7670791478419073,-0.1121362400267625,0.3150878354558425,-0.5474802179000565,-0.9442623853683472,0.0828243494033813,-0.2295609563589096,-0.1072293519973754,-0.0820384323596954,-0.0245633721351623,-0.1252537071704864,0.1827759742736816,0.5126385567367077,0.5185577869415283,0.1900950671587139,0.6390390772938728,205
1733405677641504800,0.7285591892212628,0.4358934629693627,-0.0853425339818,6.319670638549328,-1.8034315237298608,7.278720837399363,-0.8948615193367004,-1.6433762311935425,-1.1439356803894043,-0.7724275432121608,-0.112249856747674,0.3410109758009081,-0.5238960372960954,-1.0961819887161257,-0.0946865230798721,-0.1994066685438156,-0.0765546262264251,-0.1534380912780761,-0.0904077887535095,-0.1634552925825119,0.1800402700901031,0.4638035064190626,0.5462319254875183,0.2183458868701011,0.7426572726786136,206
1733405677681504800,-0.2352244678914546,0.7074436282172799,0.3238438315868377,6.977894893306494,-1.621579749585688,6.697002899217606,-0.0959773659706115,-2.228532791137696,-1.1439858675003052,-0.7743573720961745,-0.1318332790349645,0.3757231373283154,-0.4917547351045127,-1.2818793058395386,0.0613387040793895,-0.4548500776290893,-0.0769186317920684,-0.1180712878704071,0.0165861248970031,-0.2016568779945373,0.1773045659065246,0.4186778320133685,0.5739060640335083,0.248671905420348,0.8435884209364652,207
1733405677721504800,-1.0062427426576614,0.3968978157512843,-0.5427192222237587,7.489740253838896,-1.3970755592815578,6.174329855200648,-0.1890234649181366,-1.0958704948425293,-0.4063807129859924,-0.7709289752465589,-0.152663816975679,0.4023562437498028,-0.4695440694749485,-0.2218823432922363,0.3318912982940674,-0.2038775831460952,-0.0810082703828811,-0.0479449927806854,0.0627468228340148,-0.2003770023584365,0.1276062130928039,0.4263631258189678,0.6060757040977478,0.3160045893285423,0.9158888102546334,208
1733405677761504800,0.3626619302809238,1.0418084154270588,-0.9179729230523108,7.563192443540692,-1.5098748399876056,6.057126202055811,-0.9183338284492492,0.3814316689968109,0.0509920381009578,-0.7711600293117293,-0.1472240244865846,0.411700861267096,-0.4627521851106613,-0.3788016438484192,0.2174270004034042,-0.2249198108911514,-0.0300518721342086,-0.1304719150066375,0.0223398804664611,-0.1710647046566009,0.0862358883023262,0.3975117098659276,0.6253811717033386,0.3202698455575853,0.9424316570043564,209
1733405677801504500,1.577953666087985,1.6804093935646116,-0.3310398805707693,7.437861013519764,-1.71183314422369,6.157777948850393,-1.135766625404358,0.4712041020393371,-0.576713502407074,-0.7805497872226965,-0.1270956712975754,0.4121739738482565,-0.4524392847514427,0.2970519065856933,0.1429551094770431,-0.0417943969368934,-0.0514521449804306,-0.0283606052398681,-0.1419321894645691,-0.1194278597831726,0.0447722636163234,0.5923661734461784,0.6120446920394897,0.3559366406138986,0.8301014551147818,210
1733405677841504500,0.534434208959341,1.3568185138255358,0.577864769884944,7.497513225927949,-1.6999375392466782,6.088340840008854,-0.7749609351158142,-0.4709764719009399,-0.9824588298797609,-0.7904054913039712,-0.1187208798520045,0.4189109341616806,-0.4309038303443115,0.4642185270786285,-0.0217159669846296,0.1347277015447616,-0.0474894046783447,-0.1252625286579132,-0.066249668598175,-0.0603208653628826,-0.0237348787486553,0.851123492616415,0.6174823045730591,0.3895928995653986,0.7489233473360538,211
1733405677881504500,-0.2221498822629451,1.6635764783158895,1.6093308011263607,7.756253593963384,-1.5330924878373742,5.801770800283551,-0.1862675696611404,-1.1534342765808103,-0.8685868382453918,-0.7924368721529024,-0.1257549638938476,0.4340250031798554,-0.4096972076748659,0.1711224764585495,-0.0018149622483178,0.2182231992483139,-0.0972387790679931,-0.084892600774765,-0.0205801725387573,-0.018429473042488,-0.1191883981227874,0.91234222368896,0.6945754885673523,0.4106807688448577,0.7122741171136499,212
1733405677921504800,-0.6191273391216993,1.883838939397037,1.456235750389099,8.096368761393427,-1.2736167912647127,5.384895633777976,0.3238746523857116,-1.4998351335525513,-0.6315122842788696,-0.7863146868851082,-0.144753872541496,0.4522090692981421,-0.3953005156122142,0.1474163383245468,-0.0519636161625385,0.3353601992130279,-0.0964799374341964,-0.0741797387599945,-0.0402108430862426,0.0223102755844593,-0.2058458179235458,0.935485198867321,0.8650660514831543,0.413004608682543,0.712549719184637,213
1733405677961504800,-0.4212497283279895,2.04482941955924,0.8756289883196353,8.460529990321398,-1.0040997392795978,4.856089786094427,0.3835061490535736,-1.809819579124451,-0.552016019821167,-0.7741559909533957,-0.1691713348838802,0.4730638343184505,-0.3850639779627138,-0.0176317356526851,-0.0488983206450939,0.4920138120651245,-0.0884026736021041,-0.0887960195541381,-0.1037991642951965,-0.0217017531394958,-0.2903504073619842,1.2199053670823574,1.1047823429107666,0.3326325565896928,0.3714610305473208,214
1733405678001504800,-0.3491559674978256,2.1179767810955643,2.367884438855946,8.763876977324486,-0.7812639936443417,4.330642601189017,0.2807039618492126,-1.1515827178955078,-0.3246790766716003,-0.7616242228106871,-0.1904642292333125,0.4928712350097382,-0.3751396644707089,-0.130244567990303,0.1232353597879409,0.8298282623291016,-0.0767885148525238,-0.1110398471355438,-0.0576047897338867,-0.1494336575269699,-0.3865205645561218,0.917094386652112,1.3502893447875977,0.1802353519234806,0.0351195364370942,215
1733405678041504500,0.3639215749531984,1.917852414288372,2.8111954846054314,8.884430525419116,-0.707882750286907,4.090988626417517,0.1893999725580215,-0.23143370449543,0.092237114906311,-0.7543264749646846,-0.2004090636761672,0.5012522728164148,-0.3735959871009001,-1.3223577737808228,0.3340513408184051,1.136963963508606,-0.0077095553278923,-0.199218064546585,0.1929746866226196,-0.410064160823822,-0.2868808507919311,0.2772521762818098,1.4614380598068235,-0.0895899622932076,-0.0324266440913081,216
1733405678081504500,1.771093726965785,1.2673666448287666,2.5964471107706424,8.837763466790317,-0.7229849692855029,4.188271189039946,-0.2496924102306366,0.7742125988006592,-0.1311776638031005,-0.7570232509521094,-0.197563008936502,0.4974197955533834,-0.3747775398120954,-1.4425119161605835,0.8877555131912231,1.6465247869491575,0.0604248568415641,-0.2053951621055603,0.2631819248199463,-0.6706947088241577,-0.1872411370277404,-0.3256640327513218,1.5725867748260498,-0.3524078089006245,-0.1166778757050633,217
1733405678121504500,1.1862988655567168,0.7258904814686625,2.9638015827819704,8.644143513441085,-0.683393328935653,4.580626539056003,-0.289590060710907,1.4138201475143433,-0.3206258416175842,-0.7713374405285693,-0.1870287557813555,0.4811167051314712,-0.3722706803426426,-2.096355676651001,1.4633846282958984,2.5099077224731445,0.1638967543840408,-0.458042562007904,0.3830282092094421,-0.7207475304603577,-0.1294324100017547,-0.7907020494014024,1.5133073329925537,-0.3431827017745003,0.267537860866636,218
1733405678161504800,1.2519213845461603,0.1431910945015028,2.684242006340623,8.319797577551007,-0.5564901926185936,5.161556833991408,-0.1181844547390937,2.197917222976685,-0.7622608542442322,-0.7917880725311741,-0.1757223943131399,0.4538231781688348,-0.369104106375702,-2.460273265838623,1.857978105545044,3.500511646270752,0.1776178330183029,-0.39130300283432,0.3461251854896545,-0.5534228682518005,-0.0380015596747398,-0.4769458965867758,1.3259315490722656,-0.3186277409063652,0.5203006157971918,219
1733405678201504800,-1.2025251932144163,-0.3425187214404344,1.3537643869519234,7.832817778205871,-0.2365788233761675,5.895877655479311,1.045408844947815,1.662259221076965,-0.4206854999065399,-0.8161138776929265,-0.1706882190696594,0.4126250337379539,-0.3668298696431587,-2.151288747787476,1.9394711256027224,4.326137065887451,0.2489000558853149,-0.3666332364082336,0.3440508842468261,-0.2853794991970062,0.0083904154598712,-0.5529951170444488,1.0840564966201782,-0.3720397437507286,0.6692186731107532,220
1733405678241504800,-2.5148440555781124,0.6243607827957719,-1.0389888279616832,7.640979447576403,0.095845040632598,6.146269881886243,1.4886966943740845,0.116513006389141,0.449014276266098,-0.8167204674657288,-0.1881344050519468,0.3888867295595247,-0.3825445072477817,-2.922920227050781,1.6909819841384888,5.0246262550354,0.3935742378234863,-0.3364965319633484,0.2633618712425232,-0.0580136179924011,-0.0042694918811321,-0.6316419527798891,0.9151789546012878,-0.4222165275335311,0.6737640614554286,221
1733405678281504500,-0.7505272754013538,0.0741338883556425,-0.966960533583164,7.661839280253648,0.3408110772723332,6.111500766322016,1.378577709197998,-0.2764352262020111,0.1787435412406921,-0.8081150533888223,-0.2089583211174061,0.3804426169014362,-0.3981831417095535,-3.0721046924591064,1.391136884689331,5.452415466308594,0.4981068968772888,-0.2201071381568908,0.2101399004459381,0.1693522632122039,-0.0169293992221355,-0.6989268520236015,0.7463014125823975,-0.4725338888308033,0.6773365131147205,222
1733405678321504500,-1.3455541924893857,0.1339244863212108,-2.119367066410184,7.744058129256963,0.580744782300666,5.988546586826443,0.8398988246917725,-0.2965461015701294,0.1520074605941772,-0.7995752081702209,-0.2291593866430906,0.3770345807842423,-0.4074438497741909,-3.049663782119751,0.965863049030304,5.558719635009766,0.6444306373596191,-0.0814842879772186,0.1262439787387848,0.2759043276309967,-0.0376789756119251,-0.7145002687305212,0.7083869576454163,-0.5006608629668131,0.656521250231564,223
1733405678361504500,-2.3118770126909016,1.0135665827397256,-2.30744107607007,7.785919833430647,0.6441187186457217,5.92747398622632,0.5158694386482239,0.1079281270503997,0.5084651112556458,-0.7929939569957564,-0.2385091945112404,0.3753615665496251,-0.4163863598473269,-3.4061551094055176,0.98261821269989,5.395424842834473,0.6852303147315979,0.0850715339183807,-0.001444935798645,0.2487673759460449,-0.0867866873741149,-0.6012146658122539,0.7401058077812195,-0.573586727239564,0.5302584941772743,224
1733405678401504800,-1.1848153490006923,-0.1789914893422275,-3.763752229782938,7.744329347413778,0.4309813967367634,6.0008344059914345,-0.206466943025589,0.4761234521865845,0.9950023889541626,-0.7866721037698531,-0.2333638475566063,0.3736092945771145,-0.432555868036264,-3.661437749862671,0.3225053250789642,5.190746784210205,0.745341956615448,0.1730363816022873,0.1049006730318069,0.1582962423563003,-0.1520960032939911,-0.5444874009400605,0.7754911184310913,-0.7047747012689709,0.4505641586828977,225
1733405678441504800,-1.2181523859351873,-0.353474744012393,-4.495333397173881,7.589721554026007,0.0134982167264155,6.210180336260796,-0.9715620875358582,0.7143346071243286,0.8190190196037292,-0.7864990410242768,-0.2115436440243968,0.3723146805640223,-0.4450285318071783,-2.8976290225982666,-0.0534041747450828,4.1637163162231445,0.6487176418304443,0.5383752584457397,-0.079660028219223,0.0542757958173751,-0.1235437169671058,-0.4634779277265071,0.8573778867721558,-0.891022518415004,0.4785941752504557,226
1733405678481504800,-1.9744757803946733,-1.0283205728225409,-5.0218391512215135,7.410959562590718,-0.6117077105149626,6.393267789679765,-1.924207329750061,0.6413972973823547,1.0189533233642578,-0.7891367218892977,-0.1764335793661027,0.378028109897712,-0.4508094098945758,-3.00839638710022,-0.2285301834344864,3.339414596557617,0.3297236561775207,0.5693838000297546,0.0229791402816772,0.0130366906523704,-0.092657022178173,0.6790963623940944,0.8591698408126831,-0.9133098266121,0.3366757675658911,227
1733405678521504800,-1.0562801545023917,-2.2231505353592333,-5.497485655647516,7.305445762717723,-1.511504779276997,6.365234119850396,-2.460275411605835,-0.1110026314854621,1.0622851848602295,-0.787834169822811,-0.1303254173209708,0.3980937949543821,-0.4515019175272338,-2.490631341934204,-0.159859299659729,2.5116078853607178,0.186703622341156,0.6515482068061829,0.0369985103607177,0.0151952691376209,-0.0896690413355827,1.1563058783531188,0.6314362287521362,-0.9279540727101264,0.091928780504316,228
1733405678561504500,-0.3594558277159929,-3.573698152221739,-6.0738996422022575,7.387334356853366,-2.591670397888124,5.9060062507838005,-2.4782309532165527,-1.1029706001281738,0.7483464479446411,-0.7787419944481305,-0.0789978373452141,0.4389041299000004,-0.4412292697217266,-1.4874557256698608,-0.3618299663066864,1.7751829624176023,0.1577605605125427,0.8401755690574646,0.0685285627841949,-0.0504485927522182,0.0197471529245376,1.601208284947276,0.3839007616043091,-0.7561728800728916,0.2672363937020302,229
1733405678601504500,0.271164380800724,-5.691767872297763,-6.80934099215269,7.592142059171199,-3.371931132774055,5.211511243727803,-2.7602334022521973,-1.3039708137512207,0.5926163196563721,-0.7656643373509741,-0.0422536270645071,0.4821841099976294,-0.4236405400254182,-1.233871340751648,-0.2733484804630279,1.0447999238967896,0.0975832939147949,0.8823683261871338,0.1049822568893432,-0.0772256553173065,0.0254013556987047,1.2189555190116166,0.323932409286499,-0.2121017683161422,0.6774038792625069,230
1733405678641504800,-1.5979127505332231,-6.610095015615224,-7.830254065197706,7.764628039076924,-4.125654866129159,4.342800364233553,-3.552648067474365,-1.4449491500854492,0.5873612761497498,-0.7510517524521277,0.0013166806823774,0.5278040053305657,-0.3966642248630913,-0.5243306159973145,-0.0612522438168525,-0.1155168935656547,0.0696539282798767,0.954477071762085,0.0359826683998107,-0.0656175017356872,-0.1429120749235153,0.4541431131482124,0.2299768179655075,0.4550509487081319,0.6075260409161448,231
1733405678681504800,-2.190180139780044,-8.28508282252252,-7.094114796110987,7.833911418661475,-5.015754862871765,3.10522548494786,-4.523209571838379,-1.7102458477020264,1.3229718208312988,-0.7251274109006496,0.0608228647115185,0.581358871790157,-0.3640230145672304,0.2697984576225281,0.0354703553020954,-1.4543750286102295,-0.0175956487655639,0.8965780138969421,0.1011273562908172,-0.0596824213862419,-0.2002131938934326,-0.0486497568786144,0.0382986366748809,0.6610678076200187,0.3733925831317901,232
1733405678721504800,-0.283538709205389,-9.97177275766134,-4.843322658979893,7.594831444385647,-6.002040859171748,1.5698504391312598,-5.102438449859619,-1.169885277748108,2.053940296173096,-0.6863667496057418,0.1417692022529575,0.6323459445326369,-0.3300617976292149,1.6382455825805664,0.5326536893844604,-2.47107481956482,-0.0738788843154907,0.7452127933502197,0.0062688589096069,-0.0863341242074966,-0.1912838369607925,-0.3237935627043247,-0.1915573626756668,0.6945591583333909,0.1366390059769153,233
1733405678761504800,1.9773405221760272,-12.00476443991065,-3.866061680656671,7.071993565195799,-6.793609170013665,-0.0646188127064611,-5.122447967529297,-1.2226706743240356,2.2357585430145264,-0.640438407492304,0.233054346914801,0.6700599330551061,-0.2941837152156741,2.2316787242889404,0.4298603534698486,-2.991783142089844,0.2038133144378662,0.5854403972625732,0.0502106547355651,-0.1424345076084137,-0.1788462251424789,-0.4265478347361087,-0.4250923991203308,0.72675323577784,-0.1452127730548381,234
1733405678801504500,3.915287191596627,-11.657692877471446,-1.700138468646258,6.385467929583788,-7.193055062812566,-1.912113139984012,-5.1824870109558105,-1.6458256244659424,2.183687686920166,-0.5797230528203794,0.3197374019139773,0.7037461439712576,-0.2577415125179081,2.73172664642334,0.0268565770238637,-3.510387659072876,0.3382987976074219,0.4390735626220703,0.0659534931182861,-0.2253107875585556,-0.1931814551353454,-0.7625012063115835,-0.5940243005752563,0.7109596004489809,-0.2266742278195917,235
1733405678841504500,4.876645082867145,-8.200838020649552,2.7828955650553104,5.618337894427776,-7.147341943907738,-3.67698141656369,-4.675546169281006,-0.9601231813430786,2.0496113300323486,-0.5146488965358752,0.3999868007681739,0.7262812365809984,-0.2183179798880794,2.363126039505005,-0.2295879274606704,-3.999392032623291,0.3348820209503174,0.2219539880752563,0.0531818866729736,-0.2434012591838836,-0.1334634870290756,-1.2016858197808264,-0.4389794170856476,0.576951564030163,0.1306536479569971,236
