time_imu,phone_acc_x,phone_acc_y,phone_acc_z,phone_gravity_x,phone_gravity_y,phone_gravity_z,phone_gyro_x,phone_gyro_y,phone_gyro_z,phone_ori_w,phone_ori_x,phone_ori_y,phone_ori_z,watch_gyro_x,watch_gyro_y,watch_gyro_z,watch_acc_x,watch_acc_y,watch_acc_z,headphone_gyro_x,headphone_gyro_y,headphone_gyro_z,headphone_acc_x,headphone_acc_y,headphone_acc_z,frame_imu
1724752757300302300,-3.110083446373045,23.12207735176086,-3.588097848974168,-0.113858571367478,9.611147886165975,-1.945051386859268,0.0937375128269195,-0.1711877435445785,0.60728520154953,-0.3702060325848426,-0.4451548966090548,-0.6332512451710265,-0.5135925972262427,0.2460189759731292,0.0603725388646125,-0.105210468173027,20.271635313916207,-15.272220760470628,7.528481195643543,0.1753542870283126,-0.0470470264554023,17.167226698309182,0.268851488828659,-4.233782063370943,-2.395970277263969,0
1724752757340048000,1.320202016828954,18.20753186956644,-7.556860317909717,0.1407099634765647,9.661125676777958,-1.6772760639749469,-1.1370892524719238,0.5089391469955444,0.4432049691677093,-0.3650691178721912,-0.4430347163501286,-0.62388902761472,-0.5302898848066859,1.6688677072525024,0.4406472742557525,-0.4209405481815338,13.302697634047268,-16.36296315654516,1.8229373114496468,0.3393504321575165,0.0435539260506629,15.526423485076426,0.2955521643161773,-2.5820643651530144,-2.283624001022428,1
1724752757379792100,1.3921119455248117,6.577824146607518,-4.748695579302311,0.2761977535917423,9.72220061546564,-1.2541668253853917,-1.190540432929993,0.1176315993070602,0.0489839501678943,-0.3685819022745714,-0.4366868766259991,-0.6109413092865711,-0.5479076408808523,0.8692841529846191,0.2716282308101654,-0.6993494033813477,5.070269712391496,-7.196469839692115,-1.8802071587659417,0.5570715069770813,0.5731762051582336,10.5818230563581,0.3455914556980133,-2.6197727490395306,-0.7756344633247703,2
1724752757460524300,-0.6448095504540949,-11.239575017428397,1.285375325858593,0.0803766369364224,9.791082428511976,-0.5464648750254884,-1.0011636018753052,-0.1665656268596649,-0.1545491516590118,-0.3891566180974478,-0.4163828158834477,-0.595388365353841,-0.5662995242912938,1.360851764678955,0.6959924697875977,-0.2285596281290054,-7.767343143254518,8.099725670605897,-0.1313476215705275,0.1793246120214462,-0.3579604923725128,-11.570600284951924,0.7119834423065186,4.197626169623434,1.0072494354821742,3
1724752757500269600,-0.8474271953817456,-11.865852812826631,4.690617484343052,0.0555450876166112,9.801751706564426,-0.3048888096176088,0.0277945343405008,0.1373787075281143,-0.0265813376754522,-0.3944522835774089,-0.4102583379651933,-0.5892648805619832,-0.5734652224221946,0.0803373381495475,0.0974671244621276,-0.0019982617814093,-8.543347974261641,8.598155084726214,-6.365557360455393,-0.0623234063386917,0.5186766386032104,-6.16334201271832,0.024500960484147,0.916556553448364,0.4466822392156347,4
1724752757539977700,-0.0586991357673192,-12.181854698741436,-0.0244634101271629,0.0558561034942744,9.797079623100162,-0.4295374084735289,0.3819712102413177,-0.3204129338264465,0.0882955342531204,-0.3924695854161667,-0.4134377763508277,-0.5924268038984853,-0.5692691485147483,-0.4159243702888489,-0.0893957093358039,0.1200505495071411,-8.4433117290169,8.45994488390982,-4.12831239490062,-0.0572933070361614,0.1767098307609558,-9.498749587476253,0.2827562689781189,2.5354876151561734,0.4175053907005116,5
1724752757579721700,-0.647137116618827,-10.995993055558204,-0.428422871360369,0.1115841418957803,9.789314249795677,-0.5720545492362231,0.3888983428478241,-0.3203296661376953,0.1744877994060516,-0.3919854203421255,-0.4223370656727432,-0.5922820841726076,-0.5631879577213358,-0.4194954037666321,-0.3181763589382171,0.2173173874616623,-7.929826784583926,6.648347297120094,-4.59973952806592,-0.0661872252821922,-0.0950128734111785,-10.13601171822548,0.1000130027532577,2.76893689006865,-0.5441378933826461,6
1724752757619465700,-0.1063782620820682,-9.745023272648451,-0.8033494225937873,0.1339114807091653,9.780338916179538,-0.7052974099688232,0.2697827219963074,-0.198556587100029,-0.0171913038939237,-0.3912121217538065,-0.428602712552827,-0.5935148483983541,-0.5576674661876071,-0.1649195551872253,0.1177676543593406,0.2584768831729889,-6.186115570062398,5.86081978610158,-4.045560754194855,-0.0600005388259887,-0.1128440797328949,-9.736255444303154,-0.1410742849111557,2.7508137888789177,-0.8044821529507636,7
1724752757659209000,0.215619384515658,-8.986089987951516,-0.1553144803524017,0.1254047144528478,9.77557798538804,-0.7698942391723393,0.062058325856924,-0.0728939846158027,-0.0085457656532526,-0.3914100765334613,-0.4311065796944726,-0.5944752304205995,-0.554566939110818,-0.065379649400711,0.0910980701446533,-0.0196005571633577,-5.920142912685871,6.084205347639322,-3.033411417841911,-0.0064201718196272,-0.0289911963045597,-9.671389881160854,-0.3805230259895324,2.952555089363456,-0.6312072876896709,8
1724752757698953200,1.0184154840756208,-9.224758458817004,0.5841442885458469,0.1125455890727695,9.774078686740994,-0.7906446201257408,0.1026917099952697,0.0138056622818112,-0.0875616744160652,-0.3917529867349625,-0.4315994882921286,-0.5950071748869268,-0.5533696685854795,0.0158965662121772,0.0676734372973442,-0.1277977377176284,-6.703845312458276,5.668663475564122,-3.004448358207941,0.0413232930004596,-0.2251877635717392,-9.805765033859014,-0.4814964532852173,2.995884235741198,0.1440793759775813,9
1724752757778440400,1.6340201289638876,5.27912230618596,3.4496751744508742,-0.0719532700806623,9.756913032406567,-0.9837973212894052,1.1860822439193726,-0.4144817292690277,-0.395672082901001,-0.3912801606688994,-0.428261800943345,-0.605600145002338,-0.5447385821781461,-2.551032066345215,-0.6484873294830322,0.9695334434509276,-1.0982640237510204,-1.9119494738548992,-0.4618392206087708,0.1353285163640976,-1.724409818649292,-2.6834412113517523,-0.2180558443069458,3.266953631734848,-0.0689676372994203,10
1724752757818185500,-0.6718962948221713,11.507062755542991,-3.0111189220130443,-0.1232780320219229,9.728608144420384,-1.2285635975733398,0.1935578286647796,0.3090102076530456,0.1511300355195999,-0.3879933035262278,-0.4323356362757206,-0.6129642784494913,-0.535557528448941,1.012867450714111,-0.3414404094219208,0.0960265100002288,14.431765961384771,-15.161273829632997,3.844873054416477,0.2843064069747925,-0.2876634001731872,10.121337880706786,-0.3126487731933594,-2.358901798716188,-1.07953309286125,11
1724752757857929700,1.0224152212362736,14.906025979888438,1.14194782878533,-0.0286719928490812,9.721479315453768,-1.2893410146191715,0.693640947341919,0.2845215499401092,0.1473155170679092,-0.3799210845715295,-0.4318214593456345,-0.6158476445743737,-0.5384439222274361,-0.6306480765342712,-0.2547289729118347,0.4576542973518371,11.019959622079131,-9.86601404311657,1.6300328128933903,0.3224291205406189,0.2305720597505569,17.128828286331892,-0.1768185198307037,-3.1217846978217363,-2.678538241741061,12
1724752757897673000,0.1515307696957606,10.810119770812989,-2.7477555703520773,0.0204028598570963,9.663595866283774,-1.6687981584869325,0.4815747141838074,-0.186032548546791,0.0917770862579345,-0.3711014909232208,-0.4419983000115559,-0.6242776049267307,-0.526496609457575,-0.1032684370875358,0.1540941745042801,0.3780025541782379,8.910192158663273,-7.1416703280121085,4.794215221461654,0.2923231720924377,0.3402088284492492,7.430085118821263,0.0456781089305877,-1.6823251640580594,0.0506106771214632,13
1724752757937417000,-0.2944198581765405,3.2558634979218244,-1.5594718145884572,0.0713100494068348,9.672826635965704,-1.612994438200444,-0.3486501574516296,0.1844649016857147,0.1589941680431366,-0.3700567451056034,-0.4414735935790945,-0.62236717064795,-0.5299229069945463,0.8029927611351013,0.3702197670936584,-0.0008170831715688,3.135601626250148,-3.287289148277044,1.0228338119745255,0.205635130405426,0.641529381275177,0.4812369813768193,0.2390169203281402,-0.2779120284300297,0.4313596919972449,14
1724752757977160000,0.3713751788947731,-2.3175410298019647,-0.5882733511745929,0.1050710154084023,9.70140800280571,-1.4289911851108072,-0.623873770236969,0.1020446792244911,-0.0385846607387065,-0.3718457646286426,-0.4373417772322204,-0.6177300734223702,-0.5374685304804755,0.8062530159950256,0.5548126101493835,-0.3891973197460174,-0.7604910355329513,2.6236633267372844,-1.1580483381062745,0.0959794670343399,0.1997290551662445,-3.3183798675894733,0.0828811973333358,0.9520169392123816,0.0983510138378478,15
1724752758056647400,0.2042344690071418,-8.051096371993422,1.854876172024012,0.0160321476593147,9.733172675856949,-1.1981169483181089,0.123404711484909,-0.2037442475557327,-0.1072365790605545,-0.3802055569872216,-0.4308869085363954,-0.6127180732877406,-0.5425466026659294,-0.2915526032447815,-0.0031701647676527,-0.0548258572816848,-6.336172276017069,6.397180579209327,-2.6127871279358863,-0.046302106231451,0.1007221117615699,-6.658094199630618,0.2337847203016281,1.9064438621759408,0.4840019160455092,16
1724752758096391400,0.41161381191127,-7.639868271464109,1.1505459996521472,-0.0043003429546224,9.72626538068652,-1.2530477582275867,0.1897334903478622,-0.1205176711082458,0.0061398954130709,-0.381355599172536,-0.4333667972921284,-0.6132543318669706,-0.5391477108140187,-0.3371440768241882,-0.3030319809913635,0.0552211515605449,-5.897901854783297,5.38257566639781,-1.804664718786627,-0.0724050253629684,-0.0452601090073585,-7.030965389236807,0.004669883288443,1.880977266355604,-0.3185668410319834,17
1724752758136135700,0.0432738496936624,-5.781397874340414,0.6137655198276043,-0.0100541817863413,9.712677000316978,-1.3543220208346842,0.3332430720329284,-0.1604567319154739,0.0130226798355579,-0.3806735580077069,-0.4368006178646266,-0.6150255481081353,-0.5348237468061635,-0.1803959757089615,-0.2643378973007202,0.2259663939476013,-4.4959196726292365,3.9308325512528417,-1.678074667006731,-0.1009309366345405,-0.2061536163091659,-5.821252330344915,-0.1369638293981552,1.521662162284553,-0.2059304592700675,18
1724752758175878700,0.5684930208297446,-1.3628472725957632,0.6055671619333326,-0.0392247569659491,9.686288759607075,-1.5312249403998257,0.6293361186981201,-0.0069381338544189,-0.1322914063930511,-0.3786537942798545,-0.4407082560761862,-0.6195538526033907,-0.5277788826525688,-0.771501898765564,-0.6102849841117859,0.3734737038612366,-2.6628268778681754,2.528578566420078,-2.056674755653739,-0.1366063058376312,-0.3892122507095337,-0.4269396470652893,-0.2840562462806701,-0.1298591822442132,-0.6623733372606336,19
1724752758215623000,-0.0363967715649865,8.280679619127511,-0.7012915353283286,-0.0822657203523442,9.628395958086848,-1.8594567778125404,0.9742726683616638,-0.0717720836400985,-0.0159322284162044,-0.3725555809602573,-0.446025832275188,-0.6291795206502405,-0.5161359292988408,-1.399949312210083,-0.4682047963142395,0.4550483226776123,2.3831746547073123,-4.998329680818319,0.6665583678603172,-0.1939677596092224,-0.387394905090332,7.059487719365954,-0.162497267127037,-1.7445570176959038,-1.3292898709088563,20
1724752758255366000,0.8618539993368088,18.402970270514487,-3.4479695395767687,-0.1133666413983795,9.574771919927,-2.116903745036572,0.2536418735980987,-0.2965395450592041,-0.0878413170576095,-0.3681283211708366,-0.4509021815369466,-0.6360969085284474,-0.5065071898911219,-0.7559330463409424,0.0347510129213333,0.3566810190677643,11.921373039996624,-12.442358569318056,4.985885209786892,-0.1210995987057685,-0.8412153124809265,15.026291358691454,0.1067843958735466,-3.096362964056432,-1.5981779773406684,21
1724752758295110000,-3.0403192975342272,24.607296035528183,-2.0969933220386503,-0.0247076786282588,9.551675706499816,-2.221547337946296,0.4478585720062256,-0.5907976627349854,0.7597703337669373,-0.3689306864297325,-0.462951773988213,-0.6316193840007142,-0.5006224079386473,-0.3091001510620117,0.5217016935348511,0.1208450347185134,20.518658940672875,-18.915649743783472,6.426779598659277,0.2176864445209503,0.2664742767810821,19.569733245474097,0.2429676055908203,-4.285275226981938,-1.496628989445418,22
1724752758334853000,0.8084669848032295,17.46498331795931,-6.629692865532636,0.2196931002279743,9.5478961879611,-2.227057918061316,-0.5630055069923401,-0.1439313143491745,0.3936074376106262,-0.3654136216514106,-0.4748829197671088,-0.6229242046581484,-0.5029160032938281,0.8274754881858826,0.8638399839401245,0.1504672467708587,14.019905992692708,-14.55148305865526,1.8665109341077504,0.2368607968091964,0.1431201845407486,15.640775840443371,0.4336127638816833,-2.7753315595418213,-0.6400037576075643,23
1724752758374597400,1.9928832514837385,4.370484197711944,-5.206366866576671,0.270834472992923,9.620182256492972,-1.883912004633248,-1.2179679870605469,0.3113034665584564,-0.060571726411581,-0.3734241362454476,-0.4710111323145046,-0.6117199482367053,-0.5142972049231198,1.331276297569275,1.182023525238037,-0.4484166204929352,4.619046286082267,-6.44738165718317,-1.2259995923042295,0.3699302971363067,1.1050015687942505,3.679723116487264,0.3054734766483307,-1.0850151044689118,0.2769208619682118,24
1724752758415582500,1.742135635767877,-9.402381217089294,-4.601583110105991,0.253132264096383,9.732781630712749,-1.1744287603471428,-2.569552421569824,0.4640848934650421,-0.0641741976141929,-0.3840963130524929,-0.4489283002420144,-0.5986172259899356,-0.5409167189758152,2.6526920795440674,2.5433804988861084,-1.3820674419403076,-3.756263919854164,0.5198007034510373,-1.9326073542192577,0.2480427324771881,0.7078943252563477,-10.505742856240271,0.7980168461799622,3.2492198221236466,2.4289852426372467,25
1724752758455326500,0.8513145582091063,-15.88769074612856,3.3167736014366147,0.2434340778321027,9.80252853615582,-0.1468509413164574,-2.0910427570343018,0.1154267713427543,-0.0960195809602737,-0.4040965401253358,-0.4245268558955357,-0.5720701557749144,-0.5737758427236596,2.357795238494873,-0.4435380697250366,-0.3921148180961609,-13.73800511382222,11.981529694795608,-7.205166940888762,-0.1335038989782333,-0.2041350454092025,-7.444913854640721,0.5914386510848999,1.667380839034915,0.645615021618083,26
1724752758495069700,-1.459908009161055,-15.28459976505041,5.926389113599061,0.2062441648617386,9.802476513707637,0.1982784284132532,0.1810150742530822,-0.3441031277179718,-0.0368098951876163,-0.414658560994215,-0.4182554532546341,-0.5612067261173485,-0.5815218848118938,-0.7084499597549438,-0.3933830857276916,-0.2544471621513366,-11.442553750753405,12.461798598325252,-8.555797705990075,-0.0564388185739517,0.250343382358551,-8.84829830480814,0.4844062626361847,2.527304893222451,-0.3759383951570838,27
1724752758534813700,-1.5668611941874029,-13.023866664141416,1.3587690633714198,0.2757882046764716,9.8027676056087,0.0081704075873101,0.606878936290741,0.2583901584148407,0.3421230614185333,-0.4091006064490505,-0.4248144871589918,-0.5649035994157767,-0.5771076496570623,-0.4153493642807007,-0.3548394739627838,0.3087597489356994,-7.935411891239881,6.725583097013831,-4.869480013543367,-0.1583994030952453,0.085882119834423,-9.644512395629286,0.1180017963051796,2.608166190136969,-0.862234961478412,28
1724752758574509800,-0.2773625047884881,-10.90405711466074,-0.7465408361136913,0.4084448630189523,9.795542330530283,-0.2256549129755236,0.6414139866828918,0.0898490846157074,0.2630952596664428,-0.3967766505473345,-0.4301905174752513,-0.5713504333728525,-0.5753808924955967,0.3396807312965393,-0.2413364499807357,0.7120722532272339,-6.953123440143465,5.549163820436597,-4.680332821694016,-0.0820985808968544,0.1807086616754531,-9.85929788660407,-0.072070762515068,2.9493937027230857,-0.6693959293738008,29
1724752758614251300,0.0223629307165741,-9.765978966915608,-1.6366203745901584,0.45617805304192,9.784383807656168,-0.4776094750620424,0.6065265536308289,-0.1097642704844474,-0.0324123725295066,-0.3910790912832185,-0.437945389344487,-0.5766759427771735,-0.568071994236645,-0.7676765322685242,-0.0578213743865489,0.278676301240921,-5.850501221182942,8.101656930929423,-5.903496898311376,-0.0754281133413314,0.0579964034259319,-9.779088623857495,-0.1695489734411239,3.14905410528034,-0.6651145257275551,30
1724752758653993500,0.3257346868347376,-9.622786886033415,-1.528307299387455,0.3863904502622783,9.776765149345993,-0.660292658529058,0.3250806033611297,0.0071233282797038,-0.3378281891345978,-0.3891796497174335,-0.4397088466844983,-0.5833709689456342,-0.5611361734977202,-0.643887996673584,-0.0590660795569419,0.2013947963714599,-6.525998097780347,5.868043892136216,-5.179190105837583,-0.0277979876846075,0.160162553191185,-9.60701590092778,-0.2232884466648101,2.954519959695637,0.1061927585804834,31
1724752758693734700,0.8044596488580107,-7.640926256084442,0.7378373782414942,0.2425548473121598,9.772063839787243,-0.7863195965334773,0.4557482302188873,-0.1009749621152877,-0.3314542174339294,-0.3900222326323971,-0.4374440484312702,-0.5905369139886639,-0.5547895378440173,-0.769868016242981,-0.2310845404863357,0.0192283298820257,-5.919689323699474,5.764152140507101,-2.604339033064246,-0.1217670664191246,0.1899844259023666,-9.46016997371316,-0.2639342248439789,3.0326150067672133,0.5467660864617675,32
1724752758733476900,0.3559606060113757,1.2014911739915608,1.2029321665801107,0.1134527031134813,9.765147776788472,-0.8940795678980648,0.2951937913894653,-0.0004378652374725,-0.3044407665729522,-0.3927670502854199,-0.4373132492627642,-0.5952667429933604,-0.5478581797913827,-1.938954710960388,-1.413208246231079,0.6126934885978699,-3.2706653457343577,2.4993109708815813,-0.0390127444833517,-0.3026450276374817,0.8481534123420715,3.3599224228113886,-0.936388909816742,-3.3822879838764663,0.3787462921846657,33
1724752758773218000,0.3243514523154124,10.342923114824297,0.999035660823062,0.0823637008341029,9.738442140692472,-1.1516659435927867,0.6349166631698608,0.177611157298088,0.0958234742283821,-0.3869621673255343,-0.4405416611362144,-0.6038556668394323,-0.5399459318602721,0.0270253829658031,0.1028197035193443,-0.4039269685745239,13.863032007938624,-10.98423247513771,5.573251382988691,-0.1943294554948806,-0.7425177097320557,15.581120705425738,-0.6732699275016785,-4.81242366284728,-0.3435499276516959,34
1724752758812958500,-0.1498055624715052,13.75919637041092,-1.1204581737719477,0.189010669455491,9.715651047691702,-1.3193822248786686,0.3827825486660003,0.2119804322719574,0.3094277381896972,-0.3772286980298246,-0.4438275678280994,-0.6085120041562134,-0.5389143690210295,-0.4176764488220215,-0.550800621509552,-0.0935544744133949,8.082617299416661,-8.530487323644756,3.436204575242102,-0.3973947167396545,-1.8356093168258667,17.965683599621055,0.1652823686599731,-4.226363603807986,0.3151148008819669,35
1724752758852700700,2.4396558358639475,13.880755880677698,1.3667559704720973,0.2150648559054359,9.676243166410922,-1.5793908592842518,1.12147319316864,-0.0712798237800598,-0.1528188586235046,-0.3689043064565079,-0.4477911645922277,-0.6164491847037482,-0.5323374694132402,-0.8035663366317749,-0.3893086016178131,0.4500636756420135,7.5568375215560195,-10.59472579255104,3.3585078798383474,0.4560025036334991,0.436115562915802,12.446374234700205,0.3762048780918121,-2.3338367694340647,0.2715107830855995,36
1724752758892442000,0.3982806484118104,8.493861182036996,-2.3424694270923734,0.1544806964093819,9.603760698524116,-1.978466311335564,0.5193375945091248,-0.0310802925378084,-0.0253811031579971,-0.3628475863178274,-0.4553538573052703,-0.6273169668073679,-0.5171731101918089,0.0802747532725334,-0.2052860409021377,0.2610619366168976,6.582775047013163,-6.866024417883158,4.288127986064553,0.1744621992111206,0.189739853143692,5.572334268143773,0.5559535026550293,-1.5282121684499084,-0.5020384714629501,37
1724752758971925500,-0.3590852043053135,-3.5808214282304047,-1.9411071792781351,0.2413205197442322,9.657754154518246,-1.685210948627442,-0.9670908451080322,0.1801955997943878,-0.0645137280225753,-0.364273285911004,-0.4489440326348827,-0.6199766964838338,-0.5304555877156238,1.1787253618240356,0.6904239058494568,-0.359293133020401,-0.6597007570505142,1.6131290243655445,-1.99776327861026,0.0095469253137707,0.2428452968597412,-4.161123362134397,0.0608443953096866,1.0533793184943496,0.1274978325408883,38
1724752759011667700,-0.1484282645026221,-7.145923309281468,0.8732299643538892,0.2169620495625771,9.71669851091802,-1.3073285067304967,-0.8969365358352661,0.071220763027668,-0.0749818682670593,-0.3723168152451612,-0.4395027063151622,-0.611140390642053,-0.5428859172618345,0.6233444213867188,0.6241847276687622,-0.4922059774398803,-3.7810698598086834,5.385798135575652,-3.0241116745769974,-0.0314864516258239,0.1377339363098144,-5.511045394444466,0.2136425226926803,1.4909990207344292,0.2323628131163306,39
1724752759051409000,-0.5189848204908892,-8.52869108787775,1.5756524034082888,0.2421551439374685,9.749882987639308,-1.025434715187922,-0.5783140659332275,0.0413273274898529,0.2306767702102661,-0.3778130231799289,-0.4347191177594132,-0.602745309579104,-0.5522451035643732,0.2179841548204422,0.0768827497959137,-0.2280423045158386,-6.403466527611017,5.9454632319033145,-2.8047315492883325,-0.0532714314758777,0.1858060359954834,-6.682433691117167,0.2119014263153076,1.9363002173878248,-0.1095916346380021,40
1724752759091151400,-0.6317436595886945,-8.091997706702351,2.199464685475826,0.3592537658052518,9.75970763156116,-0.8884893466755748,-0.0190606042742729,0.1054029986262321,0.256888598203659,-0.3761395145630691,-0.4341783324583833,-0.5973186131519794,-0.5596593840979006,0.4243495464324951,-0.2071532309055328,0.1182394027709961,-5.91816781322062,4.839855275130272,-2.728412864239514,-0.1377625316381454,0.0942283794283866,-6.815162245652079,0.0507933795452117,2.1219028684981165,-0.4517284897545352,41
1724752759130892500,0.0438754916815087,-6.855496009606123,1.127593140218407,0.4216470936151221,9.747091895616052,-0.9933686480373144,0.5247310996055603,-0.0906246677041053,0.0976360738277435,-0.3717847169999501,-0.4378630811703604,-0.5991023515937117,-0.5577887870250676,-0.2009627819061279,0.1599355041980743,0.355478823184967,-4.230349166312814,5.705215967413783,-3.4238670717164874,-0.1734736114740371,-0.136226013302803,-6.364635569435357,-0.1665607839822769,2.5279908296599984,-0.8168882647331803,42
1724752759170635000,0.1852247942412272,-1.836613370102644,0.1748421876430511,0.4604613929169252,9.720419577267766,-1.2131780315887182,0.6616373658180237,-0.0433317422866821,0.0381476953625679,-0.3662862082751943,-0.4438634284264234,-0.604019967685482,-0.5513434199235289,-0.9512386322021484,-0.8738040924072266,0.5843414068222046,-4.186673690715432,3.113569827184081,-1.6526590707212685,-0.1429793685674667,-0.7807679772377014,0.6553063214838505,-0.5949929356575012,0.0980203571113757,-1.167155773669481,43
1724752759210377200,0.5489414212068543,9.9885625644207,0.5018452139131725,0.4165205078490078,9.647180153533816,-1.7113652344509958,1.6818931102752686,-0.0806521475315094,-0.0566373355686664,-0.3570834636173955,-0.4530171821349174,-0.6180863805543491,-0.534074802173775,-2.6895639896392822,-0.1295656412839889,1.1151803731918335,2.375437338453531,-5.749094856628775,-0.7317863345742225,-0.0123890936374664,-0.0772408470511436,8.025347013708949,-0.6498942375183105,-2.5654119210377333,-1.580448697774112,44
1724752759289860600,0.8080649798735976,25.113417173194883,-7.810726357907057,0.4812124679900705,9.592333295580744,-1.9814089406587183,-1.132190227508545,-0.4437768459320068,-0.0578482002019882,-0.3524331499390472,-0.4642538733904029,-0.6208800855646482,-0.5241824479262117,0.9089801907539368,0.5863410830497742,-0.3156555891036987,17.747847488903997,-18.60011781346798,8.872812568339706,0.3266311287879944,-0.4544918835163116,19.147254852133987,0.1276303231716156,-3.481041788095236,-0.8605299111261964,45
1724752759329602000,-1.1307615411214529,15.452016186606883,-1.9721816781081256,0.3566862168721854,9.689795890945197,-1.4666406784169377,-1.1381824016571045,-0.2487096190452575,-0.2240983247756958,-0.3726229343891916,-0.4558167946615866,-0.6058126079273788,-0.5351395803279988,1.1915876865386963,1.1009985208511353,-0.0016408653464168,12.762974671030044,-13.760858750665188,3.406422308179736,0.1052750945091247,0.5969107151031494,17.563175981163976,0.3000584244728088,-4.857962301968038,-0.6492941485222429,46
1724752759410328300,2.9974072075247764,-11.516734254729746,-3.880027077645064,0.3884426700843498,9.78527812614739,-0.5175234427014366,-2.319621324539185,0.6116960048675537,0.0567564517259597,-0.3827995517646435,-0.4271610696238268,-0.5864467351069393,-0.5719074816858635,2.817462682723999,3.133434534072876,-1.4241690635681152,-4.020924325588346,2.7271242857337,-2.228378937532008,0.0301404744386672,0.5609563589096069,-11.25683711787462,0.4906484484672546,4.382786922185122,2.024998345407844,47
1724752759450069800,3.564048572605848,-16.62704663917422,0.9160667971700428,0.3184485484145581,9.791900174635648,0.4332157316600903,-1.9032586812973025,-0.5846316814422607,-0.4606629610061645,-0.405374831700987,-0.4062419503789254,-0.5593564363738136,-0.5981297072674848,2.9712226390838623,-1.3814443349838257,0.0996470749378204,-16.778753450423476,13.449465235328674,-10.934385617429015,-0.234747976064682,-0.7131701707839966,-6.450487806504964,0.5463467836380005,2.502858434230089,1.1494786626815796,48
1724752759569295600,-0.1521079667955171,-10.143783521270752,-0.7840840925663709,0.0172844298673968,9.80590298102498,0.1198427603436168,0.8132184147834778,-0.3000824749469757,-0.0253767482936382,-0.4158550217098244,-0.4118081132177859,-0.569476775390161,-0.5772130995409644,0.0964268296957016,-0.4084840416908264,0.6339638233184814,-5.347672695320845,5.227099858003855,-2.6686215356215834,-0.3637794256210327,0.1757163405418396,-10.26969538152814,-0.1077592000365257,3.165655111469328,0.3185786776002496,49
1724752759609036800,0.1423786821400746,-9.105116764870283,-1.397452722030878,0.0014229621717538,9.80527111286223,-0.1644646225461736,0.600145161151886,-0.2147566676139831,-0.0949528217315673,-0.4139079979374985,-0.4209922392705567,-0.5754571193645123,-0.5659459553666699,-0.6937010884284973,0.1356778889894485,0.1534515768289566,-4.413396287721395,6.298263108861446,-5.533705554541945,-0.3984273076057434,-0.0076677361503243,-9.898534502971172,-0.1759082525968551,3.271184401172399,0.075823576741945,50
1724752759648904400,0.0319218820401001,-9.41322994336188,-1.2814555220663546,-0.0388053122777491,9.80109119682908,-0.3278971255656331,0.2657143771648407,0.0349901877343654,-0.0851504951715469,-0.4118890065563397,-0.423603035208784,-0.5807568929192957,-0.5600263444487436,-0.6396136283874512,-0.0471441186964511,0.0844534710049629,-6.014959961977601,5.731000397011638,-4.839281274634599,-0.4172661006450653,-0.0361758433282375,-9.3831451862216,-0.2737775146961212,3.077442575009167,0.2264936105556786,51
1724752759688651500,0.4153610356155782,-8.635753286236524,0.4201286518761888,-0.0725412899685325,9.796191734349726,-0.4469130157642066,0.4532539844512939,-0.0183747876435518,-0.0495475083589553,-0.4104837775212557,-0.4253188837927289,-0.5847136653172105,-0.555622867269178,-0.4336397051811218,-0.3350335359573364,0.0542272590100765,-6.121560388043522,5.658188843300938,-3.913395678761601,-0.3661400377750397,-0.036302100867033,-9.477971587863564,-0.2640542387962341,3.1291148945793505,0.6215693985115737,52
1724752759728397600,1.0326869513384995,-0.609916443184018,0.3513911792039871,-0.0970030698276124,9.785843943336603,-0.6310638606309891,0.3606294095516205,0.3607646822929382,-0.193374827504158,-0.4055178656106791,-0.4266653737378256,-0.5917194941777415,-0.55079943395384,-1.3400968313217163,-1.5350322723388672,0.3947619199752807,-4.455287217989564,3.115923696833849,-1.4017860750600697,-0.6096704006195068,-3.303421258926392,-0.1982648748119361,-0.3536009788513183,1.7316197947114704,-0.2629245218522846,53
1724752759768144600,0.3185731246422976,12.05761807821989,2.318722348541021,-0.1871911076118238,9.754456286904215,-0.9929338368166236,1.334849238395691,0.0107997264713048,-0.0839702636003494,-0.3991569403878148,-0.4303230749614946,-0.604522611440472,-0.5385611853324797,-2.0235841274261475,-0.020688597112894,-0.3156567811965942,9.727481770738958,-8.254449199327826,4.726412435823678,-0.3554681241512298,-1.90885591506958,10.709507186985014,-0.0219914279878139,-1.7019810277730223,-0.1685885706083849,54
1724752759807890700,-0.840135430938378,13.137393674600125,-6.061785426038504,-0.1545056664538569,9.719602415665983,-1.294549104656279,-0.3574890792369842,-0.0998508781194686,0.0399821475148201,-0.3923622887594119,-0.4384159850168571,-0.6113878168426161,-0.5291958653406073,0.9059212803840636,-0.7882086038589478,-0.1847855150699615,6.715170424070954,-10.369905814296006,8.296536528950929,-0.7183679342269897,-3.9043257236480713,1.698785446602106,1.2902159690856934,3.7625679884344336,2.2570621573112906,55
1724752759887384600,0.1389416568960994,8.5381474830091,-1.966530374348164,-0.1983479865181259,9.675442371422053,-1.5864645970627664,0.7005751729011536,0.4894437789916992,-0.0636552274227142,-0.3797198974513479,-0.4342915310185182,-0.6263210408461715,-0.5243335700112421,-0.4193372130393982,0.2218447923660278,0.2927803993225097,6.451194493469596,-6.755735658693313,3.992570922285318,0.3044031262397766,0.3797036409378052,7.906447078040242,-0.0075187883339822,-2.01187582898438,-1.0244118018809705,56
1724752759927131000,0.4770358398925512,3.80168536233604,-3.3911353071987627,-0.1816510274076834,9.67602280165851,-1.584912837576121,-0.489417016506195,0.0363267995417118,0.1120191812515258,-0.377082126370673,-0.4321533727754164,-0.6277352390928501,-0.5263087793336833,1.156062364578247,0.0841947868466377,0.0757583230733871,3.852441151583194,-3.1734564328700303,5.0597185077607625,0.3263853192329407,0.7910574674606323,0.4134701438350602,0.0062129735015332,-0.2638483586989343,0.2953246249965391,57
1724752759966878000,0.0559469829483889,-0.914190481904149,-0.432817416524887,-0.1291196524559054,9.71781962390244,-1.310610597141087,-0.8255766034126282,0.0520378313958644,0.0475456304848194,-0.3820861738078747,-0.4288879969191555,-0.6187710666527575,-0.5358988845886561,1.20625102519989,0.2688007950782776,-0.4304771721363067,0.2975608048170804,1.0644698906987904,-0.895769859072566,0.2450957745313644,0.4007964134216308,-3.0055554426670072,0.0264406241476535,0.9601845366422086,0.883198327595368,58
1724752760006624000,0.0394138908964581,-3.673160689231753,1.8477333145320407,-0.1737884408064186,9.751290516349671,-1.0259233754877,-0.5374658703804016,0.2375827729701995,-0.2494294643402099,-0.3874924512298741,-0.4195272664391389,-0.6134365545551558,-0.5454741756249541,0.3970279097557068,0.5016893148422241,-0.2210730165243148,-2.3144530006587503,3.726573130467534,-2.3192644925937054,0.1461347192525863,-0.0377622283995151,-3.4595644080415364,0.2072247117757797,1.2442049649499356,0.9850104964714496,59
1724752760046371000,0.185928960455209,-3.519554766362905,2.8240216484308243,-0.2710727935271337,9.762436764264104,-0.8898063475582748,-0.21572245657444,0.4284232854843139,-0.3081972002983093,-0.3899131332181004,-0.4101660661062137,-0.6141101658189265,-0.5500912225751918,-0.0504968389868736,-0.4078208804130554,-0.0570633113384246,-3.322890038490295,4.066374994164705,-0.6921642260208726,0.1724555939435959,-0.2869366407394409,-2.2596135953597725,0.2327219396829605,0.929788959987089,0.7504984876982868,60
1724752760086117000,-0.0371716831939294,-2.068572698718309,2.249443645131588,-0.372386438296549,9.764735104334354,-0.8256422106835991,-0.2191339880228042,0.8942669034004211,-0.334133893251419,-0.3854636812167002,-0.396040274088738,-0.6206836047401907,-0.5561670787857823,0.1536720097064972,-0.3496316373348236,0.1879897117614746,-0.9025783700436352,1.7587427794367074,-0.1035612045004963,0.1420560181140899,-0.1444108337163925,-0.9269812821552156,0.1641215234994888,0.1345060490688309,0.618618805077672,61
1724752760205357300,0.1356381583712995,0.139164725062251,-0.2328326043188572,-0.390920056515932,9.75622037396729,-0.9130926036648452,0.4855591058731079,0.1650520414113998,-0.181456446647644,-0.3690627795592193,-0.3801039293497936,-0.6340944472220612,-0.5632388064134073,-0.7257224321365356,0.5081366896629333,0.0291899517178535,0.8661568110972643,-0.3967325421869754,-0.6928069078385829,-0.1325186640024185,0.125291496515274,-0.2113882680182345,-0.221972569823265,0.1111647748393937,0.1471361788654699,62
1724752760245104400,0.5249630181176588,-0.1850713207125663,-1.688246224670112,-0.4417641816336661,9.741675131264328,-1.0368039582032709,0.1240773424506187,0.0549254789948463,-0.0184623375535011,-0.3673507357027821,-0.3799132846278259,-0.6391620973131898,-0.5587405598551418,0.0008805985562503,0.1862087100744247,-0.102413885295391,-0.7584224125653505,-0.6456774923950434,1.3920315737649798,-0.1127783507108688,0.1179156079888343,-0.0683302344450261,-0.2234679609537124,0.0225631500133895,0.1422216649474576,63
1724752760284850400,0.8496686176329851,-0.2343739885419607,-0.0052536096792668,-0.3310245003385469,9.743244572538137,-1.0630093896921724,0.1363473236560821,-0.0688153728842735,0.2493339478969574,-0.3653036844273489,-0.3859076576857552,-0.6366110874585448,-0.5588871310716531,-0.3142595291137695,-0.1834120601415634,-0.1051906943321228,-1.6322101569324732,-0.8603466635137796,1.0123223548322915,-0.1029861271381378,0.0836453735828399,-0.0988948657904285,-0.1726120561361313,-0.0485237010798417,0.2168445971953682,64
1724752760324597200,0.3090928371787071,-0.0519575662523508,0.4357330847758799,-0.3276476808492094,9.735305596232411,-1.134391568186879,0.1820931434631347,0.4744720160961151,-0.0477713346481323,-0.3615342476393042,-0.3847662801805095,-0.640150595323627,-0.5580816004717686,-0.5209293365478516,0.0880268067121505,-0.1921303868293762,0.5294570050686598,-0.0354553442627191,-0.1188330079123377,-0.0499472953379154,0.1586662530899047,0.2399434592373669,-0.2021795809268951,-0.2810790045609697,0.1082831093227025,65
1724752760364344300,0.7142107111994177,-0.5956003330618143,-0.5865653051476926,-0.2926814535439945,9.744891755223271,-1.0591492801979183,-0.4385044276714325,0.549339234828949,0.0468832850456237,-0.3542185970419693,-0.375663894759459,-0.6425560061033988,-0.5661515233449159,0.1800684630870819,-0.2139639854431152,0.146075889468193,-0.9163713330745696,0.5254290647268295,1.5255810892939567,-0.0510393679141998,0.1232846677303314,-0.1383627244969829,-0.1772804409265518,0.0356564860081416,0.0510381315861828,66
1724752760403820500,0.4376886027578264,0.0212333421647548,0.1101475240882486,-0.3031641047168523,9.748155725455284,-1.0256296532381326,0.1633940488100052,-0.0130669819191098,-0.0121265947818756,-0.3524672281363631,-0.3716518260844584,-0.6435584515354994,-0.5687479020083225,-0.6525267362594604,-0.0031833739485591,0.1743083298206329,0.2015449011296033,0.3342962520182133,-1.029883730486035,-0.0472712367773056,0.0688700973987579,0.091410985441599,-0.09893399477005,-0.1832754685380496,0.0865369405312929,67
1724752760483584800,-0.0024956162080168,-0.3328676805198192,0.2510882458470762,-0.3594778568847104,9.72367594871521,-1.2211895616739987,0.3297322690486908,-0.2702389359474182,0.0998664274811744,-0.3512751012655453,-0.3743699984299257,-0.6497002711104698,-0.5606626071649385,-0.3429175019264221,-0.33724245429039,-0.0311823114752769,-0.4153928189933299,0.0743523534119129,0.9302665874361992,0.1057662516832351,0.2869266867637634,-0.2778405888953246,0.0039135972037911,0.2009756498742848,-0.2898334619680419,68
1724752760523330800,0.0741263626363128,-0.5053957460016012,0.0729857412338256,-0.3208787347035482,9.708108377227187,-1.3490947877056896,0.3455517590045929,-0.0863788723945617,0.1462113410234451,-0.3506356336265224,-0.3814163852387953,-0.6506198860972284,-0.5552206487873993,-0.3822287321090698,-0.0822716429829597,0.0926362350583076,-0.0556663576424121,0.4436538678377866,-0.7546306190669536,0.0692333430051803,0.1925312876701355,-0.1350299724782351,-0.0331596285104751,-0.0497647369497688,-0.1408137069788295,69
1724752760602823700,-0.3738516885435208,0.2655915491044521,-0.5253298421360552,-0.2938314272967167,9.673937812077998,-1.5808200153045355,0.2194774150848388,-0.1081933677196502,0.1471541672945022,-0.3458778309802094,-0.3872100258083248,-0.6562528351694196,-0.5475118401409242,-0.2617148160934448,-0.0753400176763534,0.0136962793767452,0.6603577596545219,-0.3252285639435052,-0.2941678013779222,-0.027376240119338,0.024302264675498,-0.2092541238000616,-0.027183661237359,-0.0616182837501866,-0.1468644492520019,70
1724752760642571000,-0.2490381631831638,-0.0266886849611997,-1.5537738952077924,-0.2040647932623513,9.680559860566255,-1.5541991348825397,-0.4266166388988495,0.1851821839809417,0.2362548857927322,-0.3425955663184777,-0.3882623452278216,-0.6545948806478766,-0.5508051387955453,0.4441972970962524,-0.2006538808345794,-0.1528084129095077,0.0159498488038778,-0.8110024946302175,0.2239635075561702,-0.025916688144207,-0.0319104567170143,-0.1542144649549387,-0.0265645943582057,-0.0088715998178493,-0.1674813582851551,71
1724752760761685500,0.1028890591262839,-0.0055307461202144,0.47477922007218,-0.192671530050598,9.708182026985288,-1.372755064756423,-0.231013536453247,0.1425563991069793,-0.1294897496700287,-0.3435415112370391,-0.3826874002595852,-0.6508005687386607,-0.5585590127357923,-0.0592517107725143,0.0242805276066064,-0.145353689789772,0.1437590671151876,-0.6395183852434158,0.6666231036596,0.0626153349876403,-0.0528323985636234,-0.0027693277160171,-0.1015907526016235,0.07692171984273,-0.0864048842499963,72
1724752760801425000,-0.3525431257180869,-0.2383867313146591,1.0985412332572042,-0.1666991949315182,9.715384505710006,-1.324344231200218,0.0555575750768184,0.3596273362636566,0.0577321238815784,-0.3407035460296722,-0.3791774582618312,-0.6509586907743398,-0.5624929320783301,0.2295332103967666,-0.0768346935510635,-0.0407890677452087,-0.4845283145397901,-0.8253004845738411,0.0750793525122106,0.0033439558465033,0.0006891118828207,0.0432637210252927,-0.1301717162132263,0.0447800758384168,0.0788141459932085,73
1724752760841167400,0.3994369057748466,0.1080184761703014,-0.1923731681585311,-0.1526844241097569,9.706711954432723,-1.3880993488825857,0.0706356316804885,0.4739490747451782,-0.0971463471651077,-0.3343814880431683,-0.3753285853259512,-0.6556689908461261,-0.5633965595409174,-0.1197800412774086,0.0612115934491157,0.0003245475236326,0.1675076069712638,1.018369818302989,0.1587635978929698,-0.0506369322538375,0.026824340224266,-0.0264770469379378,-0.1068916767835617,0.0522398537924513,0.1163498127944767,74
1724752760880909800,-0.9151839499209076,0.0631371319144964,-0.6409658075727522,-0.0477340896386885,9.708199562641978,-1.3852777155905962,0.0372943505644798,2.208984136581421,0.4140898585319519,-0.3195558106796418,-0.3651428336681123,-0.6612867870845152,-0.5720618203835576,-0.216009110212326,0.0193420685827732,0.0922189205884933,-0.0997229415118694,-0.0390899013727903,-0.1153396128386259,-0.074839062988758,-0.0153879849240183,-0.0411021179780364,-0.0931722149252891,0.0545700503056868,0.0031940017060056,75
1724752760920651500,-1.3033452823132277,-0.0291173734128475,-0.2445649815581738,0.4341002959422766,9.691665776470304,-1.4330226325839757,0.2698801159858703,3.612424612045288,0.9814643263816832,-0.2629271809931895,-0.3353227132795809,-0.6786917566382924,-0.5981684469724932,-0.1776420027017593,-0.1630685925483703,0.0316541716456413,-0.1457604700654745,0.3713742290467023,0.9861229146927596,-0.0621153824031353,-0.0474487990140914,-0.1340432903952896,-0.1012498214840889,0.1098555645375046,-0.0412021488529862,76
1724752760960394000,0.7495245280995965,0.6370423505187034,-1.0723249881133436,0.8954415769662708,9.669395492473244,-1.3679644694790245,-0.2904474437236786,2.7950379848480225,0.4709693491458893,-0.2126367968867104,-0.3094919157644573,-0.6884486411393094,-0.6205148412191374,-0.7122662663459778,-0.0140418270602822,0.0690322369337081,-0.1812123071968555,-0.3528618362784385,-1.0051607926398516,-0.0461825020611286,-0.0898284614086151,-0.0399272015803027,-0.0925956964492797,-0.0057001250374829,-0.0144094155704893,77
1724752761000135400,-0.8544009068518876,-0.0967401263087987,-0.968884998839721,1.2708426503762602,9.672352004191278,-1.0004955042425543,-0.8044829368591309,3.5263659954071045,0.6603143811225891,-0.1643538373533996,-0.2742653860874562,-0.6897750153903477,-0.6495975072765987,-0.4487709999084472,-0.0681760087609291,-0.1479294300079345,0.3146142309486865,-1.040070193457603,0.5322212090849876,-0.0702272579073906,-0.1034431606531143,-0.1924194732519797,-0.1260192692279815,0.0180289315166999,-0.0849899668176192,78
1724752761079620400,1.1472700467213988,-0.0143207862973213,0.2887526444613933,2.145206148804724,9.568981061565877,-0.0554670722106471,-0.6315485239028931,2.8139960765838623,0.7300974130630493,-0.0638080571260514,-0.2170983548254191,-0.6750528409174167,-0.7022111574234972,-0.8128919005393982,0.0674707740545272,-0.1813879907131195,0.3229261322200298,-0.4734107081979513,-0.0411924996752291,-0.1373415291309356,-0.1910565793514251,-0.219264280356653,-0.2022905051708221,0.1337786115771159,0.0327152243748772,79
1724752761119361800,0.4892975747682154,-0.2261789916485548,0.6878980930089951,2.376860941515863,9.509096209445596,0.3130279116053134,-0.3450285494327545,1.6455292701721191,0.5975223183631897,-0.0291520473889792,-0.1959658065569088,-0.6675607999084983,-0.7177116516743646,-0.3011916279792785,-0.035241175442934,-0.0221474058926105,-0.1478051276355981,0.0531184267252683,0.0706762952476739,-0.1624539643526077,-0.2699972093105316,-0.1155662520681973,-0.1877925097942352,0.155478511807695,-0.0086088498077471,80
1724752761159104300,1.3721382480323314,-0.1318313134342432,1.5540243628375232,2.5009312655597924,9.463679443138837,0.5953698853068053,-0.2605154812335968,1.784154176712036,0.2499340623617172,-0.0016400580212229,-0.1765842192029771,-0.662165083622644,-0.7282530934899112,-0.1973970681428909,0.1315871775150299,-0.0319949761033058,0.5248346059650182,0.2187193232923746,0.1893160821428522,-0.1661195158958435,-0.2498755306005478,-0.0430362278457731,-0.2129825502634048,0.0942278603600803,-0.0962440224880818,81
1724752761198846700,-0.1320440794020891,-0.4380944801449775,1.418945007392764,2.547643916895985,9.437299970257282,0.7856657357346266,-0.0519242361187934,0.6733382940292358,0.1583478450775146,0.0173361575881432,-0.1612584879924908,-0.6587396256404875,-0.7346817808971708,-0.3355288505554199,0.1751450300216674,0.0547995083034038,0.0563818124353885,0.6070990476757288,-0.6946745283413678,-0.1686914712190628,-0.2269392162561416,0.0510237560009583,-0.2070075571537017,0.0596792830782011,-0.0758810836494201,82
1724752761238588200,0.4201774229213595,-0.2653314368635416,1.3915899674773216,2.548333652725816,9.438716266795993,0.7661843518037349,0.3612562119960785,0.3580343723297119,-0.0652093738317489,0.026015649070189,-0.1536279570279777,-0.6613122708689841,-0.733749158342302,-0.0922637283802032,0.2588136494159698,-0.0179956033825874,0.4200269085347652,-0.1523684900283813,-0.1613473307758569,-0.1498728841543197,-0.1352641731500625,0.0918142324802465,-0.1964853554964065,-0.0123880509693408,-0.0712899108011042,83
1724752761278330600,-0.2135147403866052,-0.1001028807401657,0.0619471184123307,2.500426530908048,9.457093050485849,0.694021982716769,0.1424266248941421,0.0872867926955223,-0.137498527765274,0.0270190403258743,-0.1497802429764028,-0.6649666187198017,-0.7312013211788712,0.0550375767052173,0.1698005497455597,-0.0517447143793106,-0.0995119291096925,0.2004611975461244,0.2507511228471994,-0.1388908326625824,-0.0557778105139732,0.083111130801076,-0.1527625322341919,-0.0161447069389862,-0.0329584334300481,84
1724752761318072000,-0.2787083664394915,0.343522930046916,-0.2413005729347467,2.444413405654579,9.474798803046346,0.6507086914952844,0.0777579024434089,0.0331734381616115,-0.1137816309928894,0.0264205964606473,-0.1466323108504565,-0.6673245507310076,-0.729711517786443,-0.0013316893018782,0.0715305432677269,-0.007038626819849,-0.4535878173530101,0.013903437668085,-0.0212906253099441,-0.1155102625489234,-0.0295640546828508,-0.025310256764444,-0.1137213557958602,0.0556040649619651,-0.0409728792749112,85
1724752761357814500,-0.3438737893112004,0.0815881498843431,-0.1380751762598752,2.4353585770614443,9.477261978289484,0.6487886832181364,0.0290503334254026,0.3819514214992523,0.0872107148170471,0.0291844785584494,-0.143475592587892,-0.6680836306019429,-0.7295391150726327,-0.1211864575743675,0.0784335136413574,-0.0232329107820987,-0.1649322035253047,0.2430190672904252,-0.0939963805586099,-0.0864169150590896,-0.0594403743743896,-0.0698766693025827,-0.0976004227995872,0.0218419778656796,-0.0950761203530244,86
1724752761397557000,0.098140348495543,-0.0465308650285005,-0.2899913194108754,2.470538465383649,9.465019751831887,0.692965313270688,-0.0495929457247257,0.3472355902194977,0.1064817830920219,0.0350478181372086,-0.1403670073044773,-0.6670574978479057,-0.7308234694745306,-0.2900178432464599,-0.0455843061208725,-0.0604579113423824,-0.0890869812071323,-0.2367442248046398,0.0906132409263402,-0.0579216554760932,-0.0735775604844093,-0.0688575736542232,-0.1236402168869972,-0.0471768393484177,-0.1087869489253032,87
1724752761437298400,-0.052839317522943,-0.1382967100560665,0.3407733390778303,2.501658703051507,9.452638993686437,0.7481396496124565,0.038247138261795,0.425935298204422,0.1265204846858978,0.0425134910213737,-0.1355049282685097,-0.6659533819748783,-0.7323504372331056,-0.1543097794055938,-0.0363468155264854,-0.0918317437171936,0.0787163938403129,-0.0137999772936105,0.2727320319762453,-0.0346575304865837,-0.0951388180255889,-0.0226967520810896,-0.1336479634046554,-0.0300662899018265,0.0493245919668348,88
1724752761477041000,0.030957156060636,-0.0273421804338693,0.4935252024006098,2.5308383280456064,9.4441850535959,0.7566969039469957,0.1309426128864288,0.2742963135242462,0.0890261903405189,0.0493600411582651,-0.1312995060763428,-0.6664680286178323,-0.7322187533337664,-0.0519748926162719,0.0439516492187976,-0.0806639790534973,0.1054109240204095,-0.0218529353678226,-0.0903513751197606,-0.042284570634365,-0.0816289335489273,-0.0148008203326491,-0.1275010854005813,-0.0295492802903987,0.0272411494784988,89
1724752761516783400,-0.1518047186657786,-0.0001782791763544,-0.0874205092996358,2.5606708639904854,9.438420498719813,0.727719815787673,0.13955619931221,0.3835692703723907,0.1319680362939834,0.0551955824140183,-0.1281859694432724,-0.6681803446950152,-0.730791945603149,-0.1534786075353622,0.0871837586164474,-0.0943501591682434,-0.0312613997042179,0.0220873286455869,-0.0898795563569292,-0.0438198968768119,-0.0774015858769416,-0.0444386374230263,-0.1405589133501052,0.0154901017880416,-0.0612107258626027,90
1724752761556525000,-0.3812099788844585,0.2140139220803976,-0.2723047830075025,2.6202374439418312,9.42174993442595,0.7316918612238019,0.1131269410252571,0.6387561559677124,0.289532721042633,0.0651369556122877,-0.1232985068354243,-0.6689481110063815,-0.7301117039579097,0.0567177645862102,-0.0061756484210491,-0.1067660227417945,-0.2095452522337436,-0.1255143853724002,0.2236830466469749,-0.0366157665848732,-0.053407710045576,-0.0505644085606327,-0.1663576960563659,0.0302010313305538,-0.0755159538311883,91
1724752761596267500,-0.3110729050800204,0.1348252345532178,-0.5264063853263855,2.7344538979694244,9.38481984143555,0.7863270491875708,0.0461739152669906,0.8933798670768738,0.429010808467865,0.0810110467093724,-0.1167806251340841,-0.668035002801775,-0.7304305264091194,-0.0338430255651474,-0.0309777744114398,-0.1085088551044464,-0.2767383815407753,0.0694996526837348,0.0264998843908309,-0.0477714575827121,-0.0501351058483123,-0.0718306985803414,-0.1818069964647293,0.0383689529873663,-0.0580097606970928,92
1724752761675751400,0.2088926335439085,-0.2601204242169856,-1.118954418145493,2.9620778277292845,9.294939079502225,1.0002917983639985,-0.2658078074455261,1.0826112031936646,0.3034820854663849,0.1167640767806272,-0.1004951496899703,-0.6624953107877052,-0.7330530764400927,0.1054088696837425,-0.0252272095531225,-0.1034845411777496,-0.1343038410276174,0.121615039846301,0.3310520824652165,-0.0631933286786079,-0.0157295055687427,-0.0821282115777954,-0.2132602930068969,0.0512638392339926,-0.1236865762901958,93
1724752761715494000,-0.1314949210867285,-0.0393301398694515,-1.0474791545398532,3.030423926463723,9.238899212372305,1.276574179765582,-0.4612386524677276,0.917029619216919,0.3474796414375305,0.1337164026121733,-0.0907963933603987,-0.6531989318464171,-0.7397344084951865,0.1259149461984634,-0.0169648081064224,-0.1100371852517128,-0.070767480662465,-0.4397796567529439,-0.3553571236928924,-0.0707657039165496,-0.0003908616490662,-0.0561946603994118,-0.238370880484581,0.0306543280560057,-0.0982840495488606,94
1724752761755235000,-0.3713312666878104,-0.378269833779335,-0.299843508926779,3.134239690247178,9.163193106263876,1.5436312713779508,-0.2114566564559936,1.3652328252792358,0.6118502616882324,0.155032675366893,-0.0804969899932801,-0.644062838745622,-0.7447603837652236,-0.1517693996429443,-0.0153338862583041,-0.1330379694700241,-0.3794692726969719,-0.1237771863162517,-0.231680548206903,-0.0643748790025711,0.0129879163578152,-0.0489781257498776,-0.2710162401199341,0.077183887043409,-0.1112269350891001,95
1724752761794986800,-0.7479974646627903,-0.5304296494930982,-0.597925415008515,3.300515709596872,9.061719521692394,1.778266687335074,-0.2140218168497085,1.1769757270812988,0.7408530116081238,0.1810466135859689,-0.0711809632303715,-0.6358198643964696,-0.7469193932552822,0.0029376242309808,0.0295667946338653,-0.1371016204357147,-0.4037292692065238,-0.4946189159214496,-0.2960650133013725,-0.0632615834474563,0.0224973354488611,-0.0435036992270499,-0.3159792721271515,0.0679819461637409,-0.0845662523796781,96
1724752761834729500,-1.0889952601462602,-1.1940683305144308,0.0026003917567431,3.5077371950581666,8.934671350881457,2.0094271206580103,-0.1335855722427368,1.2958804368972778,1.0262422561645508,0.2091835582395391,-0.0637184620148556,-0.6272859713565627,-0.7474586279275538,0.0186601281166076,0.0172361992299556,-0.0450306832790374,-0.6905728651762009,-0.371872826218605,-0.5483142657518386,-0.0805960595607757,0.0428175367414951,0.0043474871566431,-0.377183735370636,0.0336955246660974,-0.089025378079852,97
1724752761874471400,-0.7072250170305371,-1.1137614526122808,-0.4477607186347246,3.815796597535908,8.748571271643042,2.252240436243265,-0.330355167388916,0.8875737190246582,1.1847898960113523,0.2390556535545961,-0.062872799421598,-0.6174258726901813,-0.746782936490605,-0.0817996338009834,0.1906541585922241,0.0377255156636238,-0.3009118688106537,0.067255673149228,-0.8922960454821586,-0.1032496318221092,0.0872457474470138,-0.0786078188993036,-0.448947012424469,0.0585888711927225,-0.0599595339248422,98
1724752761914214100,-0.2828378674596548,-1.3068746254831551,-0.184678522002697,4.200649609097838,8.508333944025635,2.476528645709157,-0.3681834042072296,0.6550766229629517,1.368991136550903,0.2653103819469385,-0.0711981306003507,-0.6071762602196962,-0.745572463961523,-0.0473705530166626,0.2595907151699066,0.1548556685447693,-0.4546943172901868,0.7223258477896451,-0.4536463060745969,-0.0998569950461387,0.1040749922394752,-0.0865317985652945,-0.4693136811256408,0.0985754154445603,-0.0410909983624005,99
1724752761993698800,-0.6385083314180374,-1.1127589975714682,0.5215180287629365,5.128085357022285,7.803654812085628,2.9960131228178737,0.0145795159041881,1.5633161067962646,2.1202306747436523,0.3415311077469221,-0.0851050661701335,-0.5830977367057932,-0.7321957871680086,-0.2378390282392501,0.1730164736509323,0.2940114140510559,-0.0367395388543605,0.2613163560032844,-0.0892769508212804,-0.0853869765996933,0.0609184503555297,0.0242911633993731,-0.435323029756546,0.0134147476855549,0.05468370784719,100
1724752762033441800,0.3294721928626298,-0.8037965087741613,0.5411778380006551,5.5755269267052405,7.356127902206778,3.312289734020829,0.2600134611129761,1.6848467588424685,2.0793356895446777,0.3921609092019864,-0.0851254330285645,-0.5690991815785514,-0.7176974385480132,-0.3635184168815613,0.0592227466404438,0.3743169009685516,-0.3284334974646568,0.5430751960545778,-0.177740868226625,-0.1053138971328735,0.0452183820307254,-0.1396735422340687,-0.4398156106472015,0.1103088612629566,-0.0639702400040812,101
1724752762073183500,0.8710755627989768,-0.9046569298833608,1.413853237211704,5.877430729162692,7.0236378228276966,3.506381104274094,1.0144100189208984,1.5616759061813354,1.6971105337142944,0.4369328562973037,-0.0778464221361933,-0.5613949182907371,-0.6984735947306747,-0.3807826042175293,0.1465733051300048,0.2990944683551788,0.4339806150853633,0.4082885399460792,0.0321978037714958,-0.1253141611814499,0.058289561420679,-0.0343250022256514,-0.4443336129188537,0.034350129817042,0.0051437783586879,102
1724752762112926500,0.447567826411128,-0.5413362434327602,0.2564975575447082,6.145315357640385,6.771797151178121,3.5423519968435166,1.112707495689392,1.523063063621521,1.7060273885726929,0.4789580584437954,-0.066261858419828,-0.5612483263926763,-0.671720884731597,-0.3653554320335388,0.0570322424173355,0.3632993996143341,0.130664023220539,0.3187625827997922,-0.2742822022940032,-0.1531786620616912,0.0321267582476139,-0.1232502489658538,-0.4127178490161896,0.0827030431905295,0.0160118012743187,103
1724752762152669200,-0.7099976966142654,-0.6307119784533977,0.4857540569424629,6.43363662494719,6.45161476470828,3.6270348978728055,0.7227592468261719,1.4544495344161987,2.0733461380004883,0.518949720580436,-0.0595223277252811,-0.5581485229443629,-0.6446848864490929,-0.2376510202884674,0.0343432277441024,0.3187803030014038,0.4850426938027143,0.4093272353440523,0.165662855887413,-0.1756514906883239,0.0379134900867939,-0.1634411247173324,-0.4011908173561096,0.0421329314636532,-0.1239019086744636,104
1724752762192411000,-0.8292465918511152,-0.3063730568259954,0.0044224926173686,6.69982906255424,5.924217614778876,4.023223542441428,0.5705919861793518,2.424011468887329,2.582156181335449,0.5723919247675899,-0.0524546621732476,-0.5404823713561182,-0.6144061186370591,0.1039119064807891,-0.0866713896393776,0.3096112906932831,0.6590051760017871,-0.2857353424668312,0.775909553939104,-0.1870681494474411,0.0095866043120622,-0.0954904459081124,-0.3152425289154053,-0.0036856262852496,0.0114554588524333,105
1724752762271896800,0.770575791695714,0.4202303221523761,0.2836445076674223,6.807371153384446,4.7747380753144615,5.19922634717226,0.6389769911766052,2.4773690700531006,2.3867557048797607,0.6863561864821339,-0.0275837258313145,-0.4838929358888795,-0.5422194316414544,-0.001353527419269,-0.0560986287891864,0.1861548572778701,0.5675736774951219,-0.0441442621529102,0.9553986906051636,-0.1162140965461731,0.0245401300489902,-0.1468502289304044,-0.2521248459815979,0.1100409949738532,-0.3240361027559265,106
1724752762311638500,1.3559855701327324,1.162062834444642,-0.7437175953865051,6.728036335384846,4.289534053470194,5.70121082342565,-0.0729544386267662,1.699733018875122,1.6370365619659424,0.7263531372973762,-0.021618732324052,-0.4570030377034637,-0.5129248291523313,0.2091278135776519,0.037612896412611,0.1727025806903839,0.9274889394164084,-0.4783084171116352,0.2110007300053723,-0.1192938908934593,0.0513783507049083,-0.0909391575456131,-0.180264338850975,0.0213858224628609,-0.2147519905639812,107
1724752762351381200,0.2806470794171095,0.4053852197200059,2.1440648698151112,6.541330691468716,3.902082842108607,6.176983584579825,0.6068041324615479,2.164722204208374,1.7894819974899292,0.7598492492765387,-0.0139711303636677,-0.4299608178989489,-0.4874090867479461,0.1524280458688736,0.0318762883543968,0.1820698529481887,0.5863076040595769,0.191362529811263,0.2899193318868987,-0.1282884627580642,0.06172975897789,-0.1832570378322154,-0.143428236246109,0.1116659018951002,-0.2747184930857271,108
1724752762391124200,1.3134709550082684,1.1869982459977269,0.5709200653135776,6.29186025608182,3.632679333500564,6.586845072931051,0.297919899225235,1.7113009691238403,1.2906789779663086,0.791216719200676,-0.0004736004250514,-0.405171738428758,-0.4580522298163997,-0.2592463493347168,0.1073247045278549,0.2996808290481567,0.3753460552871227,0.8134674234390258,-0.2117331359331496,-0.1225937381386756,0.027439696714282,-0.2114562552205287,-0.103198230266571,0.1313050884698983,-0.2552694770544767,109
1724752762430866200,0.7498299407869577,0.6362663977101445,1.7462410252600906,6.050151102346182,3.447044241425395,6.9053557267963885,0.5554797649383545,1.3608897924423218,1.03764545917511,0.815004700292259,0.0111999343081101,-0.3844468599409926,-0.4334079995447187,-0.1346732378005981,0.0434426106512546,0.3186064958572387,0.4663952764779329,0.3214432001858949,0.3987660938411951,-0.109829381108284,-0.0088314805179834,-0.1985814299478195,-0.074665680527687,0.1368777923020068,-0.2422293782174587,110
1724752762470609000,0.7084750170916319,0.6187365862384439,0.8072913651525974,5.852984270170331,3.4255189305767413,7.083698031514882,0.926500141620636,1.0045475959777832,0.9096781015396118,0.8367173987025012,0.0306190910015822,-0.3713413310961304,-0.4013378734396781,-0.2438031882047653,0.1098791062831878,0.3245494067668915,0.3349719593226909,0.6339157429307699,-0.0532575520681683,-0.1064269617199897,-0.0191857200115919,-0.1579748221354558,-0.0985753759741783,0.096565381663246,-0.2369605161701329,111
1724752762510352000,1.0415858587175606,0.9071955084502696,-0.3685521573632955,5.714701588639617,3.502924241818488,7.158358427962661,0.6116706132888794,0.7998040914535522,0.5195204615592957,0.8509037910672772,0.0492341691757726,-0.3641445985685667,-0.3754164829488085,-0.0152746699750423,-0.0214405674487352,0.30304154753685,0.1077273842692375,0.0685614950507879,0.1378337687194347,-0.1169038489460945,-0.0312730111181736,-0.1905776447775773,-0.0930767804384231,0.1635161627149209,-0.1349159267776645,112
1724752762589836500,1.4342688332527875,-0.2468064768746495,-0.9432429733872412,5.338778025725484,3.574597146888077,7.408784556639194,0.523114025592804,0.1620214730501175,0.1394567042589187,0.8718344834064152,0.0746578956199988,-0.341589391637192,-0.3429978007656925,0.0229779109358787,-0.1069095581769943,0.1645533591508865,0.1376701025903224,-0.1408458100169897,-0.1150660565942525,-0.0824816077947616,0.024649728089571,-0.041026093599759,-0.0752218514680862,-0.0033062133549829,-0.1268805774253793,113
1724752762629579300,1.5253870280265809,0.1431350899979472,-1.433285082912445,5.323077767768502,3.664992288084328,7.375843241024017,0.1223479807376861,0.1310678720474243,-0.0002550598583184,0.8745401512757511,0.0832109968083878,-0.3420710423524265,-0.3335308374245921,0.1271487772464752,-0.121032990515232,0.1141431257128715,0.1534872649252414,-0.0552256281375884,-0.0700555238676723,-0.0907785519957542,0.0501030124723911,-0.0835586736391764,-0.0551969334483146,0.0130296253920649,-0.0918681820240337,114
1724752762669321000,0.6591542290836572,0.5978443125963211,-1.5007880088210106,5.247490904125571,3.63435603454113,7.44484254297018,-0.384479820728302,0.1974634081125259,-0.2383736073970794,0.8773696686529877,0.0840408145979857,-0.3366835231806954,-0.3313667695481428,-0.0363818183541297,-0.0214804094284772,0.1710082590579986,0.1578682564884424,0.0837596487045288,-0.2598141347467899,-0.0908738896250724,0.0524846129119396,-0.1355815967453178,-0.0605496168136596,0.0454999967439565,-0.1387806393817998,115
1724752762709064000,-0.4188812456309795,-0.1994429604142904,-0.2267173363089561,5.130819165900349,3.5742198380082844,7.554470792424678,-0.3167542517185211,0.5032047033309937,-0.1244866773486137,0.8802198218013775,0.0830264779998971,-0.3285358359408614,-0.3322406025245861,0.2379530668258667,-0.0678634569048881,0.1668500155210495,0.1699719512581825,-0.0455295790314674,0.0091132807821035,-0.1024892479181289,0.0085704363882541,-0.1781141767847351,-0.058501623570919,0.0618358400575816,-0.1037682531136088,116
1724752762748807000,-0.196107093989849,-0.2387026653960347,-0.0092547350794076,4.941564422023296,3.5024484410002827,7.712598576632142,-0.3049193620681762,0.5611249804496765,-0.0658434778451919,0.8856979559874593,0.0840420030291741,-0.3157591587186317,-0.3298062525989396,0.4027737379074096,0.0520930364727973,0.1200849711894989,0.449583842408657,-0.2474123338133096,-0.0215121591061353,-0.0967121422290802,0.0031544165685772,-0.1442846984244883,-0.0524622574448585,0.0417433384910225,-0.1004491642940323,117
1724752762788548600,-0.0439735817611217,0.3264157279014587,0.8157692706406116,4.74379144064784,3.4377181946754454,7.864408848255872,-0.203995481133461,0.6737844347953796,-0.0861451476812362,0.8911586523187084,0.0856314955162936,-0.302810167991488,-0.3268172793768552,0.4813659787178039,-0.0640126839280128,0.1124634742736816,-0.2098947963237762,-0.3692231884926557,-0.1161205340832471,-0.0579568706452846,-0.05374451354146,-0.1349583046146668,-0.0357086881995201,0.0804945550945121,-0.1543510056151077,118
1724752762868102100,0.4876648589998483,0.1449120365425944,0.2197510044276714,4.462945623788237,3.44025531193763,8.026029150754212,0.1806342154741287,0.1928665488958358,-0.0257772710174322,0.8996228938054294,0.0944549166981465,-0.2861200013573806,-0.3160576236613595,-0.0404764302074909,-0.1894917339086532,0.1293654888868332,-0.4378033882439136,0.053128363597393,0.0562011951714754,-0.0005271661793813,-0.0937886908650398,-0.1209845781893469,-0.0545486845076084,0.0836733586605638,-0.0288397300818236,119
1724752762907846100,1.560090677139163,0.2209822997882962,-0.6368699165612459,4.325156278732419,3.5274396743938325,8.063533828762173,0.0687286704778671,0.486382395029068,-0.308935135602951,0.901202402248228,0.1017523933114295,-0.2802153638549569,-0.3145789795941631,0.1171134635806083,-0.1336061507463455,0.1567865312099456,0.1335448393538594,0.1645826594352722,0.2101665990024805,-0.0196187887340784,-0.0724840313196182,-0.0771212518696673,-0.0468674339354038,0.0158159773081191,-0.0853481326055247,120
1724752762987336400,0.0155351305231451,-0.009069441640377,-0.4144073150873184,4.140649313904345,3.5526375362753866,8.148875778222084,-0.2072911411523819,0.1393089890480041,-0.1770902276039123,0.902817755174558,0.1055607121724462,-0.270887244501437,-0.3168551448934537,0.541657030582428,0.0818255767226219,0.1328298598527908,0.1500002995923161,-0.2108452289164066,-0.004794833061099,0.0181137099862098,-0.0286060813814401,-0.054056753321574,-0.0151885244995355,-0.0176275601996632,-0.1360280984038021,121
1724752763027080400,-0.8675354059740901,-0.2290793892651796,0.1183165828227996,4.095518086540698,3.499259874092042,8.19465085644722,-0.1600040644407272,0.0795469135046005,0.1032145321369171,0.9047800867456356,0.1042279946967695,-0.2670685709698898,-0.3149347766628474,0.8179703950881958,-0.0235182084143161,0.0488976091146469,0.2022460351362824,-1.109139638030529,0.4600478802125901,0.0248108878731727,-0.0244772881269454,-0.1578389207961037,-0.0134707586839795,0.0821831840348895,-0.1043487198826856,122
1724752763066826000,0.0554933391630649,0.171933022198081,-0.0908814634084701,4.102486756509542,3.3812118790775534,8.240594276976585,-0.3982962667942047,0.0434333160519599,0.1550116240978241,0.907649589740426,0.0994995280289725,-0.2644739400063499,-0.3103637556524654,0.5752648115158081,0.1289412677288055,0.177571564912796,-0.1767211332574486,0.5972603752285242,-0.0429812097229063,0.0261392630636692,-0.0496754013001918,-0.1842680049730464,-0.0247059743851423,0.1170503166134934,-0.1212883834415115,123
1724752763106571000,0.7085659102454781,0.327564021153748,-0.325143223747611,4.073702268312871,3.209120743708312,8.323273144707084,-0.5072308778762817,0.1066054701805114,0.0410026051104068,0.911207774428372,0.0923744886414353,-0.2590330481894017,-0.3067070911060108,0.4435229897499084,0.0832341238856315,0.3061602413654327,-0.2938181111574173,-0.0855494547307491,-0.2982910187877714,0.0210246890783309,-0.0853532403707504,-0.1127769958090037,-0.0233851466327905,0.1016876474472694,-0.058708346553659,124
1724752763186060300,-0.0790662301912903,0.0650076019614935,-0.0693453389048576,4.017228393679857,2.934777440610528,8.450996438300608,-0.2907206118106842,-0.0183603707700967,-0.0882622003555297,0.9156176933786538,0.0802499443159396,-0.2503578160850552,-0.3041795965087582,0.343879759311676,-0.0491336099803447,0.2042960524559021,-0.0383703549265861,-0.0713660310775041,0.3962747154168784,0.0293201170861721,-0.0782395601272583,-0.1095483252192381,-0.0994742214679718,0.1146462420132942,-0.123700513484003,125
1724752763265549600,0.1269242521703243,-0.0051335634961724,0.0032721535384654,3.987062387996912,2.807696244312823,8.508264385920763,-0.1790442168712616,0.1315422654151916,0.1148527860641479,0.9198254595644568,0.0765336100045251,-0.2456457941859966,-0.2961789448123768,0.3976486921310425,-0.196775272488594,0.1281858384609222,-0.262926713809371,0.0259662159055471,0.3987918128043413,0.0459872335195541,-0.0818885639309883,-0.0013307411428628,-0.0757385119795799,0.0515215357555309,0.0214960048390668,126
1724752763305294800,0.3516749645814299,-0.0093532270178198,-0.269834593501687,4.022381538659334,2.735002179501951,8.515315473476052,-0.1911456882953643,-0.2956011593341827,0.01150091458112,0.9215748235368332,0.0736142955206365,-0.2458061893172535,-0.2913076594091485,1.0629737377166748,-0.086649551987648,0.3335218131542206,-0.2111407047316431,-0.1619511418879032,0.1189401215486228,0.0452912636101245,-0.0684956461191177,0.0205868952040909,-0.0719051286578178,0.0378446231525856,-0.0083656441775092,127
1724752763345040000,0.4667074111670255,-0.4145420473828911,0.0063666124224662,4.172507218196988,2.7038477473035454,8.452796765720844,0.0420629680156707,-0.4791077375411987,-0.0387626327574253,0.9209212416086848,0.0705845771839597,-0.2530713517762525,-0.2878833472569568,1.1176828145980835,-0.161054328083992,0.4712278246879577,-0.5050964707940817,-0.2161497650653123,0.1083627595633268,0.0441796258091926,-0.049510259181261,0.0313799252170836,-0.0399199053645134,0.0106921086554764,0.04884830709144,128
1724752763384784000,0.1798287438839673,-0.1071247422009706,-0.4022404919534921,4.257524758008122,2.73176831214726,8.401268238535524,-0.014775613322854,-0.0346152037382125,0.0368615724146366,0.9209275320236444,0.0719335645242074,-0.2578373161005695,-0.2832631895383812,0.7727648019790649,-0.1376052051782608,0.4271979033946991,0.2457841480895876,0.1596867040872573,-0.4050394750222563,0.0469398573040962,-0.0208758264780044,-0.0150127449086343,-0.052884716540575,0.0427091832819161,0.0247039386014803,129
1724752763464274400,-0.4132245350435375,0.1076142792835831,-0.5603361274570227,4.320262369211018,2.507601829364896,8.439055240616202,-0.4672141075134277,0.0553125999867916,0.1184315755963325,0.9241188572195612,0.0616114799326917,-0.2567722066025899,-0.2761816952465338,-0.1716605424880981,-0.1099106669425964,0.3252190351486206,0.2931555555954575,0.9139140030503272,-0.1531327523991465,0.0375224947929382,-0.0490494519472122,-0.0100338388262782,-0.0994606465101242,0.0477648775025969,0.0598274822101229,130
1724752763504018400,0.0143798230081796,0.233217950374633,-0.2457113751143217,4.275730276784301,2.319150510825217,8.515283324772119,-0.5189778208732605,0.137504369020462,0.048319824039936,0.927464564811932,0.0539275561738618,-0.2508648715521869,-0.2719705980210305,0.1739658266305923,-0.177805095911026,0.4224207103252411,-0.1467845524162054,0.2136333983302116,0.0478366869300603,0.0131158409640192,-0.0314759388566017,-0.0113365303391241,-0.0976208820939064,0.0587828593948623,0.0845383871252182,131
1724752763543763700,-0.5640285522341728,-0.089747783203423,-0.1203267536014318,4.311702046136558,2.1595349722780286,8.539087394207716,-0.3801461160182953,-0.3411102592945099,0.0270877629518508,0.9286276637586964,0.0458015672732762,-0.2500598252244325,-0.2702274749773374,0.0072428900748491,-0.0387243777513504,0.5361374616622925,0.0948880687013268,0.542709285351634,-0.6384855350643396,-0.0091752018779516,-0.0270359143614768,-0.0278875827394309,-0.1102144122123718,0.0371364817330963,0.0116638317729521,132
1724752763583508700,-0.926482684983313,-0.2978061578802764,-0.1704512592077255,4.473791719712317,2.043777718549222,8.484017248892783,-0.2306209355592727,-0.4935093522071838,0.1720921248197555,0.9284419609011496,0.0387710976323244,-0.2567728838624055,-0.2656314474719522,0.1566739231348037,0.1073035076260566,0.5363748073577881,0.4130015399426222,0.2300146242886781,-0.2831961793780326,-0.006097178440541,-0.0063401511870324,-0.0682822579842992,-0.1053369641304016,0.005190435649408,0.0089321817442891,133
1724752763623253000,-0.6899088483095168,-0.0070063716307282,-0.3149807261735201,4.6559038983583445,1.932842332018912,8.411721828010677,-0.2048326730728149,-0.4426934719085693,0.2853328585624695,0.9282967939485498,0.0322646989905629,-0.2647272846763047,-0.2591206853159669,0.4541239738464355,0.1162484809756279,0.4747528433799743,0.4809764672771096,-0.3128220868349075,-0.2692617620497942,0.01414180919528,0.0007655776571482,-0.0887413735067006,-0.0747416839003562,0.0165980036644381,0.0101903377123759,134
1724752763662998000,-0.0555652353554964,0.3514735967904329,-0.4206412410408258,4.789051555088162,1.7516827779226003,8.376572773218154,-0.4844812750816345,-0.1930715590715408,0.4093635380268097,0.929956240806488,0.023865548209955,-0.2689685250039683,-0.2495349593698461,0.0824042186141014,-0.0498078651726245,0.1882429122924804,0.4970142866253852,0.0870002380609512,0.7142883795455097,0.0151930656284093,-0.0207042247056961,-0.173942444058042,-0.0672089979052543,0.0636518856367562,-0.0523966609225142,135
1724752763702743300,1.6792597851380704,0.5827624787986279,0.5687403831869363,4.8144133753597735,1.5097697721779346,8.409066929587722,-0.538439154624939,0.1546917259693145,0.1969851404428482,0.9330265255147854,0.0135677729595271,-0.2665948681258421,-0.2412565044098748,-0.0779404491186142,-0.1402010470628738,0.0897544249892234,0.2511348614677787,-0.3832739256769418,0.2112503025859594,0.0022884949576109,-0.0110636996105313,-0.02686848937436,-0.0733797997236251,-0.0318823331977124,-0.0020469962285045,136
1724752763782232600,0.3764274207830428,9.84919384121e-05,0.8343126430690289,4.777989478325844,1.2966609822437167,8.465215517789124,-0.0865891277790069,-0.2384805232286453,-0.12592813372612,0.9363828654333154,0.0052399505857091,-0.2614702167310996,-0.2340790812958549,-0.4936686754226684,-0.1713246554136276,-0.0363702178001403,-0.1209302724525332,0.0829693751096725,0.2306868244618177,-0.0461549088358879,0.0132456067949533,-0.0935644554147496,-0.0317687019705772,0.0202909513146849,-0.0288257974545937,137
1724752763821976600,-0.3012278028920293,-0.3086483082816004,0.623003303772211,4.872207684941589,1.325286188225448,8.406877895110846,0.1439691185951233,-0.3137039542198181,-0.0013031442649662,0.9356700545869742,0.0064098513362461,-0.2670719736194537,-0.2305494116044254,-0.3865669965744018,-0.1261289566755294,0.0857525616884231,-0.1264165949091315,0.2200941187769174,-0.0510056723549962,-0.0378963463008403,0.0116975279524922,-0.1136838815208524,-0.0069484426639974,0.0086922480666602,-0.0321379176772665,138
1724752763861720800,-0.6546136630445718,-0.0431634344220161,-0.4834089551210403,5.052163562336564,1.346357325565815,8.296586797833442,0.0673393607139587,-0.8138917088508606,0.108291707932949,0.9343689850116564,0.0071101401111801,-0.2773828453923888,-0.2235236560951294,-1.017404556274414,0.0061412584036588,0.1330802589654922,0.0359200391650199,1.0781839432746172,-0.4161581042774021,-0.0231793392449617,-0.0058986539952456,-0.1162412926523946,-0.0064877006225287,0.013355503195431,-0.1160055842003785,139
1724752763901360400,-0.5935673659294843,-0.1800694207720458,-0.4062088110625743,5.362068884941936,1.3485894685320556,8.099377295559645,0.1080178171396255,-0.8315019011497498,0.2333476394414901,0.9307629295503104,0.0054331203428506,-0.2949867346192822,-0.2159486343448868,-0.8426018953323364,0.1642438620328903,0.1457477807998657,0.0293602422580122,0.0904646993011236,-0.2321341006606817,-0.0159288179129362,0.0145405167713761,-0.0582764670755714,-0.0039367475546896,-0.0020708902732119,-0.0541102051084395,140
1724752763941101600,1.2538497222602367,0.4627957906812429,-0.9240595494896172,5.511565034404397,1.2637228814989327,8.012243201985955,-0.2359851449728012,0.0133297927677631,0.323023110628128,0.9308776560398376,0.0026454356484239,-0.3024603956757797,-0.2048842041029218,-0.2859985828399658,-0.0642224997282028,0.1649135500192642,-0.2992182166352868,-0.5548609109163284,0.7314741998851298,0.0006274550687521,0.0398009493947029,0.0310682791517581,0.0262497644871473,-0.0068051716614456,0.0566334856415167,141
1724752763980841700,1.6729425648152827,0.6969551135592162,-0.3128881378084421,5.458187079960108,1.1015391729641706,8.072495718374848,-0.5249448418617249,0.2602737545967102,-0.0526276938617229,0.9334555903058132,-0.0037314326087568,-0.2973269822437971,-0.2006074090660221,-0.5079954266548157,-0.1097209453582763,0.0333399549126625,0.3788593241050839,-0.0612345131635665,0.0634719168268144,0.0022002782206982,0.035435389727354,0.0038320404562837,0.0328314043581485,0.0248223179838736,0.0559418638152768,142
1724752764020583000,0.1714139667600393,0.2347106000851839,0.3860965818822384,5.398097645178437,0.973313775067404,8.129180897670985,-0.3325893878936767,0.1141210868954658,-0.0354542694985866,0.93522578823052,-0.0093106796145846,-0.2923019435796081,-0.1995634335687358,-0.1075023338198661,-0.0452439039945602,0.0158709492534399,0.3716428168550133,-0.2785597517490387,-0.0850252847261726,-0.0088844746351242,0.0662707239389419,-0.0317196237665368,-0.0002876766957342,0.0123141637492226,-0.0442780309006804,143
1724752764100064000,-0.6111094523608684,-0.1681023579940199,0.3831307178139686,5.384698065379261,0.8639170693464576,8.150401964876055,-0.0675095915794372,-0.0739729031920433,0.0646795406937599,0.9369251448687212,-0.0131677680593659,-0.2902959766771075,-0.1942318567939918,-0.4649494290351867,-0.116228386759758,0.0541945695877075,-0.0395236166149377,0.3135030548363924,0.1591208868980407,-0.0375883392989635,0.0309423450380563,-0.1568958677923306,0.0144368652254343,0.0710406304814619,0.0120150301055982,144
1724752764139805200,-0.229863817641139,-0.138152040888369,-0.0041255554974079,5.434110038802028,0.8242404541268944,8.121666284257174,-0.029262650758028,-0.1958975493907928,0.1472260802984237,0.9374691456931182,-0.0138009365551683,-0.2927794439115667,-0.1877267074822868,-0.3168206810951233,-0.0854115039110183,0.1098837330937385,-0.0715390495568513,-0.0067301850378513,-0.0766957016676664,-0.0449545383453369,0.0149899572134017,-0.106778997503221,-0.0117718446999788,0.0377245221705641,-0.0372956269507179,145
1724752764179546000,0.1790630202084779,0.0679011314459145,-0.3397486722052097,5.463322689282894,0.7709673482965678,8.107287045770883,-0.1046100184321403,-0.1710618585348129,0.1699708551168441,0.9384256751485928,-0.0147737417715325,-0.2939815107528384,-0.1808700614238135,-0.4045808911323547,-0.0971578583121299,0.1067599728703498,-0.0535281765699386,0.0418920993119478,-0.1383295163471251,-0.0545634627342224,0.0153465270996093,-0.0808454508914146,-0.0306841600686311,0.0171150144175102,-0.0118931036343157,146
1724752764219287000,0.5501128396064042,0.1760912378560751,-0.2501367903411388,5.481928605553508,0.676992887308821,8.103118235653639,-0.1950566321611404,-0.0227000210434198,0.1270840018987655,0.9395296301519732,-0.017878283979727,-0.2941705306682889,-0.1744369468036351,-0.3179242610931396,-0.0827289596199989,0.093345433473587,0.0005143792629241,-0.0744330174326896,0.1043458520721644,-0.0504863001406192,0.0174715351313352,-0.0920778975182678,-0.0383633337914943,-0.022481944853207,-0.0542143915686989,147
1724752764259027200,0.5381564443528651,0.1962394151326268,-0.2176023019611835,5.487899496656656,0.5978874941509217,8.105299671345948,-0.2043739259243011,-0.0102141331881284,0.0543018504977226,0.940460733279485,-0.0205929855306988,-0.2938037804745522,-0.1696733508442945,-0.0468853265047073,-0.2386451065540313,0.1130909100174903,-0.4281692984580993,-0.267956524670124,0.3626017245262861,-0.0470260418951511,0.0048738988116383,-0.1066231767538469,-0.0504441447556018,0.046473161758203,-0.0411882162257563,148
1724752764298768400,0.4454278917729854,0.0159048406183719,0.1940367174565792,5.531397277599573,0.5602000069219619,8.078378931194543,-0.0918366089463234,-0.1174365580081939,-0.0239831935614347,0.9403290647234324,-0.0219869653554973,-0.2960301936417731,-0.1663250398187114,0.0703456923365593,-0.3953968584537506,0.1315689235925674,-0.2654933494269847,-0.0170084179461002,0.4859621467351913,-0.0498913936316967,0.0058045550249516,-0.1066231767538469,-0.0392889678478241,0.046473161758203,-0.0411882162257563,149
1724752764378249500,0.0176321028023958,-0.056285293258354,0.1036883380115032,5.649293589183688,0.556374238088727,7.996644066315889,-0.0028145676478743,-0.1795190870761871,-0.0065225167199969,0.9393912340430088,-0.0210749522607426,-0.3030519062646642,-0.1589325627386416,2.0866503715515137,-0.5732027888298035,0.479965329170227,-0.0478647439807653,-0.3578805412232875,-0.0419534741103649,-0.0264724381268024,0.0081131132319569,-0.1022756856014486,-0.0450929626822471,0.0801686841410119,-0.1302135943056084,150
1724752764419232300,-0.0706055680990219,-0.0475489560298621,-0.0335118089795112,5.687253609743714,0.5542219919582828,7.9698413995862,0.0076650138944387,-0.0766890347003936,0.0624975562095642,0.9393956221532248,-0.020156653137456,-0.305360236466231,-0.154547069997107,3.504180669784546,-0.468256801366806,0.7602408528327942,-0.0387445950664579,-0.7855413056373596,-0.4870759531959891,-0.0241180974990129,0.0151565195992589,-0.1122814765101764,-0.0334489792585372,0.0874300169134978,-0.0671712097361683,151
1724752764458973400,0.0847393073916435,0.0498839017834514,-0.2248012735545635,5.695760741326213,0.5301114869220181,7.965404878443479,-0.0585417002439498,-0.0521357506513595,0.0559176802635192,0.940003113878233,-0.0200526841371896,-0.3057372408351886,-0.150056135334039,2.304069757461548,-0.1533306390047073,0.7092582583427429,0.4073819464951753,0.8181529509067534,-1.447447756038606,-0.0338729582726955,-0.0117732184007763,-0.146422605502326,-0.0217391178011894,0.0900252301716245,-0.0627051200056681,152
1724752764538454800,0.1566658949613571,0.1932961647549644,-0.1424351250350475,5.7029930306673045,0.4802226897677406,7.963394123142957,-0.0843522101640701,0.0145684769377112,0.0362005531787872,0.9411967450604224,-0.0201427293388233,-0.3058989679418601,-0.1420168731722996,-2.0268259048461914,0.0047582788392901,0.0501980297267437,0.5438038025900721,0.1646124700516462,0.1136129351764917,-0.0112885273993015,0.0057924133725464,-0.1240094515690114,-0.0143257826566696,0.062090691601485,-0.1010296310631092,153
1724752764578195700,0.0037450317472219,-0.0775211196411401,0.0143336457788944,5.704031726065278,0.4486223769653588,7.964493024295568,-0.1265312880277633,0.0663424432277679,0.0357384793460369,0.9416679720008714,-0.0208623675669175,-0.3057591114042643,-0.1390597959015619,-2.9653682708740234,-0.2885134220123291,-0.1848872601985931,-0.1108471237249672,0.7603378907978534,1.1915844047442077,-0.0015630375128239,-0.0228179302066564,-0.1125931180089246,-0.0101246880367398,0.0699327331716427,-0.0593860311860917,154
1724752764617936000,-0.0158025492876768,-0.1884627167165279,0.2719973244935273,5.689162073713541,0.4238425578327849,7.976476307556033,-0.0237176250666379,0.1182325556874275,0.1213609874248504,0.94256695365316,-0.0207589016887085,-0.3047654379141416,-0.1351091902401613,-1.585915446281433,-0.3914945721626282,0.0441896766424179,-0.2906847815677523,-0.8754588924497365,0.612693506681919,0.0011898148804903,-0.0233339555561542,-0.078451989016775,-0.0018512685783207,0.0673375107803614,-0.0638521209165919,155
1724752764657677000,0.5203337874144316,-0.0802512752573937,-0.0360626625061035,5.698005889904499,0.4212753011606633,7.970297326660156,0.0568236708641052,-0.0983857586979866,0.015066877938807,0.9429684306699164,-0.019669234999794,-0.3053539878344733,-0.1310823884297368,-1.7906131744384766,-0.3092180788516998,-0.1934280842542648,-0.4967972828738391,-0.2623001063436269,-0.0636345600426197,-0.0012713047908619,-0.0293070767074823,-0.0791033381981309,-0.002327078487724,0.0728465108596486,-0.0514966707423329,156
1724752764697418000,0.0097170918941497,-0.1526664135290309,-0.313845000141859,5.738012906122207,0.4226127603095024,7.941472798714042,0.0057424185797572,-0.1666134595870971,0.0176131166517734,0.9426396793590552,-0.0188724430068336,-0.307800892375694,-0.1278006963752405,-0.2931891083717346,-0.2423200011253357,0.1955553591251373,0.5148268605612218,-1.5450076742976904,-0.7222270635902881,-0.0008450768655166,-0.0098212305456399,-0.0380012202200945,-0.0086307954043149,0.0182764525624515,-0.0546906718775164,157
1724752764737159000,0.0806798028677701,0.0911209347201511,-0.098578447651863,5.776584921100735,0.3977451532956212,7.91474904243946,-0.0303617995232343,-0.0144824748858809,0.062069933861494,0.9424632510900264,-0.0191708449791611,-0.3099880449628468,-0.1237053387687411,-0.0621939748525619,-0.3579230308532715,-0.0590263940393924,-0.0112437169395387,0.6524135226517915,-0.0038537893513217,0.0159892011433839,-0.0120560973882675,-0.1042297240123618,-0.0355811566114425,0.0966956661125645,-0.0931472346496768,158
1724752764776899000,0.0910036284834146,0.098426618091017,-0.1445627847135067,5.793345501765608,0.3660485039792954,7.904020143154263,-0.0542486868798732,-0.0492006838321685,0.0488986559212207,0.94267047950683,-0.0197225131933991,-0.3108345805562634,-0.1198551024939916,0.3579071760177612,-0.0180056765675544,0.0409796312451362,0.7604898664891719,-0.1777034222930669,-1.0015034391760826,0.0107491705566644,-0.0160636659711599,-0.0603863262358587,-0.0543750412762165,0.0057074435483693,-0.0131512607440468,159
1724752764816639200,0.1644721847981214,0.1065552717499434,0.0898281549632549,5.798287049821019,0.3398137367980554,7.901568073827028,-0.0637947395443916,0.0467208214104175,0.0428624525666236,0.9429980995403964,-0.0201208620082744,-0.3110101167032384,-0.1167152162787423,1.1127690076828003,0.2446754872798919,0.0204548500478267,0.4944182787828147,-0.6630956601858139,-1.0082043981194495,0.0147513318806886,-0.013662239536643,-0.1137119385715574,-0.0491018146276474,0.0491958007882814,-0.0353528177532949,160
1724752764856380200,0.1444330208539962,-0.0062445204127579,0.1374795484542846,5.795581297993659,0.3352977206783369,7.903746002388,0.0098237469792366,-0.0428581088781356,0.0064545962959527,0.9434024206152526,-0.0194087701772488,-0.3108768205275082,-0.1138898232475292,1.6810612678527832,0.2683101892471313,0.285962164402008,0.0750384359799325,-0.116342652401328,-0.9130009798586368,0.0268629416823387,-0.0360230430960655,-0.0523626216555945,-0.0314725078642368,0.055476648323168,-0.0423421857335837,161
1724752764896120300,0.0402981081187725,-0.1611053021809086,-0.0346504576206207,5.823550085893273,0.3494991549123078,7.882544224405288,0.0307409949600696,-0.0855710133910179,0.0051391990855336,0.943152384636522,-0.0179684990514075,-0.3126967079777222,-0.1111829118291804,-0.0924368351697921,0.3445791900157928,0.2433977872133255,0.0438251132011413,1.133470361688733,0.0550711682282388,0.0285791549831628,-0.0178301054984331,-0.0066212932905444,-0.004166264552623,0.0289685623595723,-0.0058423653568985,162
1724752764935867600,-0.0697141722172498,-0.1108985981838777,-0.13607085070014,5.848268932086229,0.3521143058467656,7.864104896873235,0.006541057024151,-0.1141856014728546,0.0449838303029537,0.9430224157916308,-0.0169561013038608,-0.3142526508591904,-0.1080112367355086,-2.403249263763428,-0.4701486825942993,-0.4595228135585785,-1.2332269132092597,-0.0281920752614736,-0.0175882636606693,0.0157730970531702,-0.0146433347836136,-0.0443307931343791,0.0381019711494445,0.041611455739662,0.0681861634989501,163
1724752764975608800,-0.0899298617720603,-0.1077078393185511,-0.1754120964854955,5.891978309953212,0.3336606575284153,7.832218643268942,-0.0152586586773395,-0.0463899187743663,0.0894661173224449,0.9425888031438704,-0.0169773735952016,-0.3168276384282594,-0.1042037949636472,-1.624098539352417,-0.3679704964160919,-0.203577384352684,-0.7498176658272743,-1.3979501501590013,3.315989173060655,0.002144846599549,-0.0186551660299301,-0.0739686056581791,0.0386977083981037,0.086650840101391,-0.0202657118421513,164
1724752765015350000,0.2406669512063264,-0.0692041038032621,-0.0966337433248758,5.8657443830221885,0.2795945198905654,7.853996175312996,-0.0661229491233825,0.0452435202896595,0.0978801175951957,0.9436526843498596,-0.0182108310514877,-0.3150016054150725,-0.0998091817074844,-2.576157569885254,-0.8394035696983337,-0.3020861744880676,-0.7325861066497862,1.496883402597904,-0.7546013929724693,0.0212006270885467,-0.0113268140703439,-0.0576251224607927,0.0245148558169603,-0.0075798817901668,-0.0664656552826985,165
1724752765094831600,0.4436503607064485,0.2012932644560933,0.2242243504494428,5.824219947978854,0.1910565143357031,7.887480511763691,-0.0277299843728542,0.0549666844308376,0.0334431305527687,0.9453300264101476,-0.0201410362255852,-0.3121614377561325,-0.0921994006636953,4.522582054138184,0.1192249357700347,0.6190423369407654,-0.6612652298882603,-2.6654303383648394,-1.335029291343689,0.0755499079823494,-0.0157328024506568,-0.1890630389635451,-0.0168977752327919,0.0802397126837633,-0.1570896185324527,166
1724752765134573000,0.0266992063552141,-0.0117566166314296,0.2188257062762975,5.826375664708018,0.2046394513451494,7.885546913352608,0.0563430897891521,-0.053623329848051,0.0006723297410644,0.9454998560937796,-0.0186676850533282,-0.3124108109010441,-0.0898944631163819,0.2888500690460205,0.4381235539913177,0.2309880554676056,0.53286944386065,3.4083494768500326,-1.9109014261066912,0.0619508847594261,-0.0252663120627403,-0.0380211441966937,0.0368289686739444,-0.0048543852243659,0.0818137022685259,167
1724752765174313200,0.0515408021450042,-0.1409937853866256,0.0685328534781932,5.84462969880104,0.2330209482314996,7.871238402014971,0.0851213559508323,-0.0258504152297973,0.0208167098462581,0.9453817029541566,-0.0163135835951355,-0.3137075134049144,-0.0870343379722162,-1.2670120000839231,0.3717483282089233,-0.0168896596878767,0.3394099417701363,-0.2825374232083559,-0.6762094087809324,0.019567422568798,-0.0094456765800714,-0.0549399476305814,0.0574511177837848,0.0370090582444332,0.0102945230309909,168
1724752765214055000,0.0689221450567245,-0.1197705079581588,-0.1075637181401252,5.845653781151771,0.2433712234626524,7.870164050781726,0.0181913990527391,-0.0035434630699455,0.0034734536893665,0.9455761906497284,-0.0149491182360251,-0.3138627342187989,-0.0845720311610574,0.7719581723213196,0.2678076922893524,-0.2132172882556915,-0.2597353704221546,-1.3500275385111569,0.3477688970535993,0.0017348931869491,-0.0124070476740598,-0.0067490655515459,0.0585891231894493,-0.020283631091332,0.0012651228525239,169
1724752765253796000,0.136727268782258,-0.1829544381564483,-0.2221703405290842,5.8661348436445,0.2489446396808139,7.854735595503449,0.0490475818514823,-0.131387174129486,-4.03207959607e-05,0.9453650347808276,-0.0139935706997705,-0.315157274278142,-0.0822499726021111,-0.8592658042907715,-0.343274712562561,-0.346456378698349,-1.1555661659017205,0.0182914434939622,2.17313825795576,-0.0012413026997819,0.0174330417066812,-0.0631475254443474,0.0761950984597206,0.0189947694577276,0.040163138361182,170
1724752765293537300,0.2788847459197044,-0.1215120178632438,-0.132305360686779,5.8602972235322,0.2425689123701304,7.859291943633556,-0.0425339490175247,0.0974846556782722,-0.0103178722783923,0.945668980151524,-0.0136003194159244,-0.3148057598865716,-0.080141396527656,0.1085721775889396,-0.3158953487873077,-0.1748420149087906,-0.6416876921065151,0.9147177206486464,-1.0925802790261805,-0.0090191094204783,-0.0207660309970378,-0.1857265149519778,0.082855612039566,0.1193196680512744,-0.0926848869680892,171
1724752765333277700,0.0560977347970008,-0.0485992322677746,-0.0020434885263442,5.844412256658077,0.2196349768325686,7.871784345459938,-0.060783751308918,0.0940162241458892,0.0111413365229964,0.9461392923440356,-0.0142126631393328,-0.3137653552103979,-0.0785473164127645,0.255261480808258,-0.3741881549358368,0.5587424039840698,0.0009971943438053,1.050117540219426,2.4198406899340448,0.033195674419403,-0.0054338444024324,-0.076002440440189,0.0568553805351257,0.0365529051249031,-0.1093813437550328,172
1724752765373019000,-0.3167968356847763,0.1372420316376723,0.2958908257782459,5.836479125571251,0.1991433198805898,7.878212917202711,-0.004748529754579,-0.0001064336538547,0.0036743874661624,0.9464541860531532,-0.0146955082228102,-0.3132203180781811,-0.0768216736160627,-0.3536418080329895,-0.0504172518849372,0.0476680248975753,0.6234514859311282,-0.9575707739472388,-0.4836867491491138,0.0526156425476074,-0.0095988698303699,0.0312521546685486,0.0888645201921463,-0.0385600870787166,0.0559557964425068,173
1724752765416486100,-0.4744774606466293,0.0177148491824045,0.121907885313034,5.845569609999656,0.1884858235974796,7.871732907533645,0.0105690555647015,-0.0267928801476955,0.122323028743267,0.9465121145061192,-0.0143450859462677,-0.3137635083036584,-0.0739024774122937,0.606126070022583,0.0793920904397964,0.0117495078593492,0.2441726212397217,-0.6686258217841387,-2.073267578536272,0.0128758465871214,0.0631099790334701,0.0008152921592147,0.111233077943325,-0.0603947424377547,0.1234712347727734,174
1724752765456226300,0.1040676927179098,0.0536938519930467,0.006926584392786,5.863928858032822,0.1706128612439148,7.858474197509884,0.0215899460017681,-0.0953443348407745,0.0855789557099342,0.94644437524166,-0.0141278785027574,-0.3148487532614467,-0.0700974217215913,0.0464547425508499,0.5317584872245789,0.0599460005760192,0.8956715132646262,-0.560648846668005,-1.0869535251855849,-0.0170845687389373,0.0567754469811916,-0.0489419493247987,0.0811540782451629,-0.0269540624656947,0.031707239208999,175
1724752765495967700,0.1947784757345914,-0.1232416364011354,-0.0865232681989669,5.875120698654651,0.1606509642758406,7.850320117148756,0.0081536620855331,-0.0336489640176296,0.0597550384700298,0.9464356177127312,-0.0137453928545508,-0.3155251529935995,-0.0671897274653414,0.5904783606529236,0.2589231431484222,-0.2207632213830948,-0.0030335224770009,0.8040829245001078,1.056721468529105,-0.0146242156624794,0.0104867704212665,-0.0765459361997433,0.0562387183308601,0.0681832545892335,0.032370995780779,176
1724752765535709000,0.3051204264163971,-0.1313232360479422,-0.2419698504984378,5.888230355596542,0.1642435454077087,7.840418316337466,0.0277265794575214,-0.1097873449325561,0.0024401473347097,0.9463398750210829,-0.0127930157765975,-0.3163641376454578,-0.0647375247499198,-1.2612305879592896,-0.3631964325904846,-0.150883212685585,-1.4525734284892675,0.4794406360119581,2.057190888482332,-0.0287348758429288,0.0177272874861955,-0.0438352692689746,0.0383314900100231,0.0273538252058904,0.0597233003164408,177
1724752765575450400,0.091640757343173,-0.0739910092862322,-0.2259276472359895,5.921546349743008,0.1513536960958037,7.815546909931301,-0.0938092991709709,-0.0145344091579318,-0.0029651727527379,0.9457533223017732,-0.013216151133317,-0.3183447010971479,-0.0635038357433254,0.356656551361084,-0.4876431822776794,-0.273889422416687,-0.7982968884445727,-0.4535083223760128,-0.4095299183093011,-0.0426116399466991,0.0207220502197742,-0.0981238814179319,0.0163929909467697,0.058853892504191,0.0576623674649512,178
1724752765694673400,-0.1834095249801874,-0.0164647212571464,0.1806026508659124,5.863054413285851,0.1014590171900112,7.860323624768853,0.0170531123876571,-0.0605644360184669,-0.0346474200487136,0.9471029962569372,-0.0149132849678072,-0.314662693979277,-0.0613272160819073,0.5761156678199768,-0.0629656389355659,0.3022459149360657,-0.1510926248736679,-0.922435747680068,-0.6507090568214654,-0.0622362680733203,0.0236111525446176,-0.0014304620613809,0.041546132415533,-0.038234211558639,0.0318183919828734,179
1724752765734413600,-0.0304781403720378,0.0422038686748594,-0.0496937129735946,5.879363158529997,0.1071345420757774,7.84805684839189,0.0149468258023262,-0.0603743344545364,-0.0101699093356728,0.9468526591010448,-0.0142621790616614,-0.3156850258756954,-0.0600805301162458,-0.674144446849823,0.6015152931213379,-0.0357824563980102,1.1692017464138569,-0.5940022502154112,-2.0487832717515526,-0.0464704111218452,0.0408791191875934,-0.0632553742995718,0.0318443700671196,-0.0071265850647148,-0.0892337510003708,180
1724752765774155000,0.1763391482025385,0.0212751994119491,-0.173029585263133,5.882487428030371,0.1084606943793129,7.845697718045115,-0.0453553088009357,0.0237372387200593,-0.0402482040226459,0.946830959630526,-0.013982995432926,-0.3158879930797661,-0.0594181791591072,0.7416234016418457,0.4531622231006622,-0.3955684602260589,0.2869064320728182,1.0400479816257953,1.2641466598689557,-0.0254172347486019,0.0348329506814479,-0.10615570537257,0.0309172458946704,0.072719085087697,-0.0528659772010054,181
1724752765813898200,0.0929249519348144,-0.0952199036047328,-0.1140858133852481,5.856666173553466,0.0950701746694278,7.865164050537348,-0.0568073913455009,0.0260502677410841,-0.0198457408696413,0.9473826553785804,-0.0144476770814319,-0.3142920774630322,-0.058972879041053,-0.2629284262657165,-0.2324699312448501,-0.0449679009616375,-1.0562873148955405,-0.4350117116987705,1.1077968451194464,-0.0303623601794242,0.0202640853822231,-0.0923377996966242,0.0630073249340057,0.0671492353663779,0.0765378761908738,182
1724752765853639700,0.2959808421492576,-0.1535182811180129,-0.0683025518536567,5.864449667036533,0.097404234507028,7.859334029209613,-0.0452909357845783,0.0297319628298282,-0.0597077049314975,0.947226823678906,-0.0143488746437919,-0.314769112759413,-0.0589570960443369,2.02175521850586,-0.7879767417907715,-0.1875194609165191,-0.7276957042597234,-0.6935767231673002,-0.1649522234000265,-0.0502412244677543,0.0295041240751743,-0.0277037095059291,0.0738866552710533,0.0053815691699361,0.0109861437155865,183
1724752765893379800,0.1981330468595027,-0.0020135135131888,0.0664747519046068,5.843784480148553,0.0905989384063519,7.874792879626154,-0.079939566552639,0.0835619568824768,-0.0846288055181503,0.947624750523394,-0.0147250966846505,-0.3134971806558749,-0.0592449556127746,3.934476375579834,-0.308027058839798,0.116937980055809,0.1458189222544431,-0.9385521852225064,0.0825932352736592,-0.0400739982724189,-0.0061482065357267,-0.1117859572113491,0.0599805600941181,0.0731723818131489,-0.0756340729186777,184
1724752765933121300,-0.3225906166553497,-0.08595716788196,0.23817981056571,5.848706738981604,0.0911944292146246,7.871130265465378,0.0111825596541166,-0.0651569291949272,-0.0722919628024101,0.9474847747625196,-0.0149315430731376,-0.3137850988161926,-0.0599041564781888,4.202685356140137,-0.3274579048156738,0.0955541208386421,0.0868525001533329,-1.476135213601589,-1.775565903943777,-0.0220679584890604,-0.0099170077592134,-0.0744080291219055,0.094329185783863,0.0199013651919201,-0.0053730502200516,185
1724752765972862500,-0.3435428037911653,0.0544920531660318,0.0981090765744447,5.883126894977688,0.1163940537950024,7.845103843805194,0.0397546365857124,-0.1062211245298385,-0.0500077195465564,0.9467980504222352,-0.013649500489884,-0.3159505025257171,-0.0596858223031258,3.43323016166687,-0.0449511148035526,0.2073954492807388,0.1349967917278409,0.1873971333116292,-1.6751964812219142,-0.0143871456384658,0.0021688609849661,-0.0706838346667354,0.0952938050031662,0.0186023280825291,-0.0788280740538611,186
1724752766012665600,-0.0828372731626033,0.1410706408819649,0.0572363834381103,5.885035358947516,0.1192988535921089,7.843628510555624,-0.0048376596532762,0.0945472568273544,0.0327901728451252,0.9468286151526832,-0.0131260679689722,-0.3160916581035701,-0.0585611322933102,-1.898319721221924,0.1069398820400238,0.0511473156511783,0.5286496342085302,3.516801083740592,-1.1901713230758906,0.0028170412406325,-0.0109037226065993,-0.1103473666424397,0.1062750071287155,0.0477721977259498,0.0322668116038083,187
1724752766052408300,0.1500777487426996,0.2081134475986473,-0.0695177728623151,5.835725676855445,0.1040305938442237,7.880600689122081,-0.0520483329892158,0.0939642339944839,-0.0031183548271656,0.9478869289248982,-0.0134048192286919,-0.3130838499981588,-0.0575256021062714,-2.5863022804260254,0.1781859397888183,-0.1909950077533722,-0.0845581056058406,0.2613625332325697,-0.244313783276081,-0.015180105343461,-0.0105514153838157,-0.0674470401360187,0.1067523136734962,-0.0320734695723513,-0.0041009610539127,188
1724752766092151800,0.1501519830226898,0.0672202821754384,0.0217424607306718,5.824429206815362,0.1005234990387223,7.888999099633097,-0.0452592223882675,0.0476300194859504,-0.0450132526457309,0.9481045465775192,-0.013592971569306,-0.3123911250569801,-0.0576611463897216,-0.5010107159614563,0.6551876068115234,-0.3479071259498596,0.7669757213771343,-2.210843573102355,0.3174064920157194,-0.0396348126232624,-0.0179180018603801,-0.1344827047258615,0.0932201519608497,0.0431060919113224,-0.0263094855184201,189
1724752766131895600,0.3016846067488193,0.1858464698035269,-0.0799000506669282,5.812656935957074,0.1087899628662969,7.897567021492123,-0.0571596436202526,0.0438827984035015,-0.1172123253345489,0.9482833526598544,-0.0133804159575707,-0.3117003427670042,-0.0585022458392813,0.2874771952629089,0.074549026787281,-0.0344970151782035,0.0375572849780321,-2.028774941337109,-0.7165335281237959,-0.0461771562695503,0.0018230146961286,-0.0463646233498118,0.0957061424851417,-0.008486476382715,-0.0209294684139313,190
1724752766171638300,0.2876163339078426,0.0753823449136223,-0.4052244762003421,5.805477253586053,0.1305189065282698,7.902517337375879,-0.1415955126285553,-0.0457643121480941,-0.3030584156513214,0.9481625525044722,-0.0134947655530469,-0.311290289233394,-0.0624813699409457,-0.3707523345947265,-0.2687384486198425,-0.3115152418613434,-0.4967892456978559,3.110919604936242,1.6427707139134406,-0.0150888320058584,0.0149061270058155,-0.0014666373448155,0.1073876097798347,0.0659037333838874,-0.1111157845985144,191
1724752766211382300,0.1387351014733314,-0.1427694715559482,-0.2143202115505933,5.867268816110491,0.1691055984861217,7.856013360354304,-0.152848407626152,-0.3037620186805725,-0.4107580482959747,0.946421245007359,-0.0140297023773626,-0.3150523267596342,-0.0695122458687237,-0.2298066765069961,-0.099865011870861,0.1222650334239006,-0.5969803892433643,-0.4063701391041278,-0.1404401518255472,0.011113098822534,-0.0125900134444236,-0.0373779258061549,0.1246190667152404,0.0532710143379401,-0.0702610244110925,192
1724752766290869500,0.2527507722318172,-0.5624005126409233,0.0741553695350885,6.1402171577185385,0.4741143994878977,7.631732311281562,0.2898908853530884,-0.3772545754909515,-0.9657318592071532,0.9385125914160084,-0.0065705770877098,-0.332936589580069,-0.0911274897391505,2.721741914749145,-0.0856140181422233,0.0025630677118897,-0.2795331268258392,-1.0027958170741795,0.3686468499094247,0.0227227322757244,0.0306685101240873,-0.0824597816197201,0.1308314949274063,0.0106357159928535,0.0206029786892118,193
1724752766330612200,0.7124947741270065,-0.727062740118429,0.489015689086914,6.186247087487578,0.8591926711730659,7.560589567565917,0.6663411855697632,0.3052634298801422,-1.0955969095230105,0.9348208610444134,0.007895469834027,-0.3383118048796198,-0.1076692719947782,4.128463268280029,-0.2909281849861145,0.0062734503298997,-0.1835391427092254,-0.8085627002626657,-0.642128860002756,0.0233013648539781,-0.0067324377596378,-0.1758964642026461,0.1163181662559509,0.0801788584751542,-0.0153303081164485,194
1724752766370356000,-1.1409575025737284,0.822204564385116,-0.479976058062911,6.11296616269946,1.217355901795253,7.571002240508794,0.2154422253370285,-0.2144883573055267,-0.3190777897834778,0.9336734299403766,0.0233884740052387,-0.3368075040809289,-0.119447102807912,3.3682796955108643,-0.1009909510612487,0.0869120359420776,0.3214497760571539,-0.5099842428356409,-1.014528340443969,0.0375995226204395,-0.0146640017628669,-0.0657049320093123,0.1018443927168846,0.0236580211615655,-0.0437045281619299,195
1724752766410099700,-0.2654799054235219,0.1556638052467256,-0.5318108747184276,6.133518536862731,1.1990054946556687,7.557296371239423,-0.118281565606594,0.0634203478693962,0.3176560997962951,0.9334386583340109,0.0226493441698336,-0.3378936765483839,-0.1183522950695075,2.175876379013061,-0.1426592022180557,0.0266085490584373,0.1417110485441982,0.2671510535061359,-1.6049544857382774,0.059800948947668,-0.0160667654126882,-0.0420651086581405,0.1008248180150985,0.0425817620765417,0.0233346298595191,196
1724752766449843500,0.982824457669258,0.1562014192547649,0.2930062102526426,6.18107640685141,1.109732635487616,7.53214264076054,0.0709472224116325,-0.5851812362670898,0.0163225531578063,0.9332474545970304,0.0189574573139002,-0.3400120973510762,-0.1143742195718411,1.1715657711029053,-0.1547708213329315,-0.0628536865115165,0.0077744333937764,-0.1376268479704857,-0.6568477057069539,0.0637077763676643,-0.0112837357446551,-0.0140217040276911,0.1007453650236129,0.0141939199310843,0.007778209953173,197
1724752766489586200,-0.5165092606902122,-0.157987352823466,0.0096913729310035,6.489145161679387,1.2849082928687334,7.239502341210842,0.54155433177948,-1.621224284172058,-0.3895582258701324,0.924746547273654,0.0247341042719345,-0.3609381160795906,-0.1181346857294068,1.180556058883667,-0.1216814145445823,0.0097101926803588,-0.0458826302528381,-0.234414320552349,-0.0892635068178176,0.0586950294673442,0.0035742735490202,-0.0328864162233192,0.1245496124029159,0.0089499491547758,0.1130446611687075,198
1724752766529330000,0.5477268212527037,-0.0728124304935336,0.4651490758091211,7.006428329351544,1.494369666211307,6.69680591534078,0.3704517185688019,-1.88181221485138,-0.5555999279022217,0.9089980316935424,0.0300283333773407,-0.3970594749260849,-0.1231451642920401,1.003734111785889,-0.1377425193786621,0.1104113683104515,-0.24061828975901,0.1661149835690855,-0.4306967711091041,0.0403294935822486,-0.0178026538342237,-0.0986193915836047,0.1431595087051391,0.0731115230379626,0.0661252352140378,199
1724752766569073700,1.935235072374344,-1.3657763117849826,-0.1713981846690178,7.139237547907233,2.011761993346364,6.415176839148998,0.8575995564460754,0.389298677444458,-1.6810358762741089,0.8985507514798768,0.0496795974593738,-0.412854644867655,-0.1403197818424523,0.4849162697792053,-0.0062902709469199,0.2101353108882904,0.0773931824125349,0.6059624448612332,-0.2967506574779748,0.0358693227171897,-0.0388960689306259,-0.0842579992812592,0.1424057781696319,0.0359113307021791,0.0537767490701051,200
1724752766608817400,-1.452617559891939,1.2334509312234818,-0.4935071552872657,7.132112810593843,2.3551582282736896,6.305282047712803,-0.7464883327484131,-0.5247976779937744,-0.992950439453125,0.8910177404031587,0.0567475133973675,-0.4186881878499964,-0.1660343290387225,0.2680630087852478,-0.1437363922595977,0.2815262675285339,-0.2225182771839201,0.5142003992259502,0.3051268561571836,0.0484984368085861,-0.0163134764879941,-0.0298135663829278,0.1543666720390319,0.0131599029915174,0.0519450903632678,201
1724752766648560400,-0.3620072657644748,0.7446992999002336,-0.8857090683072805,6.891294468218088,2.442282531105727,6.535725711068511,-1.04247784614563,0.3547999858856201,-0.6369594931602478,0.8930758300117954,0.0538523503679456,-0.404809402482432,-0.1887987844942769,0.0211738850921392,-0.2796570956707001,0.435133546590805,0.0182017193838953,0.7780211392655968,1.019378703084588,0.0667065903544426,-0.0235341675579547,0.05973498162108,0.1828998029232025,-0.0001984531730588,0.0255067132015945,202
1724752766688303900,0.4557406114727258,0.0264154209777712,-0.4614595736414194,6.705615244740248,2.329478720355034,6.765991095247864,-0.6447939276695251,0.6000759601593018,-0.434632807970047,0.8961668568649688,0.043188301564364,-0.3913633143921338,-0.2045833915098736,-0.4842631816864013,-0.2677271366119385,0.5197284817695618,-0.2942231848269701,1.2962766591012478,0.3360919032633304,0.1062092036008834,-0.0118963159620761,0.0194680792080354,0.1852363049983978,0.0171076941941573,0.0156675726802204,203
1724752766728047600,-0.4247989452421665,-0.1939249276451766,-0.6086369247674942,6.734418145376443,2.2927418118491767,6.749913236150145,-0.4047710597515106,-0.9462142586708068,-0.4212606549263,0.8927188661150374,0.0352513388702563,-0.3932016581947539,-0.2172619646604602,-1.1134603023529053,-0.1538048386573791,1.0478311777114868,-0.5627991565696895,1.4264388702794908,-0.3751671915888786,0.1031979098916053,-0.0382519736886024,-0.03163982739544,0.2270136624574661,0.0789390692808199,0.0819039561015553,204
1724752766767791400,-0.087483637663722,-0.048109658652544,0.642388387721777,6.924874081736803,2.382156855966896,6.522409133377671,0.2571742534637451,-0.4494400322437286,-0.3862282037734985,0.8840122909873863,0.0331242621492985,-0.407863284107628,-0.2259922516029776,-1.946739673614502,-0.2322156429290771,1.493562936782837,-0.6676224899604917,2.821405328452587,-1.672086240246892,0.1073246449232101,-0.0437538251280784,0.0637228456808487,0.290770560503006,0.033372505540098,0.0775559900251217,205
1724752766807531000,-0.8976765694767236,-0.0593725186839699,-1.0537515128076076,6.904578897204995,2.621766845466196,6.451628793233633,0.5751714706420898,-0.0784697458148002,-0.4468427002429962,0.8810244229225889,0.0445452058457162,-0.411186323056165,-0.2296464879319119,-1.8105285167694087,-0.4122058153152466,1.6908782720565796,-1.0951143275484445,1.7213140892744063,-1.436861772355437,0.116200104355812,-0.030579250305891,-0.0377655985330464,0.3199924826622009,0.093650005673198,0.0675987281329697,206
1724752766887018500,-1.682436369347572,-0.106797702203691,-1.2157353879213333,7.18715489885807,2.496510234247148,6.1872957197576754,-0.7149527668952942,-0.5946552753448486,0.0048583354800939,0.870168094227209,0.0273501782598756,-0.4287046693814587,-0.2413954118053804,-0.9789248108863832,0.0648300796747207,2.616835355758667,0.4164648321390152,2.02632930175066,-2.2414602451622483,0.0751212462782859,-0.0188123602420091,0.0274718598117004,0.4007900953292846,0.0437460566155612,0.1229810218367259,207
1724752766926762200,-2.896523990061879,-1.341565999636054,-2.2090163576751944,7.321607792967558,2.428533553346992,6.05530132471621,0.0355352722108364,-0.8592865467071533,0.0209867898374795,0.8653069468064348,0.019438347533642,-0.436906978689274,-0.2449047965817828,-0.7894026041030884,0.6401668787002563,3.129946231842041,-0.1543591523889452,0.9803530991196632,-2.451350365310907,0.0834466740489006,0.0350414291024208,0.0098300393328885,0.4032231867313385,-0.0391408050095429,0.0773545857015065,208
1724752766966505000,-2.5951474263489245,-1.679054471824318,-2.269188210043311,7.6992866751164195,2.441159226164221,5.561664990091323,0.2440493106842041,-2.380820274353028,0.112382024526596,0.8514358864472777,0.013945871909042,-0.465015620918886,-0.2421218959931411,-0.3189836740493774,1.0184412002563477,3.126260042190552,0.4599742304544895,1.5873451792895792,-2.7402175760626792,0.1168494150042533,-0.0254504512995481,-0.1259036038856953,0.4206114709377289,0.1221117190557531,0.1987230851745232,209
1724752767006248700,-4.451645646616816,-4.088831740644574,-1.5168547620028257,8.246154833713174,2.371141248694807,4.748577798141539,0.3728875815868377,-1.939807653427124,1.1225148439407349,0.829708204642608,0.0038855010231115,-0.5078137552893776,-0.2317202451292483,-1.236323595046997,1.9994767904281616,3.584362030029297,0.0913968655847013,0.983341175019741,-3.470873445302248,0.1497730612754821,-0.0177003480494022,0.0123076449601794,0.3935411870479584,-0.1104289622449781,0.0350402606558054,210
1724752767085736200,-0.1816530367016792,-2.7009114015907048,-0.018411270481348,9.054564389240742,1.062678988694027,3.613305063205957,-0.4113511145114898,-1.4536621570587158,1.856106519699097,0.809041237560722,-0.0521723041220512,-0.5595093944576812,-0.1722778846664607,0.3481720089912414,2.730257987976074,3.828723907470703,-2.2419038972765204,-5.530982267057896,0.1558358738780021,0.1958189010620117,-0.0495705194771289,0.2109769838036037,0.3550227284431457,-0.2443162309614941,0.543170911514014,211
1724752767125493500,-1.229339550381899,-3.9277629345491527,1.8971555170878769,9.230462223416566,0.1422307798356749,3.30888577079624,-1.0770450830459597,-0.0942850932478904,2.6080188751220703,0.8048674097855913,-0.0930030675656285,-0.5680177865096616,-0.1445498570395164,-0.4927855730056762,2.7277798652648926,2.8214263916015625,-0.4268780896037816,0.6727227357089519,-1.6624772849023342,0.0964931175112724,0.0805263593792915,0.2633115666748024,0.3740544319152832,-0.2592893436877057,0.5822981857551262,212
1724752767204982000,0.3042605947166681,-2.7324998412922024,0.2669634219795465,9.032827189207076,-2.3312366699382663,3.0238667599052187,-1.41200852394104,-0.0207398403435945,3.003450870513916,0.8057161354078175,-0.1961550333076319,-0.5543905691897735,-0.070681722580334,-3.2667176723480225,2.43215012550354,3.3806498050689697,-2.1079612907767293,-0.8750064725071192,-0.0432040586933493,0.0619947537779808,0.1035417169332504,0.0067852396933361,0.1112436652183532,-0.0838543047180399,0.1416690542996861,213
1724752767244726300,2.077767812564969,-3.3230539968803523,-0.1778220802366733,8.689555019050836,-3.5390272363349795,2.852593955181539,-1.928134560585022,0.1113477200269699,2.614107608795166,0.8022991306526221,-0.2530706080663064,-0.538993003324691,-0.0419266216500926,-3.930760622024536,1.828957319259644,3.2297048568725586,-3.595119418174028,-1.208540507981181,0.6306792452275752,0.0395652763545513,0.033817108720541,-0.067175246590469,0.0442739352583885,-0.0608378693956416,0.2611226235294714,214
1724752767284469500,1.2014216158866882,-3.256011966481805,0.2308911148622631,8.277371225231885,-4.613429030722379,2.524236445562541,-2.0787622928619385,-0.1121060401201248,2.4591784477233887,0.7925781463492086,-0.3118399903610926,-0.5235031753101211,-0.0228043233927737,-3.410372734069824,0.9271227121353148,2.515209436416626,-4.326844962471723,-2.764013169930875,0.8508275784097611,0.0349567644298076,0.0417713448405265,0.0402632194684818,0.0564471930265426,-0.1677057598918676,0.4257820745280012,215
1724752767324213800,1.748264055520296,-4.121825078707933,0.7146750407755375,7.793079057535529,-5.6125499586761,1.9843382721088825,-2.306055784225464,-0.4774120450019836,2.577224969863892,0.7753410942554605,-0.3719715427462821,-0.5103568148809565,-0.0043977435652954,-1.9161964654922483,0.5266408920288086,1.225207805633545,-2.9443361270725728,-3.950173503799736,2.294883792313933,0.0231033135205507,-0.0311196912080049,-0.160240410713572,0.1268510371446609,0.0696966274274047,0.4800905512880534,216
1724752767363958000,3.279676335185766,-3.610107728469372,2.168961995184421,7.187922960621118,-6.554475419723987,1.2421766739927231,-1.9983028173446653,-0.917278289794922,2.7598555088043213,0.750292610676669,-0.4321746348270093,-0.499891686590604,0.0198599145986043,-5.06299352645874,0.2175871431827545,-0.8353030681610107,-0.3378618355453014,-2.7232880685716867,3.574473520508408,0.0233419016003608,-0.0720045566558837,-0.0124153956339927,0.2219702899456024,0.0584091626776848,0.5077623655350878,217
1724752767403422500,7.7778265433460465,-1.6112556317090987,4.141913342490792,6.50568187046051,-7.323157360497117,0.4667752887714654,-1.5156478881835938,-1.0074588060379028,2.216081142425537,0.7220132481480003,-0.483032378618265,-0.4928293877613372,0.0499591342080561,-3.684948921203613,-0.1542738229036331,-1.1062246561050415,-0.7026181077569723,-2.3796860819391905,3.254054402673244,0.0318048633635044,-0.0573096834123134,0.031759572184435,0.3224304020404815,0.008049057075585,0.4434687935944646,218
1724752767483190000,7.385930919796228,1.6125854190081357,3.0313784507095813,6.046437634781003,-7.720492544752359,0.0704592823629733,-0.1041992828249931,1.6923884153366089,-0.6226465106010437,0.7079830325280777,-0.5237074063377746,-0.471315318040829,0.048501752618125,3.3707666397094727,0.1920087039470672,0.5572351217269897,1.3446043444186448,-2.304782378254831,0.7734487167835236,0.1014068201184272,-0.1321972608566284,-0.0889614277318585,0.1488996744155883,0.1524908742990344,-0.1320661451034248,219
1724752767522934300,3.845229905030131,1.895425624555349,-0.0424456780740991,6.322046135509014,-7.479302446454763,0.5120082229439169,0.1348424702882766,1.486039400100708,-1.2037699222564695,0.7251275575376885,-0.5150699104541868,-0.456725117132429,0.0171808162329395,1.7677175998687744,-0.0359329581260681,0.4889761805534363,0.6891144830614327,-0.1991422239020466,-0.9966460622727872,0.121743805706501,-0.1987741291522979,-0.1673255101363174,0.0697406977415084,0.2228189040983095,0.0699829929210012,220
1724752767562678500,0.4408773888617753,2.197645068833232,-1.814997750622034,6.669153353783488,-7.156335982224345,0.6925661578852683,0.4090994596481323,-0.8517268896102905,-1.1507878303527832,0.7316419426615937,-0.5008171628016143,-0.4624620236368699,-0.003345693527493,0.045244600623846,-0.2273066043853759,0.1620019227266311,0.3412678445965051,0.924691271521896,-1.1473474958717822,0.0843991488218307,-0.1992610245943069,0.0050948794493539,0.0766032487154007,-0.0324573429069598,0.3042397163254208,221
1724752767602421800,-0.8526280519604682,0.7308458388537168,-1.1888655011743303,6.9262693354874845,-6.928985024186969,0.4316994453456252,0.3404422700405121,-1.6246756315231323,-0.4058877229690552,0.7224905571522791,-0.4860837043367926,-0.4916422335400714,0.0042490961113377,-0.7078288793563843,-0.2160325795412063,0.1859963536262512,0.0304968450725078,-0.0567145515210926,-1.3124784368395803,-0.0150022897869348,-0.197178304195404,0.0442628881304757,0.0194360185414552,-0.0473695808749645,0.2016077007001265,222
1724752767642166000,-0.7629588869512081,0.807045865958929,0.4990910928994417,6.951222574958205,-6.916749227470159,0.0973642312902025,0.1231380403041839,-1.1245418787002563,0.2672431766986847,0.710375057566144,-0.4833308078202941,-0.5112994581990309,0.0182083717710604,-1.1071486473083496,-0.208079531788826,0.1911700069904327,0.260610253560543,0.3077181878246366,-1.6356605896472929,-0.0939763560891151,-0.2124479115009308,-0.0311081339548225,-0.0778858959674835,-0.0394565061954781,0.216375280916877,223
1724752767681910300,0.5202554614812135,0.5420253947407007,1.71933022198081,6.83862261621654,-7.028516242519021,-0.0599992129146819,0.5407066941261292,-0.5307338237762451,0.4545573592185974,0.7040336757197092,-0.4826150881321521,-0.5197516572998006,0.0357426659171366,-1.0135035514831543,-0.0572850666940212,0.2334950864315033,0.2582984694868326,0.4707034950658679,-1.317820966911316,-0.088404543697834,-0.2103398889303207,-0.0680665602738503,-0.1091173887252807,0.0574331435526488,0.2677259673172608,224
1724752767721654500,0.761616240170598,-0.8502987322300672,2.273904132649302,6.720712860628963,-7.140648583748936,0.1164072603364475,1.1552315950393677,-0.0060624377802014,0.3911925256252289,0.7093688699686375,-0.4750690083474093,-0.5180485680850732,0.0522587985111971,-0.4456300735473633,0.0110483989119529,0.4178925454616546,0.0055886137872934,0.8887716707482933,-0.8684341083794832,0.0501222163438797,-0.2190974950790405,-0.2214700650389306,-0.0663069933652877,0.1763023781224154,0.3402531511286273,225
1724752767801143300,0.8366302723616361,0.4521504780262708,0.6857810277897864,6.581804156154393,-7.218613866961002,0.8613220113519579,1.4798123836517334,-0.2453418523073196,-0.0840872451663017,0.7321604961544046,-0.4407396627237778,-0.5116965403124148,0.0886359426400315,-0.2515439391136169,0.1388293653726577,0.7227010726928711,-0.2517781278073787,1.870851739791036,-0.6698515641868114,0.2163771986961364,-0.1801332980394363,0.3434215154990553,0.0357269160449504,-0.1493847067109309,0.5969020267775282,226
1724752767840887600,-0.7895090402245521,-0.4446598300099372,-0.6105583212841302,6.657098174330592,-7.0976733653754,1.2150939482126384,1.8720661401748653,-0.9042508006095886,-0.1926091164350509,0.7419984803880871,-0.413361911019172,-0.516893973377105,0.1067273206750467,-0.3795727491378784,0.2260300517082214,0.9273868203163148,-0.6779571292310953,1.8337609032809727,0.0576133954903809,0.2268075793981552,-0.0884625166654586,0.3897343903953209,0.065638743340969,-0.2480267028519883,0.494864415115118,227
1724752767880631800,0.8390110300183296,-1.154748712038994,-0.0666964318312704,6.738038089439272,-6.997806631478666,1.341608669734001,1.626307725906372,-1.5274348258972168,0.1734060794115066,0.7415180880224908,-0.3831267277794144,-0.5336767779592975,0.1362124843643379,-0.380882203578949,0.1262953132390976,1.229608416557312,-1.134162435606122,1.0399386760324238,0.6517348927378654,0.2949008047580719,0.0437470935285091,0.4247387760201468,0.0420063212513923,-0.3283893295293674,0.4805800883706659,228
1724752767920376000,2.466888710704445,-0.8519967683196067,0.6607138796158134,6.767996589851379,-6.940382031992077,1.4817977694079278,1.6679075956344604,-0.9779052138328552,0.0503229722380638,0.7406852359709614,-0.3569895671607463,-0.5449842124627811,0.1641223505025767,0.0468901693820953,0.0226451344788074,1.5093252658843994,-0.9708470196276904,-0.1471114828156307,1.2809691998541357,0.3449282348155975,0.1684411168098449,0.3409645142683759,0.1179763078689575,-0.3935008667893707,0.802117615776509,229
1724752767960119300,1.5882283918648956,-0.7575228333771228,0.3146908033162355,6.8634525215685365,-6.809501151150465,1.6413716607704758,1.5608420372009275,-1.0776934623718262,-0.2330633699893951,0.7407630276997438,-0.3285269284971688,-0.5553227812018555,0.1869675634679762,0.1822464019060135,-0.0495156645774841,1.6016441583633425,-0.5743161374926566,-1.2265551803603767,1.5301941360473632,0.3466352820396423,0.2050175815820694,-0.160731500432454,0.2432587295770645,-0.1300797661923337,1.0442156226992607,230
1724752767999863600,0.6583645400106907,-0.8630214356809854,0.6175199039250612,7.004577148526907,-6.626640492224693,1.7871562423638998,1.678367257118225,-0.806898832321167,-0.2768809497356415,0.7405212320661451,-0.2983430154885503,-0.5655721286973039,0.2067557431667385,-0.288826048374176,-0.076615460216999,1.45525062084198,-0.2937386161804199,-1.7054286840088664,1.0463584799468515,0.2847461700439453,0.1391396075487136,-0.4035233348382637,0.2920179963111877,-0.1772391109832562,1.022751248257607,231
1724752768039607800,0.2536637954235077,-0.9357675229400396,-2.09110017234683,7.027702003526687,-6.478925380960106,2.192105554884672,1.3886045217514038,0.1970086097717285,0.0946263447403907,0.7490187994738047,-0.2725159999225214,-0.5603291425268612,0.225249121738773,-0.6980918645858765,-0.2429659217596054,1.2223044633865356,-0.7266478026419878,-2.641983704064786,0.7803069121152162,0.1987285315990448,0.1244015842676162,-0.3926543329626321,0.2164381593465805,-0.262267902840767,0.9498906677734106,232
1724752768079352000,0.7961340113222598,0.6774854200661182,-2.4165759890496727,6.8620198584169145,-6.470556196543574,2.686073605681956,0.4138765037059784,1.53722083568573,0.3960119783878326,0.7626451148589954,-0.2658119687490591,-0.5407331680295148,0.2352109067939742,-0.7286412119865417,-0.3332089483737945,0.932495415210724,-0.0972305401742458,-3.599734218493104,0.7660936778455972,0.1178433746099472,0.062479630112648,-0.1803865238972008,0.1454292386770248,-0.5784689097905531,1.0723748186044395,233
1724752768119096300,1.7311346415430309,-0.3764659992277622,0.9134849639832971,6.702590343961119,-6.528112313455343,2.9375886986389754,0.1455954164266586,1.5167495012283323,0.4362018406391144,0.7705764819661299,-0.2702763311952615,-0.5264744662158771,0.2366164591399243,-0.5094324350357056,-0.1816096752882003,0.6829993724822998,0.4546124842256307,-4.29079925110042,0.7545283277362584,0.0006525058997794,0.1381472051143646,-0.1489224594940431,0.1384235471487045,-0.6892874284755438,1.1308678510401398,234
1724752768158792400,1.4193494965404272,2.324718374085426,-1.1981368951275944,6.42240912849009,-6.576820522522926,3.415915528190136,-0.052863523364067,1.4252705574035645,-0.1777950376272201,0.7884213834105108,-0.2808061695484813,-0.4969755323235006,0.2292485582703504,-0.4740150570869446,-0.1838879585266113,0.3548084795475006,0.1985211693942546,-4.251298138578236,0.5047873317796737,-0.0976814031600952,0.1444940716028213,0.0059595066260313,0.1023766994476318,-0.787295090502128,0.8932327418103814,235
