time_imu,phone_acc_x,phone_acc_y,phone_acc_z,phone_gravity_x,phone_gravity_y,phone_gravity_z,phone_gyro_x,phone_gyro_y,phone_gyro_z,phone_ori_w,phone_ori_x,phone_ori_y,phone_ori_z,watch_gyro_x,watch_gyro_y,watch_gyro_z,watch_acc_x,watch_acc_y,watch_acc_z,headphone_gyro_x,headphone_gyro_y,headphone_gyro_z,headphone_acc_x,headphone_acc_y,headphone_acc_z,frame_imu
1733106572594071300,0.3425453537190333,21.74344272744656,-5.363637157171964,0.0094023200066876,9.51046632875502,-2.3919307926148177,-0.7179668545722961,-0.2886190116405487,-0.0258056130260229,-0.3012045429640616,-0.3870187371048695,-0.6871470186561082,-0.5360236307144485,0.6886454820632935,1.5222150087356567,-0.8736169338226318,-1.7621607780456543,1.035692572593689,-1.169546604156494,0.4009048640727997,0.0032736829016357,0.2104039879549294,-0.3028676807880401,0.5307864270415157,-0.5893024384940043,0
1733106572633845800,0.1894892102200537,16.46758906766772,-10.076997219198942,0.1002090993273071,9.658539167416096,-1.694992630190402,-2.922905683517456,-0.5619016289710999,0.6275086402893066,-0.317621595027696,-0.3850995509366728,-0.6619055162504744,-0.5591923632360419,2.205251455307007,0.7631996870040894,-1.9627344608306885,-1.222056865692139,1.3082034587860107,-1.060044288635254,0.6083870530128479,0.0014233451802283,1.5601581894174217,-0.2945584058761596,-0.0023471933138091,-0.4140511585934087,1
1733106572673620500,0.8841858042627573,0.5880968255639076,-7.826056028985977,0.2912173906071111,9.79390976089239,-0.406106811992824,-3.504453659057617,0.323317676782608,0.3238761723041534,-0.3394858971170466,-0.3723830220388087,-0.6180910689003288,-0.6033603650139869,2.829576015472412,0.464482843875885,-2.7096219062805176,-0.1282538771629333,0.964209794998169,0.3849629163742065,0.6357895135879517,0.1338962018489837,1.3516361427515744,0.097425453364849,-0.4190801292039454,1.868915072640032,2
1733106572713395700,0.9775977359969168,-11.760601463282107,-3.592139525580406,0.3006068397157825,9.760094000530245,0.9058456282112748,-2.8901736736297607,0.9220269918441772,-0.2589117288589477,-0.3524200413601044,-0.33931674107878,-0.5819612326450232,-0.6496039202812777,3.213052749633789,0.5515963435173035,-2.0872576236724854,0.912660837173462,0.3210451900959015,1.0873808860778809,0.5272778868675232,0.269114077091217,0.0859243524577468,0.837271511554718,1.1188114294e-06,2.053292858130485,3
1733106572753170400,-0.9771602213624864,-19.639058710634707,0.145492759039998,0.1981468561891466,9.649701780965923,1.736200254369527,-1.4824120998382568,0.3223235309123993,-0.0817983970046043,-0.36223951474169,-0.3144369087458405,-0.5591134548502228,-0.6762427013302058,0.6291616559028625,-0.0453700460493564,-1.0610111951828003,1.7071285247802734,-0.9160534143447876,1.2926549911499023,0.3349375426769256,0.2293922454118728,-1.228502368905395,0.7032948732376099,0.6347299088578671,-0.4368502157049253,4
1733106572792945000,-0.8075984583403915,-22.399982390117643,0.8923504060178995,0.1593683223204687,9.578734978339076,2.095912248803675,-0.230361133813858,0.2289845943450927,0.0322022847831249,-0.3651888874860043,-0.3031036464973016,-0.5488773959264303,-0.6881126352956003,0.6835977435112,0.4424061775207519,0.1116720736026763,1.7047675848007202,-0.5847032070159912,1.243305802345276,0.251260906457901,0.0125327873975038,-1.4799768375910818,-0.0459352247416973,0.2943080318325199,-0.9292813027258962,5
1733106572832719400,0.2412827815497294,-17.803505663239953,2.269715156526864,0.1170992611886002,9.617579380518196,1.9128055061623448,1.1769359111785889,0.1956169307231903,-0.2105217278003692,-0.3610101507608713,-0.3030929055343078,-0.5573228420196068,-0.6835184854713695,-0.96406352519989,0.6348094344139099,1.2367292642593384,1.420390248298645,-0.7061319351196289,1.1530354022979736,0.1652705073356628,0.094701774418354,-0.8086021554902195,-0.2879233062267303,0.0987670929586049,0.0246808271539513,6
1733106572872494800,-0.6374388755556195,-9.044097355762124,3.316152839189768,0.0480163726122118,9.740510763660073,1.13601456627883,2.877172946929932,0.168566808104515,0.0322676338255405,-0.3484825893624411,-0.313097517336983,-0.5865571749990857,-0.6606667425968304,-2.70247745513916,-0.2050993591547012,2.10107970237732,0.8761166334152222,-0.3221886157989502,0.651729941368103,0.27881920337677,-0.0280832163989543,-0.5988405936246738,-0.1756742447614669,0.2069945448376238,0.5590582530083135,7
1733106572912269600,-0.1771549946300685,5.094242124131322,0.6359037018775939,0.0451744956832146,9.80622096093297,-0.0798503115073777,3.1347410678863525,0.3880764842033386,-0.1421637088060379,-0.325596485285013,-0.3311551028378611,-0.6280187345562428,-0.6244323254448361,-3.4319214820861816,-1.130839228630066,1.9124212265014648,-0.4083621501922607,0.1315592527389526,-0.0184494853019714,0.3465707898139953,-0.0438087880611419,0.5236662563053891,0.2886229157447815,-0.5603016406655311,1.4948121492817996,8
1733106572952044000,-0.6675987437587231,10.913505326485634,-3.086861268478632,0.0280478170857299,9.733341602683067,-1.196514846883714,2.2358953952789307,0.390022873878479,0.0182519108057022,-0.3018350952843479,-0.3431313989769691,-0.6657823384476456,-0.5898221987410802,-1.550663709640503,-1.252071976661682,1.107952117919922,-0.9371414184570312,0.7315122485160828,-0.6552746295928955,0.2777366638183594,0.1585721522569656,0.342998248585686,0.3969996273517608,-0.3175045090300962,0.2190337595364078,9
1733106572991818500,-0.0845532833002507,11.21655420732498,-5.598079534775018,0.0480416942831361,9.668216511821749,-1.641238682040572,0.9444699287414552,0.0883050486445427,0.0487283430993557,-0.2914845371031521,-0.34851766801384,-0.6798641926403228,-0.5756360796712793,-0.4586901068687439,-0.8933473825454712,0.4304095208644867,-0.8398183584213257,0.6458798050880432,-0.6856603622436523,0.125845268368721,-0.0134741030633449,0.7223072892196476,0.1435623168945312,-0.5759900620542466,-0.0168706534432247,10
1733106573031594000,0.5794479474231601,7.042512034645676,-3.572698619790375,0.0895817698535975,9.629662032499908,-1.8525621959932148,0.2601480782032013,0.2236847281455993,-0.0200585108250379,-0.2844380157933311,-0.3507734363436287,-0.6865947748063853,-0.5697724910197652,0.1700995117425918,-0.0802566111087799,0.1016576513648033,-0.4473155736923218,0.4593923091888428,-0.3522920310497284,0.0285328980535268,0.0467863604426384,-0.0859403263450134,-0.1015579551458358,0.0495723561828257,-0.3161328188180923,11
1733106573071368400,0.4534056291865184,3.414969771772623,-3.0518577596366403,0.070625213514408,9.6335789136827,-1.8329124697580927,-0.3650338053703308,0.0487837977707386,-0.035158485174179,-0.2843833159053268,-0.3486361181429782,-0.6869537003488129,-0.5706782646899462,0.5191805362701416,0.2386999130249023,-0.115765281021595,-0.1498997211456298,0.2524260282516479,-0.1994552016258239,0.022228492423892,-0.1026480719447135,-0.1942177000466734,-0.0931040495634079,0.0433045416594483,-0.0518161941534373,12
1733106573111143200,0.3011795250372029,0.3548088786929845,-0.8959132130660116,0.0709691178815206,9.670612467047572,-1.6262293289571998,-0.6401810050010681,0.3021104335784912,-0.0875309184193611,-0.2859339389028409,-0.3430449549553142,-0.68208121000922,-0.5790744976287052,0.7751896977424622,0.2944966554641723,-0.1798880696296692,0.0123902559280395,0.0116829276084899,0.0712661743164062,0.0708876177668571,-0.0333743244409561,-0.1996921128697693,-0.0118360137566924,0.0525064779725391,-0.0784768768628593,13
1733106573150912500,-0.0471619203404989,-1.4181085565686224,1.2288393457747997,0.0416254705652827,9.701745856457949,-1.4299528697498145,-0.2726347148418426,0.2563013434410095,-0.1115449890494346,-0.2867284340055299,-0.3350021881914145,-0.678734733398993,-0.5872643896933398,0.1448844373226165,0.0202558860182762,-0.0675808414816856,0.1471801996231079,-0.1669797897338867,0.1615537106990814,0.133065789937973,-0.0397750549018383,-0.1725400299142114,0.0675910860300064,0.1423896510586608,-0.0874299529814161,14
1733106573190688300,0.2415877375793643,-2.3996827219158408,1.380128808394819,0.0127963280928437,9.705887778568266,-1.4021250977560875,0.085608497262001,0.0527571588754653,-0.0690049976110458,-0.2863066437390245,-0.3315348925956264,-0.679391714154978,-0.5886764771534818,-0.214159220457077,-0.2438591122627258,0.1686544716358184,0.210543692111969,-0.1910845637321472,0.1169658899307251,0.1396626830101013,0.0183414779603481,-0.182413682343252,0.0976077765226364,0.0107676010275026,-0.1480323513870593,15
1733106573230462500,0.1996480910649523,-2.8379975668132302,2.029526490356773,0.0101437620492244,9.685415483903885,-1.5372192123785615,0.6513670682907104,0.1022258251905441,0.0093378853052854,-0.283233831858117,-0.3324489174973182,-0.6839986010208625,-0.5842964811579041,-0.4928667247295379,-0.3222422897815704,0.4316753149032593,0.2405945658683776,-0.1319109201431274,0.1534073948860168,0.1265079379081726,0.0064937947317957,-0.3427177511438727,0.081880547106266,-0.0875310113362502,-0.1868847633427008,16
1733106573270237200,-0.3565816970517859,-1.7242250082850454,1.2420984941899775,0.0435399395842105,9.6253891774863,-1.8762635357066988,1.0878498554229736,0.1029068157076835,0.1639991402626037,-0.2750768542708107,-0.3370180303837221,-0.6943210080082965,-0.5732973919324926,-0.8474807143211365,-0.3025867640972137,0.7016268968582153,0.1206825375556945,-0.0745633840560913,0.0317320823669433,0.0796056985855102,-0.048797383904457,-0.3585894201450049,0.0645289123058319,-0.1551899406572803,-0.268899869934842,17
1733106573310011600,-0.371700246130675,3.655567749395966,-0.2541850428186357,0.1309333325480576,9.526307456487416,-2.3243704374305905,1.1934542655944824,-0.034652903676033,0.257628470659256,-0.2635719325083132,-0.3453499972259305,-0.7065715020605261,-0.5585874035440688,-1.2681313753128052,0.1565273851156234,0.6563075184822083,-0.2971538305282593,0.1849600076675415,-0.2702222168445587,0.0326213464140892,-0.1479296237230301,-0.3986319095348939,-0.0514342077076435,-0.4619122127797454,-0.2530198166978545,18
1733106573349787100,-0.2591967152344994,16.810199559044836,-3.391964743760228,0.2448315783387981,9.428751922142505,-2.6849676902666686,0.3632257282733917,0.1699649840593338,0.1407091915607452,-0.2530797485432522,-0.3538651776331457,-0.7153144040254649,-0.5468594768347786,0.5513352751731873,1.384452223777771,-0.4263428449630737,-1.5872509479522705,1.05406653881073,-1.1337904930114746,0.0417058244347572,0.0978957861661911,0.2465521550537087,-0.2180229425430297,-0.0323791836538119,-0.5812560197584331,19
1733106573389561600,2.6326599954023955,20.32877817385197,-11.64278523119688,0.1734940244371071,9.530061840584873,-2.3061345235161483,-2.3776159286499023,-0.7456513047218323,-0.2780227959156036,-0.2660154828714255,-0.3509088967969297,-0.7031664696113457,-0.558261428208521,1.973277568817139,0.8176690936088562,-1.664602756500244,-1.26513671875,1.137069821357727,-1.020378589630127,0.0607259795069694,-0.1552909761667251,1.1895093520358204,-0.3609459102153778,-0.2494030144401826,0.0996796138267964,20
1733106573429336000,1.4234364735931158,7.01850104446113,-9.64642670481801,-0.0264198071752325,9.741359489443898,-1.1294267853863538,-3.565558195114136,-0.5230630040168762,-0.4859040081501007,-0.3021165737275209,-0.3373625729738422,-0.6661615666270959,-0.5925714078671558,2.7347517013549805,0.2652807533740997,-2.7737877368927,-0.4357059001922607,0.9922564625740052,0.1215087175369262,0.0274456795305013,0.1729179620742797,1.0928367380052804,-0.051832091063261,-0.5195161508886144,1.632823904916644,21
1733106573468926000,1.889616353754699,-9.118196611195804,-5.193206940752267,-0.2602124133493751,9.79575568102002,0.3819090670645236,-3.8647775650024414,0.4898402690887451,-0.6291527152061462,-0.3325730869961625,-0.3034204855041796,-0.6232688550115048,-0.6394271824401669,3.876235961914064,0.3864434659481048,-2.721979141235352,0.6520153284072876,0.3794088959693908,0.7856109738349915,-0.0984883680939674,0.0858070105314254,-0.1977902065048925,0.6107822060585022,0.1896909068046137,1.4786825599968432,22
1733106573508694500,-1.8696103614278137,-22.0250910928607,0.5427414340555667,-0.2854704627192579,9.673853640925884,1.5828605812214314,-2.137406587600708,-0.3893597722053528,0.4988404512405395,-0.3506329434539469,-0.2808573894364801,-0.5834515382574297,-0.676579623694632,0.5943956971168518,-0.0272485166788101,-1.2414026260375977,1.8340436220169067,-0.8520435094833374,1.3682260513305664,-0.1965732723474502,-0.0818773135542869,-1.4233987719312309,0.3369471430778503,0.4114102886958047,-0.8523197166636586,23
1733106573548462600,-1.1865212761357429,-24.27894203304052,1.3890081342905758,-0.0650477513087913,9.594704700887204,2.026769885125011,-0.3357152938842773,-0.2809014618396759,0.5401239395141602,-0.3545546368008412,-0.2836789509881363,-0.5623075201653293,-0.6911060044619117,0.4363341331481933,0.9330828189849854,0.1628898531198501,1.8026649951934808,-0.5010936260223389,1.3521299362182615,-0.183028906583786,-0.1713354587554931,-1.3861923462174832,-0.1093196421861648,0.1381242212996818,-0.7581989790730178,24
1733106573588230400,1.2707279379554093,-19.55876878386736,0.9047954615712164,0.0990546868614852,9.606222120201586,1.970042035730928,0.6334991455078125,0.0325484760105609,0.1489583700895309,-0.3490045805671893,-0.2905013937559478,-0.5613953612193653,-0.6918381133040651,-0.9901840686798096,0.9314915537834167,1.1323713064193726,1.5034446716308594,-0.7076111435890198,1.2665385007858276,-0.0349386110901832,-0.2766906917095184,-0.9267183934353292,-0.1780757904052734,0.533809683852829,-0.2274820370711386,25
1733106573627998200,0.3692722152661531,-8.87049143191576,3.410052773636579,0.1062760986155364,9.704272160065171,1.409325238393247,2.3408138751983643,0.273153007030487,0.0147913284599781,-0.3398445149112875,-0.3004409026318557,-0.5812741799195803,-0.675545217150508,-3.0283381938934326,-0.3825739622116089,1.7680232524871826,0.7701998353004456,-0.3029020428657532,0.6903015375137329,0.2483248263597488,-0.3032474219799042,-0.2924219258249737,-0.1393487453460693,0.3481702809287235,0.2524580363629385,26
1733106573667767000,-0.8910399810064583,7.916921125781536,2.1508377249509096,0.1132237166631966,9.800769709789751,0.3201280259341001,3.027949333190918,0.3202321231365204,0.054873913526535,-0.3163501326558032,-0.3133793684936879,-0.6208634186815074,-0.6451701941417922,-3.4567408561706543,-0.5716114640235901,0.936476469039917,-1.1308647394180298,0.3301834464073181,-0.385217547416687,0.3102512955665588,-0.3384970426559448,1.0285896720875054,0.3035371005535126,-0.1595922672694548,1.2611102147825062,27
1733106573707534800,-0.7583596495274454,11.862694056534766,-3.024222733736038,0.1789627747043967,9.782086052107813,-0.6701803577497601,1.7125813961029053,0.4214543402194977,0.2593459784984588,-0.2950212690517879,-0.3279240650944477,-0.6531734047920136,-0.615461414475157,-0.9687648415565492,-1.149064540863037,0.6887943148612976,-0.5916954278945923,0.6704275012016296,-0.8187400698661804,0.1393588781356811,0.0323192700743675,0.6316236864708363,0.0118978824466466,-0.4560998367065563,-0.2458376135761849,28
1733106573747302700,0.3461691337067634,10.565020390117168,-4.772022386614978,0.2269428886931389,9.742296478033063,-1.098410519549623,0.5368044972419739,0.0403377041220665,0.0708124786615371,-0.2828296419418786,-0.3321374055233245,-0.6675987521627827,-0.6033273579766881,-0.3158970177173614,-0.385208249092102,0.0261189565062522,-0.7068551778793335,0.5509466528892517,-0.6070060133934021,-0.0820225700736045,0.0806364715099334,0.6112717667831108,-0.1871522814035415,-0.1059341989758424,0.2576112909402698,29
1733106573787070500,0.7476115340851247,3.7755601564764976,-4.229700931537151,0.2606465304503217,9.74165350395441,-1.096649574291706,-0.4827193915843963,0.0599189475178718,0.1083544418215751,-0.2812707000867148,-0.3326642682587771,-0.6672691013377442,-0.604130173257442,0.8509859442710876,0.1169888228178024,-0.2137115448713302,-0.2102007269859314,0.3743414878845215,-0.2714241743087768,-0.0758453458547592,-0.1780252754688263,-0.2495179460567422,-0.1868976652622223,0.4187242284383624,-0.1998526554600335,30
1733106573826839600,0.7408355371441692,1.0435404999166726,-1.2998597782850263,0.2726599531207233,9.768823250430822,-0.8161651380904018,-0.7502520680427551,0.0075572356581687,-0.0651887059211731,-0.2857827810165155,-0.3291382699568452,-0.6582407156772269,-0.6137713818078112,0.5454318523406982,0.3193012475967407,-0.2203904092311859,0.0052428841590881,0.05580735206604,0.0311196446418762,0.0010270982747897,-0.1435830444097519,-0.0093625696640781,-0.1430100798606872,0.0653867329056141,-0.0890323466767556,31
1733106573866607000,-0.261055257381685,-0.9911813671261072,1.2542998041152953,0.2390584930963814,9.784038355219364,-0.6211832487381994,-0.2609419822692871,0.0996365025639534,-0.0974803566932678,-0.2893478477494428,-0.3243433829746751,-0.6530489281385808,-0.6201664765659235,0.2469058632850647,0.1885955184698104,-0.1544001549482345,0.0639561414718627,-0.1060842275619506,0.1661428213119506,0.0370473265647888,-0.0697083994746208,-0.1499193067779764,-0.0701598823070526,0.2303322023378685,-0.006679973237554,32
1733106573906375000,-0.0485358116427436,-1.818481501084566,1.5387901149570942,0.1954799933337606,9.787731364518404,-0.5766201035860925,0.0223909374326467,0.096128836274147,-0.147456020116806,-0.2902775735873653,-0.3209807215697571,-0.6529707644522978,-0.6215621725520323,-0.1543414294719696,-0.0981414914131164,-0.0041377488523721,0.1385315060615539,-0.2140455842018127,0.1193389892578125,-0.0013729919446632,-0.0187811721116304,-0.1000380536093376,-0.0938524678349495,0.1216425397745799,-0.1782800348709337,33
1733106573946143000,0.0994071078951936,-1.993676155427098,2.080382378977537,0.145699314462766,9.782463068726658,-0.6727409289527684,0.4879643321037292,0.0329505875706672,-0.0852428302168846,-0.2894081864753423,-0.319815859457986,-0.6572808061251829,-0.6180151425810575,-0.500830888748169,-0.4129082262516022,0.2471920102834701,0.1905487775802612,-0.1370655298233032,0.087253451347351,-0.0142123475670814,0.0177664216607809,-0.0660726784763159,-0.109432615339756,0.0871678497128188,-0.0423491497639101,34
1733106573985911600,0.0958388392206747,-1.6625275537848472,1.5705622406624256,0.1286175846852827,9.760316703370211,-0.9434314816966652,0.8973368406295776,0.0562824010848999,-0.0207199212163686,-0.2853659898287728,-0.3230820040580602,-0.6661228401778454,-0.6086580903253981,-0.7720866799354553,-0.5101064443588257,0.501190721988678,0.1284118294715881,-0.06528902053833,0.0628557205200195,-0.0119476234540343,0.0278470907360315,-0.0874187648671213,-0.1114017367362976,0.028710865838034,-0.1510249481986276,35
1733106574025679600,0.412452198964171,-0.1209334873229265,0.6948458663202822,0.1232504590284079,9.711506202971934,-1.357142338952422,1.1676902770996094,0.0213925950229167,-0.0402329042553901,-0.2777991531902374,-0.3279648760827411,-0.6794365639048596,-0.5946701644067663,-1.0250420570373535,-0.4590766131877899,0.6176677942276001,-0.0003944039344787,0.0077062249183654,-0.0691173076629638,-0.0268723499029874,-0.0277892891317605,-0.1486403089512605,-0.1615467071533203,0.0716822026208974,-0.1511430672861169,36
1733106574065447400,-0.3775804632756859,4.44635981516838,-0.6560438419781625,0.104791056822706,9.6433667327255,-1.779009030134976,0.9258054494857788,0.1232139989733696,-0.0504178293049335,-0.2706178103998842,-0.3326525614656593,-0.6928538764536502,-0.5797083152124456,-0.8048757314682007,-0.0062780398875474,0.5072599053382874,-0.3403283953666687,0.1767246723175048,-0.3506731390953064,-0.1029932498931884,0.0395278856158256,-0.408918179619126,-0.2841759324073791,-0.049615359640913,-0.2221264283221214,37
1733106574105216300,-1.5299042131900786,14.46847159796953,-2.9352739919558166,0.1165768995486199,9.59819488109052,-2.0078549029052257,0.0931030213832855,-0.2052867710590362,0.2408568859100341,-0.2662477278681092,-0.3362228877121945,-0.6995186039180395,-0.5716119082778262,0.1032618954777717,1.05448317527771,-0.1914223581552505,-1.2565996646881104,0.6980476975440979,-1.0176266431808472,-0.0921892970800399,-0.0507357977330684,0.198270372970961,-0.4335685968399048,-0.4670118009410798,-0.1227793069858569,38
1733106574144980000,1.0364516376342623,19.294765965259074,-7.952020496213436,0.2297818201798014,9.66145534712374,-1.6654871342428028,-1.980726957321167,-0.6404231786727905,0.4208194315433502,-0.2744037354858475,-0.3420988636042422,-0.6840208910172509,-0.5829119043523193,2.0712311267852783,0.7360614538192749,-1.1200180053710938,-1.2796194553375244,1.167630314826965,-1.2152215242385864,0.0214893333613872,-0.0498449392616748,1.308611532278359,-0.5036133527755737,-0.1603916557525284,-0.5201510877912864,39
1733106574184748000,1.070321539336443,7.517507966208457,-7.435169874739646,0.294522953224834,9.782096573501825,-0.6279029854472726,-3.1219639778137207,-0.2955343425273895,0.0235320013016462,-0.2972605188781396,-0.3365705456071463,-0.6470969087406931,-0.616134885036167,2.5948972702026367,-0.0451360642910003,-2.0779366493225098,-0.5691896677017212,0.7958926558494568,0.1036562919616699,0.1144957616925239,0.0385615080595016,1.264485390304029,-0.3547580242156982,-0.5177362817345187,1.0546576678670945,40
1733106574224515600,3.092707656419277,-9.27898280095756,-4.6845279352962965,0.1789686016569845,9.786105809143184,0.608698555294238,-3.03143048286438,0.0772602260112762,-0.8004834055900574,-0.3232878250470122,-0.314978388200224,-0.6080737014679454,-0.6530850736643254,3.27534294128418,0.0946971550583839,-2.186919927597046,0.5464593172073364,0.1223576962947845,1.0086034536361694,-0.0465832836925983,0.1322895586490631,0.2769288443452678,0.2478352338075637,0.1809028211225755,1.4779345181085168,41
1733106574264284700,-0.5893524516481906,-21.87576445474625,-0.1057949549019336,-0.0965862600544933,9.68538742685318,1.5343850118659437,-1.4207861423492432,-0.271318107843399,-0.4946290254592895,-0.3468694866871451,-0.2904678193729458,-0.5808584861522882,-0.6766930557010823,-0.1467391699552536,-0.4121007621288299,-1.2231361865997314,2.043545246124268,-0.7689288258552551,1.5095443725585938,-0.1843298077583313,0.0329655110836029,-1.7836273375853895,0.0265027228742837,0.7273824735920876,-0.4628879990093409,42
1733106574304052500,0.0042692748170346,-23.95915244528055,0.237877612748742,-0.1979003523484803,9.625067105925083,1.867972238831967,-0.273907333612442,-0.5299232602119446,-0.1227577254176139,-0.3614298130594825,-0.2864240303952108,-0.5680855521095024,-0.6816220844777793,-0.1692316830158233,0.5585451126098633,0.0990549474954605,1.7523834705352783,-0.4878873229026794,0.9661540985107422,-0.1983146220445633,-0.0824600607156753,-1.2323019073188304,-0.1678520590066909,0.3553700197070837,0.0660850310678128,43
1733106574343820000,0.8697539588063955,-17.453889092493057,3.056812167173624,-0.2237684051091782,9.651336104169488,1.7239596353471278,1.0097659826278689,-0.0695339143276214,-0.2896105945110321,-0.3650900906731947,-0.2925024809163965,-0.5714410020004216,-0.6742453351327674,-1.561052680015564,0.6059136986732483,1.3094931840896606,1.4603546857833862,-0.6069806814193726,1.0170791149139404,-0.120833434164524,-0.1147074550390243,-0.685188614854589,-0.1237157732248306,0.2997135076052509,-0.1549099181395024,44
1733106574383588000,-0.9855300633661448,-5.777536522737145,3.6752842572569846,-0.3757231815038249,9.746074827528,1.021390919689834,2.5518782138824463,0.3706409633159637,-0.2651128768920898,-0.3582842430840814,-0.2998969009333235,-0.5983188157258593,-0.6509292098758681,-3.218392372131348,-0.5634195804595947,2.1135568618774414,0.571114718914032,-0.3171812891960144,0.4076554775238037,0.0754555761814117,-0.1131469905376434,0.2835631129942834,-0.1243795752525329,-0.3865739901356398,0.4619655138695612,45
1733106574423356700,-0.0535750479189679,7.486822320565581,1.3789970278859138,-0.458035992400907,9.795423088064789,-0.1013911395855713,2.826529026031494,0.7065579891204834,-0.1897390186786651,-0.3358644541561992,-0.3098145506849921,-0.6396752720780364,-0.6180821688920287,-2.709390163421631,-0.3055983781814575,1.430198073387146,-1.2595508098602295,0.522250771522522,-0.2724608182907104,0.0314321778714656,0.0036949177738279,0.4851524743201211,0.0395683832466602,-0.0360651832567527,0.1975405973916873,46
1733106574463124700,-2.1520156826891004,10.916668758952618,-2.2250888099454342,-0.3813486567027866,9.74514134607017,-1.0281824795261023,1.900113821029663,0.6292455792427063,0.3193459212779999,-0.3095802703418143,-0.3179069521416208,-0.6718317395309847,-0.5930744218482974,-2.0127112865448,-0.6896750926971436,0.9720829129219056,-0.8083562254905701,0.459713339805603,-0.6662784218788147,-0.1006212383508682,0.11576709151268,0.3847635066475719,-0.1391199380159378,-0.2908183448195457,-0.072739351557591,47
1733106574502905300,0.3763886962078511,9.153403533655403,-4.801652093464136,-0.2701459610057994,9.67040729986429,-1.606429088335484,0.919820249080658,-0.1784227639436721,0.3197812438011169,-0.2948095590443667,-0.3287062786173021,-0.688372914614615,-0.5754843069810744,-0.7665835022926331,-0.5149335265159607,0.3510987758636474,-0.5637323260307312,0.6148808598518372,-0.58905428647995,-0.1282631903886795,-0.1290721148252487,0.2318910126198083,-0.1534929424524307,0.0481905053364112,-0.1651465221294202,48
1733106574542674400,0.5505453127395361,4.473250744703412,-5.27270893201232,-0.1740570651473477,9.66002093040645,-1.6805011635012923,-0.5380323529243469,0.4045813977718353,0.0424757190048694,-0.2891936096980559,-0.3314638194426608,-0.6897923225243408,-0.5750524778864401,0.7358169555664062,0.1037196218967437,0.02501967176795,-0.3263570070266723,0.4941425323486328,-0.2049218416213989,-0.0767572522163391,0.0309327188879251,0.1669695545718073,-0.1837049275636673,-0.0725438335520681,-0.3448512925738468,49
1733106574582443000,0.6836804753139615,1.6296797616720198,-1.746110823009163,-0.1440872944225557,9.703723878532648,-1.4097462402842935,-0.6402302980422974,0.1282200515270233,0.1263333112001419,-0.2897095504244331,-0.3247301859935775,-0.6829548772814938,-0.5866782681812871,0.467970609664917,0.1335792988538742,-0.2275874763727188,-0.0182729363441467,0.1364415884017944,0.0208743810653686,-0.0109501397237181,-0.0192184690386056,-0.1755131639734841,-0.1109805554151535,0.2279354251281358,-0.0366527738863602,50
1733106574622211300,0.4582431688781827,-0.0380178882271051,-0.3269393864493817,-0.0923792368187103,9.73288801369667,-1.196969897174835,-0.5195062160491943,0.21265609562397,0.0369588993489742,-0.2904385047969595,-0.3219392562702185,-0.6763014098093484,-0.5954972444422381,0.5253883600234985,0.1184762492775917,-0.3350880444049835,0.0175741910934448,-0.0073396563529968,0.148910105228424,-0.0007626994047313,0.0190528091043233,-0.0953146966155618,-0.0428214259445667,0.028193851660029,-0.1289415102768689,51
1733106574661979400,0.5001810070279985,-0.929901261255145,0.6700633072413503,-0.133718506287178,9.752832485094666,-1.0172222557030617,-0.3657300770282745,0.0532358549535274,-0.1967810094356537,-0.2930041929792321,-0.3159632409205259,-0.6723326049113401,-0.6019007955521275,0.1274282187223434,-0.0352438613772392,-0.2945235669612884,0.0835977792739868,-0.1945774555206298,0.0970275998115539,-0.0244447849690914,0.0265116859227418,-0.258676034094952,-0.0861171707510948,0.1369516886552795,-0.1266614273825194,52
1733106574701748700,0.222440261777956,-0.5944301202386617,0.0559141949236393,-0.1976004195538349,9.76407284103334,-0.8911913721758872,-0.4346994459629059,0.2923202216625213,-0.2986265420913696,-0.2954587504254485,-0.3101500531083548,-0.6702574568807156,-0.606024764773317,0.5372301340103149,-0.074599303305149,-0.266625165939331,0.0284861326217651,-0.0108250975608825,0.0495816767215728,-0.0927000567317009,0.0394341126084327,-0.0823837572414428,-0.119774043560028,-0.0472405522343935,-0.1094715975880622,53
1733106574741517000,-0.8325299974359571,-1.0359715259671212,-0.0458744469463825,-0.2782299900717102,9.781242002499104,-0.6482940315689891,-0.6931844353675842,0.5550098419189453,-0.1167211458086967,-0.2951863008831438,-0.2965399690312903,-0.6671715254523937,-0.6162882983706905,0.6912737488746643,-0.1141727119684219,-0.1471061557531356,0.0521706342697143,0.0098317265510559,-0.0463888645172119,-0.1299248337745666,0.0676830485463142,-0.1951046572153456,-0.1535783112049102,-0.0265600125136552,-0.1617501394230872,54
1733106574781285600,-0.0572310314095579,-0.4414128109127282,0.3244810335118323,-0.2971106133641675,9.791217453068494,-0.4627453391356393,-0.1799106895923614,0.1677118986845016,-0.0524032413959503,-0.2937335928878027,-0.2879347489236329,-0.6638426222558452,-0.6246014189532495,0.1184091567993164,0.1060061529278755,-0.0541286766529083,0.0017484426498413,-0.0220927000045776,0.0692408382892608,-0.1190161406993866,0.038850087672472,-0.1104271630135364,-0.1045990884304046,-0.0188527078056475,-0.0939151776817161,55
1733106574821054700,0.0495233796416781,0.1506225231438875,-0.452584777790308,-0.2133764826933853,9.799678991943598,-0.3018878559696488,-0.577411413192749,0.7737399935722351,0.1938532292842865,-0.2865773848428652,-0.2812271853296419,-0.6605325630995038,-0.6344142050447366,1.142755150794983,0.0470039844512939,0.0148327462375164,0.0430196523666381,0.1787983179092407,-0.1275218725204467,-0.06324253231287,-0.0019355817930772,-0.0317994201376335,-0.0574611276388168,-0.0543107417823746,-0.1704600270360708,56
1733106574860823000,0.9097606827631592,0.4440057500153779,0.4823369419753551,-0.189405440926738,9.803027717849613,-0.187551264427416,-0.0658446699380874,0.3203888833522796,-0.0410324819386005,-0.2801526823043039,-0.272871405703192,-0.6596238693885027,-0.6418349541337258,0.2264866083860397,0.0697494074702262,0.0585358180105686,0.0063936710357666,-0.12649005651474,-0.0024629831314086,0.0061853970400989,-0.0401589386165142,-0.1192144175785128,-0.0008742432110011,0.0989012955312151,-0.0652284005387453,57
1733106574900591400,0.5143799205113202,0.461243885064125,1.0614870754957195,-0.2215392760839313,9.800154792761802,-0.279780470916722,0.5126646757125854,0.1585454642772674,-0.0869070664048194,-0.2770409255995743,-0.2701165731491821,-0.6643055551586007,-0.6395182057026728,-0.0091107236221432,-0.0449641309678554,-0.0225833356380462,-0.0186051726341247,0.0390194058418273,-0.0046015083789825,0.0237400420010089,-0.0857310593128204,0.000467470382338,-0.0086355283856391,0.0262459210462053,-0.011677764400182,58
1733106574940359700,0.631645386845991,0.593842091217637,0.5436919397134333,-0.2530619753391482,9.78980933983624,-0.5157095982125028,0.6071217656135559,0.0103737376630306,-0.0859259665012359,-0.2736304848103352,-0.2711215464149351,-0.6728944780847488,-0.6315317784405968,-0.0052672494202852,-0.2378790974617004,-0.0354296267032623,0.0269463658332824,0.0090118050575256,-0.0949606299400329,0.0175807029008865,-0.0470216386020183,0.1997201699204742,0.0022833666298538,-0.0930100364023819,0.0816917746555991,59
1733106574980129000,0.2531225464199669,-0.5661415988653898,-0.2108919906675815,-0.306094276417233,9.774390821430089,-0.7334709997255354,0.4009740352630615,-0.3803988993167877,0.0552353374660015,-0.2737997158232598,-0.2739557437105904,-0.6799594587505519,-0.6226050933507956,0.1553352028131485,-0.3765795230865478,0.0509872883558273,0.04402357339859,-0.018959641456604,-0.0736981630325317,0.0152816539630293,-0.0610362477600574,-0.0600989652284188,0.0538150370121002,0.1882094543415121,0.2321052216260694,60
1733106575019897300,0.0217059646451845,-0.003905190744996,-0.6953378876209259,-0.3265176904385909,9.761623694315553,-0.8800470239575952,0.4444875717163086,-0.4319466650485992,-0.1385252177715301,-0.2772024250830157,-0.2806353318048555,-0.682725216129848,-0.6150519789744995,0.0541545301675796,-0.2745488584041595,0.0815669670701026,0.0141451954841613,0.0200057029724121,0.0805115103721618,-0.052653282880783,-0.0513246804475784,0.04642072375149,-0.0133463535457849,-0.0725206262064166,0.0273592685659881,61
1733106575059665700,-0.4298275139939039,-0.5620090291053056,-1.8252374050855635,-0.2911264609206467,9.755444128897786,-0.9575735504262148,-0.0698247700929641,-0.1954784840345382,0.2798504531383514,-0.2775412640983151,-0.2858448410747183,-0.683458403092425,-0.6116765637115875,0.0504569970071315,-0.1197148486971855,0.0215854570269584,-0.0084472298622131,0.0205270648002624,0.0011904835700988,-0.08896204829216,0.0143082085996866,-0.0585083213363774,-0.0561896152794361,0.0470567383663961,0.0798569604438729,62
1733106575099434800,-0.3297787380611524,-0.8988941285729408,-0.6798444773476571,-0.152652914726641,9.770308520552517,-0.829550470168516,-0.5271304249763489,0.3353770077228546,0.2638770341873169,-0.275484111137915,-0.289318274764246,-0.6771929100453157,-0.6179103427858952,0.025847528129816,0.0325222462415695,0.0492286719381809,0.0145377516746521,0.0060803294181823,0.0887088477611541,-0.0826951637864112,0.0267902985215187,-0.0236678689854335,-0.0528855100274086,0.0215798129482893,-0.0702540558141889,63
1733106575139202000,-0.4474707592448219,-0.3594581658035516,1.0613375840224326,-0.1184585485767573,9.781388132971523,-0.6933790086381137,-0.0933167040348053,0.4525731801986694,-0.0226805508136749,-0.2707380135500216,-0.2824550110052859,-0.6749604847083671,-0.6255784063675653,-0.3644144833087921,0.1111158058047294,0.1644348949193954,0.0114181041717529,-0.0386339426040649,0.0755925178527832,-0.0405757203698158,0.044504091143608,-0.0704999614332336,-0.0842384248971939,-0.0131525850514532,-0.0795057632528711,64
1733106575178970600,-0.0736315374572295,-0.2239320895045995,1.1338964781463146,-0.134065593558643,9.777095988735557,-0.7488789236724376,0.2695202827453613,0.6312004923820496,-0.1061226800084114,-0.2645418909866124,-0.2762854440543992,-0.679594401987009,-0.6259676326382869,-1.020471453666687,0.1166247650980949,0.1442706882953643,-0.0170242190361022,-0.0437469482421875,0.0143492817878723,-0.0562274232506752,0.0553162992000579,-0.0379731677359668,-0.1069430634379386,-0.0222271001591696,-0.0514757740847766,65
1733106575218739700,0.2706248122976161,-0.1953635821461677,0.0155973821043968,-0.1717142283482477,9.766483993828295,-0.8698788272950798,0.3785289227962494,0.6312177181243896,-0.180290400981903,-0.2553639182259117,-0.2670664669106184,-0.6877695684367228,-0.6248502274489114,-1.3338850736618042,0.0506239645183086,0.1834038496017456,0.0431354641914367,-0.0907183289527893,-0.0061569511890411,-0.0735718235373497,0.0417582355439662,-0.0644221667563542,-0.0955625101923942,-0.0104907990883395,0.0680889456355944,66
1733106575258508300,-0.0396249580975621,-0.1152238775044679,-0.1476279444377869,-0.2036858221484348,9.743954182112216,-1.088229609536007,0.6455451250076294,0.4056213498115539,0.0646686404943466,-0.2468289491954663,-0.2613934499394577,-0.6979668560132747,-0.6193473452700029,-1.258427381515503,-0.1195665150880813,0.0900517404079437,0.0243841409683227,0.0051348805427551,-0.0120970606803894,-0.0708752870559692,0.0109186433255672,-0.0230083981464151,-0.043053813278675,-0.0475635690771043,0.0571097659503342,67
1733106575298276400,0.8184288452386855,-0.2577770759612321,-0.7492646350543946,-0.0723357117932988,9.732380648696422,-1.2024580462623389,0.0633210688829422,0.5999789834022522,0.2485694587230682,-0.2346850949493325,-0.2602501945650519,-0.7025511616598047,-0.6193662655543092,-0.4532498121261596,-0.1500947028398513,0.0862006694078445,0.0295543670654296,0.0023661851882934,-0.0861209034919738,-0.0531724207103252,0.0123276747763156,0.0284909531767712,1.80543866008e-05,-0.0252727583152474,0.1092701932644471,68
1733106575338045000,0.8094003931958228,0.5517372259378432,0.5908358951389789,-0.0188649702072434,9.709661451888085,-1.3756851268589496,0.7230576872825623,0.1360072940587997,0.0710785090923309,-0.2266446853255028,-0.2596425203570368,-0.7090318632213266,-0.6152168662258162,-1.2077101469039917,-0.0121488729491829,0.1537149399518966,-0.0229656100273132,-0.1099718809127807,0.0969212055206298,-0.0279598459601402,-0.0237811990082263,-0.0087031005375261,0.0262630861252546,-0.0037566571112896,0.0383314796543447,69
1733106575377814000,-0.4044519939905032,-0.0780552995830774,-0.6507201627373695,0.0872203014192637,9.682245621696111,-1.5546384030826388,0.1799475848674774,0.6669778823852539,0.2703685462474823,-0.215681136660597,-0.2595286188777376,-0.7154784400852414,-0.6117329241531179,-0.5717591643333435,-0.0733424499630928,0.0714279860258102,0.00519460439682,0.1023817062377929,-0.0163964331150054,-0.018076978623867,-0.0237939245998859,0.0109208051281049,-0.0166788473725318,0.0220996766705065,0.0501064630595268,70
1733106575417582300,0.6746851218231021,0.6561807662308216,-0.608102817890793,0.2039867778563872,9.675249479198456,-1.5869311916612088,-0.0880174338817596,0.5928889513015747,0.0638678893446922,-0.2035415887327042,-0.254835130362804,-0.7183105399723448,-0.6145404651826123,-0.8052800297737122,-0.2004322707653045,0.0123358992859721,-0.0222064852714538,-0.0647310018539428,-0.0699853003025055,-0.0361522994935512,-0.0190930441021919,0.0700605425360845,-0.0463354997336864,-0.0535968898580176,0.0943984311540145,71
1733106575457350700,0.6862495220843702,-0.1201110650241374,-0.9185364021539688,0.2326749295391142,9.696169517630338,-1.4493287474796177,-0.495536744594574,0.9399515390396118,-0.1215695962309837,-0.1938901869855687,-0.2423048892014209,-0.7177628710123954,-0.6233068499620215,-0.7131509184837341,-0.1695903092622757,0.0616766810417175,0.0183347463607788,-0.0174765586853027,-0.0198580920696258,-0.0450212694704532,0.0206498447805643,0.0268485631144721,-0.0584266521036624,0.008751495981717,0.1385513698037248,72
1733106575497120000,0.2946465978708118,0.0714624771893024,0.7585083372831344,0.2135227592962794,9.71408862068057,-1.3271312315702437,-0.0244007594883441,0.2287952154874801,-0.1344004273414611,-0.1885678841516346,-0.231883876057324,-0.7168645146781164,-0.6299025958755833,-0.1623026728630066,-0.025173008441925,-0.0359830930829048,-0.0288125872611999,0.1454814672470092,0.0574570894241333,-0.0491808094084262,-0.0103492047637701,0.0986792685446795,-0.0165568459779024,-0.0296174615722266,0.1965611396339721,73
1733106575536888300,-1.507519362902641,0.3655740183353423,0.549224804725498,0.2432312122037634,9.704588970929384,-1.3900389386430383,0.3030363321304321,0.1004027649760246,0.2172823995351791,-0.1865592648470288,-0.233255142901712,-0.718654506223153,-0.6279518439751358,-0.2225835919380188,-0.0841970741748809,-0.0938507169485092,0.0228771567344665,0.0955835580825805,0.0099316835403442,-0.0542399510741233,0.008063512854278,-0.0165990311443223,-0.0211023241281509,-0.0042736661518953,0.0604149221426807,74
1733106575576635100,0.1772880464252084,-0.1389975518018007,-0.161846074078232,0.2924243917766958,9.684531102284788,-1.514844006702304,0.2739299237728119,-0.0773310586810112,0.0539739727973938,-0.1816296583787932,-0.2341545301592643,-0.7227774241597604,-0.6243198060189296,-0.1862764507532119,-0.0430548042058944,-0.0216940380632877,-0.0017486214637756,-0.066852331161499,0.0074288845062255,-0.0389947704970836,-0.0155397588387131,-0.1553095849815756,-0.0682220235466957,0.1180234907608944,-0.0236959511523135,75
1733106575616403500,-0.1722234930446371,0.0348784211575984,0.2173627941168844,0.3018097492321394,9.669119598141313,-1.6085435962714254,0.219504028558731,-0.3036462664604187,0.0471948161721229,-0.1831342553812771,-0.2388211408368686,-0.7245532135666807,-0.6200394462543439,-0.1317772567272186,-0.0097468076273798,-0.0207256469875574,-0.031788170337677,-0.0141021013259887,0.0114417225122451,-0.0380159653723239,-0.0320053361356258,-0.0144891742673236,-0.0990837290883064,-0.0120519999734766,0.0194559754949994,76
1733106575656171000,0.1984443230320699,-0.0245978501617908,-0.3823379600010812,0.2750090552638284,9.661258947768808,-1.6597670030303298,0.0147974789142608,-0.0417116284370422,-0.0905889794230461,-0.1852519170776087,-0.2405250512797641,-0.7257907871330108,-0.6172982536738076,-0.1810880750417709,-0.0730866268277168,-0.0233194325119256,0.0340214967727661,-0.0126442909240722,0.004226267337799,-0.0522912442684173,-0.0214511398226022,-0.0087031005375261,-0.1176516562700271,-0.0037566571112896,0.0383314796543447,77
1733106575695938600,0.0108272998920641,-0.282345115506649,0.1134440083503723,0.2507392680126242,9.664473233640193,-1.644835391358286,-0.0100043732672929,0.0365433879196643,-0.0200117081403732,-0.1867579363464149,-0.2401106467877869,-0.7254034330139152,-0.6174611378022699,0.0007163411937654,-0.0272934176027774,-0.042031068354845,0.0060074925422668,0.0241677165031433,0.0095812231302261,-0.0486469157040119,-0.0157006382942199,0.0243192136002122,-0.0723977088928222,-0.0270888061777106,0.0578986056399298,78
1733106575735706000,0.1029113440233282,-0.0366489379614591,0.0975578724324703,0.286595119367633,9.65729939648807,-1.6807241586022077,0.1364004164934158,0.4380919337272644,0.0109107671305537,-0.1825082532019808,-0.2386727879214449,-0.7271371151464977,-0.6172501302438655,-0.2503086924552917,-0.0457249917089939,0.0250737331807613,0.0238346457481384,-0.0418190956115722,0.008069485425949,-0.0503599531948566,-0.0379657298326492,-0.0280434080553823,-0.0566176027059555,0.0283878398621687,0.0155564199063461,79
1733106575775474400,-0.5654289936166257,0.3640834875166416,-2.1453307980977,0.4533502822700888,9.641284665754435,-1.7350719809919597,0.170929804444313,2.5746066570281982,0.5800362229347229,-0.1570808641229068,-0.2225633229047729,-0.7341182615767557,-0.6219819189943392,-0.5992469787597656,-0.391704112291336,0.0433288365602493,0.0222958326339721,-0.0585312843322753,-0.1824087500572204,-0.0415308885276317,-0.0212364587932825,0.0190006101100472,-0.0557454340159893,-0.0091382262812257,0.0273453359387582,80
1733106575815242000,0.0427935781963169,-0.0091512747049331,-0.2193755952440202,0.9308981633380056,9.609449850076436,-1.7211245580516754,-0.0162189956754446,1.5705660581588743,0.7320747375488281,-0.1126096288763907,-0.2066098417850978,-0.7382853796826742,-0.6321123878024048,-0.4759452641010284,-0.3249343037605285,0.064002625644207,0.0435407757759094,0.0264540910720825,-0.0174965113401412,-0.0105443885549902,-0.0586891993880271,-0.0657610324109904,-0.0665473863482475,0.1046651288880966,-0.0501343283139867,81
1733106575855009500,0.8152918623872101,-0.2409995441615581,0.7501562501318753,1.1317927838653326,9.5984397957623,-1.6611507124736904,-0.0143546983599662,0.6200470924377441,0.0639558285474777,-0.0943614098053474,-0.1997710450171733,-0.7380966359082394,-0.6374958526439668,-0.3797897100448608,-0.0458461157977581,0.0277893561869859,-0.0356956720352172,0.0365745425224304,0.1249839067459106,-0.0147470096126198,-0.0291439369320869,0.0062815953119134,-0.0789829194545745,-0.0059622888132289,0.0104126409768359,82
1733106575894778000,-0.5484614191375673,-0.0358171633124351,-0.0604198357798159,1.1956440553985537,9.59646411177516,-1.627493649804592,-0.0133192837238311,0.8341282606124878,0.1418590247631073,-0.083386270215235,-0.1914453855330884,-0.7391398696389623,-0.6403653821904922,-0.0099900988861918,0.0223313942551612,-0.0087448181584477,-0.0056375861167907,0.0107871890068054,0.0117795467376708,-0.0303090959787368,-0.0213689878582954,-0.0752993473718641,-0.0880744531750679,0.1381723712903447,0.0012302924260933,83
1733106575934545400,-1.0883517015457154,-0.0288245279461145,-1.542846696871519,1.4025905233107507,9.577948211875558,-1.5703636493504047,-0.1318415999412536,1.2312527894973757,0.5975316166877747,-0.0636897413284752,-0.1838847289999253,-0.7390890800496652,-0.6448855602763832,-0.3342888057231903,-0.0790487080812454,0.0160207822918891,0.0412901043891906,-0.0608704090118408,-0.0254990011453628,-0.032925046980381,-0.0512119159102439,0.0215498858841951,-0.0927540212869644,0.0498329113817308,-0.0285062740434892,84
1733106575974313000,-0.6032597617737948,0.0177320560455322,-1.6045744003795086,1.7586117004029451,9.554584871944783,-1.337001322069019,-0.5294484496116638,1.7696491479873655,0.8340851068496704,-0.0343124261028241,-0.1749679647867969,-0.7331809512948511,-0.656242740582787,-0.4868415892124176,-0.1035756170749664,0.0284928325563669,0.0271053910255432,-0.0024665594100952,0.0054473280906677,-0.0189407356083393,-0.0030151717364788,0.0664840448893373,-0.0565925240516662,0.0200851790599175,0.0242415886366041,85
1733106576014081800,-0.5612449128650129,-0.31143735447824,-0.8027531372010708,2.19753210997805,9.50591991749704,-0.989306732360646,-0.52525395154953,2.099156856536865,0.9922824501991272,0.0046116145544047,-0.1621299035528044,-0.7239851529672267,-0.6704760484414924,-0.562470555305481,-0.1819004565477371,0.0234453417360782,0.0350886583328247,0.0058655738830566,-0.0213616490364074,-0.0058454917743802,-0.0174188967794179,-0.0090427973745128,-0.0397163741290569,0.0192496141517651,0.0429017558451043,86
1733106576053849000,0.136371002690494,0.0589151303052902,-0.5702233152210712,2.622946410639584,9.431400975346564,-0.5824349273446947,-0.5836434960365295,1.8803353309631348,0.8813547492027283,0.0453877195978693,-0.1481718877962831,-0.7125594767182429,-0.6842836455684386,-0.2257495671510696,-0.0666107237339019,0.0621356107294559,-0.0064290761947631,0.0341065526008605,0.0363677144050598,-0.0050150309689342,-0.0048368289135396,-0.088797478474956,-0.0576510801911354,0.0976051091076806,0.0037605369894969,87
1733106576093616400,0.2161889280319213,-0.2750356692761183,0.0403144564653746,2.9362264703750607,9.354148808839916,-0.2210773028616793,-0.4065398871898651,1.324218511581421,0.6361474394798279,0.0772527856760501,-0.1374444654421907,-0.7016985280863389,-0.6948095425247746,-0.2150417864322662,-0.0201658383011817,0.0160002764314413,-0.0086507201194763,0.0066105723381042,0.016292817890644,-0.0141463819891214,-0.0401552580296993,0.0122234932160179,-0.088168978691101,0.0110816947782412,0.0253955581444315,88
1733106576133385200,0.7475394917622208,-0.6924369054824113,1.1161077234774828,3.0887194635659454,9.307522666743395,0.0153017966913059,0.0333557054400444,1.1689214706420898,0.1269654184579849,0.0986002730851544,-0.1269312464499027,-0.6950599140911424,-0.7007555014067633,-0.1532894670963287,0.0131231946870684,-0.1031624674797058,-0.0298413038253784,0.0487660765647888,0.0254145190119743,-0.0179937127977609,-0.0186868757009506,-0.0250185369590064,-0.0892384499311447,0.0499705114878248,0.0877463254542089,89
1733106576173151700,0.2919353661507368,-0.5932394491493702,1.1569669726103544,3.118155693669617,9.297208777999876,0.0968464818932581,0.2862613201141357,1.3723492622375488,0.11375642567873,0.1197217604929351,-0.1081412751572021,-0.6952464802820303,-0.7004316002910721,0.1004906073212623,-0.005079404450953,-0.2295565605163574,-0.0249384045600891,0.0434461236000061,-0.030624084174633,-0.0279017500579357,-0.040991622954607,-0.0061257722792506,-0.0947101488709449,0.0147109295425121,-0.0143052302518743,90
1733106576212919300,-0.3203974905252456,0.3447445807963609,-0.2109001739740371,3.18416195127964,9.273361453944444,0.1904000414546579,-0.214433491230011,0.6218833923339844,0.3114211559295654,0.1366706796535772,-0.0964139796984852,-0.6935392156888702,-0.700734463136234,-0.0438061207532882,-0.0846107676625251,-0.1937175244092941,0.0159077048301696,-0.0039155483245849,-0.0049874261021614,-0.0215240214020013,-0.0574189610779285,-0.0714112082263687,-0.0978568419814109,0.0819875883975531,0.0636019546809606,91
1733106576252686800,-0.1478527661696076,-0.131591074937582,0.3599234817603602,3.328699309290945,9.215043705010414,0.4160969852073118,-0.3448373973369598,1.0006698369979858,0.5301414728164673,0.1513179132705903,-0.0934565154583188,-0.6856025358397764,-0.7059164664397725,0.020305223762989,-0.1067219823598861,-0.1298995316028595,0.0165767669677734,-0.0364229083061218,-0.0191198587417602,-0.0363698005676269,-0.0651421099901199,0.04122989080986,-0.0924766808748245,-0.0053178579964267,-0.0103014893446059,92
1733106576292455200,-0.4841650341853499,0.4820961189568042,-0.8924176260352135,3.5270454143792387,9.125086955231428,0.6805309252418578,-0.4054744839668274,1.2033075094223022,0.61217200756073,0.175297187130816,-0.0862265242758539,-0.6766591194650513,-0.7099072506350368,-0.2013526111841201,-0.1440246105194091,-0.0801692008972168,0.0278648138046264,-0.0464977622032165,-0.0039659217000007,-0.0510264262557029,-0.0450615137815475,-0.0587719909409759,-0.1324553340673446,0.0121867425438482,-0.0456473419259302,93
1733106576332222700,-0.5274196540221572,0.3179197022348642,-0.1877104370445013,3.676842300353944,9.033532707127929,1.022987248970568,-0.3660082221031189,1.1019434928894043,0.4761306643486023,0.1975565512923706,-0.0784144796770546,-0.6646001327663538,-0.7163304088804725,-0.2382605522871017,-0.1180966049432754,-0.1039366424083709,0.0257393717765808,0.0212557315826416,0.0535163879394531,-0.0319242514669895,-0.0412878692150116,-0.0122234932160179,-0.1182884499430656,-0.0110816947782412,-0.0253955581444315,94
1733106576371990300,-0.6383809056460857,-0.4930605805635452,0.4645820895761251,3.7910955792605874,8.95581526119709,1.2614878159232437,0.0597526170313358,1.5736932754516602,0.5673274397850037,0.2215508547826396,-0.0665938768377827,-0.6566942047678057,-0.7177974553130994,-0.2768598794937134,-0.0914593562483787,-0.094546340405941,0.0275714993476867,-0.0086791515350341,0.0489793494343757,-0.0049391449429094,-0.0288802403956651,-0.0250983310468145,-0.1089724525809288,-0.0166543963270611,-0.0384356661146041,95
1733106576411758600,-0.5741954337224364,0.0828279208123684,-0.0775007344402372,3.968873820355536,8.844550934973359,1.480652398765087,-0.0675387382507324,1.1163729429244995,0.9166635274887084,0.2513689028242421,-0.0547073106955033,-0.6492417487586795,-0.7157554518266148,-0.0664938539266586,-0.0461379997432231,-0.09324511885643,-0.0002856254577636,0.0042363405227661,0.0177485942840576,0.0031605192925781,-0.0264589842408895,-0.0072445871336618,-0.0930733233690261,-0.0060259999867383,0.0097279877474997,96
1733106576451526100,0.2031818546816706,-0.4643102868974209,0.2632293500177562,4.260357935607433,8.676420812189578,1.6551245840519666,-0.108740895986557,0.7251533269882202,0.9638867378234864,0.2750073925859406,-0.0569475019823427,-0.642159724245383,-0.7132732378342193,0.0021392679773271,-0.0819486677646637,-0.0878557488322258,-0.0189899206161499,-0.0249736905097961,-0.0292351804673671,-0.0201719943434,-0.0277326479554176,-0.0194680792080354,-0.1167425885796547,-0.0171076941941573,-0.0156675726802204,97
1733106576491293700,0.1230906653568148,-0.2180354326814413,0.3702338268399238,4.54739822319299,8.496885498294233,1.8150735923372208,0.1220300421118736,1.1652073860168457,1.0945677757263184,0.3015476422836274,-0.056657648321793,-0.6358041482460812,-0.7082457457056348,-0.1616043895483017,-0.0881121829152107,-0.0632406175136566,-0.0182060599327087,-0.02475106716156,-0.0180591307580471,-0.0542038492858409,-0.0355365313589572,-0.1088888566635083,-0.147402822971344,0.0455028554213233,0.0036633162720303,98
1733106576531062000,0.3580591126605868,0.2953302692860364,-0.9191514653123914,4.814463644242286,8.302995495831967,2.0128527111925183,-0.0006998609751462,1.077946662902832,0.9902565479278564,0.3317259131705515,-0.0528518859617426,-0.6281558358794794,-0.7018438135077272,-0.3039799034595489,-0.1533351391553878,-0.0547461956739425,0.0152341723442077,0.0052296519279479,-0.0224150381982326,-0.0766986683011055,-0.0561394244432449,-0.0207988209217204,-0.1412030607461929,0.0344138404197292,0.0058284327296685,99
1733106576570829600,-0.0372387205481529,0.3393868531554937,-0.6539405860885977,5.031843243363499,8.11109871301353,2.249676284843684,-0.16524738073349,1.1373087167739868,0.9439983367919922,0.3576803137548151,-0.0505517902204527,-0.6186622211352192,-0.6976865627625672,-0.478851318359375,-0.1088875010609626,-0.0017831150908023,0.0107236504554748,0.0052607059478759,0.0341439209878444,-0.0646701827645301,-0.0225455146282911,0.0433116974860196,-0.120056115090847,0.0274073614744353,-0.0544753349266713,100
1733106576610597000,-0.4377081111758947,0.0540881485402584,0.0583376226782798,5.232545848450064,7.890022597461939,2.5570287080958485,-0.1578412055969238,1.2229903936386108,1.045458197593689,0.3858429286637221,-0.0474417883178409,-0.6061164062841989,-0.6939001613217668,-0.2582270503044128,-0.0308386702090501,-0.0106564350426197,-0.0126451849937438,0.0112939476966857,0.0190950036048889,-0.0671843066811561,-0.0018525925697758,0.0010907642254554,-0.1022522523999214,0.0612404816800495,-0.0272481180754024,101
1733106576650207700,-0.4129501020163297,-0.2453577393710613,0.0124535311207175,5.440623366218805,7.64583390187025,2.848018902350962,-0.0904379710555076,1.1492758989334106,1.0906672477722168,0.4147864130343309,-0.0451245480958157,-0.5939319989025611,-0.687866778866849,-0.3991423547267914,-0.0275357104837894,-0.0247975531965494,0.0047367811203002,-0.0089211463928222,-0.0018104910850524,-0.0930195078253746,0.0188779849559068,-0.0459251998860854,-0.1246384978294372,0.058262995672645,-0.0358221340317861,102
1733106576689969400,0.4190793985515832,0.0209352360010147,-0.1921358522713184,5.611166395363211,7.416801858878135,3.110667676001787,-0.0751116871833801,0.9733038544654846,0.8939889669418335,0.4407921804508639,-0.0429009328010494,-0.5827174209835545,-0.6813972595221116,-0.4482702314853668,-0.024052670225501,-0.0384401939809322,-0.0011230111122131,-0.005902886390686,0.0150042781606316,-0.1253188848495483,0.055001001805067,-0.0699526936808601,-0.1144048124551773,0.0797182460929267,0.0349984627741156,103
1733106576729731000,0.2674398073196411,-0.1084060141831636,-0.2880950573354959,5.744999111747742,7.213947628715634,3.335315512560308,-0.008741607889533,0.9223872423171996,0.875774621963501,0.4635693455601263,-0.0404595726422117,-0.5729827779973414,-0.6746534063769266,-0.4141583442687988,-0.0420043990015983,-0.0306228175759315,0.0203517079353332,-0.0057149529457092,-0.0009529590606689,-0.135547250509262,0.0359071195125579,-0.0531697915863245,-0.0863719806075096,0.0522369951150845,-0.0260941462842864,104
1733106576769493500,0.4750391861826181,-0.2219417924702167,-0.2558440620720386,5.8498430495351545,7.033595153218507,3.532458379338681,0.0805008336901664,0.8382373452186584,0.748445451259613,0.4842085340499283,-0.0374419850541842,-0.5643516962091782,-0.6675682776884113,-0.0613526217639446,-0.0234257616102695,-0.0372166037559509,0.0136438012123107,0.0568957328796386,0.001411072909832,-0.1518428027629852,0.057213194668293,-0.0508760591925354,-0.0851539373397827,0.0127037498719873,-0.0677307798476889,105
1733106576809255400,0.5087614230424166,-0.0870551831185817,-1.008919268390536,5.942564587852359,6.875814575013518,3.685038174030185,-0.0215742848813533,0.5862867832183838,0.6222251057624817,0.5018406696608791,-0.0350966425363442,-0.5575693403306974,-0.6603338133185098,0.0340604484081268,0.0216240584850311,0.0057967738248407,0.0232688188552856,0.0024677515029907,0.0624583959579467,-0.1517792344093322,0.0556254610419273,-0.085512702916935,-0.081585481762886,0.0295566005137516,-0.0548018223681021,106
1733106576849016800,0.523928597036004,-0.124030284294486,-0.9064762542650104,6.007452947348356,6.739807437199354,3.8283003975391385,-0.1848964691162109,0.3120148181915283,0.3783630430698395,0.5133163516714676,-0.0357503955943119,-0.550938210624945,-0.6570352394594556,-0.082320749759674,0.0550351180136203,-0.0313012599945068,-0.0107839107513427,0.0272001028060913,0.0253165941685438,-0.1463354378938675,0.0846759527921676,-0.0785517139310482,-0.0815849006175994,-0.0224182319672312,-0.0535297383393626,107
1733106576888779500,-0.0169230777502059,-0.0488093313544988,-0.1532268604233861,6.068117551669478,6.625830344885587,3.93022903240174,-0.0813676714897155,0.3523396253585815,0.4725628793239593,0.520943365976011,-0.0380608054174154,-0.5460452957286329,-0.6549838695409029,-0.0678486004471778,0.0590995289385318,-0.0694653540849685,-0.0008529424667358,0.0179733037948608,0.0137991905212402,-0.1729277521371841,0.0640532299876213,-0.1443607228027656,-0.086011029779911,0.0996195998684037,0.0296254119832417,108
1733106576928541400,-0.1284732351779937,-0.1762064617335796,-0.1449900702148676,6.139117087522148,6.465175672549009,4.084498679876328,-0.0382916815578937,0.7428531050682068,0.7566295862197876,0.5354458989330054,-0.0377349183069051,-0.5388177731257158,-0.6492681719608824,-0.1030619814991951,0.1104415953159332,-0.091893769800663,-0.0048164725303649,0.0055344700813293,0.0316964387893676,-0.2039785832166671,0.0508319027721881,-0.0977361972745973,-0.1041687056422233,0.018474908018799,-0.0801973805125337,109
1733106576968302800,0.2202513551652431,0.0358808761984109,-0.4066594774395227,6.221198573881387,6.259223476371169,4.276587478135526,-0.142750009894371,0.5724889039993286,0.7297741174697876,0.5527022986699389,-0.038092601280483,-0.5296259737946709,-0.6423126305697536,-0.0170799680054187,0.153207391500473,-0.089230477809906,-0.0092087984085083,0.0158912539482116,0.0068426113575696,-0.2051683962345123,0.0741658583283424,-0.1046971953936386,-0.1023174375295639,0.0704497427830705,-0.0814694736744277,110
1733106577008065800,0.4092956711620092,-0.0749830525308847,-0.1239303310513496,6.286387962150573,6.074553137674927,4.444267226803302,-0.1822713017463684,0.4796034097671509,0.5485388040542603,0.5654771264076499,-0.0403231072706229,-0.5213247320032532,-0.6378324123947552,-0.2972314655780792,0.1424633860588073,-0.0940192341804504,-0.0016394853591918,-0.0129529237747192,0.0160050392150878,-0.2244629114866256,0.0466606132686138,-0.1120976078432518,-0.1142118647694587,0.0556750935047166,-0.0678488989351782,111
1733106577047827500,-0.0287327580094337,-0.1626110671013593,0.3164347243741154,6.326978915736079,5.949994445592164,4.553820072934031,-0.0608594566583633,0.4301568567752838,0.6021331548690796,0.5743696724605553,-0.0414626141583342,-0.5158494402328533,-0.6342551116208459,-0.2633693516254425,0.1299012601375579,-0.0719984918832779,-0.0130701065063476,-0.0129364132881164,-0.0110602416098117,-0.2485257089138031,0.0548459403216838,-0.0262732474445481,-0.084485188126564,0.0436157812993973,-0.0208322482672869,112
1733106577087589000,0.2257972988545894,-0.1847048254877328,-0.1227691783174872,6.405841440048813,5.797161845183372,4.639879523013532,-0.0265308637171983,0.1923374831676483,0.5260128378868103,0.5854189172471933,-0.0433591310262613,-0.5114215192843825,-0.6275767252659719,-0.1739550679922104,0.1215125694870948,-0.050270490348339,-0.0240981578826904,-0.0156975388526916,-0.0079841613769531,-0.2230498790740966,0.0700313821434974,-0.1040259176691062,-0.0781823843717575,0.0880715936195105,-0.2303292979947291,113
1733106577127351800,0.3398714218020439,0.0911567732185125,-0.1651192505300044,6.496921056377888,5.677522489324212,4.661130693095922,-0.1746210008859634,-0.17953622341156,0.2586596310138702,0.5897095061315334,-0.0489837719180905,-0.5098520068551806,-0.624415108891269,-0.2618494927883148,0.0538883619010448,-0.1102943420410156,-0.025291621685028,-0.006875455379486,-0.02541184425354,-0.1509977132081985,0.0670344308018684,-0.1062915975787676,-0.0765231326222419,0.0871012781494762,-0.1854777643552981,114
1733106577167115500,-0.1883089874595403,0.0675233841747045,0.5411731618255377,6.583072568655013,5.578154352599382,4.660230529385805,-0.0554248951375484,0.0231211148202419,0.3900299072265625,0.5920529318343329,-0.0548245615983668,-0.5093021105436102,-0.6221568027858105,-0.1543877571821212,0.0346806831657886,-0.0709071904420852,-0.0156812667846679,-0.037138819694519,-0.028847686946392,-0.1084969267249107,0.0752218142151832,-0.1122335000494495,-0.086465336382389,0.0700572956996504,-0.2004606860894709,115
1733106577206877200,-0.0739981331467628,-0.0912649097681045,0.0997346319496631,6.661045450651645,5.44440054666996,4.707373096571862,-0.0574555993080139,0.2814350128173828,0.5596978068351746,0.5995932768436388,-0.058178438709147,-0.5065629703262201,-0.6168444792156916,-0.3540846109390259,0.011100310832262,-0.1150789782404899,-0.014982521533966,-0.013101041316986,0.0038954019546508,-0.0836917608976364,0.0500888638198375,-0.0954705173649359,-0.0916756615042686,0.0194452120723901,-0.1250489232851192,116
1733106577246639600,0.2636322317302227,-0.0736105951339006,-0.0407645565867424,6.717111621266603,5.274415151408315,4.819890053205191,-0.1311588585376739,0.3188912570476532,0.5125772356987,0.6096308857905965,-0.0610511807903876,-0.5005264739394912,-0.611634023033553,-0.1232974752783775,0.1052514687180519,-0.1016248911619186,-0.0292461514472961,0.0228025913238525,0.0098122283816337,-0.067213661968708,0.0796978771686554,-0.0811371729801408,-0.0916231125593185,0.0227485690332949,-0.1406123026552144,117
1733106577286401500,-0.0834919376790523,-0.2863689641952514,0.2849263641715049,6.765109636238217,5.127594358634949,4.910341600763798,0.0278642661869525,0.2579007148742676,0.528166651725769,0.6185029998616539,-0.0632898922053164,-0.4956174366692473,-0.606474931224703,-0.1281907856464386,0.1457367837429046,-0.1219260990619659,-0.0133641362190246,-0.0118133425712585,0.0279150009155273,-0.0501268059015274,0.0426172614097595,-0.1106390887311659,-0.0913218632340431,0.0534057557666674,-0.096452386275446,118
1733106577326163000,-0.0058440498530864,-0.1687672516435384,-0.1396884566754102,6.852212750151753,4.9974225028455255,4.923751701956987,0.0880854576826095,-0.0417282916605472,0.5217098593711853,0.6261751758833276,-0.0662604718347132,-0.4945382474398276,-0.599121123633595,-0.2365119308233261,0.12345652282238,-0.1356188058853149,-0.0076959133148193,0.0144104361534118,0.0009858608245849,-0.0345443859696388,0.0327371358871459,-0.0898402655261568,-0.0639252364635467,0.0189919130636495,-0.1022808275674469,119
1733106577365926000,0.0929050781905651,-0.1041886887490749,-0.0285775674477219,6.970737422767281,4.872988898447156,4.88192360779196,0.0640462413430213,-0.0774605274200439,0.5004223585128784,0.6311820855736466,-0.0715692931943104,-0.4959526233710523,-0.5920455654306432,-0.2377010285854339,0.1021822318434715,-0.1374477297067642,0.0025592446327209,-0.0071368813514709,0.0047035217285156,0.0015925295883789,0.0023292228579521,-0.1599008034956641,-0.0695464164018631,0.0725888006383786,-0.196679249588307,120
1733106577405687600,-0.0713765524715185,-0.260574889986217,-0.0107800449505448,7.071124381145834,4.719475914558768,4.88836708484292,0.0595867559313774,0.1970778405666351,0.6521401405334473,0.6389680760961624,-0.0757633330138821,-0.4949975370794257,-0.5839153431345512,-0.2755405306816101,0.0434971861541271,-0.0868444815278053,-0.0005728602409362,0.1098505854606628,-0.0273139402270317,0.0469350293278694,-0.0452984757721424,-0.1075381909732241,-0.0829932615160942,0.0171121580234321,-0.1543370684213005,121
1733106577445449200,-0.0113870709329843,-0.036524142538011,-0.4635200133025646,7.163765255442261,4.519816388784348,4.94187421862483,-0.0765404254198074,0.1506062150001526,0.7204530835151672,0.6489661037288729,-0.0804894394087924,-0.4914834495286612,-0.5751596070070716,-0.5341079235076904,0.0919208601117134,-0.0654860585927963,-0.0220016837120056,0.0360980033874511,0.0273054763674736,0.10006994754076,-0.0574879385530948,-0.0885375762965995,-0.0765351131558418,0.0079739328838506,-0.126991727915965,122
1733106577485212000,0.507203087684512,0.1487967690214514,-0.374192793598771,7.258540219157934,4.311002957956493,4.9899143191725015,-0.2184965759515762,-0.0265509206801652,0.5011080503463745,0.6565086104325977,-0.0877006428797309,-0.4877435372294992,-0.5686927411877118,-0.583455502986908,0.0065095536410808,-0.0665358155965805,0.019494354724884,-0.0363454222679138,-0.0584986358880996,0.1341719776391983,-0.0743831247091293,-0.1147029771692119,-0.0889358147978782,0.0777110618558246,-0.0184270891049876,123
1733106577524973600,-0.4767325460970401,-0.3433706620946526,0.4191477876126765,7.353777539688348,4.128154573990404,5.005065711075067,-0.0620983690023422,-0.0327180698513984,0.6566802859306335,0.6616565571050997,-0.0953000031476216,-0.4855209336566368,-0.5633808218312982,-0.1598304659128189,0.0878916531801223,0.0266480613499879,0.0148359537124633,0.0082835555076599,0.000131718814373,0.0919597297906875,-0.0849875062704086,0.0573415288795949,-0.114282377064228,-0.05042094953591,0.0774657361920923,124
1733106577564735200,-0.3716179746747016,-0.2607853178665041,0.1150888529479503,7.464141117680072,3.882164966456592,5.038430220538378,-0.026850689202547,0.2724559903144836,0.9602621793746948,0.6718739509207772,-0.1021942888484379,-0.4823565780175253,-0.552696960946493,-0.2378299236297607,0.0760974213480949,0.0019482400966808,0.0298867225646972,0.0006458163261413,0.0082919597625732,0.0304373577237129,-0.0205405037850141,0.034093150248134,-0.0759597271680831,0.0147774965392774,0.1288233911893796,125
1733106577604498000,-0.157397131845355,-0.5043623113006354,0.24735563519001,7.537523749276995,3.550684648641944,5.171919822573662,-0.0469363145530223,0.589568555355072,1.1126585006713867,0.6871561409360127,-0.1088065614545357,-0.4737790593130473,-0.5399175679773847,-0.1798443794250488,-0.0367750711739063,-0.0294204019010067,0.0472345352172851,0.0170070528984069,-0.025013692677021,-0.0003910136874765,-0.0393188931047916,-0.0256219028297695,-0.0816278159618377,0.038106788069976,-0.0331877007248345,126
1733106577644259300,-0.904367591547966,-0.622061639007926,-0.0117255091071128,7.549175608626007,3.207949069580436,5.374886280938982,0.5865251421928406,1.1311789751052856,1.3720499277114868,0.7081995902196673,-0.1099289597270879,-0.4624637071523346,-0.5220118374328452,0.1613931059837341,0.0530189983546733,0.0770521759986877,0.0286225080490112,-0.0404583215713501,0.0632398054003715,-0.0092396484687924,-0.0016811873065307,-0.0009349407646761,-0.0754138901829719,-0.0524918420924106,0.0233555288003641,127
1733106577684021200,-1.2854279328286646,0.1518099793627858,-0.3286462634325027,7.523670580491423,2.868625052528083,5.59783462010324,0.7771058082580566,0.6584499478340149,2.029825687408448,0.735964435363356,-0.1040887935921781,-0.4513927044008854,-0.4937271204657829,0.0256312787532806,0.0284249205142259,0.0890336111187934,0.0297020673751831,0.0079888701438903,0.0184403508901596,-0.0006779148243367,-0.0084070991724729,-0.079259158947505,-0.059316873550415,0.0640978621388552,-0.0476040837505832,128
1733106577723694800,-0.5448690937340259,-0.7870315441951156,-0.1156330428272485,7.562872125545144,2.3508938488274813,5.783306338310242,0.8759955763816833,1.2391581535339355,2.5886454582214355,0.7682481375963767,-0.1036138985549294,-0.4409054214499023,-0.4523950145575087,-0.0773257240653038,0.0512750521302223,0.1932318359613418,0.0115067362785339,-0.0148263573646545,0.0757727548480033,0.0209498275071382,-0.0240150615572929,0.0201755265077808,-0.0794747099280357,-0.0694084033368621,0.0097419203747296,129
1733106577763453200,0.5961930382579564,-0.08937105884552,-2.0256530099242926,7.489923209190368,1.6937853002272545,6.099386550158262,-0.1132230758666992,1.0300894975662231,2.311290740966797,0.8011508010293282,-0.1083470207511942,-0.4210448275823,-0.4112657473718491,0.0845388025045394,0.1501427143812179,0.2068641036748886,-0.0252028107643127,-0.0103327631950378,0.0483492761850357,-0.0088753215968608,0.047887198626995,-0.1285408022551797,-0.0982638597488403,0.0601500743611482,-0.0113265683508245,130
1733106577803211500,1.0574836850732563,0.1322371177561581,-1.476331028434634,7.41649381584227,0.969544558726996,6.3423962650984524,-1.0073446035385132,0.3466697633266449,1.5775495767593384,0.8206305888279234,-0.1285624538301897,-0.4001243203894219,-0.387217899008937,0.2172244042158126,0.1582487970590591,0.2415995001792907,0.0025874972343444,-0.026613712310791,-0.0154392719268798,-0.0021789129823446,-0.00024580641184,-0.1794729709825478,-0.1219372674822807,0.1538609205432236,-0.0854871483505703,131
1733106577842971100,-0.0734644646614789,0.4484359144825488,0.5149520943760871,7.425159937378764,0.2425905579463578,6.40144700448215,-0.6570837497711182,0.1653825491666793,1.822439312934876,0.8317266461435051,-0.1556322536397986,-0.3865173120532983,-0.3668973275367,-0.1528495252132415,0.1202841103076934,0.2245178669691085,-0.0173743963241577,-0.0286653637886047,-0.0328109338879585,-0.003497501835227,-0.0022311867214739,-0.026768769026664,-0.1142451018095016,0.0578734118331689,-0.0123693850847776,132
1733106577882729200,1.5156711051762104,-0.4345556384943425,1.6712755083858966,7.312797879046201,-0.3709437286749482,6.523478808435797,-0.0648309662938118,0.6359528303146362,1.6319034099578855,0.8460196366985981,-0.1722977210840095,-0.3710911599207337,-0.3418415830889049,0.0177411306649446,0.0833276361227035,0.325463056564331,0.0179303884506225,-0.0242133140563964,-0.05323326587677,-0.0168063044548034,0.0143131138756871,0.0148008203326491,-0.1087848991155624,0.0295492802903987,-0.0272411494784988,133
1733106577922488600,1.2931921370893715,-0.3406066772740334,1.7743582817196846,7.092648230689764,-0.7400759509485214,6.731791304004192,0.3904544413089752,0.5793263912200928,1.3278181552886963,0.861289560042613,-0.1751088068032482,-0.3551211859409171,-0.3184434526877939,0.1644085943698883,0.0599212720990181,0.3296504318714142,-0.0046057701110839,0.0310819745063781,-0.0078388601541519,-0.011063527315855,0.0049631530418992,0.0192561557736946,-0.0531829819083213,0.0893661634746939,0.0131303595199133,134
1733106577962247200,0.6164864692240953,-0.1968680684249848,1.7331874824196098,6.838757640773058,-0.974494947675988,6.960756711500883,0.6363306641578674,0.9132872223854064,1.437692165374756,0.8768818465537352,-0.1705557967486473,-0.3406037028290691,-0.2932201424696984,0.1393674314022064,0.0345429964363575,0.3961029350757599,0.0043574571609497,-0.0284318923950195,-0.0127830505371093,-0.0159580521285533,0.0200621932744979,-0.0002119245759851,-0.0570677518844604,0.0722584681388922,-0.0025372131603071,135
1733106578002005500,1.68219788441658,-0.0654842795625329,0.8688654855340718,6.529913225397467,-1.1558579153899102,7.224583589020371,0.6463971138000488,0.8902658224105835,1.1913763284683228,0.8923385110743078,-0.1634989495803094,-0.3239086957936445,-0.2684832381443645,-0.253652811050415,-0.0218778252601623,0.3573597967624664,-0.0016908049583435,0.0070403218269348,-0.0152156352996826,-0.0299301519989967,0.0254385583102703,0.013837829652545,-0.0843589231371879,0.0175609920612536,-0.0071005213249853,136
1733106578041764900,1.257411214134097,0.4814678309906274,0.210613173726201,6.279984524849056,-1.2193308551300317,7.432725988718867,0.6976268291473389,0.5137136578559875,0.8353080153465271,0.9041817590868833,-0.1542315173132026,-0.3118478588427881,-0.2478283864895774,0.0388448163866996,-0.0404045842587947,0.3890058100223541,-0.0003237724304199,0.003569483757019,-0.0300577878952026,-0.0344522222876548,0.0344276875257492,-0.0199636007901513,-0.1016589179635047,-0.0028500625187414,-0.0072047077852446,137
1733106578081523500,0.4212538199812173,0.2044396727230399,-0.2102367416292428,6.108482295283675,-1.1917485092647373,7.578691625967621,0.6277326345443726,0.3858428299427032,0.6610195636749268,0.9124615983037788,-0.144060109812794,-0.3046981363742808,-0.2319904356475592,-0.0917954817414283,-0.0879295989871025,0.3710973262786865,0.0014827847480773,-0.0260432958602905,-0.0398287773132324,-0.0364813916385173,0.0485960654914379,-0.02686848937436,-0.1166988760232925,-0.0318823331977124,-0.0020469962285045,138
1733106578121281800,-0.0991588778883218,0.09220810890235,-0.2802180403500795,5.937867954468727,-1.1893510927341877,7.713465422594547,0.5057735443115234,0.4838302731513977,0.7801430821418762,0.919847549550369,-0.1360424984368128,-0.2970103422128686,-0.2171585298298567,-0.0369476824998855,-0.1237395256757736,0.2749406993389129,-0.0300274491310119,0.0286096334457397,-0.0190315395593643,-0.0426366701722145,0.0594663396477699,-0.0553793665277305,-0.1010625958442688,-0.0297404120984603,0.0251871875072014,139
1733106578161041200,1.1819546988725662,0.1782070609662681,-0.6326239495545626,5.758984967002272,-1.2190862327191978,7.843360799530148,0.3710548877716064,0.4543746709823608,0.5611426830291748,0.926734774274811,-0.1301284553405302,-0.2883859958004789,-0.2026397484926176,-0.002949499990791,-0.0871199965476989,0.2152530550956726,-0.0322422385215759,-0.002085268497467,0.0228663682937622,-0.0423547215759754,0.0801606848835945,0.0086314298198471,-0.0897219404578208,-0.1265026474910788,-0.0247941901512211,140
1733106578200799700,1.4290771098285913,0.2033551654219627,-0.5915729772418737,5.570371443638205,-1.2238834769330915,7.977685098823905,0.154203400015831,0.6218026876449585,0.2725307643413543,0.9320839988656912,-0.1251761202227808,-0.2785358017683804,-0.1948545522348139,0.1129030659794807,-0.1043920367956161,0.1606059968471527,-0.0093710422515869,0.0258842706680297,-0.0119440481066703,-0.0295944306999444,0.0717286542057991,-0.0303807581119006,-0.0659067705273628,-0.1028417676521465,0.0739452430489007,141
1733106578241801200,1.0964853236407042,-0.2325241228915751,-0.0450923566579818,5.366213145139813,-1.2339242478236556,8.114898105296492,0.1401901692152023,0.613365650177002,0.1474351435899734,0.936330442640368,-0.1220871730396157,-0.2671143029562003,-0.1924318820198778,0.2783839106559753,-0.0789632126688957,0.0563486963510513,-0.0502282977104187,0.0573322772979736,-0.0075193718075752,-0.0297867618501186,0.0479970499873161,-0.1125089742562733,-0.0636343285441398,-0.0515779284181538,-0.049741333241295,142
1733106578281559800,0.8766863884180783,-0.417545393917337,0.4947983641415834,5.120339857462048,-1.1737008844640104,8.28099818355739,0.3556655347347259,0.7532029151916504,0.101477138698101,0.9412773047989236,-0.1149474514182116,-0.2541135078451357,-0.1902903083360295,0.2993445992469787,-0.0612611845135688,0.0616659633815288,-0.0223543047904968,0.0220060944557189,-0.0094566270709037,-0.0110927615314722,0.0104848314076662,-0.0994502620503306,-0.1063139885663986,-0.0777601342950947,-0.037378916753421,143
1733106578321319200,0.5902420208990573,0.0702440413102507,-0.8611240776270628,4.980466691869497,-1.0518665758438408,8.382059095674753,0.2174746096134185,-0.0343811623752117,-0.3656021058559418,0.9437509834849204,-0.1070346550755573,-0.2473408678243067,-0.1915728309232596,0.2289324551820755,-0.013766742311418,0.1400351375341415,-0.0081856846809387,-0.0172230005264282,0.0115711614489555,-0.0006395253585651,-0.0323123000562191,-0.1030466791070997,-0.1041620448231697,-0.0272089071597321,0.028968626291654,144
1733106578361077500,-1.0703069262892009,-0.255046043562144,-0.6579273176372051,5.091368614521622,-0.9230507377732544,8.330445812815427,0.1542391330003738,-0.3316362202167511,-0.2071447968482971,0.94124045060658,-0.1031978448729947,-0.2541961126683602,-0.1969797837453064,0.3311600387096405,0.0762104988098144,0.1632937788963318,-0.0355953574180603,-0.0244601368904113,-0.0080095678567886,-0.0079275500029325,-0.0526132620871067,-0.0985153192877769,-0.1002368032932281,-0.0252682967692613,-0.0607344455537851,145
1733106578400836900,0.0341097748726606,0.1379325529187917,-1.0042372480541466,5.136168125712871,-0.8754963018506765,8.308048103046417,0.0155369918793439,0.0339704677462577,-0.0240159686654806,0.9405611336628882,-0.1014068223944571,-0.2571460427476768,-0.1973253243608283,0.1779936552047729,0.0838528126478195,0.1520357429981231,-0.0178728699684143,-0.0112972259521484,-0.0015355385839939,-0.0111596342176198,-0.0449170395731925,-0.0423487068059155,-0.0839268267154693,-0.0154190709620015,0.0343347062023356,146
1733106578440595500,-0.2114332579374313,0.2746637672238052,-1.2400596818387508,5.101739786410332,-0.9395035676632076,8.322257830184698,-0.4432110488414764,0.1280462145805359,0.031939934939146,0.9406222041104696,-0.1047096331089072,-0.2543989858884176,-0.19886421019832,0.3285192549228668,0.04228400811553,0.1184692606329917,-0.0022445321083068,0.0057182908058166,-0.0375726260244846,-0.0436049401760101,-0.0360803268849849,-0.0820203672891482,-0.0430709570646286,0.0773851909023243,0.0057103125005349,147
1733106578480353800,-0.5677192234456538,-0.0086978318490087,-0.2118880159676074,5.080041164821386,-1.1304933186393231,8.311771507483721,-0.4398743212223053,0.0111741255968809,0.2017230838537216,0.9401829364191754,-0.1146250701225354,-0.25115468688942,-0.1995957844922666,0.2905151546001434,0.0401413924992084,0.1080678850412368,-0.0136562585830688,-0.0106369256973266,0.0094263553619384,-0.0660883113741874,-0.0553719028830528,-0.0665401452910155,-0.0533920414745807,0.0609219263833248,-0.0306713887886609,148
1733106578520113200,0.1937327660739422,-0.1693402292259037,0.3416086208581924,5.018294610482454,-1.287381697244942,8.326448852133751,-0.2087249159812927,0.2530825734138489,0.2739253938198089,0.9412569915158424,-0.121174165548838,-0.2465483011315851,-0.196382728161838,0.2015756666660308,0.0518171153962612,0.0953023508191108,-0.0085583925247192,-0.039957582950592,0.0290672816336154,-0.0619630962610244,-0.0283067990094423,0.0017701594691898,-0.0456992909312248,0.0152279380122956,-0.0363886704569216,149
1733106578559871700,0.2476975804954767,-0.0960965677082538,0.1306260292977094,4.936796476969122,-1.398034759702533,8.357267768767475,-0.1911793202161789,0.1554589420557022,0.2223975956439972,0.942778005521402,-0.125035194016721,-0.2413796275864808,-0.1930589268996504,0.1264146119356155,0.0175153873860836,0.0754803121089935,0.0081313848495483,0.0023077726364135,0.0072225350886583,-0.0430890955030918,-0.019631739705801,-0.0179098454564751,-0.035761572420597,0.0703787096737418,-0.0545934540141606,150
1733106578599630000,0.6976908804878592,-0.0277481308862566,0.6337175900101661,4.859101535131037,-1.484788914047927,8.387783903062344,-0.1226524710655212,0.2757456302642822,0.0683847591280937,0.94390673648719,-0.1281901793247785,-0.2364515047219076,-0.1915674293224415,0.2783458232879638,0.0493491627275943,0.1071391105651855,-0.0011283159255981,-0.0263996720314025,0.0135142803192138,-0.0272221770137548,-0.0040897186845541,-0.0457413266525836,-0.0483710803091526,0.026508083680307,-0.0364998209475073,151
1733106578639389200,0.2671311797618866,-0.1721570402123033,0.1920212859809398,4.796904898937046,-1.5091709295019506,8.419173897582292,-0.0060013844631612,0.058641217648983,-0.0307169165462255,0.944591606552365,-0.1288456270612272,-0.2326808641630777,-0.1923673318822356,0.3433131277561188,0.0221001785248518,0.0975072532892227,0.0026121139526367,0.021432876586914,-0.0161436796188354,-0.0378897376358509,-0.0114138089120388,-0.0787355917311273,-0.0535778440535068,0.0093366783126402,-0.0528520491403527,152
1733106578679147800,0.3754676358401775,-0.1261895081549882,-0.5673118116885423,4.809026421624422,-1.5102473265618086,8.412063188794255,-0.0367027707397937,-0.0392353609204292,0.0728598982095718,0.9445143937326924,-0.1289243996738298,-0.2334151870509426,-0.1918031414822238,0.1072116270661354,-0.047705803066492,0.0839818567037582,0.0081194043159484,0.0060793757438659,-0.0418131351470947,-0.0296474546194076,-0.038695853203535,-0.0652374606280354,-0.0423452891409397,0.0499039444910595,-0.0553822937037562,153
1733106578718906000,0.6728837714895606,-0.0263014392092823,-0.7089747833073139,4.788140577723086,-1.5618023033626376,8.414563188916445,-0.2006585597991943,0.0824747011065483,0.0148500148206949,0.9446008579389716,-0.1313421571279081,-0.2317885171344987,-0.1917099300936538,0.267346441745758,-0.0733472481369972,0.1022176593542099,0.0041223168373107,0.0242210030555725,-0.0388412475585937,-0.0126446159556508,0.003945245873183,-0.0213741388749331,-0.0001574142370373,-0.0179534334364521,-0.1118906870943028,154
1733106578758665500,0.4089619091629982,0.1319302437640726,-0.5687631795406342,4.765506428849696,-1.651051489394158,8.410372166967392,-0.3434653878211975,0.1767124235630035,0.0318237617611885,0.9442701954246,-0.1360114642158811,-0.2295457292689931,-0.1927780431875072,0.317750483751297,-0.1678572446107864,0.1576630771160125,0.025563359260559,0.0250504612922668,-0.0367295145988464,0.0011001989478245,-0.020296698436141,-0.1090247488697059,-0.0154643729329109,0.0598850530496798,-0.1289484788737725,155
1733106578798355700,0.1870326839134097,-0.1460071383029222,-0.2491957100987434,4.723624558670818,-1.7959895371608434,8.40429489288032,-0.4288939237594604,0.2085352689027786,-0.0074243862181901,0.943617413103244,-0.1436812971710353,-0.2255124916368021,-0.1951563226394646,0.7525954246520996,-0.2288199812173843,0.2292520403861999,0.0348617434501647,0.0265419483184814,-0.050095796585083,0.0089659662917256,-0.0136296870186924,-0.0265848957931622,0.0044660242274403,0.0261184975575422,-0.0130470731421432,156
1733106578838112500,0.1092977023258805,-0.0927706381559372,-0.0682967066347599,4.740606673131883,-1.883942107510567,8.375428279358148,-0.1927056312561035,-0.2090689092874527,-0.1321195513010025,0.9420388522748308,-0.1494882204858595,-0.2250006191011261,-0.1989745315231587,0.7042832970619202,-0.2901122570037842,0.2790217101573944,0.0488457083702087,0.0245764851570129,0.0067640505731105,0.0015931596281006,-0.0064707389101386,0.0102975107141654,0.0248867180198431,-0.0128948839633376,0.0656768155931029,157
1733106578877868500,-0.2242228891447186,0.0258924200169742,-0.920177155098319,4.855806000716984,-1.9277862176731229,8.299106671699882,-0.3177826702594757,-0.354925662279129,-0.1545915752649307,0.9389563592600016,-0.1546072476279206,-0.230130225305158,-0.203709512293807,1.0150266885757446,-0.2958716750144958,0.3664591014385223,0.0510922670364379,0.0036844611167907,0.0263856090605258,-0.021011609584093,-0.0219311900436878,-0.0011468661968945,-0.0008316944586113,0.0197666214799042,0.0208183179233456,158
1733106578917624600,-0.5536679017394781,0.126063251426816,-0.8756243121445179,4.95166671384275,-2.064618262004107,8.209063997203112,-0.6378662586212158,-0.1526051610708236,-0.0819977670907974,0.935206107655292,-0.1647867968181259,-0.2330225762408493,-0.2096079293845327,0.7489426136016846,-0.1946539729833603,0.3914695084095001,-0.0197367072105407,-0.0637181401252746,0.1250219941139221,-0.0080043254420161,-0.0048028565943241,0.0575254021130967,-0.0105464495718479,-0.0821758592449594,0.0767880469930823,159
1733106578957381400,-0.5025128840416669,0.0871804169334471,-0.2500917821556329,4.967250067421793,-2.278772761598974,8.14272719246447,-0.6297931671142578,0.0462865866720676,0.0877196490764617,0.9324315423940288,-0.1775595511301712,-0.2308875444497921,-0.2138575813170403,1.2623246908187866,-0.1657058447599411,0.366111546754837,-0.0156069993972778,0.0250720381736755,0.0333325341343879,0.0166705511510372,-0.0226881820708513,-0.0856404757487587,-0.0659800395369529,-0.0196955929371528,-0.0476943375836126,160
1733106578997137400,-0.2736632118791341,-0.0385942268103361,-0.26253683770895,4.934724931392073,-2.5001576508387924,8.097412717488407,-0.6057829856872559,-0.0126277627423405,0.1070613488554954,0.9306148596804568,-0.1895845113558077,-0.2262842792664149,-0.2163544155700424,1.0018351078033447,-0.0551835298538208,0.5072832703590393,0.015767216682434,-0.0729696154594421,0.102729320526123,0.0604272671043872,-0.0346946790814399,-0.0613212644318351,-0.1255518347024917,-0.0467843968315748,0.0102042703396058,161
1733106579036893400,0.2646510533839464,-0.0939139629721641,-0.238140647599101,4.997654558035731,-2.697725172770024,7.994755476090312,-0.5843386054039001,-0.3834689855575561,-0.0815332159399986,0.927213795588479,-0.2019552006966624,-0.2271453615515032,-0.2188463984609936,0.2665216624736786,-0.0756762325763702,0.5202760100364685,-0.0079930424690246,-0.0511728525161743,-0.0091733783483505,0.0460019893944263,-0.0235876441001892,0.061881012639869,-0.1182149648666381,-0.1121147325079888,0.1274819408520124,162
1733106579076650200,0.1744090569227933,-0.0522866520762443,0.1348778415232896,5.126801746952533,-2.8551716967150567,7.8571163531601425,-0.5762243866920471,-0.2439045459032058,-0.100088894367218,0.922240520868118,-0.2140193872268698,-0.2315043147569224,-0.2237716684879138,0.0921716913580894,-0.1378736644983291,0.5483308434486389,0.0039893388748168,-0.0047227144241333,-0.0289396196603775,0.0127694439142942,-0.0268155522644519,-0.0471636647730134,-0.0741610154509544,-0.0753605166743043,0.1350378543905913,163
1733106579116406300,-0.1595072558671235,-0.0790875652402639,0.1103162317186594,5.177604297950864,-3.0324767673403024,7.756731148347258,-0.5394525527954102,-0.1583528965711593,0.1012918353080749,0.9188096261676596,-0.225392320345428,-0.2317651399181457,-0.2264332799409701,-0.1774502098560333,-0.1465121656656265,0.5327606797218323,-0.0135908424854278,-0.0334445834159851,-0.0039762258529663,-0.008529832586646,-0.0700967460870742,-0.0977280779002234,-0.0780729427933693,-0.0451594853437505,0.0595218914262484,164
1733106579156158000,0.3528928159385919,-0.1790977992609143,0.2452057636797428,5.286200281748175,-3.2048069721624253,7.612863360160588,-0.4789718985557556,-0.5475698709487915,-0.0426604934036731,0.9146569666422716,-0.2371776233076373,-0.2357938972379628,-0.2270478246746078,0.0898107960820198,-0.122678205370903,0.440627783536911,-0.0489228963851928,0.0531780123710632,-0.0290403217077255,0.0007132473401725,-0.0874547362327575,-0.1093282709940802,-0.0923748090863227,-0.0212466194881475,0.0185559807482408,165
1733106579195914000,0.2979419130891561,-0.0074377487853169,0.4701788866698742,5.487796036282181,-3.2980569182679056,7.428142752581834,-0.3380287885665893,-0.6460368633270264,-0.1759145557880401,0.908918819828394,-0.2469558534182139,-0.2455258279214676,-0.2293392649703146,0.0652404725551605,-0.1178743913769722,0.4111658334732055,-0.0227528512477874,-0.0423021912574768,0.0145490318536758,0.0272200088948011,-0.0916339084506034,0.0012029665985726,-0.0968444049358367,-0.1007737292064353,-0.0143885177712887,166
1733106579236912000,-0.2097176861912012,-0.0622410598576068,0.3534866901785135,5.666103269687294,-3.36161695176959,7.263965166816115,-0.2737041115760803,-0.4068906307220459,-0.0042414269410073,0.9038731987753088,-0.2546765631733289,-0.2545205284483361,-0.2310247875681044,-0.2145349830389022,-0.1291965097188949,0.3440090417861938,-0.0303972363471984,-0.0220938324928283,-0.0038795471191406,0.045306771993637,-0.095023475587368,-0.035076067188126,-0.0837085992097854,-0.0498966242677066,0.0278216162475757,167
1733106579276669000,-0.249701906055212,-0.191966925445199,0.6307704306423664,5.699353797382116,-3.461883790899813,7.190487842673063,-0.2245159298181533,-0.0066274926066398,0.1976634562015533,0.9019599639169305,-0.2609600766201109,-0.25551317173347,-0.2303935697994404,-0.1223781630396843,-0.1048579812049865,0.1401183009147644,-0.0615487992763519,0.0413751602172851,0.0085969120264053,0.0098861614242196,-0.0801136642694473,-0.0803979080533143,-0.0636157244443893,0.0202300948227872,0.1129335106781218,168
1733106579316425000,-0.3407312535017728,-0.1079530097186565,0.5803717842698097,5.655709301444888,-3.565500524979829,7.174297755372524,-0.100817859172821,0.0173951257020235,0.271290510892868,0.9022083914626454,-0.2652463737973907,-0.2526993691708321,-0.2276126163092798,-0.0103445658460259,-0.0525755509734153,0.072349302470684,-0.0386062562465667,0.0008198618888854,-0.0106169581413269,-0.0235296804457902,-0.0494279116392135,0.0019540332735137,-0.0515053570270538,-0.0165269751216866,-0.0370663573726429,169
1733106579356181000,0.2571750184148549,0.2285264315575361,0.0415875634074211,5.646925691008567,-3.627694238564372,7.149995673286915,0.0152061898261308,-0.2082882970571518,0.1766810566186905,0.9024843783389052,-0.2675950782389243,-0.2526747632571341,-0.2237637237454304,-0.0966759920120239,-0.0968610420823097,0.0614036433398723,0.0059979557991027,-0.0209130048751831,-0.027409091591835,-0.0232045091688632,-0.0282161235809326,-0.0872629441177472,-0.0549013316631317,0.0374595054256729,-0.1549175351903773,170
1733106579395937800,0.3612356968700885,0.1488409004241228,-0.3532984741300344,5.673498640635609,-3.674153207400441,7.105095624330639,-0.1574935019016266,-0.0918406695127487,0.1348990499973297,0.9018299912608696,-0.2701585607848442,-0.2544705883893873,-0.2212727713069568,-0.1134648248553276,-0.1133572980761528,0.0689839273691177,0.0129994750022888,0.0016416907310485,-0.0005714893341064,0.0050934646278619,-0.014478774741292,-0.06956501867068,-0.0450170785188674,0.0393392547576688,-0.1028612943365238,171
1733106579435693800,0.1909539490103721,-0.1913017395347356,-0.247667185357213,5.649700416418909,-3.7892075735569,7.063509814488888,-0.335249662399292,0.0571880303323268,0.1812129318714141,0.9008954656654397,-0.2761225845085704,-0.2522251792593094,-0.2202863516370655,-0.0222214646637439,-0.111350879073143,0.0927674919366836,0.0210869312286376,0.0123891830444335,0.0068588852882385,0.0252599976956844,-0.0023688145447522,-0.1024315063508227,-0.0528161786496639,0.071420044553373,-0.1263210073138587,172
1733106579475450600,0.5860860702633858,-0.3408928738042712,0.2221943059265613,5.62896216429472,-3.903428119237721,7.017721876782178,-0.2281008213758468,-0.1051511317491531,0.0488249771296978,0.8997566678235321,-0.2822385778940298,-0.2500742887583639,-0.2196410870078463,-0.008343999274075,-0.0976290926337242,0.1002863273024559,0.0032131969928741,-0.0125477910041809,0.0106569677591323,0.0296606719493865,-0.0075268186628818,-0.0508760591925354,-0.0509135201573371,0.0127037498719873,-0.0677307798476889,173
1733106579515206700,0.7345370945870876,-0.3800973414674401,0.7639028898030519,5.678181830015778,-3.9227313701227295,6.9671233239233485,-0.0054221996106207,-0.1634101867675781,-0.1213576719164848,0.8979138930668307,-0.2849015478701419,-0.2522036296667688,-0.2213029844673925,0.0890214368700981,-0.1316009759902954,0.1098295673727989,0.0103456079959869,0.0291858911514282,-0.0067517757415771,0.0265239253640174,-0.0022121984511613,-0.0431640006775967,-0.0292508676648139,0.0449756714757531,-0.0891365285704378,174
1733106579554962400,0.4249824851155281,-0.1965127521812915,0.4620125313490629,5.746072293937206,-3.878119198197126,6.936369873741269,0.1019563823938369,-0.1695545613765716,-0.1420753896236419,0.8967065098669511,-0.2841129238741149,-0.2561706658993489,-0.2226518047932024,0.0328431166708469,-0.1696278154850006,0.1515750735998153,0.0245846509933471,-0.0198426842689514,-0.0107901692390441,0.0145654901862144,0.0155236134305596,-0.0737847369912546,-0.0296986177563667,0.0548959258257644,-0.0209434010411612,175
1733106579594719500,0.0297170928716659,0.0453089220181107,-0.0947521673619747,5.818868650078773,-3.81887001363188,6.908501039084792,0.0766408592462539,-0.2148876339197158,-0.125098243355751,0.8955668465597756,-0.2826018882711668,-0.2605775538801155,-0.2240434792097647,0.1112463176250457,-0.1461399644613266,0.242829293012619,0.0133924484252929,-0.0220870375633239,-0.0061584711074829,0.0034301378764212,0.0166910346597433,-0.0280153578545432,-0.0268428437411785,-0.0121157117178081,0.0187713199823745,176
1733106579634475300,-0.2806839042961597,0.1134051376447081,-0.3035194209605455,5.882516654124856,-3.7919463508710254,6.869317614209652,-0.0060634021647274,-0.1578110009431839,-0.0202526878565549,0.8943465969053768,-0.2825442777355347,-0.2644446913491116,-0.2244592574888504,0.3850126266479492,-0.2293747216463089,0.3957504630088806,0.0435770452022552,-0.0188840627670288,-0.0137972682714462,-0.0147096300497651,0.0467466413974761,-0.0695849472138565,-0.0216989740729331,0.0162084186833177,0.0336430843760957,177
1733106579674232300,-0.0511491724789142,-0.0310302212968468,-0.2514081254512071,5.916044829717278,-3.804181270805001,6.833666455113887,-0.0529172159731388,-0.066276267170906,0.0219159536063671,0.8933920116886633,-0.2839530792613244,-0.2663655794041789,-0.2242111743274877,1.3160626888275146,-0.3206958472728729,0.5160821080207825,0.0522094964981079,0.0637605786323547,-0.0497840493917465,-0.0226040016859769,0.0368013456463813,-0.0367184572504251,-0.0003272393951192,-0.0158723676874535,0.0571028019200079,178
1733106579713988000,0.0227338098555803,-0.054521571521461,-0.2714893749713897,5.9065066015213725,-3.834410112591088,6.825017869234085,-0.101347267627716,0.0453300774097442,0.0748663395643234,0.8932285154484605,-0.2854403514405565,-0.265602593259947,-0.2238794001558299,2.5872180461883545,-0.2557383179664612,0.6857341527938843,-0.0007428526878356,0.1391531825065612,-0.0034434795379638,-0.0374049060046672,0.058090440928936,-0.1046691383429337,-0.0226615089923143,0.0299461866365163,-0.0782545758816879,179
1733106579753744100,0.2541021868407726,-0.0628738048031926,-0.100846392583847,5.875502975970506,-3.889204948095977,6.820772486749291,-0.1467752158641815,0.0862126350402832,0.0361437760293483,0.8930435900258767,-0.2880858918894191,-0.2631423783270546,-0.2241333812454234,2.496276378631592,-0.0978141352534294,0.8595342040061951,-0.0125321447849273,-0.0052113533020019,0.0703969895839691,-0.029209017753601,0.0343631021678447,-0.0914265574700664,-0.039778683334589,-0.0279909357993397,-0.0665698417429579,180
1733106579793501000,0.2406102525830268,-0.0233805833265185,0.1519593247056007,5.87118803538084,-3.915679405784607,6.809331055280566,-0.0721610486507415,0.0294527597725391,-0.030084703117609,0.8923989605963073,-0.2899431689208429,-0.2622092607540996,-0.2253958778880488,1.186523675918579,-0.0600383132696151,0.7048744559288025,-0.0063030421733856,-0.1327998638153076,0.0590060353279113,0.0017041410319507,0.0256815869361162,-0.1109226823123637,-0.0506060384213924,-0.0045950784135202,-0.0854523144992068,181
1733106579833257000,0.142469611826539,-0.0055804304808378,0.0789455264210701,5.900944291219115,-3.919264278534055,6.781490277674794,-0.0386415235698223,-0.0382529981434345,-0.0758985504508018,0.8912519472700718,-0.2912487688896051,-0.2634661011788726,-0.2267812290203872,-1.7496711015701294,0.0015831320779398,0.4822070598602295,-0.0700234174728393,-0.1303210258483886,0.1002154946327209,0.0119829745963215,0.0133816199377179,-0.1051085618066601,-0.0455717593431472,-0.0368032882729545,-0.0633619079805444,182
1733106579872916200,0.0167687639713287,-0.0507923218652606,0.0814753371596336,5.923844689813256,-3.905625629281997,6.769383075773716,-0.021995285525918,0.0073833847418427,-0.0583470650017261,0.890495106474146,-0.2914373322087022,-0.2644273012650172,-0.2283880076237023,-3.654419660568237,-0.1292923837900161,0.1133637204766273,-0.0700290501117706,-0.0628049373626709,0.0019989609718322,0.0219643544405698,0.0069151408970355,-0.1453754619364161,-0.0400746613740921,-0.0194971409057383,-0.0732010462186299,183
1733106579912669700,0.0122521633297204,0.0162339264422655,-0.0624783757448196,5.931952008423209,-3.896935834608972,6.767290487408638,-0.0114276073873043,-0.0132625205442309,-0.0403857417404651,0.8901726048162446,-0.2914086081135727,-0.2646605768369097,-0.2294090532293126,-3.0878899097442627,-0.2780627310276031,-0.2027300745248794,-0.0558409392833709,0.0352188944816589,-0.0853849500417709,0.0289052110165357,-0.0203853081911802,-0.116892632700596,-0.0459312126040458,0.0188644941415637,-0.1036501340261194,184
1733106579952422100,-0.0569172344863414,-0.1465881530612707,-0.0771855310112237,5.9270507923781866,-3.9066456199795,6.765986419072747,-0.0763834044337272,0.0581352189183235,0.0157874692231416,0.8898881852623138,-0.2921602983739113,-0.2639565479422207,-0.2303655784769409,-1.6589478254318235,-0.4287251234054565,-0.2764102816581726,-0.0406071841716766,0.1051692962646484,-0.0641574263572692,0.0425260849297046,-0.0455239377915859,-0.0866595713971182,-0.0252887178212404,0.0493232219936558,-0.0339835090113338,185
1733106579992175600,0.217215348470211,0.0178816936492919,0.207073309162259,5.904159161612391,-3.924320685140789,6.775765470287204,0.0160673391073942,0.0411637276411056,0.0257837902754545,0.8900822717207014,-0.2927827009388831,-0.2623173759902369,-0.2306977422775238,1.1281263828277588,-0.0238676331937313,-0.0406924970448017,-0.0078602135181427,0.1351076364517212,-0.0217846669256687,0.0478941202163696,-0.0684588253498077,-0.096461565095745,-0.0377269089221954,0.0479604777065105,-0.108123187786946,186
1733106580031928000,0.4304167851239442,-0.010121288780868,-0.1277501816004514,5.924243333742022,-3.915321970649064,6.763429720327258,0.0200236439704895,-0.1192543283104896,-0.0870686620473861,0.8897191236433698,-0.2927246119592215,-0.263577983546697,-0.2307355768372622,-0.3332200646400451,-0.0091492999345064,0.072068803012371,0.0221352875232696,-0.1589434742927551,0.1290762424468994,0.071353755891323,-0.0703606382012367,0.0259054986942559,-0.006920747924596,0.0198940449685673,0.0221876243820181,187
1733106580071680500,0.0751408734411001,-0.1061059205472469,-0.1436509305655956,5.971864332094788,-3.88951766730696,6.736383892491459,0.0033881128765642,-0.1276602298021316,-0.0882783085107803,0.8887133679385201,-0.2925629280329882,-0.2663586527290138,-0.231621421674024,-0.1327365338802337,-0.0130155710503458,0.114049807190895,0.012293517589569,0.0275887846946716,-0.0017180442810058,0.0635726526379585,-0.0284587647765874,0.0426404288946418,0.0204135570675134,0.0097855129212839,0.0943844939602073,188
1733106580111433700,-0.167180859234929,-0.1211331015482544,-0.1805412760674953,6.006040157940984,-3.8794279427081344,6.711773767369985,-0.0559463091194629,0.0051348498091101,-0.0205785278230905,0.8877228957014274,-0.2930978488415897,-0.2681201435848054,-0.2327087215966816,0.6160176396369934,0.2307314127683639,0.0583976656198501,-0.0734658539295196,0.042261004447937,0.1599347591400146,0.0398473441600799,-0.0215173382312059,-0.0770134075810201,-0.0081455605104565,0.0419373312597395,0.0440487613226054,189
1733106580151187500,-0.0968792425185442,0.0345861602127552,-0.0204898303210735,6.0131011823683975,-3.901670754176378,6.6925307222396135,-0.0619173273444175,0.0132699664682149,0.039559181779623,0.8871931309391083,-0.2945788205283423,-0.2683266660710537,-0.2326211429993439,0.6843814849853516,-0.2098786830902099,-0.0063194772228598,0.0051363110542297,0.17920583486557,-0.0966012477874755,0.0212707929313182,-0.0360258854925632,-0.0074004101663245,-0.0185460969805717,-0.0147746401451993,0.0136205747392494,190
1733106580190940700,0.0999731168806552,0.0581742488101124,-0.0343044206619262,6.004792788228392,-3.933488910980522,6.681355832752585,-0.0700401738286018,0.0747939646244049,0.0391315631568431,0.886996873487335,-0.296152857454632,-0.2676548696210252,-0.2321442667460753,0.2403797954320907,-0.3807734549045563,0.118498682975769,0.0500837564468383,-0.1376263499259948,0.062104009091854,0.0054633738473057,-0.0253164917230606,-0.080873498808965,-0.0070855128578841,0.0576185694224201,-0.0151080025686998,191
1733106580230693000,0.0744084675133228,-0.0338680750712752,0.2095452522337436,5.958231528061628,-3.9678906545370816,6.70266399371922,-0.0240326449275016,0.1056154146790504,0.055875863879919,0.8876244332707349,-0.2970938210688253,-0.2645647186751944,-0.2320854404784807,1.0737454891204834,0.0223831124603748,0.0822918787598609,-0.0808760523796081,0.1057170033454895,0.1158976554870605,0.0197916533797979,-0.0625367313623428,-0.0990388865041546,-0.0067972531542181,0.0294928876277757,-0.0554864801640156,192
1733106580270445600,0.2809720735877752,-0.023834756834805,0.1156774664908647,5.958017593050003,-3.9653541217967865,6.704355015546083,0.0120278652757406,-0.0812628343701362,-0.0667766705155372,0.8876358707914288,-0.2969779780163583,-0.2645318758326899,-0.2322272626128961,1.8341047763824463,0.4062268733978271,0.1724334210157394,-0.0534102916717529,0.1111325025558471,0.1484017521142959,0.0283982623368501,-0.0402503907680511,0.0045313632442557,-0.018414668738842,0.0019406115321151,-0.089703067278862,193
1733106580310199000,-0.0211959327638149,0.0320624869540333,0.0372878203868865,5.995477262872457,-3.9386511160492894,6.686677320036292,0.0229068249464035,-0.082092635333538,-0.0685458853840828,0.8869181506444952,-0.2965061044477847,-0.2667554165053142,-0.2330274134728833,0.1109017059206962,0.2880860567092895,0.1982292681932449,-0.0344481766223907,-0.0874087810516357,0.0687945485115051,0.0409955941140651,-0.0168739389628171,0.0,-0.0082380073145031,0.0,0.0,194
1733106580349951500,-0.1057592990666627,-0.1361433314144611,-0.0964110404849052,6.014499358728528,-3.9265173184022304,6.676724081298708,0.0066412817686796,-0.0176552943885326,0.0032757292501628,0.8865476383394867,-0.2963300031337957,-0.2678998626796852,-0.2333483630980122,-0.6920477151870728,0.2229867875576019,-0.1736074090003967,0.0559343993663787,-0.0418143272399902,-0.0110379159450531,0.0471597649157047,-0.0311607029289007,0.0289303720739204,0.0109516503289341,0.0414767143109347,0.0943775253633037,195
1733106580389704700,0.0807908620268106,-0.0619847470089793,-0.2954997806340456,6.018737142428756,-3.923463483789563,6.674700466516613,-0.0107775069773197,-0.0643787309527397,-0.0160635039210319,0.8865518603640984,-0.2961765273564557,-0.2682619171994302,-0.2331113078293021,-2.004664421081543,-0.3768763840198517,-0.3944263756275177,0.0396783947944641,0.0366191864013671,-0.0604071617126464,0.0192195102572441,0.0277816653251647,0.0550477964858058,0.0248468276113271,-0.0108877042928128,0.1191023629056289,196
1733106580429457200,0.0341805020213127,-0.1885816669210791,-0.0964694926738738,6.003546587559581,-3.9411166293799873,6.677979634317755,-0.0497849322855472,0.0871123373508453,0.0410063005983829,0.8864991171137423,-0.2970429387353785,-0.2669893160375276,-0.2336695483324953,0.2634038925170898,-0.1418946236371994,-0.1011372655630111,0.0513539612293243,0.1408770680427551,-0.1043106913566589,-0.0056499843485653,0.0022405497729778,-0.1150426757186651,0.0010975346667692,0.1007173319772351,-0.0138568094892951,197
1733106580469209600,0.1941460230499506,0.065081251719594,-0.0701572398096323,5.995163959139585,-3.957603946061432,6.675759620180726,-0.0514495596289634,0.0387822948396205,-0.0287166163325309,0.8863148481338496,-0.2979726466538179,-0.266164043629706,-0.2341260345339071,-0.440408855676651,-0.067067727446556,0.161292552947998,-0.0701280236244201,-0.2329027652740478,0.3295688033103943,0.0207712240517139,-0.0267405081540346,-0.0407624194285832,-0.0122677832841873,0.0315637801842764,-0.0013762750555761,198
1733106580508963000,0.0321650705456733,0.0304547594964504,0.1837333501070737,5.992244856822491,-3.965475117827952,6.673709117391705,0.0416653864085674,-7.02450488461e-05,0.003579517127946,0.8861874506306923,-0.298454989244017,-0.2658197789969166,-0.2343847686259979,-0.0415956974029541,-0.0483214184641838,0.2637357115745544,0.0266969203948974,-0.0363165140151977,-0.1265115588903427,0.0188202299177646,-0.0169206969439983,-0.0058141250722808,0.0028262194246053,0.0322082087177899,-0.0220904065186623,199
1733106580548715500,0.188760822880268,0.0173372115090489,-0.1223047756761312,6.014166765773296,-3.9490649580359456,6.663712624034285,-0.0273413769900798,-0.0695313438773155,-0.0796309486031532,0.8857572517148227,-0.2981585631084839,-0.2671079950930807,-0.2349230682300913,0.4315234124660492,0.2708947360515594,0.1556751579046249,-0.0423333942890167,0.1212007403373718,0.1056412458419799,0.0115704759955406,0.0149019286036491,0.0248147351823281,0.0256664380431175,-0.0413464389947708,0.0494357424574205,200
1733106580588469000,-0.1184673894703388,-0.1115188855066895,0.181325119921565,6.033192368760704,-3.946802273800969,6.647835840466618,-0.0082529485225677,-0.0466315671801567,-0.0133738694712519,0.8851111346799289,-0.2987018840819646,-0.2680147298919096,-0.2356342317190529,0.6214544773101807,0.2226641625165939,-0.0948431491851806,-0.0181851685047149,0.0475959181785583,0.078421950340271,-0.0065798461437225,0.0198792275041341,-0.0790472332298755,0.0089621860533952,-0.0081606008626375,-0.045066870590276,201
1733106580628221200,0.0309580328434705,-0.2006856539517641,0.0515904865056276,6.044927230218052,-3.940684667703509,6.64080170404613,0.0181303732097148,-0.0016147679416462,-0.0020794246811419,0.884930811141373,-0.2985946067965427,-0.2688021714250515,-0.2355508057563191,0.3048024773597717,0.2804151177406311,-0.0714837610721588,-0.0521968305110931,0.0535229444503784,-0.0286428928375244,0.0044854595325887,-0.032617911696434,-0.0445944627389777,-0.0145927872508764,0.0067414616295805,-0.057318138870853,202
1733106580667973600,0.0494260019481182,-0.0010091770425438,-0.0338654447227716,6.050699968400597,-3.933561976216733,6.639767100301385,0.0242217127233743,-0.0493453964591026,-0.0346771068871021,0.8849366989242807,-0.2982648278072757,-0.2692660270481377,-0.2354164328370387,-0.3465422689914703,-0.0196817312389612,-0.1289330124855041,0.0669746100902557,-0.1591647863388061,0.0239639282226562,0.0245769917964935,-0.0202315337955951,-0.0528300930368714,-0.0094394888728857,0.0292307227103854,-0.030664422475046,203
1733106580707727000,0.0553355182528495,-0.1158455165341496,0.0066746554583311,6.064093118458986,-3.924519422583282,6.632895460966229,0.0326810739934444,-0.0596426054835319,-0.0308855231851339,0.884678720918692,-0.2981160855083146,-0.2700800929740596,-0.2356417781960191,-0.3082081973552704,-0.305207759141922,-0.0711680501699447,0.0758837163448333,0.0363973975181579,-0.1903760582208633,0.0187086183577775,-0.0402730591595172,-0.0727936938270227,-0.0161141585558652,0.0263806647582212,-0.0378691296894685,204
1733106580747479600,0.1971364370375871,0.0406786318689584,-0.2280026999443769,6.092580377274751,-3.901478446474671,6.6203709104359145,0.0309854075312614,-0.1079009398818016,-0.0903187096118927,0.8842517465521194,-0.2975015424949307,-0.271933558675245,-0.2358893168470224,-0.8489475846290588,-0.0600381009280681,-0.0232920013368129,0.0103857219219207,0.0117908716201782,0.0633892863988876,0.0086782965809106,-0.0349796861410141,-0.0222292806998128,0.0013857936719432,-0.003820368284799,0.0376468264250084,205
1733106580787233000,-0.017581249397993,0.0362917950868606,-0.2025976250529289,6.133120477455854,-3.883474587750434,6.593470044028758,-0.0212160125374794,-0.0769882947206497,-0.0609893165528774,0.8832449889672718,-0.2976863000565634,-0.2742434385917843,-0.236752531566202,-0.9114575982093812,-0.3054443001747131,0.1282403320074081,-0.009431779384613,-0.1339496374130249,0.1479262709617614,0.0049409200437366,-0.0186537448316812,0.0,0.032234501093626,0.0,0.0,206
1733106580826985500,-0.1073427688658237,-0.1413005680471658,0.1405909584730863,6.1301060980707405,-3.8878415507882833,6.593699176609515,-0.0309444852173328,0.089750051498413,0.0188302174210548,0.8830533794759396,-0.2981042618387524,-0.273767717944498,-0.2374904920962067,0.7308000922203064,-0.1134935468435287,0.113559789955616,-0.0067603290081024,0.0236525535583496,-0.0766490697860717,0.0163216087967157,-0.0227556060999631,-0.0781403475180268,0.0088266087695956,0.084834785389062,-0.0716373040332458,207
1733106580866738000,0.0470031587153673,0.1072255722269415,0.1890980920106172,6.119711545306444,-3.891560571311414,6.601156506878137,0.0379003696143627,-0.0035740844905376,0.0036792461760342,0.8833240431282181,-0.2980057856987806,-0.2731798636049889,-0.2372843593430323,0.3346152305603027,0.0076019293628633,0.042881291359663,-0.039566159248352,0.0498614311218261,0.0866813659667968,0.0321078039705753,-0.0075928238220512,0.0264290704772109,0.0174299255013465,-0.0348671371451811,0.0169396612755372,208
1733106580906616800,0.0493798247188329,0.0375718980252742,-0.0295931742310523,6.135591251483559,-3.882659764236212,6.591651011908054,0.0058886935003101,-0.0897897034883499,-0.0401208959519863,0.883097819568095,-0.297808317068267,-0.2742800111801575,-0.2371056006333115,0.5481219291687012,0.2013434469699859,-0.1106279119849205,-0.0444886088371276,0.092253029346466,0.1324192285537719,0.0146957822144031,0.008275993168354,-0.0217337614009855,0.0205246414989233,-0.0180780005310371,0.0291839609592105,209
1733106580946374100,0.041399347358942,0.0481362543985247,0.0746171418279409,6.154793964603543,-3.868084710916877,6.582310936632752,0.0367061644792556,-0.0399610623717308,-0.0310811009258031,0.8827604983461468,-0.2974853337423258,-0.275495973422484,-0.237356908183739,-0.04073416441679,0.3348226249217987,0.0087834428995847,-0.0353147089481353,-0.09703129529953,0.0643655657768249,0.0127977915108203,-0.0085702370852231,-0.05973498162108,0.0173389706760644,0.0001984531730588,-0.0255067132015945,210
1733106580986132500,0.0024304420173168,-0.0468280944094061,-0.0612163929849863,6.1560547783195965,-3.8554213364377614,6.588558306589722,0.0216588899493217,0.030230414122343,0.0082270484417676,0.8829494305072444,-0.2967409372117825,-0.2757205597365762,-0.2373252706406748,-0.0802789032459259,0.1748612821102142,-0.10775987803936,0.058863878250122,0.0217401385307312,-0.0797709226608276,0.022497221827507,-0.0357310585677623,-0.0217618116018245,0.0114954132586717,0.0224255521905841,0.0259690608831821,211
1733106581025889300,-0.0333545725911855,-0.0044297991409897,-0.1308820498853921,6.155926768025756,-3.8511324070721855,6.591185732483863,0.011237172409892,-0.0541127063333988,-0.0052051856182515,0.8830376538471073,-0.2964640406810265,-0.2757754790208556,-0.2372792725159787,-1.0977431535720823,-0.4667934477329254,-0.2078788876533508,0.0652027130126953,-0.0122795701026916,-0.0912532061338424,0.01164953969419,-0.0132136363536119,-0.0156360393225739,0.0174314174801111,0.0077146232188941,0.040274293418345,212
1733106581065647600,-0.0539203907579183,-0.1355664083093404,-0.0851437965393066,6.147462306541204,-3.858410581381619,6.594827888378501,-0.0186532419174909,0.0874014049768447,0.0601717457175254,0.8831474595699563,-0.2966869201634481,-0.2751985133570254,-0.2372618249388496,-0.4122203588485718,-0.1987866014242172,-0.0009139924077317,0.0879607498645782,0.077383816242218,-0.0224452465772628,-0.0074306428432464,0.0094023393467068,0.0425325800394173,0.008591815829277,-0.0163358410303364,-0.0350123954013455,213
1733106581105404700,0.2156944225132465,-0.0364829337447881,-0.2019289320111274,6.128341426485776,-3.878934606233239,6.600581921860576,-0.0493267849087715,0.0014075019862502,6.92742760293e-05,0.8833897753748154,-0.2973623441534422,-0.2739335830198319,-0.2369780063621665,0.0318279229104518,-0.0548767335712909,0.3478085696697235,-0.0271658599376678,-0.1200613975524902,0.2755463719367981,0.0052815941162407,-0.0239697862416505,-0.0009629912509262,0.0170350596308708,-0.0119882882291451,0.0201406287243356,214
1733106581145163800,0.1151011279076337,-0.0141091893732547,0.07359305947721,6.122841075503826,-3.894275090967119,6.596652765718102,-0.055633321404457,0.0771415829658508,-0.0161578599363565,0.8830336164385583,-0.2984327553809012,-0.2731340536532639,-0.2378809219248901,0.7216428518295288,0.1144785210490226,0.2742608487606048,-0.0235578715801239,-0.0444250106811523,-0.2409902065992355,0.0190809518098831,0.0296458192169666,-0.0584603403090732,0.0342307761311531,0.0296840262857032,-0.0534325159094296,215
1733106581184921900,0.0220826524704694,-0.0736442051425576,0.1708908196687698,6.1082706983596085,-3.901478738735616,6.605896979403496,-0.021899975836277,0.0816805362701416,-0.0129531687125563,0.8830479358077753,-0.2987926513101384,-0.2718748578944962,-0.2388164225823577,0.4836308062076568,-0.0089730527251958,0.1330544054508209,-0.0312741696834564,0.1838602423667907,0.0348814129829406,0.0269361659884452,0.0112345237284898,0.0116282501445617,0.0323130451142787,-0.0644164174355799,0.0441808130373246,216
1733106581229704200,0.0286491713792085,0.064387424236536,0.0522340451061725,6.100357441017032,-3.898401815508306,6.615019612535834,-0.0163427144289016,0.0300822611898183,-0.0316997207701206,0.8830441862759154,-0.2987114126118001,-0.2711076593977826,-0.239802126714109,-0.383363664150238,0.1719932705163955,-0.3539377748966217,-0.0734515190124511,0.0657803416252136,0.1076838374137878,-0.0164667777717113,0.0477310940623283,-0.0014024111470142,0.0471867397427558,-0.0787377654219046,0.0350332920589018,217
1733106581269406200,0.0181236857116222,0.1175520281910896,0.0260731834113597,6.102203361144661,-3.895302972710133,6.615142362132668,-0.035047523677349,0.0151803754270076,-0.0283734742552042,0.8828043686169121,-0.2988449316066263,-0.270948912859824,-0.2406964154036502,-0.1475168019533157,0.3687308728694916,-0.2953811883926391,-0.0488712787628173,-0.045939028263092,-0.0368836522102355,-0.0123251667246222,0.0245013777166605,-0.1020637598838191,0.0047070421278476,0.0079102205686969,-0.1276763857118785,218
1733106581309164300,-0.0120709615439176,-0.0399824662983417,0.0900023424863815,6.095886433082819,-3.895336290457845,6.620944326409697,0.0045862277038395,0.0405466146767139,-0.001096858177334,0.8827983027830624,-0.2988831644306211,-0.2703601999791512,-0.2413323634995151,0.4920019209384918,0.2787019908428192,-0.1530117839574813,0.0485785603523254,-0.0067246556282043,0.0372566729784011,0.0427908711135387,-0.0267965663224458,-0.0579928734943736,0.0108332158997654,0.0559299450486199,-0.065110281451256,219
1733106581348921600,0.0903302592664957,-0.082455580368638,-0.118923901066184,6.09239566835761,-3.888776785811781,6.628009442490339,0.0125593896955251,-0.0404170788824558,-0.0168205313384532,0.8829699987511636,-0.2984355033982279,-0.2701884610522507,-0.2414505860855745,-0.0761976093053817,-0.1439187824726104,-0.353262722492218,0.0510539710521698,-0.0574872493743896,-0.126822754740715,0.0338182970881462,0.0099444556981325,0.0769373832027427,0.0529965944588184,0.0159389358258631,0.0860258218045346,220
1733106581388678700,0.1102431664824485,-0.0475847579956054,-0.1173912846714258,6.101662678396702,-3.8839933509275313,6.622287557712197,-0.0184989497065544,0.0102586448192596,-0.0019013559212908,0.8826976316512624,-0.2984995408706923,-0.2706572004896742,-0.241842045012752,1.0967340469360352,0.008498721756041,0.0294369887560606,0.066370666027069,-0.0039674043655395,0.0789437294006347,-0.0233889520168304,0.044431559741497,0.1080056623545009,0.0843261778354644,0.0091337607394845,0.1426592983128968,221
1733106581428436700,0.312884630677104,0.0366334481313824,-0.1692804618626832,6.102976683604717,-3.890400295360386,6.617314445474744,-0.0360426045954227,-0.0290759243071079,-0.0428695827722549,0.882461603809375,-0.299022944192434,-0.2705478586178541,-0.2421791751069068,1.0729643106460571,-0.0081675527617335,0.1961555331945419,0.0497521758079528,-0.0714675188064575,0.0422388315200805,-0.0328332670032978,0.04147445037961,0.0379731677359668,0.0660745650529861,0.0222271001591696,0.0514757740847766,222
1733106581468193800,-0.0088163436621427,0.0011555997759103,-0.0605266571551561,6.132884330612421,-3.886495981398225,6.591908786061405,-0.0461320765316486,-0.0877106934785842,-0.0763146430253982,0.8813578954098488,-0.2999577799729431,-0.2719035154727706,-0.2435202157495066,2.7478630542755127,0.5210614800453186,0.3503637313842773,0.0327851176261901,-0.0686349272727966,0.1611662209033966,0.0008547405013814,0.058666530996561,0.1080337102720513,0.0688479021191597,-0.0313697919821366,0.1458741961056366,223
1733106581507951900,0.1338105045527219,0.0933028453364968,-0.2146159796267747,6.177903622034192,-3.875992123040557,6.555958351758122,-0.0720603093504905,-0.0907182097434997,-0.1160399988293647,0.8799871182909966,-0.3008460210032648,-0.274282381407456,-0.2447114108846771,5.089330673217773,0.3636063039302826,0.001143233035691,-0.0968447923660278,0.0530821084976196,-0.4928194880485534,-0.0151995383203029,0.1048773154616355,-0.0267886975698405,0.0447964444756507,0.0347425723338848,0.1241349867779761,224
1733106581547709000,-0.4455196617096662,-0.001792144113779,0.366932447206974,6.178883865243196,-3.885643163961172,6.549317014047503,-0.0510908849537372,0.1622957438230514,0.0503054298460483,0.8793127069650308,-0.3019939447137161,-0.2736373945996236,-0.2464372436050545,-0.474513828754425,-0.7732508182525635,0.6006801128387451,0.2699460983276367,0.0736850500106811,0.0673819184303283,-0.0064095086418092,0.0172212067991495,0.0795789380869362,0.001362464390695,-0.1102349831759929,0.179538181705866,225
1733106581587467300,0.1874970865547656,0.0550961565390229,0.0845072522014379,6.130352181786298,-3.910509017409384,6.580052344051003,-0.0517833679914474,0.1221733838319778,0.0426055304706096,0.8802182727346824,-0.3022281382830753,-0.2704974070074099,-0.2463841069117832,-1.4943556785583496,-0.5094526410102844,-0.0880129411816597,-0.1337284743785858,-0.274094820022583,-0.0693284273147583,-0.0363006442785263,0.00995459780097,-0.0639266428909497,-0.0334085077047348,-0.024748433047044,0.0596260778865078,226
1733106581627224300,0.3203828774780035,0.225701145003736,0.2809644748032093,6.108647130456567,-3.916961846810579,6.596379793995618,0.0034594328608363,0.018154801800847,-0.0540176145732402,0.8804468065243712,-0.3023265634641014,-0.2688436152214399,-0.2472551990469903,-0.9597036838531494,0.1301354020833969,-0.0599962882697582,-0.1218926906585693,0.1551123857498169,0.0655994713306427,-0.0093782059848308,0.0001829663524404,-0.052150695937965,-0.0660299360752105,-0.0167818198157241,-0.0398049725732766,227
1733106581666981400,0.2422358079582452,0.0868172827094793,0.2266156295001506,6.122898358649015,-3.883422273041308,6.602993659177423,0.0663710534572601,-0.0248688422143459,-0.1053191944956779,0.8802977246488028,-0.3010360307990141,-0.2696633532941834,-0.2484649676106487,-0.5683937072753906,0.2917928993701935,0.014503045938909,-0.0113995373249053,-0.062341570854187,0.1058814525604248,0.0236365776509046,-0.0276711639016866,0.0236398187845945,-0.0234229639172554,0.0189237397733319,0.0670391580214491,228
1733106581706739700,-0.2615373052775859,0.126995563840866,0.0218155259668827,6.149477738016843,-3.838456757633388,6.604586481326818,0.0765046700835228,-0.0540240928530693,-0.043375551700592,0.8801270233419011,-0.2992447958385697,-0.2715002187611396,-0.2492322035664991,-1.5811702013015747,0.2446879744529724,-0.303463727235794,-0.062981516122818,0.016731321811676,-0.0115612149238586,0.0104540036991238,0.0094646625220775,0.0766537804883904,0.0275431107729673,-0.0420618937877472,0.0970258935807738,229
1733106581746496800,-0.2577665545672178,-0.0125423784479498,-0.0175713125258684,6.153937055513262,-3.826859551081061,6.607162469294667,0.0021453229710459,0.0322978682816028,0.058750070631504,0.8803068478518739,-0.2985461983206633,-0.2720269084975406,-0.2488604231570692,-1.6586240530014038,0.3236595392227173,-0.359711080789566,-0.0372279286384582,0.0018995404243469,-0.0094833970069885,-0.0109112402424216,0.0241051539778709,-0.0019259825018525,0.0023675523698329,-0.0239765764582902,0.0402812574486713,230
1733106581786254800,0.0477910942226648,-0.0812853675454854,0.1885509795218706,6.131343530911207,-3.8360771690204736,6.622802521497011,0.0757902264595031,-0.004955998621881,0.0700611993670463,0.8811209444546831,-0.2981251205807759,-0.2710211425636641,-0.247577676351903,-1.1541310548782349,0.3961103558540344,-0.3815134763717651,-0.0462778806686401,0.0577967762947082,0.0001314878463745,-0.0240977592766284,0.0130513375625014,-0.048134783960646,-0.0151439011096954,-0.0237144138241885,0.0154591997597017,231
1733106581826012000,0.2526549106419086,0.0271627322137355,-0.0866372499674558,6.13956307772398,-3.822121708904207,6.623256695005297,0.0723408162593841,-0.113142542541027,0.0002472915221005,0.8814872984953962,-0.2971065256659843,-0.2720948527987862,-0.2463172368676424,0.4212478697299957,0.3644977509975433,-0.27467942237854,0.0545425415039062,0.0734721422195434,-0.1896362006664276,-0.0125696156173944,0.0036688256077468,-0.0064374189153983,-0.0131098134443163,-0.0027863513452321,-0.0065200534142641,232
1733106581865769200,0.4511982918679714,0.0909144888952374,-0.3559825986474752,6.18732377680838,-3.797288004159927,6.593026976436376,0.0362382605671882,-0.1877012997865677,-0.0977218970656395,0.8808054371060637,-0.296618338996339,-0.2754391435441675,-0.2456268094630545,-0.9258391857147216,-0.0554850548505783,-0.2660776674747467,0.0874792337417602,-0.0541990995407104,0.0325738191604614,-0.0001182206906378,-0.000241027213633,0.0698766693025827,0.0276890248060226,-0.0218419778656796,0.0950761203530244,233
1733106581905527000,0.0217471369057893,-0.0743240041002631,-0.0997726258724927,6.207367032405734,-3.78303385335803,6.582372895953059,-0.0278340317308902,0.1036965548992157,0.0146299069747328,0.880149012243,-0.2966652075153075,-0.2763731780569967,-0.2468710570259369,1.3046947717666626,0.2471125870943069,-0.149436354637146,0.0027673542499542,0.073277473449707,-0.0251891613006591,-0.0025891242548823,0.0209693424403667,0.0587439384568482,0.0307562611997127,0.0283168113194173,0.0424324395666131,234
1733106581945284400,0.2587339382946491,0.1851794572621583,0.0228676653683185,6.184062729185819,-3.789799694231153,6.600391367724537,-0.0172554422169923,0.089767187833786,-0.0366792045533657,0.8804476488088987,-0.2967201333569748,-0.2746467675061065,-0.2476655219900192,1.243916392326355,0.3012040257453918,0.0274182464927434,0.0045731961727142,-0.0511918663978576,0.0721574425697326,-0.0072325910441577,0.0337895974516868,0.076002440440189,-0.001941057969816,-0.0365529051249031,0.1093813437550328,235
