time_imu,phone_acc_x,phone_acc_y,phone_acc_z,phone_gravity_x,phone_gravity_y,phone_gravity_z,phone_gyro_x,phone_gyro_y,phone_gyro_z,phone_ori_w,phone_ori_x,phone_ori_y,phone_ori_z,watch_gyro_x,watch_gyro_y,watch_gyro_z,watch_acc_x,watch_acc_y,watch_acc_z,headphone_gyro_x,headphone_gyro_y,headphone_gyro_z,headphone_acc_x,headphone_acc_y,headphone_acc_z,frame_imu
1733385535379179500,0.1349205664201639,13.642123650169372,-0.5852198088228702,0.2607213309858925,9.801151987105609,-0.1996301170168444,0.0844515562057495,-0.0108044482767581,-0.2367541342973709,0.5365795242745556,0.535227825846199,-0.4729793626620258,-0.4493375378106657,-0.4189025461673736,-0.0186073407530784,0.3601543009281158,-0.0017791986465454,0.0062448978424072,0.0106628835201263,0.2923211455345154,-0.0769299939274787,-0.1132768350899219,0.2490356117486953,0.1454742918015457,0.1744559648044407,0
1733385535419179500,6.451341792985796,12.537442745113372,-1.8724094906270503,-0.1397772309374064,9.804798234653472,-0.129591544283973,-0.4237754344940185,-0.2662977278232574,-1.7971631288528442,0.5274106139046064,0.5410735743211037,-0.4624356356232826,-0.4639297316036769,-0.3335866034030914,0.0248378720134496,0.3657258152961731,-0.0063104629516601,0.0183467268943786,0.0209691077470779,0.2689605355262756,-0.0561131611466407,-0.0577390722632408,0.2393193840980529,0.1198017433466389,0.0502815958641469,1
1733385535459179500,5.143496861165762,2.987489624622464,-1.5424544826835394,-0.9877612564843148,9.756396315056085,0.0861812406951095,-0.6186907291412354,0.1818794906139373,-2.272536277770996,0.5121472149061117,0.5542120270842629,-0.4341140501148441,-0.4920357135882781,-0.3534921407699585,0.0279400274157524,0.3164858222007751,-0.0018464922904968,0.0283626466989517,0.0134671479463577,0.2221740186214447,-0.0487809851765632,-0.0303378551185131,0.190594270825386,0.1158908717795275,-0.007022592113167,2
1733385535499179300,1.4123409329526126,-6.907064284279942,-1.3596055141955614,-1.701590274889767,9.654709379994868,0.2480974117343314,-0.2182904928922653,-0.1021225750446319,-1.3827595710754397,0.4992838798358937,0.5662680508639408,-0.4082781495208613,-0.5131909886221694,-0.4004409909248352,0.0265149697661399,0.2242493778467178,-0.0119913816452026,0.0424648821353912,0.0052568316459655,0.1764326989650726,-0.0474188402295112,-0.0402501773238182,0.119173839688301,0.1254606002253946,0.0218355458416044,3
1733385535539179300,2.008092511053383,-13.97476804332733,-1.8012994801372288,-2.1370798332333565,9.563600537571311,0.3752533720349892,-0.6687015891075134,0.5658392906188965,-0.9625352025032043,0.4925216811462664,0.5729910067097526,-0.3905748432143918,-0.5258849186005129,-0.3779415488243103,0.0199816506356,0.156316727399826,-0.0128635764122009,0.0612117499113082,-0.0172840952873229,0.1491016149520874,-0.0455405376851558,-0.0428396092951297,0.0653285533189773,0.1290807726170867,0.0620066665798425,4
1733385535579179300,0.7450666719079018,-15.73303794455528,-0.2587064657658338,-2.4600632485985754,9.472948206743595,0.6178364955935627,-0.8325634002685547,0.8179633021354675,-0.5521215200424194,0.4999650982660928,0.5795443145864531,-0.3641805756640057,-0.5305994571837295,-0.174269363284111,0.0268442966043949,0.1128651201725006,-0.0146631002426147,0.0796645730733871,-0.0320196002721786,0.1323635578155517,-0.041255809366703,-0.0513560932278633,0.0149976536631584,0.1280185502130538,0.0880427328512072,5
1733385535619179500,-1.4219301606833934,-12.403849098181723,1.0530717138499022,-2.529101128989458,9.443567798480393,0.7701129234243184,-0.1612492054700851,0.1718224436044693,0.2229647934436798,0.5078420716581092,0.5802686480187458,-0.3521696506827895,-0.5304350735897774,-0.019123189151287,0.022064134478569,0.055562887340784,-0.0116495490074157,0.0782066583633422,-0.0325722694396972,0.1258467584848404,-0.0301413275301456,-0.0734165338665246,-0.0157499387860298,0.1232879049619659,0.1094280507072806,6
1733385535659179500,-1.5653409988828002,-7.460161108133196,1.5880629721701145,-2.354416323865205,9.495682016599178,0.6775996940955519,0.5145820379257202,0.1809791922569275,0.7217472791671753,0.5117379845380206,0.5807502083428714,-0.3580240567656619,-0.5221803258905464,0.0945903286337852,-0.0372355133295059,-0.0412914827466011,-0.0015550851821899,0.0723588466644287,-0.0336550772190094,0.1385310590267181,-0.0140711795538663,-0.0595978518724441,-0.0384820066392421,0.1267905975869856,0.1199016600571572,7
1733385535699179500,-1.0626546579703688,-1.1858072826474904,0.6852157220572233,-1.998332018408924,9.592596914952994,0.3989084249213337,0.807378888130188,0.0070541775785386,1.181164026260376,0.5132958188806614,0.5817059667122451,-0.3758716528454865,-0.5068194962182931,0.2755270600318908,-0.0339599847793579,-0.1199396923184394,-0.0073696970939636,0.036549374461174,-0.0005431473255157,0.1666704267263412,-0.001214250922203,-0.0468079284042119,-0.0425033904612064,0.1363246062655002,0.1441968740105629,8
1733385535739179300,-1.554402110108733,2.325910214218497,-0.2221814464449882,-1.3873233960740268,9.706898416915536,0.1478115117106121,0.6249328851699829,0.0501879341900348,1.9307478666305544,0.5219889237140957,0.5765770803553635,-0.4000282248357895,-0.4848338969068686,0.201484814286232,-0.0125023638829588,-0.1253219991922378,-0.0061778426170349,-0.0172635167837142,0.0219326019287109,0.1937692910432815,-0.0021699832286685,0.0033089784175157,-0.0021249428391456,0.1084164442456327,0.1205976794973015,9
1733385535779179300,1.7035485693506895,5.0118783136993645,-0.9889373875916004,-0.6866114872645587,9.782044551053644,-0.1028189530321396,0.5786667466163635,0.0541224405169487,1.4660471677780151,0.5317257267663806,0.568592168773163,-0.4265504114040203,-0.4604623219941084,0.0704791322350502,-0.0250706728547811,-0.0985648334026336,0.001882255077362,-0.0344192683696746,0.0181923806667327,0.2205747961997985,-0.0134208910167217,-0.0329208573490381,0.0658415481448173,0.0864630441780202,0.1137941369622945,10
1733385535819179300,2.043575766236335,6.142391579148173,-0.3349392626294866,-0.2682752900294028,9.79700714238584,-0.3421712231770157,0.6062053442001343,-0.088673323392868,0.7217229604721069,0.5350362963331188,0.5663927271486473,-0.4434469026695187,-0.4430466874808508,0.067523293197155,-0.0030896875541657,-0.0719482004642486,0.0068585276603698,-0.0322529822587966,0.029827132821083,0.2276587635278701,-0.0186998844146728,-0.0345277080237865,0.0994354337453842,0.0691664204076863,0.0772287856310606,11
1733385535859179300,1.0524372153386472,4.799056231752037,-1.918216133034229,-0.0812892765356227,9.795848035478592,-0.45294108041469,-0.057687047868967,0.0894449055194854,0.274195522069931,0.5353318785670549,0.5644276853270084,-0.4522332978974162,-0.4362640367239735,0.0242746174335479,0.0035433412995189,-0.0320811420679092,0.0053597688674926,-0.0454698055982589,0.0182345509529113,0.2054329514503479,-0.0191126056015491,-0.030403321570158,0.0894443020224571,0.0618166969656944,0.0331422450147569,12
1733385535899179500,0.8669937733780592,3.1750854953765866,-0.7826303866267204,-0.0342603212252957,9.798344528469444,-0.4020503396762535,-0.1779657751321792,0.0442797876894474,-0.0107998317107558,0.5388585942172427,0.563003477181219,-0.4511385011633025,-0.4348936706173469,-0.101196750998497,-0.0251449234783649,0.0033975557889789,0.007748007774353,-0.0420614928007125,0.0032761245965957,0.1663800328969955,-0.0342895239591598,-0.0555126283854246,0.0615913569927215,0.0699924777019768,-0.0153149119012057,13
1733385535939179500,0.4198006620308384,1.0608300728917122,-0.6221066471934318,-0.0406189741035923,9.802260240608453,-0.290533207735233,-0.3599493503570556,0.1032122671604156,-0.0283275712281465,0.5422329520643815,0.5604039524082357,-0.4480630321981425,-0.437230199611825,-0.1894840002059936,-0.0556091405451297,-0.0194040983915328,0.0031313896179199,-0.0266232788562774,0.0016432404518127,0.1122011244297027,-0.044392954558134,-0.0635293461024761,0.0478745810687541,0.0660344242585822,-0.0455149659842252,14
1733385535979179300,0.5993471183747053,-0.0483218400985002,0.8010404880642891,-0.0636446384786395,9.80469360523522,-0.1852818216580897,-0.1372123956680297,0.0612883865833282,-0.0775524973869323,0.5456219678216321,0.5589231071961736,-0.4439050621922104,-0.4391468591088792,-0.2243165522813797,-0.0655880570411682,-0.046085175126791,-0.0078659653663635,-0.0081452876329422,0.0146820098161697,0.0551999881863594,-0.0508143007755279,-0.0512941339075565,0.0539958924055099,0.0908953458033502,-0.0195072490245103,15
1733385536019179300,0.0190697617895435,-0.5787918216019868,0.8333177868127822,-0.0867059221563395,9.804698281410335,-0.1753617728040553,0.0491297096014022,0.0812193974852562,-0.0221447143703699,0.5459026655009098,0.5596870821902822,-0.4423701300872541,-0.4393737368300329,-0.2123182117938995,-0.0601176582276821,-0.0384389720857143,-0.0029062628746032,-0.0006475001573562,0.0134548246860504,0.0328655168414115,-0.0564462579786777,-0.0238899941533803,0.0649362057447433,0.1316630076626315,0.0660088879585266,16
1733385536059179300,-0.3686693540021777,-0.0113221890032291,0.4587140743255615,-0.0760537139697,9.80390625424981,-0.2191440515104681,0.151616096496582,0.0972121134400367,0.0767354667186737,0.545723069011928,0.5615075589947353,-0.4425861473989568,-0.4370504492268683,-0.2114670723676681,-0.0495265871286392,-0.030185105279088,-0.0043883323669433,-0.0072700083255767,0.0074245333671569,0.0542014278471469,-0.0618451982736587,-0.0575140313357114,0.0764288753271102,0.1555317032996565,0.1691395920872688,17
1733385536099179300,-0.5826966104881838,3.003285744169354,0.3606126330683007,-0.0179487469865358,9.802699801069496,-0.2777134371180087,0.1328421682119369,0.2379082143306732,0.1491129100322723,0.5467589091606432,0.5632815163954569,-0.4437041560633228,-0.4323137271690112,-0.2186285704374313,-0.0462977737188339,-0.0057199760340154,-0.0016998648643493,-0.0089348256587982,-0.0034119188785552,0.0780333206057548,-0.0574247911572456,-0.095516137471795,0.1120996624231338,0.1516057254949584,0.225412098929286,18
1733385536139179500,-0.6253294816974551,11.744853274530172,-0.7753601033627986,-0.036966655291256,9.801466459882258,-0.3166953846042976,0.0571661107242107,0.1673331260681152,-0.3737496137619018,0.5476955289864579,0.5673441343492563,-0.4407579882089799,-0.4288154924635156,-0.166145384311676,-0.0465869903564453,0.0194315835833549,-0.0093026161193847,0.0036493986845016,-0.0053068697452545,0.0980776473879814,-0.0550590083003044,-0.1081201829791069,0.1356631517410278,0.1630721452744677,0.2220585507176816,19
1733385536179179500,2.156539735984802,13.989882610350849,-1.8063456576108927,-0.3523592570511624,9.795762695282695,-0.2987567000707611,-0.2282762378454208,-0.3375973403453827,-1.2860734462738037,0.5398195256739806,0.5724598543585214,-0.4330381829244617,-0.4397300302575995,-0.1333837211132049,-0.0423315279185771,0.0145143875852227,-0.0114904642105102,0.0099901854991912,0.002496063709259,0.1075326353311538,-0.0434615835547447,-0.0989338369607925,0.1281680315732956,0.1619138420848175,0.210396900627017,20
1733385536219179300,3.902839213433861,6.676371030077338,-1.6299790368795395,-1.0051066512998192,9.754585466241837,-0.0905538845550734,-0.6715276837348938,-0.4084303379058838,-1.946082592010498,0.5279391812130331,0.5781824526840882,-0.4127008778190919,-0.4654709561617455,-0.1227308064699173,-0.030859800055623,0.0005478400271385,-0.0078913569450378,0.0077402293682098,0.0078429579734802,0.1066813841462135,-0.0263349823653697,-0.0798597186565399,0.0893851816654205,0.1518604309083893,0.201543732085824,21
1733385536259179300,3.31814488978982,-5.419948242458701,-0.5090986921727657,-1.7155261535227295,9.654243516048789,0.1514645177928265,-0.3499622941017151,-0.6171224117279053,-1.5576988458633425,0.5121287856486072,0.5818502558508375,-0.3920812907085642,-0.4954257643522258,-0.1325360387563705,-0.0267967749387025,0.0016676327213644,-0.0034417510032653,0.000458225607872,0.0077998638153076,0.1043397039175033,-0.0260159652680158,-0.0744768565744161,0.0528280287981033,0.1486962312564253,0.1939415865190327,22
1733385536299179300,3.23459157731235,-14.517835640597342,-0.439648687317036,-2.19281501832828,9.554507130533455,0.2708574702760205,-0.1278988420963287,-0.3559649884700775,-0.9746850728988647,0.4978664992410941,0.5842403318788585,-0.3805960411352413,-0.5156926967742828,-0.149291843175888,-0.0141390366479754,0.0094242226332426,-0.006836712360382,-0.0011555254459381,-0.0023504197597503,0.0937036722898483,-0.032704085111618,-0.0499345359921455,0.0052125677466392,0.1345516783088445,0.1174604043848812,23
1733385536339179300,1.678326595941186,-17.013449510526655,-0.6959200714230537,-2.4389342435911296,9.492662376517057,0.3336476153837516,-0.1457949727773666,-0.0934885442256927,-0.3940962255001068,0.4911399618055952,0.586083115914421,-0.3734906785685844,-0.5251597109630478,-0.0911249443888664,-0.0003135018632747,0.016341783106327,-0.0103003978729248,0.0129707753658294,-0.0064164847135543,0.0769018009305,-0.0271014682948589,-0.0227928465664386,-0.0567877329885959,0.1322001467466354,0.060838207322359,24
1733385536379179500,-0.1067781207203865,-13.59376732327938,-0.8847907844185828,-2.5229528354927897,9.464068734717369,0.4863056994758546,-0.6547240018844604,-0.0220115184783935,-0.1169933155179023,0.4922953993365548,0.5829173972660612,-0.3679845333186777,-0.5314507444176519,-0.0525724925100803,-0.0007763059111312,-0.0002109609777107,-0.0100860595703125,0.0189100205898284,-0.0075994729995727,0.0537109449505806,-0.0025520287454128,-0.0476391185313463,-0.0951738357543945,0.1234934009388089,0.0377294266745448,25
1733385536419179500,-2.0351085282728074,-7.83462921154201,1.6730805119812489,-2.471377254295349,9.464181547442076,0.7013690575439483,-0.3534314036369324,0.376986563205719,0.5533655881881714,0.5027528116363484,0.5779263282439083,-0.3608895786020145,-0.5319768351720081,0.0192050244659185,0.0025190361775457,-0.0027427617460489,-0.0160310864448547,0.0264282375574111,-0.0058152079582214,0.0380666032433509,0.0178509205579757,-0.0550116931259632,-0.1285595744848251,0.1162266248062253,0.0218840611584484,26
1733385536459179500,-1.693621195706725,-1.0487000746369362,2.208120870140194,-2.103881912508607,9.555298573172092,0.6635743836134672,0.4938015639781952,-0.3106027245521545,1.275915026664734,0.5124035171455268,0.572285458522113,-0.3723660509704358,-0.5208411158259916,0.0506127476692199,0.0041246027685701,-0.0080782053992152,-0.0084354877471923,0.0173340737819671,0.0038452744483947,0.0346493609249591,0.0417181551456451,-0.062511108970642,-0.1748205870389938,0.0987762352462857,0.0204135502144694,27
1733385536499179300,-1.5403310607887803,3.1875410723239184,0.9070160602301358,-1.5157177207969128,9.680395025393366,0.4036596380364149,0.7837981581687927,0.1013164669275283,1.7374107837677002,0.5184775066863899,0.5660544846245146,-0.3987498038974114,-0.501758949658594,0.0653661265969276,-0.0044279261492192,-0.0230530258268117,-0.0078750848770141,0.016810730099678,-0.0073060095310211,0.0415324904024601,0.0521495603024959,-0.0603834492921829,-0.1918703615665435,0.1028198480812832,0.0581149198383092,28
1733385536539179300,1.2838716432973742,5.335785273650289,0.4278811291664838,-0.8632406313896178,9.768335759174825,0.0695142017988953,0.9507531523704528,0.0201181806623935,1.4263930320739746,0.5264430602406368,0.5622847334966855,-0.4246076312119486,-0.4758172324229558,0.0826196819543838,-0.0132340406998991,-0.0532249100506305,-0.0037797093391418,0.0045809894800186,0.0007010400295257,0.0272814407944679,0.0396012179553508,-0.0054892450660467,-0.1685148030519485,0.1117486756745725,0.0482264169000089,29
1733385536579179300,1.806160948693752,5.374751840904355,-1.4591969382822512,-0.4489478095274418,9.794160520783066,-0.2079153677432797,0.4103978872299194,0.0257368963211774,0.7833161950111389,0.528108597742311,0.5603197211859668,-0.4434439576712641,-0.4588032960973301,0.0612821690738201,-0.0188376512378454,-0.0621885806322097,0.0031529068946838,-0.0098178833723068,0.0063651204109191,-0.0040635541081428,0.0097483806312084,0.0065565820366144,-0.133849024772644,0.1099493711676448,-0.0079489131778478,30
1733385536619179500,1.5956157256372272,4.618813646370172,-0.3420481447866186,-0.2395995229042135,9.797271930801868,-0.3555621447457,0.3645521700382232,0.0244753789156675,0.2589241862297058,0.5292607146651003,0.5600342790754453,-0.4522059598901847,-0.4491707651078905,0.0663371160626411,-0.0248183123767375,-0.0732935592532157,-0.0025079846382141,-0.0069511532783508,0.013394296169281,-0.037632081657648,-0.0109536703675985,-0.026716157490015,-0.1093843430280685,0.0942590500827878,-0.0015909224532544,31
1733385536659179500,-0.2020479370146058,2.481715108436346,-1.2301380072832109,-0.1781812506715767,9.795751589366793,-0.426500451930426,-0.0137055488303303,0.0584996789693832,0.156895712018013,0.528940051515773,0.5608381481050285,-0.4551989049015403,-0.4455075835704435,0.0771964266896247,-0.0099244769662618,-0.0549031049013137,-0.0101455450057983,-0.0227596312761306,0.015303686261177,-0.0584925822913646,-0.013311468064785,-0.0456909070730209,-0.0874193012714386,0.0983618822917342,0.0794831404291093,32
1733385536699179500,-0.194878830836527,1.317259241375327,0.2084977890074253,-0.0934729412063956,9.797073777881264,-0.4230781493315473,0.0434174202382564,-0.0074378582648932,0.202932521700859,0.5313549491763164,0.559181010736084,-0.4570422074131994,-0.4428216051620601,0.0081531722098588,-0.0060286987572908,-0.0253296308219432,-0.0043081641197204,-0.0215987712144851,0.0184128433465957,-0.0494036749005317,-0.0178483072668313,-0.0595750555187463,-0.0650096088647842,0.108888244742155,0.1483703603029251,33
1733385536739179300,0.0329867781751207,0.4626052365452051,-0.3619091026196256,-0.0252056935615604,9.797896784701942,-0.4135132888570427,-0.1368534117937088,0.106668584048748,0.1489877551794052,0.5334242474269247,0.5575929749316033,-0.4584467092758363,-0.4408802382312684,-0.0273651406168937,-0.0134165212512016,-0.03048937022686,-0.0036022663116455,-0.0181631445884704,0.0159329175949096,-0.0191924478858709,-0.0234069786965847,-0.0456932451605796,-0.0658874586224556,0.1145149620501324,0.1521381884038448,34
1733385536779179300,0.5927753022363409,0.1805009440571069,0.4838461409619077,0.0132569210671179,9.80032839576304,-0.3518658109784126,-0.1036767438054084,0.0922352448105812,0.0303043611347675,0.5371488636501927,0.5561630206797306,-0.4567525136009565,-0.4399216950161654,-0.036536268889904,0.0029701755847781,-0.0205536503344774,0.003626525402069,-0.017655536532402,0.0090231597423553,0.0179756302386522,-0.0237718671560287,-0.0356277782201766,-0.0774795040488243,0.1233875294115394,0.1527465295605361,35
1733385536819179300,0.1531463790656998,0.3515665357708931,0.4743254484226927,0.0195354407892446,9.800897135561703,-0.3353123702581971,0.0142578110098838,0.1478139907121658,0.028870964422822,0.5386774156116777,0.5565153575064672,-0.4553974413578304,-0.439010861437503,-0.0408742912113666,0.001030861865729,0.0033422950655221,0.01080983877182,-0.0137112438678741,0.0034338235855102,0.052044428884983,-0.0334898680448532,-0.0598182166248559,-0.072149246931076,0.1300727062638849,0.1981499979943037,36
1733385536859179300,-0.0890005176332313,1.669163630798459,-0.0615583382904529,0.0370762074797996,9.799960146972536,-0.3602703224366531,0.0572494976222515,0.1624240577220916,0.0257347431033849,0.5397941370981958,0.5582867798460822,-0.4546257207120909,-0.4361807352379757,-0.0375583916902542,-0.0147658372297883,0.0068536726757884,-0.0003401041030883,-0.0092941522598266,-0.0049287378787994,0.0743852406740188,-0.0253060758113861,-0.1002373207747936,-0.050152339041233,0.1264901716019958,0.2055791250817477,37
1733385536899179500,-0.2555020437013358,6.2838008682668205,-0.5126104631533845,0.0057569286920595,9.799996387329696,-0.361122884145379,-0.00981623865664,0.1453868448734283,-0.2992986440658569,0.540413851062821,0.560429083531202,-0.4520302916414757,-0.4353626822770102,-0.0682973936200141,-0.019288470968604,-0.0069370404817163,-0.0060685873031616,-0.0105772018432617,0.0069632530212402,0.1041478589177131,-0.0164286307990551,-0.0716968704670667,-0.0423846617341041,0.1161586741365492,0.1907905751422047,38
1733385536939179500,-1.040649162389338,15.298485667061804,-2.527776602387428,-0.2306721383493393,9.799782452318071,-0.2854104761603288,-0.5757423043251038,0.101855382323265,-0.9730442762374878,0.5381172468180364,0.5645821563556098,-0.4424916648183832,-0.442581118837682,-0.0862188637256622,-0.0265750922262668,-0.008737071417272,-0.0006211400032043,-0.0078543126583099,0.0008305460214614,0.1606394946575164,-0.0105262994766235,-0.0393681337922811,-0.0510792136192321,0.1420616155475378,0.2489358901187777,39
1733385536979179300,3.287873085644841,12.046965751302242,-1.8631541710257529,-0.7991001676514744,9.77378642579615,0.0700470893994672,-1.1066269874572754,-0.3413533568382263,-1.8101704120635984,0.5348909495372822,0.5670473076617899,-0.4181936671812897,-0.4663293064647046,-0.0792158171534538,-0.0136616379022598,0.0072483532130718,-0.0006815791130065,-0.0035228729248046,0.0069808959960937,0.234134703874588,0.0161857884377241,-0.0504728806525468,-0.0563283935189247,0.1594789065554737,0.246568576465547,40
1733385537019179300,4.53777465480119,-1.128597202694416,-0.7081172166299075,-1.533500922507793,9.67485083526969,0.4648065459817647,-0.7377269864082336,-0.2372903227806091,-1.8534380197525024,0.524624692253776,0.5685718490341544,-0.3911873122287836,-0.498465248696494,-0.0791500359773635,-0.0141101144254207,0.0105364248156547,-0.0028994679450988,0.0014703571796417,-0.0048415511846542,0.3035178780555725,0.0333073139190673,-0.0559767387658357,-0.0700526759028434,0.1427920487139374,0.1801037614330649,41
1733385537059179300,4.220249212580919,-12.005096448343991,-0.820406867313385,-2.0989862494215368,9.559269814890625,0.6204908825598657,-0.0716701671481132,-0.2942309081554413,-1.1578627824783323,0.5118433771960013,0.5737730049925098,-0.373025883416635,-0.519280871019633,-0.0754229426383972,-0.0193048231303691,0.0235127434134483,-0.009572148323059,0.0028383284807205,-0.0069368928670883,0.3465989530086517,0.0510311275720596,-0.0689917031615972,-0.0718788281083107,0.1203502806074917,0.1312144967101514,42
1733385537099179300,4.006888493712246,-16.96601439013481,-0.6408674617648125,-2.461132046873868,9.47081587089002,0.6456555728241801,-0.0503212437033653,0.11231180280447,-0.8481531143188477,0.50166904027067,0.5794339832266071,-0.3624044496826234,-0.5303277175139515,-0.0446706302464008,-0.0232997760176658,0.0160198733210563,-0.0121354460716247,0.0108479410409927,-0.0087566971778869,0.350831389427185,0.0657698214054107,-0.0690320351719856,-0.0590228103101253,0.1197207505322992,0.0763509798832237,43
1733385537139179500,1.3922060535490512,-14.277241754627228,-0.3700847737580537,-2.742236514669657,9.388730877399444,0.7087146710664034,-0.284520149230957,-0.3886506259441376,-0.6154397130012512,0.4946214694290213,0.5824220292897376,-0.3530583334638744,-0.5398926595123047,-0.041145134717226,-0.0274970792233943,0.0126118259504437,-0.0098776221275329,0.0106559246778488,0.0022493153810501,0.3176402151584625,0.061973463743925,-0.0248012637794017,-0.0507901012897491,0.1053065137978643,0.0189934542834758,44
1733385537179179500,-2.787370080120861,-8.58411896058917,0.9194429225396364,-2.847981785210967,9.341882616984844,0.8880296202093362,-0.240887239575386,-0.2795749306678772,0.0970410704612732,0.4921010077789751,0.5764668436027212,-0.349870075505978,-0.5505573815913506,-0.0273137409240007,-0.0190931018441915,0.0065546664409339,-0.0052452087402343,0.0093543827533721,0.0038287043571472,0.256162941455841,0.067980408668518,-0.0289414323240518,-0.0576154701411724,0.0942320159453898,-0.0090804014258086,45
1733385537219179300,-3.347304641039669,-4.84886684910357,1.8107517836153504,-2.552756437604129,9.431668686372042,0.8351407644562423,0.392448365688324,0.3646746873855591,1.3348959684371948,0.4999794957707569,0.5728821868876346,-0.3594797244057923,-0.5409259601342056,-0.0176965333521366,-0.0162649303674697,-0.0014296902809292,-0.0075664520263671,-0.0001347213983535,0.001773864030838,0.1968513429164886,0.0598138757050037,-0.0335153161108493,-0.0846328735351562,0.1006759313877671,0.0349646381363272,46
1733385537259179300,1.1396183629244565,-0.324889541247487,0.6844611042976378,-1.9325477329865093,9.601672201812269,0.4934858933035284,0.7400596141815186,0.1411462277173996,1.2347784042358398,0.5124262867059456,0.5738212219257717,-0.3815343055615154,-0.5124256632379369,-0.06010577455163,-0.0103064803406596,0.0120099522173404,-0.0168370604515075,-0.0083267390727996,0.0051102936267852,0.1521493196487426,0.060047835111618,-0.0357768313020467,-0.1129544228315353,0.0951925315406173,0.0586098637484014,47
1733385537299179300,0.659571431582421,1.9042881454467773,0.0178209216390736,-1.4360412497527897,9.699210785022377,0.1829926147423684,0.7848519682884216,0.1353212296962738,1.3681106567382812,0.5169644597398417,0.5726630489862894,-0.4033943553879182,-0.4920140584083629,-0.0560580380260944,-0.0189932864159345,0.0191348399966955,-0.010907232761383,-0.0015588998794555,0.0016435980796813,0.1371025741100311,0.0596401542425155,-0.0245575181514024,-0.1481993347406387,0.1026540265277028,0.0607508212998509,48
1733385537339179300,0.1768767622105777,3.640556058225036,-1.033614733707905,-0.9087543552648276,9.764429399386048,-0.0219290602107997,0.2520571947097778,0.2530052661895752,1.348609447479248,0.5259217058735791,0.5686190966127879,-0.4216519818934502,-0.4714746791636497,-0.1138765960931778,-0.0264913085848093,0.0061494000256061,-0.0041421651840209,-0.0041964352130889,-0.001129150390625,0.1403278410434723,0.0608773045241832,-0.0456920761168003,-0.1610567569732666,0.110232937349379,0.1053993797130882,49
1733385537379179500,0.0917793620962649,5.621038970080018,0.92801975835748,-0.3831233747577294,9.796420866930484,-0.2317555131392553,0.9036194682121276,0.3617541790008545,1.163931131362915,0.5357736771355849,0.5661145926707101,-0.4374134319505159,-0.4484753836927899,-0.1241510659456253,-0.0286957137286663,-0.0072011593729257,-0.0028832554817199,-0.0021215975284576,0.0020415186882019,0.1785668730735778,0.0664290562272071,-0.0790741212368011,-0.1555785536766052,0.1358010573154315,0.1415291891712695,50
1733385537419179500,1.2781303231664,5.480010204711556,-1.875839465075731,-0.0816280983022414,9.788262694916128,-0.5946775921937077,0.6944727897644043,-0.1856537759304046,0.4049301147460937,0.5320186326085004,0.569129184862749,-0.4543259730365051,-0.4320139683409069,-0.1027754768729209,-0.0311728809028863,0.0018474627286195,-0.0054729580879211,0.0019061267375946,-0.00119349360466,0.2225785851478576,0.0942311286926269,-0.1357733290582895,-0.1153445243835449,0.1785133504364639,0.2208123500488698,51
1733385537459179500,0.2466410754461772,3.603368191081285,-2.1121429603755475,-0.009764892541652,9.782014740437267,-0.6946092810854315,-0.1829188764095306,0.1488071829080581,0.0689697116613388,0.5304739383181255,0.5699363105459869,-0.4588984844343439,-0.427997923224863,-0.0876708254218101,-0.0236779451370239,0.0029420217033475,-0.0055505633354187,0.0082664787769317,-0.0013651549816131,0.4080520868301391,0.1962034106254577,-0.3810661864995956,-0.005306914448738,0.2021635810172185,0.4670891039609909,52
1733385537499179300,-0.2425520890994928,1.9837030429452656,-1.3548632881045342,0.0399426229117205,9.793674198570846,-0.5027375231103971,-0.7131965756416321,0.158918872475624,0.1789676696062088,0.5388259714139675,0.5653482217813711,-0.4538875069917848,-0.4289920097123389,-0.0481620319187641,-0.0167979896068573,0.0024627859238535,-0.0181138515472412,0.0047478973865509,-0.0015664100646972,0.5372003316879272,0.3379565775394439,-0.2596200734794139,0.1052603647112846,0.1327036392893642,0.1742453907936811,53
1733385537539179300,0.6483440812557936,0.3982061218708753,0.3160381262719631,0.0934092100541107,9.803487736576797,-0.2308947863903827,-0.5297933220863342,0.0502052195370197,0.0588021278381347,0.5488449618570523,0.5576792988154847,-0.4480693669591403,-0.4324314548807047,-0.051292311400175,-0.0150796119123697,0.0073243863880634,-0.0072183609008789,0.0022507309913635,-0.006177544593811,0.4687695503234863,0.3443166315555572,0.041164369559288,0.132692664861679,0.1121086315607652,-0.232334518603608,54
1733385537579179300,0.86450012993142,-0.2855477109402418,0.6143593940675258,0.0752243915726663,9.80549089309275,-0.1305808658485766,-0.0628253519535064,-0.1867234706878662,-0.17945396900177,0.5501548145148007,0.5541187961828755,-0.4467774962960512,-0.4366598202279108,-0.0253187678754329,-0.0100852781906723,-0.0111104138195514,0.0053381323814392,0.0124107599258422,0.0003338009119033,0.3088365197181701,0.2540870308876037,0.1640425612092018,0.099348209798336,0.0927957908635027,-0.3228471486996859,55
1733385537619179500,0.1741357381404377,-0.6678998455971479,-0.0720972588283475,-0.0206075749492272,9.806118085080383,-0.0999860859600827,-0.1570834368467331,0.199247270822525,-0.2659628987312317,0.5487682663595738,0.5553254887067254,-0.4435216719266449,-0.4401766492361108,-0.0610434748232364,-0.007120594382286,-0.0243927966803312,0.0038143992424011,-0.0055155754089355,0.0069638192653656,0.1581741273403167,0.1620467901229858,0.1702940228193998,0.0383565016090869,0.0426582065799273,-0.286104029648751,56
1733385537659179500,-0.0428550899920519,-0.0962666635781526,-0.1820540187180042,-0.1388050797033123,9.805653390178083,-0.0174130189749062,-0.2227925956249237,0.1669826954603195,-0.2758218944072723,0.5505602241619069,0.5577607637558133,-0.4356497989341006,-0.4427140745407354,-0.0718327388167381,0.0049433652311563,0.0182410832494497,-0.0107671618461608,-0.0081679821014404,-0.0031405687332153,0.032637819647789,0.0816211104393005,0.1387701727867126,-0.0247931443154811,0.0334298845834098,-0.1832091801024973,57
1733385537699179500,-0.5776591643102467,0.1583925726234912,0.2321183185696601,-0.200905014057178,9.804477332136036,0.0471054546126397,-0.0824069902300834,0.202750489115715,-0.0835956782102584,0.552138418111221,0.5584392990406252,-0.4309800917362612,-0.4444600716909634,-0.0312062185257673,-0.0048094503581523,0.0259837582707405,-0.0019337534904479,0.0113982260227203,-0.0118585675954818,-0.0257514715194702,0.0154206231236457,0.1186550209969282,-0.0847708880901336,0.0674537712709046,-0.0131037386577576,58
1733385537739179300,-0.1449083467481657,0.2803027960240841,0.1231751287698745,-0.210630490187183,9.80437328723967,0.0165863566091284,0.2367041558027267,0.0479894019663333,0.0503344237804412,0.5522857828295448,0.5607139051727803,-0.429830487186468,-0.4425223474781176,0.0072437021881341,-0.0258297268301248,0.0035614732187241,-0.0038335919380187,0.0200742781162261,0.0019614100456237,-0.0127340806648135,-0.0192578360438346,0.0114478612095117,-0.1202885508537292,0.0861802725807297,0.1294121234633028,59
1733385537779179300,0.5116299642160534,0.2799421460181474,-0.500440753942728,-0.2056211193262599,9.804135971352457,-0.0838943627337925,0.250679075717926,0.2765601277351379,-0.0980978012084961,0.5504409957423303,0.5643326986157141,-0.4310522327932031,-0.4390186501396696,0.0096179107204079,-0.0145696159452199,-0.0094974040985107,-0.0021161437034606,0.0045165717601776,0.0108114033937454,0.020085509866476,-0.016501098871231,-0.0640571693688631,-0.129137247800827,0.0854850111924111,0.1452235867097973,60
1733385537819179300,0.7254036477997898,0.3780331024140119,-0.5637982506096363,-0.2672135242830962,9.801514975199105,-0.1712216407920233,0.0639539659023284,0.740411102771759,-0.087140142917633,0.5521570293574738,0.5736473918859801,-0.42386146770778,-0.4317324382198217,-0.0123909851536154,-0.007606248371303,-0.0113526284694671,-0.0079323053359985,-0.0043736100196838,0.0106254816055297,0.0426554195582866,-0.0051241740584373,-0.0799316148489713,-0.1169338673353195,0.0858168460958171,0.1115717116724699,61
1733385537859179300,-0.5035348109679296,-0.3012368629813194,-0.501916087192297,-0.2507883313187398,9.802176653978227,-0.1575371796368621,-0.1632449775934219,0.619272768497467,0.1476010978221893,0.5582803827884232,0.5781722920859783,-0.4168320537572419,-0.4246066585229325,-0.0398463122546672,-0.0111119812354445,-0.0076110865920782,-0.0078709125518798,-0.0048656463623046,-0.0022465288639068,0.0435185804963111,0.0104577923193573,-0.0737298375993967,-0.0886714085936546,0.0999156876049935,0.0659900371275842,62
1733385537899179500,-0.0880430433784611,-0.6055798752844334,-1.0717337442219257,-0.1865420325859449,9.804700619497895,-0.0584788395135663,-0.3807389736175537,0.8810333013534546,0.1305738389492035,0.5688047783190797,0.5800736850212275,-0.4080393499142299,-0.4165086870328552,-0.0310821142047643,-0.0048393309116363,-0.010305406525731,-0.0081944465637207,0.0004216134548187,0.0018628984689712,0.0386691875755786,0.0127997258678078,-0.0541068532407283,-0.068389743566513,0.0905697214450221,0.0148309277765452,63
1733385537939179500,-0.8408186639621853,-0.6513321571558713,-1.532245807880163,-0.1541215807734057,9.804514157015085,0.1346306252965703,-0.6560996174812317,0.3756767511367798,0.0819885283708572,0.5807731829093838,0.5791672601540778,-0.397115894091361,-0.4117848018232852,-0.0005721424240618,0.0082090394571423,-0.0058987410739064,-0.0001040697097778,0.0029065310955047,0.0034967362880706,0.0219629909843206,0.0217822678387165,-0.0377022464066743,-0.0670327246189117,0.0765264734474476,-0.0114302524875849,64
1733385537979179300,-1.780751636018604,-0.9292103563815356,-0.3137333199283107,-0.0569478853529319,9.797333890122175,0.4235675768163054,-0.739838182926178,0.8156612515449524,0.5399998426437378,0.5950786839441953,0.5721763548184293,-0.3886107082754274,-0.4092400550140817,0.0280957221984863,0.013534776866436,-0.0049433317035436,-0.000557541847229,0.0011946856975555,-0.000444158911705,0.0108172893524169,0.0248277354985475,-0.0598421820223331,-0.0698033645749092,0.0863977147236932,0.0209125857777893,65
1733385538019179300,-0.753897409421578,-0.6661994714200496,-0.2622872468620538,0.1947015197745524,9.78212229246497,0.6652613137871026,-0.5630440711975098,1.0397886037826538,0.7248244285583496,0.6159662537005449,0.5680839603295907,-0.3786313851934786,-0.3930706665825678,0.0322244204580783,0.0120861763134598,-0.000415957882069,-0.0090555548667907,-0.000372439622879,-0.0026681423187255,0.0100453551858663,0.0250836573541164,-0.0669862085580825,-0.0680060610175132,0.089610393159883,0.0642615328345447,66
1733385538059179300,-1.1277046377688646,-1.1178636272341012,-0.2059907015573233,0.4609193658174946,9.755396198102831,0.8889370173778385,-0.4717808961868286,0.9125505089759828,0.8749415874481201,0.6341214961271905,0.5620707495735454,-0.3724960394455635,-0.3784352736014099,0.0430906489491462,0.005979174748063,-0.0116345239803195,-0.007576048374176,0.0006238520145416,-0.0005659908056259,0.009234863333404,0.0339609161019325,-0.0688537559956312,-0.074830949306488,0.0721824072279967,0.0574607667785137,67
1733385538099179300,-1.2081744511477648,-1.289127371868491,0.0440939202051609,0.8373722498353571,9.71103040215373,1.0793849896274506,-0.4337086379528045,1.7977442741394043,1.3342645168304443,0.6570509433911298,0.5591187116305948,-0.3638034442265134,-0.3511656629733181,0.0082818027585744,-0.0109410593286156,-0.0252712406218051,-0.0002931952476501,-0.004280000925064,0.0003024339675903,0.0040284488350152,0.0538784861564636,-0.0779489165991544,-0.0899375975131988,0.0432947965835686,0.0616777999516576,68
1733385538139179500,-1.320564128139615,-1.6147867284446953,-0.0587023643374443,1.336725135476142,9.622194180837273,1.340498078143597,-0.3815529644489288,2.093449592590332,1.6584018468856812,0.6856114485085921,0.5542242937185972,-0.3528300640811657,-0.3135018102248675,-0.0114370407536625,-0.0039285295642912,-0.0169308185577392,-0.0047494769096374,-0.0055110156536102,0.008850947022438,-0.0053800456225872,0.0602698400616645,-0.0217991593539714,-0.1178269833326339,0.0887686085734981,0.0451389722786843,69
1733385538179179500,-0.6016121406972408,-1.3983856189668178,-0.1811713906645774,1.8289394744738936,9.497072009652852,1.622032023397833,-0.390169620513916,2.0913805961608887,1.6280605792999268,0.7147541661562855,0.5510614061947312,-0.3370915404087126,-0.2680057453999114,-0.0462442897260189,-0.005321629345417,-0.0108733251690864,-0.0062711238861083,-0.0125345885753631,0.005142405629158,-0.0327577963471412,0.0618683509528636,-0.0102197807192802,-0.1667805314064026,0.1267091846475377,-0.0317283230962231,70
1733385538219179300,-0.447693644747883,-0.5869318734377622,-0.9159741504505275,2.296017326388508,9.328011328020692,1.9715172228500248,-0.7843549847602844,1.2058006525039673,1.4992347955703735,0.7395155654842555,0.5405310882517552,-0.3275770708520984,-0.2315945181193293,-0.0316946431994438,0.0004564713744912,0.0066739087924361,-0.0118515491485595,0.0055034160614013,-0.0024645924568176,-0.0564698576927185,0.0618413761258125,-0.0463373882830142,-0.2171823233366012,0.1907254009515047,0.0459553301628679,71
1733385538259179300,-0.3015145108789205,-0.5658809021025896,-0.5179068525284528,2.7388118009179827,9.086246060183644,2.4717253370806573,-1.1993708610534668,1.6615350246429443,1.602148175239563,0.7652822801088768,0.5215087978903838,-0.31938324374229,-0.2009128098248195,0.0312313269823789,0.0079779839143157,-0.0071423039771616,-0.0062341690063476,0.0191251933574676,-0.003838837146759,-0.0497814565896987,0.0854248031973838,-0.0614525398284196,-0.2310037016868591,0.2124457229156047,0.0762179646207019,72
1733385538299179300,0.0822927910223603,-0.5274830746471881,-0.3631327626630664,3.1172581603080034,8.733311158668995,3.1909847830370066,-1.5586615800857544,1.9762544631958008,1.6317263841629028,0.7971565296408146,0.4960408284852641,-0.3020737569700661,-0.1650350604583985,0.0701489001512527,0.010222123004496,-0.0174325592815876,9.953975677490234e-05,0.0176413357257843,-0.0046474337577819,-0.0522393956780433,0.1020165532827377,-0.033486090016365,-0.2448827773332595,0.2355338443678803,-0.0380613985752686,73
1733385538339179300,0.1694853367850184,-0.4266325904101133,-0.1206391805514693,3.3553777651190755,8.30714618577063,3.987873119857907,-1.6076148748397827,1.98641836643219,1.500277042388916,0.8285454159142964,0.4673926901689732,-0.2796768176693637,-0.1297587530599964,0.137091189622879,0.0258913114666938,-0.0180468168109655,-0.0033747553825378,0.0042285621166229,0.0048595815896987,-0.0758626833558082,0.1256566643714904,-0.0566635519862174,-0.2043952047824859,0.2005787777774967,-0.1115537741569802,74
1733385538379179500,0.4118009319812059,-0.5373515577107668,0.2642962485969066,3.506908635279536,7.817071343019604,4.771308100865781,-1.6502259969711304,1.7072628736495972,1.399300456047058,0.8567124661674362,0.4361758654895817,-0.2578402607363725,-0.0965032323075307,0.1050799861550331,0.0235597658902406,0.0076781208626925,-0.0075929760932922,-0.0103371441364288,0.0063821077346801,-0.1290466040372848,0.1568169295787811,-0.089322543528676,-0.1626200824975967,0.0782856286070775,-0.2482397793470881,75
1733385538419179500,0.9416744088962674,-0.2234405065953731,0.588802928006649,3.570647824740409,7.301897714847326,5.486633422243595,-1.6376296281814575,1.3349329233169556,1.125324845314026,0.8802282737251955,0.4038642181475423,-0.2390674623305431,-0.0702750378361563,0.0503746606409549,0.0118472371250391,0.0116597460582852,-0.0147110819816589,-0.0043346583843231,0.0059539228677749,-0.2041439712047577,0.1860565990209579,-0.1005038627564907,-0.1385132074356079,0.003079991967231,-0.1923435402052477,76
1733385538459179500,1.0405351806208492,-0.3765776429086923,0.9281003493130208,3.5675548271611333,6.7686471627146005,6.134195997732878,-1.6680406332015991,1.078114628791809,0.9276947379112244,0.9000978510377725,0.3708211359942578,-0.2230128668839988,-0.0508027336971085,0.065787173807621,0.0091723585501313,-0.0106490217149257,-0.0126793980598449,0.0067535042762756,0.0039473176002502,-0.2132740765810012,0.1646871268749237,-0.0115180038362741,-0.0969190225005149,0.0161568608843721,0.057978114316659,77
1733385538499179300,0.229052501258254,-0.3189507988482714,1.4882558595061302,3.53508142131865,6.244599907734989,6.684201869833469,-1.3978275060653689,1.2422133684158323,1.0379987955093384,0.9164221702713354,0.3403460335551408,-0.2082429344296114,-0.0311431410153771,0.0784062966704368,-0.0103371078148484,-0.0518568456172943,0.0047706961631774,-0.0012019872665405,0.0041164308786392,-0.1566607803106308,0.1073143258690834,0.0491664742290973,-0.0585415288805961,0.0004941036598756,0.2359837800924666,78
1733385538539179300,0.6043184770464897,-0.4580295991927385,1.4127461527526377,3.454002682261169,5.773756419676542,7.134703996130824,-0.974803388118744,0.8208853602409363,0.8246135115623474,0.9293189313809684,0.3143496181017256,-0.193431290142765,-0.0116247260654487,-0.0224295035004615,-0.0329118184745311,-0.0512319356203079,0.0090823173522949,-0.0300903618335723,0.0088261663913726,-0.0691058635711669,0.0666353926062583,0.053902270579338,-0.0430519580841064,-0.063142538741976,0.2948651542586274,79
1733385538579179300,0.6498913106977939,0.2006546742916107,1.1971183657348154,3.4522739587724205,5.467168843317031,7.37307669892013,-0.5401760935783386,0.3173446953296661,0.571161150932312,0.9359052189708128,0.2982241779066782,-0.1874568186793532,0.0019286372938519,-0.1002928763628006,-0.0569565407931804,-0.0130898747593164,0.0028979778289794,-0.0333419144153595,0.012039840221405,0.0236678123474121,0.0227089710533618,-0.008963058656454,-0.0251261405646801,-0.0416754608865827,0.348756848645024,80
1733385538619179500,0.1335588678792119,0.2382540448457002,0.4364426212847233,3.444126308152079,5.237136098849773,7.54193513597846,-0.581667959690094,0.5106757283210754,0.5194533467292786,0.9404135167043736,0.286354117443567,-0.1829470712172761,0.0124170557176667,-0.1668471395969391,-0.0733525604009628,-0.0225299149751663,-0.0077188611030578,-0.0353015661239624,0.0215067416429519,0.1164414957165718,-0.0212174542248249,-0.0717962391883134,-0.0072003230452537,-0.0202038164539262,0.4026428987419232,81
1733385538659179500,0.3581023672804236,0.8846569289058447,0.2091518690019846,3.391666053074598,4.958541275787353,7.751119153684377,-0.7871819734573364,0.5186901092529297,0.390333354473114,0.9459076378506563,0.2712606770318304,-0.1766933608162413,0.0213493558342991,-0.2565408051013946,-0.0653825178742408,-0.0301364362239837,-0.0065014958381652,-0.0422911047935485,0.0276475250720977,0.1887610852718353,-0.0596113316714763,0.0298299055963754,0.0569754317402839,0.0101797775024548,0.4346094510408118,82
1733385538699179500,2.267642441906035,-0.0016384148567914,4.2542274700284,3.067087477472424,4.759964284552633,8.006628284713626,-0.1201011762022972,1.8256547451019287,0.2770604193210602,0.9524858075029892,0.259949469107451,-0.1555694164469105,0.031545686135337,-0.3081558048725128,-0.0481787621974945,-0.0048230900429189,0.0032029151916503,-0.0407919287681579,0.0250902771949768,0.2133147418498993,-0.0707688629627227,0.0116267249077558,0.0741486847400665,-0.0473689963530749,0.2483070724296383,83
1733385538739179300,0.3271411195665598,0.6753998459637165,-0.1439718330830335,2.845475355347991,4.675491226881742,8.137163713118433,-0.2393138855695724,0.0066103474237024,-0.0335446409881114,0.9557727321023908,0.2549263024957788,-0.1418896819251057,0.0371267196177162,-0.4042703509330749,-0.0340180397033691,0.0397064313292503,0.0006749033927917,-0.0343650579452514,0.0161012411117553,0.1906943172216415,-0.1111314892768859,0.1579711323410272,0.0782888755202293,-0.033173845729418,0.0986776519763283,84
1733385538779179300,0.3228057207107543,0.445934087729454,1.0932195998430252,2.897545149803161,4.683792899020016,8.113982159495354,0.1428312808275222,-0.2462327480316162,-0.1257891803979873,0.9553012726871944,0.255036915699807,-0.1458020100835942,0.0331279340911209,-0.3775713741779327,-0.0245828349143266,0.0897388979792594,-0.0182487964630126,-0.0088971853256225,0.0115053802728652,0.1635137647390365,-0.1934927999973297,0.1112520512640476,0.0188072547316551,-0.0057063949480652,-0.0426870125493034,85
1733385538819179300,-2.154127121885121,-0.1020396940216422,2.192827439418435,3.070357877445221,4.734370701351762,8.020536983078717,0.4230997562408447,-0.2792220413684845,0.5160874724388123,0.9527648658045224,0.2589237480208309,-0.1549996773780212,0.0342434321754556,-0.3631373047828674,0.01074362359941,0.1103753373026847,-0.0193243026733398,0.0127093195915222,-0.0019329190254211,0.1319692432880401,-0.2266519963741302,0.0129798930823802,-0.0069784596562385,0.0708961668097414,0.0006695424251724,86
1733385538859179300,0.0020440730482339,0.1138689557641744,-1.9822113430827848,3.1119141689315435,4.724961944754422,8.010062935337423,-0.21139457821846,0.991249144077301,0.6563225984573364,0.9519047063441086,0.2607778123981519,-0.1536079161315388,0.0477163662575804,-0.2989282310009002,-0.0059660612605512,0.0887692421674728,-0.0080542564392089,0.0316317677497863,-0.0258632898330688,0.1315478980541229,-0.2207755297422409,-0.0240641816765069,0.0084943193942308,0.2014065886374562,0.0454163370484951,87
1733385538899179500,-0.1314294546350836,1.2015133858233689,0.0153249949038028,2.947459227529168,4.519730464066565,8.188705684307218,-0.1938488632440567,0.2866026163101196,0.5138080716133118,0.9558019661756912,0.2503546043505703,-0.1407649323877623,0.062851649373522,-0.235964149236679,-0.0159792806953191,0.0729846209287643,-0.0037402510643005,0.0378281474113464,-0.0309158861637115,0.1031199693679809,-0.1531455218791961,-0.1969540662080049,-0.0544154867529869,0.1806338862543925,-0.0868850689823739,88
1733385538939179500,-2.3866905538737773,0.1296425712183117,-0.2398234861195087,3.0995640981853008,4.466626065866649,8.1616382291615,0.1884515583515167,-0.2726399898529053,1.2883542776107788,0.9539486415105344,0.2506196932247015,-0.1451276750740015,0.0781640351145444,-0.2437043637037277,-0.0248759966343641,0.0407495200634002,-0.0096018314361572,0.0318285822868347,-0.0222392082214355,0.0788055956363678,-0.049019306898117,-0.2280085451632738,-0.1065854951739311,0.2512401850057765,0.0305796005856711,89
1733385538979179300,-1.7200827939137815,0.7001368123352527,-0.0576361964106559,3.5938451604545114,4.307485597485304,8.043645471465586,0.2990992963314056,-0.9599277973175048,1.8355064392089844,0.948042197946312,0.2502019219637607,-0.1651884510101035,0.1064319770018202,-0.2114508152008056,-0.039148673415184,-0.0097015351057052,0.0007481575012207,0.0398803055286407,-0.025777667760849,0.0791736841201782,0.0057301260530948,-0.1612006157815456,-0.0871429592370987,0.2856579115827568,0.1120673131696879,90
1733385539019179300,-0.5923085980400443,1.7785618708893656,-0.0448784216463565,4.186603840349615,4.146039774771035,7.839201926285028,0.293490469455719,-0.71169114112854,1.8769243955612185,0.9384611484514216,0.2531845486614027,-0.1902880095436905,0.1377631010621303,-0.0992704853415489,-0.0361293964087963,-0.0421274527907371,-0.0055644512176513,0.0351537764072418,-0.0153506994247436,0.0724114701151847,0.0247830506414175,-0.0820674578338861,-0.0507123731076717,0.2130790523830801,0.01600702691779,91
1733385539059179300,-2.71150498405844,4.143080340443551,-2.034171247422695,4.722933653797209,3.616976152934134,7.79626645539999,-1.0506690740585327,-0.7817032337188721,3.429555654525757,0.9301867049507698,0.239315090424684,-0.2126718832275598,0.1795876649468117,-0.063394509255886,-0.0121555132791399,-0.0186273865401744,-0.0084631443023681,0.0070285499095916,-0.0116480588912963,0.0243239738047122,0.0210970845073461,0.0210714296013116,-0.0106265023350715,0.1965430377217009,-0.0531930765637895,92
1733385539099179300,-1.896150431698561,1.4949172170914709,-1.6837994743943214,5.4706935103118415,2.2792424249373373,7.81325499960184,-2.0480568408966064,-0.9797471761703492,4.359360218048096,0.9162827226875072,0.1938094136383864,-0.2531260102401037,0.242468931711489,-0.0326174274086952,0.012230466119945,0.0321918539702892,-0.0032061338424682,0.0001190304756164,-0.0087418556213378,-0.0044041667133569,-0.0214619059115648,0.0626812048405408,-0.0024256044998764,0.1739367997685447,-0.0896658222747035,93
1733385539139179500,-1.4150684582203623,0.960589756442234,-1.545200566521287,6.026899406096339,0.6581899140961468,7.708025277367234,-1.98625648021698,-0.9769359230995178,4.009668827056885,0.8945663065384813,0.1384147783525717,-0.2963805516664826,0.3045505238551076,0.0366900078952312,0.037443783134222,0.066094160079956,-0.0114172101020812,0.0120939910411834,-0.0139602422714233,-0.0420108810067176,-0.0132387978956103,-0.0325111075043678,-0.0430722460150718,0.1125556812085211,-0.1222418756409082,94
1733385539179179500,-1.3927005590677262,0.5961313711985945,-1.7956828092992303,6.308595117783546,-0.7337979666575789,7.4721853079259395,-1.247175931930542,-0.9717488884925842,3.2153921127319336,0.868606928124469,0.0929671392899609,-0.3322373917256326,0.3556649156376178,0.0864290744066238,0.0344382487237453,0.0641344040632247,-0.01630300283432,0.0274728834629058,-0.0199464559555053,-0.0543477609753608,0.0183605961501598,-0.0782744952917098,-0.0701246857643127,0.0866867881976067,0.0082044679746497,95
1733385539219179300,-1.4302081596851348,0.0530707881912589,-1.4071885186254978,6.410147612810135,-1.6368351863846182,7.2388646278291935,-0.1051127612590789,-0.6592626571655273,2.258448362350464,0.8439218668544267,0.0679086165048283,-0.3553998175104259,0.3960748688829567,0.1584065854549408,0.0214023925364017,0.0230216570198535,-0.0145712494850158,0.0314149856567382,-0.0140243172645568,-0.004487682133913,0.0091054905205965,0.0198866037309169,-0.0819952189922332,0.1405500419408082,0.1379644458943978,96
1733385539259179300,-0.7371557526528835,1.4231165939889847,-3.0213463015168904,6.497006396573782,-1.991140937861055,7.070689496859908,0.6709275245666504,-0.7225901484489441,1.101655125617981,0.8236114182944028,0.0671360749161383,-0.3674070008425107,0.4268126928958425,0.2240457832813263,0.0250480473041534,0.0025510697159916,-0.0101698637008667,0.0238518118858337,-0.0024341642856597,0.044581115245819,0.0305431354790925,-0.0346148017853498,-0.0577791295945644,0.1273793755266815,0.2265441534328274,97
1733385539299179300,-1.7500480163276195,-0.3680826401554047,-3.275233384302258,6.610726299256086,-1.852239978301525,7.00270609395802,1.134683609008789,-0.7625267505645752,-0.0746769830584526,0.8149764564974953,0.0829040555226808,-0.3689014473557981,0.4391493005565901,0.1311957389116287,0.0044988836161792,-0.037755474448204,-0.0028042793273925,-0.0051797330379486,0.0114274621009826,0.0856010019779205,0.0525098517537117,-0.0498988801568746,-0.0848651081323623,0.0935227625643368,0.0840064904719125,98
1733385539339179300,-1.982568485957384,-0.5964357609726488,-3.833630652651191,7.023260806208849,-1.4384857202954588,6.6914090247333045,1.4092954397201538,-2.286205053329468,-0.4465732872486114,0.8028997624280292,0.118709934379536,-0.3804484583377798,0.4433045682116292,0.0669326037168502,0.0216681770980358,-0.0132741648703813,-0.0162680745124816,-0.0163760483264923,0.0159293413162231,0.1083642765879631,0.0606723204255104,-0.0709182873100042,-0.1377420127391815,0.0618985117639414,-0.0370253517921082,99
1733385539379179500,-2.5119758066654203,-2.0185005078211424,-4.326825673249363,7.711133764776587,-0.8551400347813963,5.998126900598407,1.0515530109405518,-2.7083616256713867,-0.9687227606773376,0.7867232917801796,0.1683533140436303,-0.4072318669258319,0.4323028145658537,0.0953653082251548,0.0378202497959136,0.0074465586803853,-0.0083042383193969,-0.0033045411109924,0.0087756663560867,0.0696880295872688,0.0983446389436721,-0.0953127238541841,-0.1008263230323791,0.141921695620194,0.0412190771549008,100
1733385539419179500,-2.1454799973100425,-2.3670858358241618,-5.121570276039838,8.43489812093675,-0.5649134818425402,4.970286658638716,0.328895628452301,-3.942077159881592,-0.1155593916773796,0.7607771737144218,0.2094539278695341,-0.4502387827738243,0.4178901210907572,0.1332884579896927,0.0236218180507421,-0.0246932674199342,-0.0069414377212524,0.0032052993774414,0.0037174820899963,0.0240778997540473,0.0585553087294101,-0.0451186601430177,0.0046647042036056,0.109713772313483,-0.07502614275394,101
1733385539459179500,-0.0189642281889915,-2.673431273990869,-3.4385014540076253,9.133988639089464,-0.4845208253530785,3.536364739127457,0.1945775002241134,-4.0750603675842285,-0.0215563848614692,0.7204133972784925,0.2487785007499173,-0.5077448452813969,0.4016329326983397,0.0752611085772514,0.0249382201582193,-0.0416868329048156,-0.0014413595199584,-0.0175566673278808,0.0168133974075317,-0.1088941618800163,0.0716778859496116,0.0519388615518808,0.0578825883567333,0.1007383930315729,-0.1498526895488612,102
1733385539499179300,-0.16121113717556,-3.488115087482333,-2.9871807048037646,9.595115035253762,-0.4856610448967665,1.966802030896396,0.3924128711223602,-4.326134204864502,0.1785404235124588,0.6739256888539983,0.2837133086084769,-0.5650024461341068,0.3822346428141682,0.0016433411510661,0.0197515524923801,-0.0241404622793197,0.002945065498352,-0.0323480069637298,0.0235441923141479,-0.1735062897205352,0.0323505736887455,0.0219844527930021,0.043384276330471,0.1064831654949579,-0.0079138053318485,103
1733385539539179300,-0.2823965534329414,-3.169159612458944,-4.471470291027426,9.777651869052647,-0.6624608694136143,0.3592789002465084,-0.2391983419656753,-4.215084075927734,0.9399994015693665,0.6202921197946072,0.3110736741725575,-0.620415217731404,0.3654530791847381,-0.0682683661580085,0.0401773601770401,0.0215703677386045,-0.0073655843734741,-0.0363171398639678,0.0193581581115722,-0.212461307644844,0.0153819695115089,-0.0125210433989763,0.0450975559651851,0.1211802468919195,0.0085202285260893,104
1733385539579179300,0.0352910936117172,-4.670863567081094,-4.244836541348696,9.635040218406916,-1.2449094599574804,-1.3366459327600897,0.0906932279467582,-4.5374250411987305,1.9445700645446773,0.5542260399547737,0.3202154162507873,-0.6823577267390093,0.3531057600420813,-0.0446181632578372,0.044031910598278,0.0615980774164199,-0.0027480125427246,-0.0073116421699523,0.0055453181266784,-0.2546628415584564,0.001946740783751,-0.0732826783537864,0.0774148106575012,0.2381725771073251,0.0214319152104668,105
1733385539619179500,4.149977991002798,-5.35017912518382,-6.535694731408357,9.085168786340953,-2.046407628661394,-3.0728350812137126,0.1989593803882599,-4.721189022064209,2.1954550743103027,0.4717330916317454,0.3255612711463535,-0.7420787339035012,0.3475585114311341,0.0483075156807899,0.0248663127422332,0.0375721678137779,0.0155421495437622,0.0144585072994232,-0.0048927366733551,-0.2926802039146423,-0.017308447510004,-0.0387953023403883,0.1533181071281433,0.391560509843938,0.0771715116190258,106
1733385539659179500,8.385414251321553,-4.973996034550667,-4.510563115009665,8.193236313474177,-2.825715008345246,-4.588750224278867,-0.072427786886692,-3.9815077781677246,2.2445521354675293,0.3888032650430275,0.3216341433647423,-0.7940482492168983,0.3389262288535923,0.0780568942427635,0.0165279563516378,0.0186066683381795,0.0273646116256713,-0.0074068009853363,-0.0040004551410675,-0.3102971911430359,0.001868862658739,-0.1925491092473268,0.2351851910352707,0.4133989417623728,0.292573134331312,107
1733385539699179500,10.603949547970297,-3.390066801184416,1.2953840941756962,7.245272156783938,-3.5113688295587897,-5.598811940702796,0.4382887482643127,-2.6121108531951904,1.970386624336243,0.319413653217269,0.3110196796506103,-0.8298956085112118,0.3354324524827827,-0.0491109155118465,-0.0419292822480201,0.0039102141745388,0.0238097310066223,-0.0438411831855773,-4.842877388000488e-05,-0.3206081986427307,0.121704876422882,-0.2389981412112712,0.402467131614685,0.2674483011533506,0.504097778612934,108
1733385539739179300,9.2377488732934,-1.428047766780853,4.253185267499089,6.5017322560518975,-4.231994303171336,-5.999006606042385,1.299713969230652,-1.2661525011062622,1.6905977725982666,0.2688515375523475,0.2972510059544438,-0.8470572892883814,0.34907680429754,-0.2694987058639526,-0.0204920601099729,0.0041289264336228,-0.0132569670677185,-0.0719690918922424,0.0345871001482009,-0.2480666935443878,0.203504279255867,-0.1285480539798736,0.4011767506599426,0.2039499529773369,0.4217707199947908,109
1733385539779179300,7.107661675426364,-0.0253214882612228,2.909771594169736,6.064187811005115,-4.943993110474944,-5.912100476005673,1.8655372858047483,-0.5886744856834412,0.854027271270752,0.2356166240927082,0.2898203185840673,-0.8470167756713413,0.3782215456334902,-0.3539864122867584,0.0759298726916313,0.1577980518341064,-0.0141630768775939,-0.0544420480728149,0.0453316569328308,-0.107455775141716,0.1602403223514557,0.1692301929801702,0.1712273955345153,0.2473472509541548,0.2561822445178404,110
1733385539819179300,4.314042764043808,1.5117027860671282,1.3828338295698166,5.820311834624409,-5.496401367542148,-5.664263779300451,1.7803785800933838,-0.3482144176959991,0.290442407131195,0.2114687330608265,0.29270858378733,-0.8385217711879254,0.4080242156953809,-0.2344328314065933,0.1407100409269333,0.3164989948272705,-0.022322654724121,0.0149110555648803,-0.0113334208726882,0.0030113533139228,0.052330806851387,0.1907107879042625,-0.0671370476484298,0.1641392265167087,-0.009666932609491,111
1733385539859179300,2.1345804176330567,2.2679770806878805,0.7566226696670055,5.688023425072431,-5.88875700981915,-5.3980801095217466,1.3856316804885864,-0.4997040331363678,0.1135075092315673,0.1934905073584655,0.2999815806663579,-0.827790158931797,0.4328230271091553,0.0924882963299751,0.153170496225357,0.3803710639476776,-0.0255287289619445,0.0830732733011245,-0.055475577712059,0.0137543026357889,-0.0012023672461509,0.0474731143146753,-0.2430909574031829,-0.0021907880425453,-0.2729107130113989,112
1733385539899179500,1.216530337691307,1.9563848279088727,0.8381862696319818,5.496213151493668,-6.215221253037452,-5.228105235654115,1.2238372564315796,-0.8082817792892456,0.3662292659282684,0.1730491485136008,0.3066094212876358,-0.820091372243559,0.4511041096220247,0.4107091426849365,0.1648280024528503,0.3109703361988067,-0.0133370161056518,0.0991067588329315,-0.0591648966073989,-0.0668004229664802,0.0176305696368217,-0.1843161184310913,-0.2197598814964294,-0.0452326967104338,-0.3475121823461726,113
1733385539939179500,2.4008032503783703,1.6676655011951922,0.5385737929821014,5.196296723461151,-6.516372191300988,-5.167762118372321,1.0891073942184448,-1.2197823524475098,0.1645979434251785,0.1461626535717763,0.3142640972215311,-0.8153040073416538,0.4638468303941639,0.4816882312297821,0.0830371081829071,0.0864477008581161,0.0125223398208618,0.1042018234729766,-0.0332629084587097,-0.1936771869659423,0.0389907285571098,-0.0431722022503614,-0.1183095425367355,-0.0354680576138198,-0.438097402754426,114
1733385539979179300,3.134624890172481,1.7637316737651825,-0.0076999068528413,4.9977293768376105,-6.70700932944715,-5.119482948371767,1.025401592254639,-1.1358410120010376,-0.4773529767990112,0.1214618534283458,0.3310964829700137,-0.8070911435548428,0.4735250853697044,0.5668742060661316,0.036944705992937,-0.0918042585253715,0.0074688792228698,0.0684303492307663,-0.0083160251379013,-0.2155250310897827,0.0073847733438014,0.0114531219065189,-0.003199353814125,0.0587436827285215,-0.120924993489217,115
1733385540019179300,2.9383307491779327,0.8536702544897794,0.2010164933413267,4.940837276792526,-6.791141318595409,-5.06349042751491,1.13542377948761,-0.9393776059150696,-0.8513596057891846,0.1022111773409327,0.3547306733495057,-0.7951932464866192,0.4810268255781968,0.444674551486969,0.0114353522658348,-0.1684496402740478,0.0013766884803771,0.0121111273765563,0.0134134888648986,-0.2151143699884414,0.0198548771440982,-0.0663607701361179,0.0524683818221092,-0.0297816460078582,-0.0049151395390974,116
1733385540059179300,0.5304769957661628,1.3939432526051998,-1.140878007596731,5.115948344504833,-6.803043353313207,-4.869914021046459,0.3930187821388244,0.0152560044080019,-0.5994210243225098,0.0962189968197977,0.3776679109303429,-0.7782438338812682,0.4923874620547019,0.2733150422573089,0.0122912395745515,-0.1794420927762985,-0.019902765750885,-0.0233683884143829,0.0262489318847656,-0.1951012462377548,0.0062246453016996,-0.025054361757636,0.0937932729721069,-0.0356391033317893,0.0782141708060633,117
1733385540099179300,0.2478682608872651,2.034316793373227,-1.758351734292507,5.29081625111103,-6.7000161095589394,-4.825701077571511,-0.56193608045578,0.4686287343502044,-0.3226613700389862,0.1057391901673309,0.38114390978029,-0.7750945784592569,0.4927238539106249,0.3167661130428314,0.0340902768075466,-0.1330359876155853,-0.023838460445404,-0.0278368890285491,0.0279370546340942,-0.1818659156560897,-0.0540157854557037,-0.0517564907222986,0.1637398898601532,-0.0986539605734869,0.079262456016289,118
1733385540139179500,-0.4063116869151592,0.938053003528714,-1.276229896372557,5.469750091981887,-6.461029074263572,-4.95049124032259,-1.254728078842163,0.6399609446525574,-0.1618878245353698,0.1244241481359491,0.377112562326021,-0.7811471933205457,0.4817820758762582,0.3210364878177643,0.057690892368555,-0.0257901586592197,0.000690221786499,-0.0494716316461563,0.0258692055940628,-0.1612770408391952,-0.1548100262880325,0.1325660574495792,0.2113900631666183,-0.0719572019036859,0.0491966501716524,119
1733385540178993200,-0.4226502427756786,-0.8412275370240211,-0.0067956514894962,5.616272194069624,-6.188747087609768,-5.131011473602056,-0.9679062366485596,0.4168902039527893,-0.0324593223631382,0.1436342025807078,0.3704107890228403,-0.7901927760014859,0.4666480832864084,0.1826221793889999,0.0428130887448787,0.0457266345620155,0.0045191049575805,-0.0631627887487411,0.015461266040802,-0.1297430992126464,-0.2078447490930557,0.115893465595413,0.1671352684497833,-0.0732851625718176,-0.0191434206807985,120
1733385540218993200,-1.0904904671400786,-1.7768050903499126,0.0332394217789173,5.637378694984316,-6.124509300976992,-5.184662984290719,-0.2017925232648849,0.3512059450149536,0.4837230443954468,0.1516273679092147,0.3615475559360027,-0.7960072946512594,0.4611560371648102,0.0842330306768417,0.0276361610740423,0.0530237667262554,0.0049805045127868,-0.0475428104400634,0.0146546065807342,-0.1242070719599723,-0.1904546320438385,-0.0213005621820688,0.2003597468137741,-0.0784336861751042,-0.0843905670192092,121
1733385540258993200,-0.0436754755973815,-0.1672913338720798,0.039139001211524,5.562610746508836,-6.233457751473784,-5.135348041501641,0.1352016329765319,-0.0142093086615204,0.3153775036334991,0.1505042379362138,0.3519839259260109,-0.7987097053459126,0.4642399749929655,0.0068910997360944,0.0068589765578508,0.033147994428873,-0.0100477337837219,-0.029420182108879,0.0190041065216064,-0.1100144013762474,-0.1607441902160644,-0.0259679694712162,0.2045279443264007,-0.0136656970891868,-0.0161659757725894,122
1733385540298993200,0.7077835276961326,0.5803185927778483,-0.2696083835303783,5.516392600691318,-6.257718917027115,-5.155651993861794,0.1574680209159851,-0.4991714358329773,-0.388610690832138,0.1452553520686496,0.3558446791270918,-0.7976463203237937,0.4647964939144499,-0.1674996018409729,-0.0114506287500262,-0.01362756639719,-0.018176794052124,-0.0209769606590271,0.026895597577095,-0.0951129123568534,-0.1220031678676605,-0.0141600427776575,0.199317380785942,0.0212711168918758,0.0121327382011339,123
1733385540338993200,0.313503639358282,0.0660772770196199,-0.1014630631774663,5.541216660824418,-6.152287534740567,-5.254963431963324,-0.0845812335610389,-0.4621344804763794,-0.5348864793777466,0.1417846797841594,0.3688475293505808,-0.7949088479600025,0.4604003140988595,-0.2276617437601089,-0.0207182168960571,-0.0001316653797402,-0.0116277933120727,0.0028975158929824,0.0130552798509597,-0.068292461335659,-0.1022512018680572,-0.0008978256225585,0.1577778309583664,0.0575121407727245,0.019856135527417,124
1733385540378993200,1.115896711075306,0.0693956077873706,0.8181587961256503,5.575298378646373,-6.008063188201189,-5.384200052729248,-0.2452562153339386,-0.2360231876373291,-0.434423953294754,0.1415843170468173,0.3790567905631063,-0.7942504280805397,0.4532505897881009,-0.1881473660469055,-0.0317334756255149,0.0166327338665723,-0.0102362632751464,0.0108093917369842,0.0026583075523376,-0.0282874852418899,-0.0955694317817688,-0.001419219148159,0.1064574047923088,0.093325459027104,0.0312226751290261,125
1733385540418993200,0.6410410647660494,0.1642693557024002,0.6332885509431362,5.6477785084456205,-5.868155535817146,-5.462393884000182,-0.317571610212326,0.0470243766903877,-0.2485287189483642,0.1459310854801777,0.3845713908551925,-0.7941091970432346,0.4474366680032437,-0.1034061089158058,-0.0276907980442047,0.0054037813097238,-0.011379063129425,0.0117949396371841,-0.013169527053833,0.0137496702373027,-0.076556384563446,-0.0127653735488653,0.046207807958126,0.1040313701623585,0.0520392531864345,126
1733385540458993200,-0.1267144088119268,0.3102385000824928,0.7668073790729045,5.671985897985101,-5.779194811338186,-5.5317187646389,-0.2089400738477707,-0.1288042962551117,-0.0673066824674606,0.1486072909625649,0.3863160766284069,-0.7954866788752402,0.4425797659668041,-0.0747803226113319,-0.024956265464425,0.0017909370362758,-0.0066468715667724,0.0120765715837478,-0.0114106684923172,0.0553366802632808,-0.0472119748592376,-0.0886702170997858,0.0190421659499406,0.1308619934780523,0.0833464647937566,127
1733385540498993200,-0.0245902513772249,-0.2451508186221122,0.2890250316619873,5.685231164005399,-5.69740733948946,-5.602506703567505,-0.2967770099639892,-0.0111894197762012,-0.1531129330396652,0.1506156676407478,0.3879174989828989,-0.7969745019949984,0.4377974103826941,-0.0419406220316886,-0.0182584673166275,-0.0036328567657619,-0.0011994838714599,0.0137868672609329,-0.0036393404006958,0.0579545237123966,-0.0181281007826328,-0.0526455485165119,0.0164466556161642,0.1629104884393513,-0.0377045844942331,128
1733385540538993200,0.6499053392231464,-0.6885363909125327,0.7032149046063423,5.721964273118973,-5.609561882776021,-5.653527281230688,-0.0736434757709503,-0.0835940763354301,-0.2111909985542297,0.1535426488434597,0.3902682035079536,-0.7974587137511824,0.4337915836704545,-0.0234284549951553,-0.0053192861378192,-0.0180868301540613,-0.0081578493118286,0.0174264460802078,0.0006369352340698,0.0256075449287891,-0.0004092790186405,-0.0228197345733642,0.0218215845525264,0.1434303922832477,-0.0658881111230701,129
1733385540578993200,0.6195370889663696,-0.6505395454734564,0.4488485138714313,5.749188964653015,-5.559421010556817,-5.675390737992525,0.1177441403269767,-0.1250108778476715,-0.3217156231403351,0.1535152679576074,0.3953154620247635,-0.7956695746032038,0.4325143905885527,0.0056031951680779,-0.0014776759780943,-0.0381667986512184,-0.0072211623191833,0.0122138857841491,-0.0044770240783691,0.0010599195957183,-0.0003830814093817,-0.0190045601993799,0.0325200147926807,0.1026770694765727,-0.009731047354266,130
1733385540618993400,0.2872568529456853,-0.3208616009056568,0.0515302807509899,5.81870673751533,-5.498545978355407,-5.663839416408538,0.1933219283819198,-0.0911249220371246,-0.4724914729595184,0.1540097945703205,0.4037792923997745,-0.7910358481906857,0.4330192937664912,0.0165993869304656,-0.0083942776545882,-0.0324175022542476,-8.64863395690918e-05,0.0025238990783691,-0.0094242841005325,-0.0142026273533701,-0.0060690725222229,-0.0106587566584348,0.0235639903694391,0.0681049925880972,0.0266217572048306,131
1733385540658993200,-0.026354338440299,0.0107552027702331,-0.2163169383257627,5.9063628091365095,-5.4342199289172886,-5.635111919096112,0.1163811013102531,0.0444911494851112,-0.3840102553367615,0.1558978335138409,0.4114493657033204,-0.7861425848717999,0.4340334315823592,0.0180273745208978,-0.0130221601575613,-0.0123108336701989,-0.0072105526924133,-0.0034763365983963,-0.0034832209348678,-0.0165675655007362,-0.0094148814678192,-0.0245300456225872,0.008478426374495,0.0591431486411951,0.0505586592398583,132
1733385540698993200,-0.0580114594638347,-0.0894844560921192,-0.210016376876831,6.013438451498747,-5.367499677819013,-5.585597654342651,0.0713637173175811,0.1961733549833297,-0.3792589902877807,0.1604415010272485,0.4161011721248205,-0.7820780263849496,0.4352842247173155,0.0056553930044174,-0.0081655131652951,-0.0087926648557186,-0.0109214186668396,-0.0052806437015533,0.0042825788259506,-0.0044830664992332,-0.015284365043044,-0.0422848980218172,0.0078004267998039,0.0716859563474077,0.0728923638619482,133
1733385540738993200,-0.9708651398062704,-0.3928764512807131,-0.7528121714681386,6.122738784173131,-5.292155975282192,-5.538551825529336,0.0118702016770839,0.0750461593270301,-0.2646602690219879,0.1656544495524821,0.4201805396861301,-0.778354585542358,0.4360861244175793,-0.0007258069235831,-0.0017357361502945,-0.0125836748629808,-0.0047807097434997,-0.0052376240491867,0.0054946541786193,-0.0008269238751381,-0.0184556059539318,-0.0395405677497386,0.0087119219824671,0.0516484637705609,0.0687066756751388,134
1733385540778993200,-0.4570990403443574,-0.3577648058891296,-0.3106944271564483,6.159789873194694,-5.251102080360055,-5.536545161882042,0.1321384459733963,-0.1335935294628143,-0.2576935887336731,0.1663287967256682,0.4243291783817869,-0.7760347790369274,0.435946787276034,0.0128967938944697,-0.0119661632925271,0.0010407245717942,0.0007578134536743,-0.0048633366823196,0.0004162341356277,0.0076006203889846,-0.0214997120201587,-0.0371177245169878,0.0245255678892135,0.079519417318888,0.1185074292197823,135
1733385540818993200,-0.7465192088037729,-0.3056459115952253,-0.7169453237950801,6.210238788449764,-5.195632122072577,-5.532520728671551,0.0019170806044712,-0.0069926539435982,-0.2111714333295822,0.1671058002784662,0.4301995253266141,-0.7726632062883989,0.4358850538008745,-0.018105860799551,-0.0272092446684837,-0.0219014752656221,-0.0006166100502014,-0.009206399321556,0.0019523650407791,0.0184066854417324,-0.0283689107745885,-0.0444476290136575,0.0244742594659328,0.0690825597828254,0.0960753787897527,136
1733385540858993200,-0.8539268595993519,-0.0986129344433546,-0.6228928291350603,6.221877203795313,-5.170875866478681,-5.5426253585785625,-0.1683612912893295,0.0483837686479091,0.1089741960167884,0.168515171586983,0.4300136443144213,-0.7730999421550045,0.4347499028890295,-0.0494179800152778,-0.0041342857293784,-0.0066714570857584,-0.0043548941612243,-0.0176648646593093,0.0119271874427795,0.0334221646189689,-0.0271095912903547,-0.0537894578546285,0.0011729281395673,0.0590264269263483,0.0593227612581104,137
1733385540898993200,-1.1200421403169631,-0.4197206190645694,-0.4687473925620317,6.176595462045073,-5.181663217952847,-5.583045631772279,-0.2661152780056,-0.0287946369498968,0.407614141702652,0.1687706570715176,0.4251027053071758,-0.7771382090035526,0.4322733947460304,-0.0659612640738487,-0.000126760918647,0.0152516849339008,-0.0024529695510864,-0.010008618235588,0.0070081502199172,0.038171149790287,-0.022941768169403,-0.015671616384387,-0.0069677829742431,0.0557725031643174,0.0526901913758367,138
1733385540938993200,-0.2254454166769981,-0.1575567063212394,-0.0689414342790842,6.05966536514461,-5.233437244331836,-5.662327842801809,-0.2236439138650894,-0.1955236792564392,0.3732677698135376,0.1652481910507158,0.4185131224323861,-0.783291223903885,0.4289459049185867,-0.0571794956922531,-0.0034312112256884,0.0191606730222702,-0.0063525438308715,0.0108338892459869,-0.0101596713066101,0.044343464076519,-0.0230352487415075,-0.0359025035083293,0.0219680126756429,0.0723029283351264,0.095018782408908,139
1733385540978993200,0.531920180311799,-0.0123304892629384,0.0413718748301267,5.966841535496712,-5.2311213686048985,-5.762167688691616,-0.2441722452640533,-0.2185162603855133,0.0537548586726188,0.1620657667327681,0.4162090575876285,-0.7877555601588402,0.4242003813752552,0.0041147544980049,-0.0161099340766668,-0.0123650953173637,-0.0006816387176513,0.015581339597702,-0.0052727907896041,0.0556876957416534,-0.0288578756153583,-0.046106502136588,0.0451345071196556,0.0957943516249768,0.1298035339336842,140
1733385541018993200,0.3670359075814485,-0.1670014110147953,0.2490449034512042,5.913253153172135,-5.183738855183124,-5.8594064121723175,-0.1389372795820236,-0.2235401272773742,0.0417524278163909,0.1602460623821629,0.4172723275301892,-0.7903356195423176,0.4190161444656264,-0.0179319567978382,-0.0111132059246301,-0.015798907727003,-0.0118281245231628,-0.0099076628684997,0.0036313831806182,0.0676072165369987,-0.0150008974596858,-0.0936906756103038,0.0670114606618881,0.0742986321969889,0.1293476799249649,141
1733385541058993200,0.5758008230924606,-0.2518669751346111,0.4572632909953594,5.849187800496816,-5.195838458299637,-5.912750464347004,0.0108798574656248,-0.1255608201026916,0.1126241832971572,0.1568598103337278,0.417157927081185,-0.7921146667164659,0.4170473932646573,-0.0401251465082168,0.0175143908709287,0.0084584932774305,-0.0088053345680236,-0.0092193335294723,0.0127791315317153,0.0636429712176323,0.0010703047737479,-0.024213234758377,0.0452832393348217,0.0711507078263908,0.0415483273755759,142
1733385541098993200,0.8569020760178565,-0.1735363657414913,0.4883183544725179,5.82322041554749,-5.236162869903445,-5.902806577959656,0.168077141046524,0.0531711466610431,0.0573553964495658,0.1549510575782092,0.4162290516119639,-0.7922832503304899,0.4183669638541573,-0.0401373952627182,0.0102591412141919,0.0046471771784126,-0.0047710537910461,0.0028132051229476,0.0021904110908508,0.04685939848423,-0.0075044799596071,-0.0039776714593172,0.006407756358385,0.0811303596468642,0.02512158177495,143
1733385541138993200,0.6234563082367182,0.1469084710568189,0.3506336388349533,5.8426838254302735,-5.284416320940852,-5.840238185843825,0.2368362694978714,0.072062999010086,-0.0481698885560035,0.1545852961975887,0.4161066606885535,-0.7903319111070554,0.4222962738978688,-0.0550311245024204,0.0299848560243845,-0.0003624949604272,-0.0145519375801086,0.0036154687404632,0.0047661662101745,0.0251424256712198,-0.0153153678402304,-0.0099707743942737,-0.0020885933190584,0.0845934691801667,0.0321944427706301,144
1733385541178993200,0.4840443304151296,0.264336580607295,0.1627490142673253,5.8730105746328825,-5.3234349106431,-5.774010102176666,0.2221457213163375,0.0612417161464691,-0.1120334938168525,0.1541036724311052,0.4176379662035294,-0.7873824429585553,0.4264499140703819,-0.0317431129515171,0.0263268444687128,0.0116893071681261,-0.0160946249961853,0.0124188363552093,-0.0038400143384933,0.0056023094803094,-0.0232539251446723,0.0043394905090332,-0.0054140482097864,0.0975909527181647,0.0615313772182911,145
1733385541218993200,0.3096370270580053,0.3936930283606052,-0.0409247155845165,5.914837207493186,-5.322904164767265,-5.731643955612182,0.0568995550274848,0.0307143535465002,-0.1314166933298111,0.1550546601518202,0.4196186309872228,-0.7849539579688731,0.4286320437848454,0.02172970212996,0.0293752588331699,0.0027737766504287,-0.0106604695320129,0.0188111960887908,-0.0087877362966537,-0.0072788968682289,-0.0241839066147804,-0.0411824897378683,-0.0059048817493021,0.0978350636723451,0.0858506296344101,146
1733385541258993200,0.4481383197754621,0.2840115874141454,0.0206727856725454,5.953357784545421,-5.289089573448896,-5.723061420705914,-0.0417603217065334,0.0101383002474904,-0.1595750600099563,0.1568477810279122,0.4215345119021335,-0.7836476109794716,0.4284901237241184,0.0699012279510498,0.031829360872507,-0.0072631444782018,-0.0076247453689575,0.0174456685781478,-0.0007854849100112,-0.0269441939890384,-0.0211026929318904,-0.0497831448227167,-0.0114287501201033,0.0863380295588634,0.0722642220262438,147
1733385541298993200,0.2696668357193469,0.0228285024017095,-0.0371598100930452,5.996706512406468,-5.243235000246763,-5.719996772438288,-0.0644972026348114,0.1227815747261047,-0.1033966541290283,0.1594181116448113,0.4231003443767794,-0.7827034983122007,0.4277231853602432,0.059646189212799,0.0225419048219919,-0.0171615146100521,-0.0145817399024963,-0.0023660808801651,-0.0006303191184997,-0.0440201126039028,-0.0265728384256362,-0.0313601839035749,-0.0414058454334735,0.0935553587928414,0.0646856765307486,148
1733385541338993200,0.0584878448039293,0.0772387225031852,-0.008004442757368,6.028021688124537,-5.216093310821056,-5.7118929609596725,-0.0457721911370754,0.0099352113902568,-0.0391139276325702,0.16171585953801,0.4231047366802061,-0.7824371450748474,0.4273435658428433,0.0303362384438514,0.0203800592571496,-0.0098376888781785,-0.0101675391197204,-0.0098732858896255,-7.502734661102295e-05,-0.0453483797609806,-0.0368911810219287,-0.039414895543456,-0.0584819391369819,0.0944322877578437,0.0918422712646424,149
1733385541378993200,0.5481798257172107,0.0667500617146492,0.0147188457041978,6.057423139175772,-5.183758144405484,-5.710226489052176,-0.0169819798320531,0.0667854622006416,-0.2303705513477325,0.1631674055605605,0.4247701797041258,-0.7814798964504779,0.4268910392442611,-0.0057474635541439,0.015160902403295,-0.0073636127635836,-0.0047450065612792,-0.0067448616027832,0.0037971884012222,-0.0444423258304595,-0.026906345039606,-0.0142687638491392,-0.072720929980278,0.1126191018335521,0.0523773260343819,150
1733385541418993200,-0.1079869119882583,-0.1196107142865657,-0.1985837132364511,6.136886551991105,-5.11142122246921,-5.690554404854774,-0.0694780796766281,0.1554102748632431,-0.1802543401718139,0.1676249858899383,0.4274895107882113,-0.7793524521125113,0.4263384114738117,-0.02171391248703,0.008682070299983,-0.0146656008437275,0.0026761889457702,-0.0091335773468017,-0.000689148902893,-0.0380355305969715,-0.0225073955953121,-0.0274462253302335,-0.1025826185941696,0.1122918061079457,0.0007871317896991,151
1733385541458993200,-0.5877157172918319,-0.1132213055104017,-0.2103676745325327,6.172789055499434,-5.077856221997737,-5.681762611111998,-0.1004670336842536,0.0667800679802894,0.0505535975098609,0.1706445911720941,0.4269291753164483,-0.7793720279500351,0.42566549670808,-0.023272393271327,0.0059146732091903,-8.872209582477808e-05,-0.0038064122200012,-0.0023775994777679,-0.0044956356287002,-0.0289263240993022,-0.0078886747360229,-0.0451724361568689,-0.1203453615307807,0.1076252756016328,-0.0127376087591052,152
1733385541498993200,-0.5913146185666323,-0.0444920526772737,-0.4288444212406873,6.161124921190738,-5.074759425026178,-5.6971682700365776,-0.1272175312042236,-0.0334192514419555,0.0978799387812614,0.1711966598323493,0.4250504214386188,-0.7809013198810733,0.4245196328083714,0.0040519041940569,-0.0037329473998397,-0.013686423189938,-0.0079035758972167,0.0068741887807846,-0.008410632610321,-0.0224274657666683,-0.0022288677282631,-0.0492903928697109,-0.113620787858963,0.1247413917059078,0.0559079113133251,153
1733385541538993200,-0.2192845559597015,-0.0294394449740648,-0.0197159233391284,6.1111155663967125,-5.06901299032867,-5.755846084454656,-0.0941657945513725,-0.241448700428009,0.0579648278653621,0.1692545212571131,0.424485248025569,-0.7831211691212165,0.4217658556734147,-0.0055091110989451,-0.0123138660565018,-0.0270495656877756,-0.0007871389389038,-0.000954121351242,-4.391372203826904e-05,-0.0058186128735542,-0.0087809739634394,-0.0354915846198797,-0.0777553543448448,0.1256187955949455,0.0760882372938096,154
1733385541578993200,0.4181219516962766,-0.3311217136353254,0.1055079546540975,6.061037238019704,-5.05343840457797,-5.822113915610313,-0.0206488873809576,-0.1802751868963241,-0.0301524959504604,0.166445348861649,0.4260610479220491,-0.7844215546340135,0.4188685673229465,-0.0253089126199483,-0.0134309018030762,-0.0149570843204855,0.0066333413124084,-0.0095541030168533,0.0085796117782592,0.0066822683438658,-0.0034057991579174,-0.0330903686970472,-0.0343475081026554,0.1373352811453864,0.0857658739604055,155
1733385541618993400,0.4585702819406986,-0.213332369557023,0.1685533166319131,6.045876493766904,-5.056005624717474,-5.835628061699867,0.0508264116942882,0.0280990190804004,0.0302860233932733,0.1650831967338999,0.4271069213390366,-0.784291972056452,0.418584844000974,-0.0719528496265411,-0.0062034553848207,-0.0027471559587866,-0.0080882906913757,-0.0154176503419876,0.0141887664794921,0.0263500809669494,-0.0030124094337224,-0.0512374352842569,0.0015839599072933,0.1459699480976909,0.0947360930100083,156
1733385541658993200,-0.0443850851714611,0.111754740089178,-0.0584159486114978,6.02749444938004,-5.086455708038806,-5.828177161172032,-0.0347835160791873,-0.0105349402874708,0.1617215573787689,0.1643550073834097,0.4251611214760086,-0.7851065921954592,0.4193245067132612,-0.0730013325810432,0.0058743529953062,0.0168069042265415,-0.0114619731903076,-0.008752167224884,0.0012695044279098,0.0460550040006637,-0.0048329150304198,-0.0597948357492685,0.0269242823123931,0.1337412752414122,0.1082092495020479,157
1733385541698993200,0.4245417556107044,0.1589560517251491,0.1214385142356157,6.00209346614182,-5.103430808237195,-5.839540851229429,-0.0590698681771755,0.0237843077629804,0.0674150511622428,0.1636733096659707,0.4232256440816747,-0.7865200385776141,0.4189000631465053,-0.0504342429339885,0.0120976278558373,0.0243569649755954,-0.0061668753623962,0.0068926364183425,-0.0032579898834228,0.0576616451144218,-0.0033703555818647,-0.0491892705827951,0.0274410657584667,0.1189107127910479,0.0561963728658854,158
1733385541738993200,0.0688327132076025,-0.1017260980278253,0.0379997680485248,5.990441606792807,-5.108654095843434,-5.846929207915068,-0.030540520325303,-0.0066214427351951,0.0975383296608924,0.1637433852596012,0.4217543593203753,-0.7875491706773032,0.4184225868432557,-0.0107685877010226,0.0003948990197386,0.0019277569372206,0.0094441175460815,0.0192100256681442,-0.0072889328002929,0.0540478453040123,-0.0041522420942783,-0.0379798943042755,-0.0033303946256637,0.125961727281101,0.0566585104849189,159
1733385541778993200,0.4309253191679716,-0.0121510410428047,0.2245014138251543,5.965932603958248,-5.128499198520183,-5.854616255286335,0.0403638556599617,-0.0641001835465431,0.0230737719684839,0.1623756117995033,0.4210300793695988,-0.7881852841125612,0.4184875058270016,0.0317248106002807,-0.0134572675451636,-0.0161366648972034,-0.0049135088920593,0.0084365010261535,-0.0064010173082351,0.0587894022464752,-0.0039598019793629,-0.0585498041242361,-0.0047015352174639,0.1202954451477155,0.1022305404186248,160
1733385541818993200,0.4170651361197233,0.1554477513432502,0.1772007334679365,5.9542053412854665,-5.1371834402352565,-5.858940548226237,0.0735004469752311,-0.0460197441279888,-0.0528325922787189,0.1609664767785333,0.4221482307736123,-0.7877269301016894,0.4187684384421427,0.0272536296397447,-0.0002303579240106,-0.0092672407627105,-0.0108948349952697,-0.003061294555664,0.0011029839515686,0.060584008693695,0.0017110290937125,-0.0444230790942907,-0.0004746164195239,0.122718178782612,0.1253703007265925,161
1733385541858993200,0.3515998535186052,0.1840589287996292,0.0464659830987453,5.968941722646355,-5.142000485128164,-5.839684643614292,0.0752773806452751,0.0230259709060192,-0.0616511106491088,0.1607984273370185,0.4235353399420534,-0.7863579857625398,0.4200031962058758,0.0141713833436369,0.0175015553832054,0.0082779312506318,-0.0110141038894653,-0.0050551891326904,0.0166584998369216,0.0554585270583629,0.0112709496170282,-0.0312485402226448,0.0005244895583018,0.1124247848378494,0.1476530058138072,162
1733385541898993200,0.1928507225424051,0.0473071100980043,-0.0085258362829685,5.980446867001056,-5.1399225098103285,-5.829732573920488,-0.0262405462563037,0.0270024724304676,0.0090492153540253,0.1613690002699558,0.4236161840028771,-0.7859917153609652,0.4203882021460538,0.0120597630739212,0.0198026858270168,0.0177772268652915,0.0006325840950012,-0.0038192719221115,0.0043046474456787,0.0665209367871284,0.0196732245385646,-0.0745955145180225,-0.0007214351790025,0.0760534582413733,0.2000282860215753,163
1733385541938993200,0.3220680540859699,-0.0343044206619262,0.0092459672510623,5.989497603940963,-5.136723421508074,-5.823267177298665,-0.0045971809886395,0.0480750761926174,-0.0206004567444324,0.1621015819682195,0.4232342792036084,-0.7859877559689099,0.4204988460693942,0.0436160899698734,0.0205652546137571,0.0240770671516656,-0.0034911632537841,-0.0015732496976852,-0.0060891658067703,0.0823093578219413,0.0221006665378808,-0.015242577317357,-0.0325430780649185,0.0834460161780938,0.2282236492186784,164
1733385541978993200,0.1157996315658092,-0.0610562339872121,0.0217249250739812,6.005724516120552,-5.130919119143486,-5.811652142828702,0.0506464801728725,-0.0022352321539074,-0.0523495115339756,0.1628402063460063,0.4236279369126676,-0.7853987219546638,0.4209170694902757,0.0088682305067777,-0.0036470335908234,0.0342556685209274,0.0015285611152648,-0.0188345611095428,-0.0023205280303955,0.1120023056864738,0.0242145154625177,-0.0673152943819761,-0.0758030638098716,0.0782137780804187,0.2967484289882704,165
1733385542018993200,0.0207376676023006,0.1162526360303163,0.1197358019709587,6.005168635803461,-5.140035907056928,-5.804169678118825,0.1137783601880073,-0.0742710903286933,-0.0517529472708702,0.1617050579016292,0.4251994959748141,-0.7843058531648112,0.421807119503454,-0.0345428921282291,0.0050227805040776,0.0515068285167217,-0.003041923046112,-0.0302610546350479,-0.0071320086717605,0.1486607939004898,0.0377997420728206,-0.0855932938724756,-0.1216584593057632,0.0692698259832337,0.3273148686982691,166
1733385542058993200,0.177706929424405,0.2331950078904628,0.1115939965695142,5.998285306030511,-5.148640069273114,-5.803658805987238,0.0710808336734771,-0.0921253263950347,-0.0614607371389865,0.1601112916900855,0.4270788054451703,-0.7832674707540789,0.4224453845692347,-0.0913691520690918,0.0105074010789394,0.0431102812290191,-0.0016975402832031,-0.0242844820022583,-0.0124246180057525,0.1545448452234268,0.0547178015112876,-0.0926215850740671,-0.1759918928146362,0.0348372488969936,0.2445838323891162,167
1733385542098993200,0.3911538652718067,0.0914794293016195,0.1401315242677926,5.992534779679775,-5.136959568351507,-5.819926050177216,-0.0251129623502492,-0.0458158068358898,-0.0559926331043243,0.1592479580219057,0.4288078592162307,-0.7828521349096487,0.4217895043999932,-0.1260243356227874,-0.0007281026337295,0.0357492379844188,-0.0003702640533447,-0.014218121767044,-0.0286138504743576,0.1377945840358734,0.0565322190523147,-0.0706640202879905,-0.2242413163185119,0.019667937745247,0.1848797801958397,168
1733385542138993200,0.2853220854908228,-0.1340636025309562,0.3439022847533226,5.996465689387917,-5.122556948989629,-5.828569959881901,-0.0358388312160968,0.0340412706136703,0.0046679861843585,0.1596985100666584,0.4291075523417211,-0.7829694027547958,0.421096352950304,-0.0673000365495681,0.0190718062222003,0.0534151159226894,-0.0131548047065734,0.0050451308488845,-0.0313412547111511,0.0897265747189521,0.0676774084568023,-0.0747165105491876,-0.2560147047042846,-0.040281303114444,0.1005521954102441,169
1733385542178993200,0.1949129157692193,-0.1259714814901351,0.3844119897961616,5.9976908472687,-5.124064430943132,-5.825985204085708,-0.0185014214366674,0.0229641944169998,0.0347267426550388,0.1601078762703082,0.4283725860410423,-0.783287621483592,0.4210974472760643,-0.0037207978311926,0.0480891279876232,0.0605298839509487,-0.0249496102333068,0.0196193605661392,-0.0229911804199218,0.0271919816732406,0.0788189247250557,-0.0732686498284339,-0.2615737617015838,-0.0835361056143417,0.07924980659727,170
1733385542218993200,0.3984054438352584,-0.2119610812038183,0.2227794123381376,6.00578530639708,-5.114090733939409,-5.82640839793384,-0.0695256814360618,0.0485123321413993,-0.0169897135347127,0.1610591486745889,0.4278671545531115,-0.7835775957794336,0.4207088074041517,0.1306487321853637,0.0682736039161682,0.0759465917944908,-0.0104753971099853,0.0317326337099075,-0.0259034484624862,-0.0330039896070957,0.073832131922245,-0.0066033437877893,-0.2072612643241882,-0.1247688642347231,0.0284312543122097,171
1733385542258993200,0.2365314588367938,-0.4736632216542959,0.2315320431143045,6.024903848364949,-5.097793094611168,-5.82094487183094,-0.0855520069599151,0.1276169866323471,0.0495043769478797,0.1630619048509831,0.4267297130101162,-0.7840199897410829,0.4202679500113513,0.1645521074533462,0.0571805797517299,0.0322469137609005,-0.0061178803443908,0.0345763862133026,-0.0201291739940643,-0.0861257016658783,0.067687414586544,-0.0179161804407835,-0.1646065562963485,-0.1556872957201674,-0.0183722171125933,172
1733385542298993200,0.0176513920247554,-0.4774591068059206,0.2516968792647123,6.035937283554673,-5.10252655287385,-5.805346905204654,-0.0434288047254085,0.1160044819116592,0.1119230687618255,0.1649176663574146,0.4240004920423098,-0.7849929236208109,0.4204899440619428,0.1906140595674514,0.0587133876979351,-0.0239830687642097,-0.0249406099319458,0.0193778723478317,-0.0050892829895019,-0.1038051843643188,0.0470943227410316,0.000363572615385,-0.1720262020826339,-0.1249570985495112,-0.0081912717080034,173
1733385542338993200,0.047788756135106,-0.3190758865326643,0.1194412029385566,6.03946779576838,-5.12443969399631,-5.782325510579347,0.0589636377990245,0.0451219156384468,0.0247933752834796,0.1654866035730471,0.4220781164234382,-0.7852812297527987,0.4216603997806972,0.1207689344882965,0.0584513321518898,-0.0419177934527397,-0.0237152576446533,-0.0009154975414276,0.0085355043411254,-0.0938755720853805,0.0386184900999069,-0.0401116456359624,-0.2116543650627136,-0.1003344153405632,0.065177866794751,174
1733385542378993200,-0.1561497621327638,-0.1011982747614383,-0.0817576612323522,6.041995852941274,-5.144947059974074,-5.761441712504625,0.1344000250101089,-0.0360026732087135,-0.0083837592974305,0.1648066010567023,0.4224680229016552,-0.7843931003365048,0.4231868243905839,0.1087391674518585,0.0635422766208648,-0.0338488146662712,-0.0211341977119445,0.0008135139942169,0.0153755545616149,-0.0576195977628231,0.0424879677593708,0.004766776010394,-0.3288414478302002,-0.0477111882537137,0.0861201033587101,175
1733385542418993200,-0.0127712187677621,0.1033469772279262,-0.508665561452508,6.0258075192064045,-5.171721669653058,-5.754415174868703,0.0418457463383674,-0.0579136423766613,0.0342901013791561,0.1629801098598638,0.4229661564976811,-0.7838961439433815,0.4243157789894981,0.0981549695134162,0.0663733258843422,-0.0394651554524898,-0.0125237107276916,0.0042659640312194,0.0207470655441284,-0.0208927020430564,0.0837929099798202,-0.066882748183608,-0.5422288775444031,0.0172848328678403,0.0916004983980208,176
1733385542458993200,0.2082435219854116,0.1452963596850633,-0.4841518824428319,6.011743338018656,-5.181948464635014,-5.759926631766557,-0.0274076852947473,0.0125266518443822,0.0482789352536201,0.1622178752251121,0.4225736534484585,-0.7842869633964027,0.4242769210516556,0.1460567116737365,0.0564419217407703,-0.0572580695152282,-0.0040770173072814,0.0047970414161682,0.0093912333250045,0.0223335996270179,0.1475328952074051,-0.1708703614026308,-0.7912541031837463,0.0752212999998591,0.1042681837260723,177
1733385542498993200,0.1527484292566776,0.232083247256279,-0.4517208544373512,6.009778175425529,-5.181946711069346,-5.761981810730696,-0.0684370845556259,0.0458098240196704,0.0405429378151893,0.1628058895880257,0.4213105917978531,-0.7850329368150238,0.4239281936777073,0.1470716446638107,0.0515526235103607,-0.0578229911625385,-0.0008147358894348,-0.0095535665750503,0.0054713040590286,0.0462630689144134,0.2143397033214569,-0.2250654774487018,-0.981309413909912,0.1728967709300108,0.1692143378239125,178
1733385542538993200,-0.1217541560560464,0.3381511738806962,-0.6322060164034367,6.000418226405978,-5.169800930723548,-5.782610172739624,-0.1594115495681762,-0.011083997786045,0.0630169883370399,0.1634662603005533,0.4198946368994889,-0.7864601442620046,0.4224309398810073,0.0741716027259826,0.0338456407189369,-0.0640029236674308,-0.0012592673301696,-0.0210688263177871,0.0113588571548461,0.0558158308267593,0.2583797574043274,-0.2444458852231502,-1.036049723625183,0.2505449510169215,0.2938949027206748,179
1733385542578993200,0.0447071567326784,0.2976975829392671,-0.3021411183446645,5.981048340025544,-5.137725292026996,-5.831054762434959,-0.2091037929058075,-0.0557204037904739,0.0359113998711109,0.1639854859332091,0.418882496213826,-0.7885673812951073,0.4192942055946278,0.020095320418477,0.0304589513689279,-0.0680481344461441,-0.0018384456634521,-0.006475418806076,0.0213135033845901,0.0483940429985523,0.2623721957206726,-0.1261608665823936,-0.8983711004257202,0.2587358014581725,0.2268994148775935,180
1733385542618993400,0.3047428252756595,0.1012204865932464,0.0809065973609685,5.971508358263969,-5.0913358812958,-5.881309616422653,-0.1925203949213028,-0.0101151010021567,-0.0178970620036125,0.165085426653648,0.4184104041964167,-0.7904404293630384,0.4157926840793396,0.0024145925417542,0.0425938032567501,-0.0875316187739372,-0.0105227828025817,-0.0024970769882202,0.0194792002439498,0.0156562887132167,0.2249639481306076,-0.0450239675968885,-0.7439199686050415,0.2454635378330945,0.0841580003723502,181
1733385542658993200,0.0270668706238269,-0.1478068812012672,-0.0252495920687913,5.971455166772008,-5.043719559118151,-5.922246022444963,-0.2056307643651962,0.0002589106152299,0.0239887535572052,0.1667586689425125,0.4177616474735543,-0.7921020907176516,0.4126027404127338,0.0188838485628366,0.058449413627386,-0.0569144524633884,0.0044973492622375,0.0030065774917602,0.0180026888847351,-0.0439017824828624,0.1897897273302078,0.0604611907035112,-0.682695746421814,0.1987647506254725,-0.1890242961220443,182
1733385542698993200,-0.0155605572253465,-0.2457949617445468,0.2253419563025236,5.955424653947353,-5.015761877134442,-5.961997602596878,-0.1468280553817749,-0.0238817650824785,0.0778446346521377,0.1674426151982251,0.4164333617516391,-0.7940784220646677,0.4098605095655839,0.0844101309776306,0.0594331845641136,-0.0402353405952453,-0.0002126097679138,0.0107506662607193,0.0086169391870498,-0.098032996058464,0.16888128221035,-0.0172831432342529,-0.6105384230613708,0.1798936623463407,-0.1032312418937683,183
1733385542738993200,0.1940232734531164,-0.2744125689417123,0.3723158938109874,5.934534426131844,-5.008393394193053,-5.9889627664119,-0.0477727465331554,-0.0213635265827178,0.0607604086399078,0.1673017378295642,0.4151172017627492,-0.7956317140504727,0.4082376460779385,0.0724197775125503,0.051658671349287,-0.0613997504115104,-0.002080500125885,0.0055712312459945,0.0026968717575073,-0.122718334197998,0.1461226940155029,0.0183709384709596,-0.5171860456466675,0.1754763938933611,-0.0734133189961314,184
1733385542778993200,-0.0615203443676233,-0.0485170704096555,0.2975128740221262,5.9086102958023545,-5.02359973115325,-6.001847382426262,0.0289839599281549,-0.1060555726289749,0.0800600424408912,0.1659697348866848,0.4144261690237444,-0.7964044319026726,0.4079767619156749,0.0582845136523246,0.0423386208713054,-0.0462841801345348,-0.0102965235710144,0.0025352239608764,0.0024605989456176,-0.1546261012554168,0.1454987674951553,-0.0739934569716453,-0.450582355260849,0.1742300105614587,-0.0671162646785378,185
1733385542818993200,0.6022405017286538,0.1441828454852104,0.1579775620818138,5.881857897955179,-5.031797066134214,-6.021228374722599,-0.024893382564187,-0.0545018501579761,-0.045942697674036,0.1642477193869618,0.4147949091722595,-0.7968327252643648,0.4074623946176159,0.0508476383984088,0.0511378124356269,-0.0344765223562717,-0.0102941989898681,0.0043555200099945,0.0148918479681015,-0.1676990538835525,0.1417459100484848,-0.0435182392090559,-0.392823189496994,0.1961505312727764,-0.0693248806387186,186
1733385542858993200,0.1143383268415927,-0.0722094961643219,-0.0278904619663953,5.901092759779095,-5.009782218202949,-6.020760172688961,-0.0745661854743957,0.1106434613466262,0.0588426254689693,0.1658520476691455,0.41467794582219,-0.7968786250675215,0.4068411253203851,0.0797229632735252,0.0634354427456855,-0.0483834818005561,-0.0200250148773193,0.0160547047853469,0.0117973834276199,-0.1697990745306015,0.1359346359968185,0.0036555998980998,-0.3158743977546692,0.2161091773265972,-0.0224120305553078,187
1733385542898993200,0.0440343720376491,0.0690624303102493,-0.0472235234677791,5.897625960451364,-5.020720376324653,-6.015044717651605,-0.0749169662594795,0.0593137107789516,0.1057376787066459,0.1668319023759033,0.4118388444358668,-0.7981670806947285,0.4067987316883746,0.0895082205533981,0.0755462124943733,-0.0416792407631874,-0.0119656324386596,0.0094212740659713,0.0213555246591568,-0.1599704027175903,0.1140902489423751,0.0280658185333013,-0.2205386608839035,0.2248374408464878,-0.0353849093750119,188
1733385542938993200,0.392052275416255,0.1525531989455223,-0.0926601635187864,5.908737137052417,-5.010986333295703,-6.012253625628352,-0.036062866449356,0.0782427862286567,-0.0735153779387474,0.1679449752000275,0.4112441880402787,-0.7983845159114806,0.4065153976829568,0.0962071344256401,0.0622339248657226,-0.0405448041856288,0.0095378756523132,0.0089249610900878,0.0138718038797378,-0.1503126174211502,0.093528538942337,0.0159597856760025,-0.1570625454187393,0.2250403795400634,-0.1070481698334217,189
1733385542978993200,-0.5984609831899405,0.0166343239367008,-0.272816824182868,5.923764610314369,-4.999866388866305,-6.006725802117586,-0.0823192447423935,0.0400954112410545,0.1538296937942505,0.1696634067239048,0.4099116869175324,-0.7988931014711094,0.4061485202672926,0.0924946889281272,0.063676081597805,-0.0602416731417179,-0.006460428237915,-0.0055471807718276,0.0057998448610305,-0.135338619351387,0.0706688314676284,0.0626239216953516,-0.0834475308656692,0.2351163678744807,-0.0677326430112123,190
1733385543018993200,0.102371994715929,0.2274386363208294,-0.0393213720411062,5.890016069969534,-5.021079272764921,-6.0221998501032585,-0.0499374009668827,-0.0328712165355682,0.0938003733754158,0.1687357520457207,0.4073347241492868,-0.800702913692757,0.4055633311900052,0.072298340499401,0.0569144748151302,-0.0218659229576587,0.0043920874595642,-0.0085842609405517,0.0025177597999572,-0.1110436022281646,0.0369136333465576,0.0938584333926439,-0.0292232483625412,0.2637062468145043,-0.0639952100485563,191
1733385543058993200,0.0204652804017066,-0.0071714990645647,-0.2722095059394836,5.878549504059553,-5.017510182106495,-6.036362815490365,-0.0711627528071403,-0.0291935130953788,0.0630298778414726,0.1687917558454061,0.4062906308797257,-0.8016837060737428,0.4046487945452877,0.0705521032214164,0.0315964929759502,0.0059207007288932,0.0253090858459472,-0.0053873062133789,-0.0025331526994705,-0.0776322856545448,0.0105449110269546,-0.0005669862329959,0.0364994630217552,0.2609951246922835,-0.0510740614160895,192
1733385543098993200,0.1615992597103119,0.0296919584304094,-0.0716483551502227,5.852336035394668,-5.019956406214833,-6.059752458906173,-0.0885037034749984,-0.0033713825978338,0.1001741215586662,0.1681234611718712,0.4049113306707517,-0.8031240342201381,0.4034515496624295,0.0832718908786773,0.0294398125261068,-0.0067347735166549,0.0022057890892028,-0.0010129809379577,0.0065299123525619,-0.0576392151415348,0.0009253313764929,-0.0449427190542221,0.1589724719524383,0.2564526954896748,-0.1271440324008464,193
1733385543138993200,0.26175357837677,0.1346124685853719,0.1762111379086971,5.8377773486882445,-5.027614227491617,-6.0674459360182285,-0.0343286283314228,0.035949595272541,0.0835691094398498,0.1680789253326324,0.4031586935659392,-0.8042491599124689,0.4029838993727201,0.0502617433667182,0.016503082588315,0.0124632893130183,-0.0042835474014282,-0.0042939931154251,0.0173485875129699,-0.0322845019400119,-0.0156774893403053,-0.0360457113713026,0.3507149219512939,0.2780843527896329,-0.0739472797423601,194
1733385543178993200,-0.0295505041331052,0.1823731676697731,0.1270212828040123,5.813043889448046,-5.048588041937351,-6.073769878342747,-0.0013544897083193,-0.0707862228155136,0.1193745583295822,0.1671477465161225,0.4014667993957441,-0.8052952775215874,0.4029709708368296,0.0367589816451072,0.0127568133175373,0.012363220565021,0.000762403011322,-0.0003807693719863,0.0124771744012832,-0.0032059121876955,-0.0718984082341194,-0.0138391402602195,0.5325073003768921,0.2413303470185026,-0.1898325437650084,195
1733385543218993200,0.5797592053294182,0.243843827676773,0.2945166148155927,5.782832291057706,-5.063372354093194,-6.090280868160725,0.0192252304404974,-0.0282808989286422,-0.0023606915492564,0.1655644926146197,0.4008581423630216,-0.8061207538414217,0.4025799001845346,0.0295636560767889,0.0162725578993558,0.0069942874833941,0.0021514296531677,-0.0047965496778488,0.0269248485565185,0.0331081226468086,-0.1105812788009643,-0.0068757309883832,0.8125854730606079,0.2278757125638425,-0.1432832662969827,196
1733385543258993200,0.1036865844458341,-0.0493178653985261,-0.0266845933079719,5.798469420650601,-5.062302679035067,-6.076284491512179,0.003399311332032,0.0638755038380622,0.0391877964138984,0.1664454145085539,0.400706149181413,-0.8057536063072507,0.4031025225189249,0.014776986092329,0.0179084856063127,0.0277526974678039,-0.0011283755302429,-0.0043394416570663,0.0165656208992004,0.0468751676380634,-0.1503466665744781,0.0161398184180259,0.9082080125808716,0.1695864590719342,-0.3936024274677038,197
1733385543298993200,0.2219230877697467,0.0359837520509958,0.21766484580338,5.7860267031848425,-5.084757087427377,-6.069393562954664,0.0839513912796974,-0.0398480892181396,0.0249216351658105,0.1656616954702681,0.3998649374872902,-0.8059534548846958,0.4038605114564665,0.0087198931723833,0.0231166165322065,0.0335951410233974,2.771615982055664e-05,-0.0043029189109802,0.0117091089487075,0.0107656195759773,-0.1310121715068817,-0.0598094487965106,0.8034254312515259,0.1090789450086653,-0.3559637478165328,198
1733385543338993200,0.3142874832123518,-0.0696621497690677,-0.1497533390939235,5.788681017085909,-5.104056831181049,-6.050629241251945,0.1051608398556709,-0.0091986451297998,-0.0155594022944569,0.1648496754003,0.400738094817036,-0.804925602605252,0.4053741508458164,0.0177485421299934,-0.0039091953076422,0.0514330603182315,0.0143617391586303,0.0046881288290023,-0.0008187443017959,-0.0093123894184827,-0.1173842921853065,-0.0956383025467395,0.678795576095581,0.1129924651905894,-0.1604264165386557,199
1733385543378993200,0.3381850761502981,0.1776712735891342,-0.0414817649453878,5.787080011630058,-5.130675373515486,-6.029614510273933,0.1121687442064285,-0.0226441137492656,-0.0536374002695083,0.1637204558002285,0.4014288503245177,-0.8039152152477583,0.4071496123976418,0.0168870091438293,-0.0282521918416023,0.0205660890787839,-0.0026134848594665,0.0037545412778854,0.0050193667411804,-0.0162546783685684,-0.106192909181118,-0.1039630632996559,0.5801486372947693,0.1237981560390442,-0.0807172122687101,200
1733385543418993200,0.4368482794761657,0.2747480845063925,-0.2269289332330226,5.812767410594224,-5.127496158957481,-6.007572774335742,0.0826979354023933,0.0437817797064781,-0.1577342301607132,0.1639116674985397,0.4037223966030998,-0.8020655767317969,0.4084508545724518,-0.0050694225355982,-0.0306969713419675,-0.0098644541576504,-0.0010645985603332,-0.0037886649370193,0.0095385909080505,-0.0111203044652938,-0.0804973393678665,-0.1384264739155769,0.5048869252204895,0.0948441564943641,-0.1163524431429803,201
1733385543458993200,-0.1503016206264495,0.1659972024083137,-0.2846896328061818,5.845957148012519,-5.1119683349579566,-5.988567045092583,0.0214865561574697,0.0195656381547451,-0.0650330483913421,0.1651023852873083,0.405416755005533,-0.8006055258273922,0.4091566997384681,-0.0212039165198802,-0.0338473878800869,0.0082102864980697,-0.0119020938873291,-0.0085468739271163,0.0157334208488464,-0.0025184527039527,-0.0432873219251632,-0.2087321822851896,0.5071738362312317,0.0816041511710733,-0.0182383981324732,202
1733385543498993200,0.0118850835829973,0.13027063998878,-0.2675251475155353,5.856302016416191,-5.099285378995537,-5.989270809447765,-0.030451426282525,0.0113715967163443,-0.0537570156157016,0.1655381442026074,0.406229262512162,-0.8002159802475778,0.4089366518582769,-0.0504297129809856,-0.0328473150730133,-0.0029554152861237,-0.0079563856124877,-0.0097675323486328,0.0145183056592941,6.66389241814e-05,-0.0226809866726398,-0.077377254191041,0.48940110206604,0.0957928720539435,-0.1114591181434691,203
1733385543538993200,-0.1669780301392078,-0.107401805576682,0.0097720369517803,5.856200309607386,-5.093402750697732,-5.994377777197957,0.0517344959080219,-0.0542829073965549,-0.0158190950751304,0.1653822335067172,0.4068339670239845,-0.8000714601017687,0.4086814701301331,-0.0374595858156681,-0.0138449165970087,-0.004176340997219,-0.0043988227844238,-0.0095154047012329,0.0142482370138168,0.0105852857232093,-0.0154335675761103,-0.0538555088281631,0.4178114831447601,0.095583878078917,-0.0413734822653234,204
1733385543578993200,0.3332394364416599,-0.0780786804586649,-0.0528413633495569,5.854873444917797,-5.091301979026198,-5.9974547004252665,0.080238476395607,-0.087226964533329,-0.1447866261005401,0.1643318704517866,0.4088715517438465,-0.799130249811679,0.4089130334909562,-0.0535101927816867,-0.0234870500862598,0.0147662572562694,0.0064389705657958,-0.0096099525690078,-0.0005524307489395,0.018522722646594,-0.0124118886888027,-0.0087432784259319,0.3422866761684418,0.053164750085026,-0.0435919620323926,205
1733385543618993400,-0.053353989046812,-0.0784597887307405,-0.086622052398324,5.889668279445171,-5.060543852669,-5.989412848266959,-0.0047606844455003,0.0453829355537891,-0.0962418243288993,0.1650374787931403,0.412461180348297,-0.7970262434850234,0.4091301893597537,-0.0532374866306781,-0.0346510745584964,0.0069323694333434,-0.0092983245849609,0.0021233111619949,-0.0002065151929855,0.0288364477455616,-0.0219249483197927,-0.0108311906158924,0.2647395431995392,0.0918314028107561,0.0516098487932235,206
1733385543658993200,-0.1751174974530935,0.0007709843724966,0.0997837317883968,5.899205923119187,-5.053734172654152,-5.985779460200667,-0.0083240084350109,0.0105010699480772,0.0026553301140666,0.1656933343600914,0.4124571127141613,-0.796912140361278,0.4090916996564083,-0.026341687887907,-0.0111519815400242,0.0068480800837278,-0.0177593827247619,0.0029434859752655,0.0101755261421203,0.0681942477822303,-0.0443314239382743,0.0034954409003257,0.2505117952823639,0.0834689312628004,0.1325113315876573,207
1733385543698993200,0.10790917057693,-0.1833154169559478,0.0081458970546722,5.909917286747693,-5.037540578222274,-5.9888616441249845,0.0111973863095045,-0.0247828979045152,-0.106814868748188,0.1662160416206575,0.4133250515314254,-0.7965609590405492,0.4086873066725011,0.0084469188004732,-0.0155936013907194,0.0079882461577653,0.001490294933319,0.0018563717603683,-0.0012420564889907,0.0755001455545425,-0.0478031150996685,-0.0104828155696392,0.2100611329078674,0.0718994712339248,0.1034205539207905,208
1733385543738993200,0.0219207399070262,-0.2992068184584379,0.2226128235995769,5.9264738692730665,-5.029238613823056,-5.97947071544528,0.1412380039691925,-0.0212007127702236,-0.1133724227547645,0.1660728630384065,0.4156240245729559,-0.7950627841571218,0.4093307908087613,-0.0206292066723108,-0.0220960285514593,-0.0034944391809403,-0.0117136240005493,0.0004933774471282,-0.0010315328836441,0.0738671422004699,-0.0575584769248962,-0.1108650977730751,0.1661054193973541,0.0620144297611899,0.1483623231269419,209
1733385543778993200,-0.0755395173698663,-0.2563368140250444,0.10430968478024,5.941781913042068,-5.04038486173749,-5.954840132057666,0.1227055713534355,-3.63535364158e-05,-0.0720349699258804,0.1654368910048596,0.4177022999334906,-0.7931816532170809,0.4111182924167053,0.0036050255876034,-0.0070371842011809,-0.010434104129672,-0.0217435359954834,-0.0065002143383026,-0.0048287510871887,0.0471265837550163,-0.028265131637454,-0.0726110627025365,0.1273062974214553,0.047610604822915,0.1145901096455752,210
1733385543818993200,-0.1620008262485265,-0.1142401271641254,-0.103673724964261,5.953575811210274,-5.047808874258399,-5.936748595049977,0.0532992370426654,-0.0218153707683086,-0.0255222879350185,0.1652595445093051,0.4187493422026969,-0.7920473064030429,0.4123099175362467,-0.0530023276805877,0.001121143111959,0.0055925324559211,-0.0088517069816589,-0.0099726766347885,0.0011921525001525,0.0100124068558216,0.007034046575427,-0.025181203007698,0.0642717778682708,0.0810142955191433,0.0487358277268707,211
1733385543858993200,0.1934445967823267,-0.3402157051950693,-0.0272100784868001,5.946486145210266,-5.057213246941566,-5.935849600383639,0.0055596940219402,0.0214527864009141,0.0338183976709842,0.1645211907621239,0.4189988673822289,-0.7918863851175475,0.4126605949752901,-0.0216710362583398,0.0072315530851483,0.0113449599593877,0.0086632966995239,0.0030082762241363,-0.0045694261789321,-0.0128201637417078,0.0185901373624801,0.0398000954687595,0.0355711206793785,0.1020120022971183,0.0376763813130557,212
1733385543898993200,0.0177022454291582,-0.3503828789442777,0.1044072999358177,5.949396479699015,-5.0717356932908295,-5.920521682870388,0.001213836716488,0.0989126935601234,0.1095034852623939,0.1651936987248154,0.4172002656481955,-0.7923424413573844,0.4133382185997598,0.0436320677399635,0.0152943264693021,-0.0041637578979134,-0.0005301237106323,0.0044445246458053,-0.0167468935251235,-0.0432396754622459,0.0370294153690338,-0.0512082091897726,0.0429212227463722,0.0816897744947578,-0.0334340310355648,213
1733385543938993200,-0.1248217269331216,-0.0027951836764812,0.0033113165050745,5.939439149308204,-5.104335648122429,-5.902472815960645,0.0505361258983612,-0.0155048985034227,0.077488824725151,0.1648250191189323,0.4152345421520259,-0.7927942015287923,0.4145965401123526,0.0102778421714901,0.0059922244399785,0.0044830599799752,-0.0068259835243225,-0.0101541280746459,-0.0124410390853881,-0.0684772506356239,0.0312760435044765,-0.0522445665001869,0.0675353333353996,0.0887057998698204,-0.0252006383605301,214
1733385543978993200,0.078171619439125,0.1803507219314575,0.0551549009889364,5.918405129107833,-5.125873526191711,-5.904936575725674,0.0403462164103984,-0.0604490153491497,0.0151888038963079,0.163205085033312,0.4152218394029122,-0.7928800673752276,0.4150856252795361,0.0283284820616245,0.0018143637571483,0.0039405077695846,-0.0109318494796752,0.0058273822069168,-0.0095618814229965,-0.0811168998479843,0.0185563154518604,-0.0125713122814893,0.0634718984365463,0.1065271872997749,-0.0084705258991569,215
1733385544018993200,0.2100233911395072,0.1208972469657659,-0.0370844067692756,5.910303071194887,-5.133906025999784,-5.906071132713556,-0.0146079678088426,0.0101020485162734,0.0362847410142421,0.1626179318165794,0.4151607257441533,-0.7929485431725604,0.4152462755346915,0.0548522323369979,0.0042475876398384,0.0062757665291428,-0.0058363080024719,0.0078618675470352,-0.0014349967241287,-0.0813593044877052,0.0074862660840153,-0.0056330374509096,0.0509100034832954,0.1171818614381365,0.0336461576825939,216
1733385544058993200,0.282863586422801,0.0195230311155319,-0.0504196891605854,5.905997482955455,-5.139224006152153,-5.905755490893125,-0.0734807699918747,0.0936030074954032,0.1065500006079673,0.1632043156325081,0.4133555337235917,-0.793880926673047,0.4150356660597044,0.0700287893414497,0.0011202376335859,-0.0027425622101873,-0.0052829384803771,0.0049894005060195,-0.0040213465690612,-0.0720708668231964,0.0016099684871733,-0.0579448239684104,0.0407001003623008,0.0996598862130194,0.0453451989078894,217
1733385544098993200,0.2867383820295334,0.1077086795687675,0.1000660558611154,5.908707910957932,-5.148700859549641,-5.894781676936149,-0.0317913591861724,0.079477459192276,0.0527404397726058,0.1642872548384621,0.4110354505868118,-0.7947327132065586,0.4152824654079262,0.0340627990663051,-0.001933715539053,-0.0145298456773161,-0.008337378501892,-0.0019863098859786,-0.0037367343902587,-0.0738448947668075,0.0209398120641708,-0.075403908291459,0.0306671112775802,0.1056811831959988,0.0544484880189411,218
1733385544138993200,0.1873468644291162,0.1080365963488817,-0.0486339747875928,5.916520046013593,-5.143790875676274,-5.891230121934414,-0.0111978137865662,-0.0063367034308612,-0.0305058807134628,0.1650085141617553,0.4106469990301769,-0.7948195961022186,0.4152144540214453,0.0590264722704887,-0.0054895682260394,-0.0066601382568478,-0.0020491480827331,0.0025893300771713,-0.001186728477478,-0.068775862455368,0.0462019145488739,-0.1569821213036775,0.0393183976411819,0.1130396288005635,0.106066118259821,219
1733385544178993200,0.1579769775599241,0.0412280824452638,0.0200473472505807,5.918806695646048,-5.138932329729199,-5.893174826261401,0.0268181208521127,0.0045545743778347,-0.0085466280579566,0.1650410920749072,0.4110555350658143,-0.7946707788657104,0.415082203610474,0.048591673374176,-0.0083549162372946,-0.0127854095771908,-0.0061972141265869,-0.0028886646032333,-0.0016955733299255,-0.0569008104503154,0.0771089419722557,-0.101971012699604,0.0641648918390274,0.0546170677851885,0.05459332158342,220
1733385544218993200,0.2407458616614341,0.1022626891225576,-0.0165747027039527,5.920281444373726,-5.14489912917912,-5.886478543493151,0.0215028505772352,0.0040231356397271,-0.0040616318583488,0.1648286701968227,0.411285281283368,-0.7943370253936913,0.4155773441854088,0.0634196251630783,-0.0060651306994259,-0.0229805894196033,-0.0073455572128295,-0.0101784020662307,0.0046337097883224,-0.0295531675219535,0.0884677544236183,-0.0112456166356801,0.0748662576079368,0.0654000170788727,0.1512917002428788,221
1733385544258993200,0.1371194829702377,0.0873328310161828,0.0700146164685487,5.920060495099425,-5.15256513376236,-5.879992688605189,0.0315838940441608,-0.0125911515206098,0.0084514766931533,0.1646682899130783,0.4111664890387773,-0.7941903584457779,0.4160385520180907,0.0148097425699234,0.0033859484829008,-0.0134742362424731,0.0005978941917419,-0.0334161818027496,0.0028364211320877,0.0031242966651916,0.0690730512142181,0.0234977799654006,0.0889495015144348,-0.0109720786576159,0.1519586488521657,222
1733385544298993200,0.3938748146682977,0.1019072998136281,0.0705430242568254,5.919634378641844,-5.151427654165029,-5.8814189220160245,0.0147334970533847,-0.0273983124643564,-0.0539517290890216,0.1642811263313695,0.4119255896539999,-0.7938426902603282,0.4161042557949777,-0.0387735925614833,0.0086837215349078,0.0045640869066119,0.0024868845939636,-0.034427985548973,-0.0138328224420547,0.021631060168147,0.0509312376379966,0.0250613760203123,0.0841859504580497,-0.0569115719305351,0.1521706385018769,223
1733385544338993200,0.3325514541774988,-0.0454103365659713,0.2332838552176952,5.917959723427892,-5.148809580621123,-5.885394255387783,0.023110095411539,-0.0192935299128294,-0.0035925807897001,0.1638783493495247,0.4126761663348812,-0.7935804719328478,0.4160194460746346,-0.0664233267307281,0.0078666638582944,0.0304638594388961,0.0003431439399719,-0.0205504298210144,-0.0111746937036514,0.0211611371487379,0.0352654829621315,-0.0245966811180114,0.0633974373340606,-0.0955683425830677,0.1233975941478274,224
1733385544378993200,0.533083963394165,-0.0995376480728387,0.2502338209748267,5.925723343166709,-5.149749491819739,-5.876753268292546,0.0075796023011207,0.0360919795930385,-0.0089784860610961,0.1642068453077908,0.4127237906993568,-0.7932780825644413,0.4164191866258961,-0.0277750007808208,0.0117460899055004,0.0439878590404987,-0.0015943050384521,-0.0036434233188629,-0.0224890112876892,0.0073879910632967,0.0197509303689003,-0.0510848750710487,0.1029434576630592,-0.1007967812884599,0.147780468118377,225
1733385544418993200,0.1877174513071775,-0.0116816699653863,0.3407242392390966,5.931264026159048,-5.157400298833847,-5.864447328948974,0.0875823870301246,-0.0310599394142627,-0.0011509654577821,0.1642808294636533,0.4126938059895676,-0.7928981172571277,0.4171430149551558,-0.0311641376465559,0.0015861842548474,0.0075556160882115,-0.0157623887062072,-0.0068984627723693,-0.0155463218688964,-0.0125483768060803,0.0224874150007963,-0.0725122785031795,0.1338232457637787,-0.1369725853128358,0.1340088949353434,226
1733385544458993200,0.5040279647797345,0.1320844114124774,0.189728791129589,5.925002043154835,-5.17427310770154,-5.8559057105749845,0.1046720370650291,-0.0749212130904197,-0.1161594092845916,0.1625639557761099,0.4144764020728084,-0.791692756849577,0.4183358260154889,-0.0535618588328361,0.0143787851557135,0.0049108965322375,-0.0217204093933105,-0.0064918547868728,-0.0110267400741577,-0.01558353099972,0.0193547010421752,-0.0331359614044427,0.1316108852624893,-0.1153075006673112,0.2557815912950784,227
1733385544498993200,0.3323416108191013,0.0451303505808114,0.038074002328515,5.92939414063394,-5.164233359724283,-5.860324696061015,0.073937214910984,-0.1082702726125717,-0.0981535241007804,0.1615436450355481,0.4173440553135402,-0.7903273653117545,0.4184619245305618,-0.0578032098710536,0.0317095182836055,0.0279888529330492,-0.0073956847190856,-0.00444857776165,-0.0133187770843505,-0.0060996646061539,0.0048455391079187,-0.0282604643225669,0.1326599270105362,-0.1138555117607116,0.3368300082795322,228
1733385544538993200,0.7093833641082048,0.230246094956994,0.0685801997512579,5.936023203384876,-5.140604646855593,-5.874370757070183,-0.023961266502738,-0.0469820722937583,-0.1873070150613784,0.1609816709232725,0.4202800962509997,-0.7892237864199877,0.4178222707667117,-0.0553483068943023,0.0516751855611801,0.0129356002435088,-0.0208262205123901,0.001116320490837,-0.0157213360071182,-0.0091363675892353,-0.0015434771776199,-0.0691349110245704,0.1051489859819412,-0.1297724446756765,0.346333274759911,229
1733385544578993200,0.499884873625636,0.3679734806925058,0.0116407534331083,5.976431786140799,-5.07721909313798,-5.888508588016033,-0.0683503970503807,-0.028829401358962,-0.280043363571167,0.1628259974744317,0.4239096051166886,-0.7877379232586641,0.4162420312149436,-0.0496089272201061,0.0679337307810783,0.0127130933105945,-0.0327731370925903,0.0053080171346664,-0.0228183269500732,-0.0107425283640623,-0.0133426468819379,-0.0896446150898933,0.0484301447868347,-0.093996417091228,0.4245502311781048,230
1733385544618993400,0.1653735175520181,0.2226058093369007,-0.307662512114644,6.039648413032293,-4.968511465659737,-5.916663253876567,-0.2085837870836258,0.061678659170866,-0.2976197898387909,0.1666480646009904,0.4283651681576684,-0.7862373317471006,0.4129921228682134,-0.0248236861079931,0.0722767561674118,0.0199230685830116,-0.0177149772644042,0.0139759480953216,-0.0344724208116531,0.0071295127272605,-0.0267384238541126,-0.1495019946813583,-0.0060135945677757,-0.0548890896596014,0.5022115630075336,231
1733385544658993200,-0.1393430042386055,0.0198895263403654,-0.132971131119132,6.096265203267335,-4.860964990915358,-5.947851003822684,-0.264971911907196,0.0917912721633911,-0.1006664931774139,0.1715107496021896,0.4301896977049992,-0.7862523961924002,0.4090574481870946,-0.0427595451474189,0.0576535016298294,-0.0038091579917818,-0.017747938632965,0.0143552422523498,-0.0337718576192855,0.0145092830061912,-0.0225788056850433,-0.2145335620403289,-0.0382757894694805,0.0066534300072118,0.4915415177701041,232
1733385544698993200,-0.1095978543162345,0.0546159718066453,-0.1679483364760875,6.149719145557284,-4.773737081578374,-5.963451893058419,-0.3693855404853821,0.2546505331993103,-0.0306605584919452,0.177424052014537,0.4285574924206587,-0.7876483393030028,0.4055480731063342,-0.0361479818820953,0.0149791678413748,-0.0381642691791057,-0.0256789326667785,0.0100646615028381,-0.0328269153833389,0.0245882086455822,-0.0520307272672653,-0.2329962704479694,-0.0775393024086952,0.1180527807874605,0.3768414449440315,233
1733385544738993200,-0.5676303761184215,-0.1290729546368122,-0.0784931064784526,6.19984014403224,-4.682224626789987,-5.984074994370341,-0.4226749241352081,0.1680242270231247,0.0833687931299209,0.1843090943201404,0.4248798540944996,-0.7903037456755582,0.4011574592204631,-0.0016954636666923,0.0383796170353889,-0.0094089200720191,-0.0309736728668212,0.0011960864067077,-0.0066971778869628,0.0133284861221909,-0.0486113019287586,-0.0901736074000597,-0.113487109541893,0.2192229619655758,0.3314360768141224,234
1733385544778993200,-0.2045715554744005,-0.0786968123570084,0.2352817510366439,6.218655319139361,-4.6220179953694345,-6.011292087119817,-0.2898966670036316,0.1377684623003006,0.0625611096620559,0.1888778417655499,0.4209287580550833,-0.7932903598770455,0.3972838516881863,-0.023863349109888,0.0441630482673645,0.0350130051374435,-0.0348673462867736,-0.0099652111530303,0.0027996897697448,0.0132915182039141,-0.071465753018856,0.1333773738324642,-0.175661414861679,0.3974839450761676,0.2708158413576893,235
