time_imu,phone_acc_x,phone_acc_y,phone_acc_z,phone_gravity_x,phone_gravity_y,phone_gravity_z,phone_gyro_x,phone_gyro_y,phone_gyro_z,phone_ori_w,phone_ori_x,phone_ori_y,phone_ori_z,watch_gyro_x,watch_gyro_y,watch_gyro_z,watch_acc_x,watch_acc_y,watch_acc_z,headphone_gyro_x,headphone_gyro_y,headphone_gyro_z,headphone_acc_x,headphone_acc_y,headphone_acc_z,frame_imu
1726994763104559900,0.3032660124550573,23.944838673245904,-4.821086569513381,-0.229644457535725,9.622169630917906,-1.8792362679071724,-0.0298255775123834,-0.186042919754982,-0.0856391564011573,-0.6218608958408679,-0.7509753201850968,-0.1784669625165878,-0.1321921159640424,-0.1255903393030166,0.0347461625933647,-0.2082510739564895,20.577251414895056,-12.687888158124684,5.336625816127658,0.0065298099070787,-0.1367164254188537,20.48624369475841,1.0914684534072876,3.037819297412037,-0.9652950845889746,0
1726994763184092000,0.3781974261302501,7.421760358068346,-5.636449889701605,-0.1562848232218995,9.688401806238293,-1.510241627473384,-1.1215826272964478,-0.5379526019096375,0.3682516515254974,-0.6374684846975434,-0.7419951456721317,-0.1626164135313656,-0.1289692139238786,0.8375546336174011,0.6092023849487305,-0.2309974730014801,6.095389589476585,-5.538261902672052,0.5546310476832091,-0.0412685088813304,-1.880409836769104,2.449631432563812,0.0961754024028778,0.9603043636295944,-0.0810692771093919,1
1726994763263624700,0.4545016077296808,-13.5621750841856,1.0910440093696117,-0.0147167222457705,9.799687175250051,-0.3691927568217739,-1.3896735906600952,0.0542980842292308,-0.1137385442852974,-0.6787202447744305,-0.7045475903209301,-0.1497874663692993,-0.1432315477651587,0.7654293179512024,0.9110844731330872,-0.2430454194545745,-13.375679868149756,9.66006184693873,-4.630407638052105,-0.696475088596344,0.3650537729263305,-6.059824355098605,0.7958269119262695,-1.4330477670252322,0.3628867154801264,2
1726994763343156200,-0.3028204241120256,-12.421714425218104,0.7977052061617373,0.0258411236545769,9.803356219151617,-0.2528750561986118,0.5258790850639343,-0.0245850291103124,0.0858319774270057,-0.6832212510649719,-0.7014549877785234,-0.1444089329368178,-0.1425334257759333,-0.4272103905677795,-0.2102055847644806,0.3163983523845672,-9.512114680483936,7.091701305228471,-4.93626047039628,-0.1405679732561111,0.0703422874212265,-9.700352356272935,0.5648419260978699,-2.8529791551068424,-1.6572558969922362,3
1726994763422715000,0.4773365033395588,-10.002633175349237,-0.4470681332606822,0.01287610848092,9.778625682520866,-0.740755749906227,0.6786580681800842,-0.0607056878507137,-0.0870140567421913,-0.6655505693107278,-0.7180710239293164,-0.1488020091704185,-0.1388327302102708,-0.5715824961662292,-0.4467118084430694,0.2512753009796142,-7.828888037541509,5.262536497566104,-3.6907641504615545,0.1001636236906051,0.0087985396385192,-9.521982579025623,-0.3655928671360016,-2.889647966812551,-1.567702467317134,4
1726994763502248700,0.5275085378820076,-9.337062064960598,0.6331180166818201,-0.0542046510593965,9.754250535199043,-1.0109530392404644,0.2880501747131347,0.0831146463751792,-0.062300331890583,-0.655717674954077,-0.726339828859272,-0.1548377012939284,-0.1359778790654214,-0.1809159219264984,-0.1330546736717224,0.1397995054721832,-7.344607560282945,4.798230302321911,-2.4900264251858,0.078879602253437,0.0910470932722091,-9.2084473754853,-0.4773977994918823,-2.93580035391748,-0.5325243202174083,5
1726994763581780500,1.829072745464742,6.856216725096106,-0.0136474170804023,-0.2640130842739716,9.7140529648453,-1.3182768939852714,0.3256214559078216,-0.169268250465393,-0.4947019815444946,-0.6458622388951978,-0.735230847024444,-0.163245270006219,-0.1250940910488526,-1.633334755897522,-0.8262569308280945,0.1167146191000938,-0.4874462478131056,0.5244885690063238,1.2158926243096588,0.4625487923622131,-0.4739355146884918,2.1629078097119927,-0.8392064571380615,0.6327277021899819,0.5965625291574747,6
1726994763661314300,-1.3524667483568191,17.277688475978373,8.119316506260633,-0.3583400850264355,9.701672206699849,-1.3854742610760031,1.8024697303771973,0.0421953052282333,0.2714602649211883,-0.6436006028173031,-0.7362287727672476,-0.1691352259569441,-0.123039573254527,-1.024394154548645,-0.5969692468643188,0.7023389339447021,13.416271406257152,-9.880136091971396,-0.0868891789019107,0.1161701902747154,0.2767170369625091,0.0019133696154516,0.627251923084259,-2.3796619704112407,-0.2592415590232238,7
1726994763820382000,0.0560690018928609,-6.53871086435914,2.2577147760011256,-0.1624613016334362,9.608675358572604,-1.9538005105040963,-0.2544646859169006,0.0907013714313507,-0.0113942008465528,-0.6217799267879185,-0.7583763933232012,-0.1564651609339855,-0.1173608201741283,0.346185952425003,0.1403597295284271,0.0929228141903877,-5.391846183568239,3.653102820587158,-1.2709534172743555,-0.2235655784606933,0.211807444691658,-5.529130501711368,-0.2692638039588928,-1.5294982627376914,0.31816640700493,8
1726994763899915800,0.3977228683985769,-8.183651908048986,2.6850091913208365,-0.1222401129420846,9.572290039983391,-2.1276097018375992,0.5190263986587524,0.239954799413681,0.0980510264635086,-0.6138524986044801,-0.7632657506928825,-0.1609450217827401,-0.1212736094344806,-0.1043492406606674,-0.6097068786621094,0.4451204836368561,-7.053876893746852,4.833289925265312,-1.167574291342497,0.0168903656303882,0.0829833820462226,-7.477010536125302,0.3674628436565399,-2.1712726102143525,-0.5086321706395596,9
1726994763979450000,1.492327638989687,13.511553150451183,-0.489938941411674,-0.2296855201984755,9.412028750878571,-2.74432764173001,1.368851900100708,-0.392558217048645,-0.3549094200134277,-0.589052658706514,-0.7813148457564365,-0.1716650060999967,-0.1144340549831903,-2.260783433914185,-0.3089137375354767,-0.2406674027442932,7.720041293853521,-4.76760778504312,0.1013678226420655,-0.0886521339416503,1.0827434062957764,11.689451120781898,0.153796762228012,2.082296688166261,1.1364109451852735,10
1726994764138517800,0.6469834604270756,-11.183493649244308,-1.278715283447504,0.0694812859099824,9.773309455934166,-0.8049881297115236,-2.582092523574829,0.306173175573349,-0.1083273813128471,-0.661076581996786,-0.7188888983529874,-0.155697537821979,-0.148104326102783,2.670454263687134,2.215170383453369,-0.7700960040092468,-5.362689647188782,4.435623901620507,-4.056001191927493,-0.1228503435850143,-0.4371035099029541,-14.44361655817628,-0.2459973841905594,-5.946864330872893,-0.2656101442070677,11
1726994764218051600,-0.4200263605454936,-13.099252452254294,6.941290379008651,-0.1661042064467444,9.802585819301008,0.2282961481993086,0.7768832445144653,-0.456720769405365,-0.2901812195777893,-0.70089858653253,-0.682306021222703,-0.1510583637521826,-0.1427623867089162,-0.9605960249900818,-0.4732235372066498,0.1093872040510177,-10.368335788500309,6.672938717541098,-6.076857322964072,-0.2510836124420166,-0.2663885056972503,-9.625753334623576,0.1995743513107299,-3.0244267318755385,-0.4678479229716584,12
1726994764297586400,-0.6580947831586003,-10.826887365740538,-0.925528526063636,-0.1905003052250482,9.791994867181778,-0.5009672985674813,0.6813995838165283,-0.1860872656106948,0.1969988793134689,-0.6764271718908901,-0.7091151754243611,-0.1506581928460838,-0.1300162309998312,-0.3855135440826416,-0.2926782369613647,0.4166016280651092,-7.652236754649877,5.85045036777854,-2.453530339698493,-0.2419372648000717,0.0065895784646272,-9.461395131593942,-0.5032599568367004,-2.3345845190614463,0.3680141780290752,13
1726994764377120300,0.4274465371415019,-9.511441311267015,0.7363933899782598,-0.0316551893613534,9.756997203558685,-0.9850910874269904,0.6200207471847534,-0.0557521060109138,0.1745160669088363,-0.6585515056957573,-0.7279290831427456,-0.1426356123376988,-0.1268240737571134,-0.4679045677185058,-0.0140753323212265,0.3872825503349304,-7.483145093357563,5.719718540018796,-2.810213487830758,-0.1416617482900619,-0.1705523133277893,-9.388537985175848,0.0926038846373558,-2.4761989753633737,0.924826442208886,14
1726994764416887000,1.3721497923396526,-7.888659492415189,1.3447006443999707,-0.0113455527541518,9.731147892031071,-1.2145165867161003,0.6908169984817505,0.1211152598261833,-0.0647314190864563,-0.6495986073280505,-0.735544700732356,-0.1445583148875851,-0.1268806881528032,-0.4661945402622223,-0.3603016436100006,0.3794805407524109,-6.95736706906259,5.250297778239846,-2.781388375362753,0.0270928256213665,-0.4997300803661346,-8.614132406058907,0.0881358683109283,-2.148397638322413,0.5253878924662247,15
1726994764456653000,1.00338238479048,-2.828632357096672,-0.7780779840193689,-0.0338802427163929,9.69250807251334,-1.491475113813579,0.4896554946899414,0.1260586380958557,-0.2132574617862701,-0.6389907174021088,-0.7443242497603441,-0.1484098291236291,-0.1250867368468271,-0.7330076098442078,-0.4713688492774963,0.1705973595380783,-4.748413839751482,2.648125567820668,-0.4416998111605644,0.0758113414049148,2.367540121078491,3.296097600893676,-0.1519511640071869,0.4117938811859116,-0.1102829505035653,16
1726994764536186600,1.3810565907642245,12.973103276109695,-6.095203711515665,-0.1541777862063608,9.648958853644132,-1.7447589700087904,-0.6178531050682068,-0.0270270053297281,-0.3316509425640106,-0.628887891299895,-0.7503070684197556,-0.1612366395668699,-0.1246674797120397,0.2318924218416214,-0.713807225227356,0.2207591235637664,7.33193629475832,-8.114708135682344,4.000552568688988,0.4420463740825653,-0.2604950368404388,34.59086210683584,0.3311642408370971,11.769958489692211,2.6398998835280536,17
1726994764615706400,2.470598086616397,3.941749082064628,-9.270471577721834,0.0750367280800361,9.469819845589996,-2.547008833862841,-0.4672274887561798,0.1396863609552383,0.1830204129219055,-0.5954380297840481,-0.778008360461432,-0.1567300452262472,-0.1248686294108567,0.2112856805324554,0.2630681693553924,0.651266872882843,5.84532001915276,-1.4046581233650446,5.544486476275324,-0.0416750572621822,-0.330310195684433,0.9633645549178124,0.5203769207000732,0.3355598422132432,0.5567103747079148,18
1726994764695240200,0.4315984691891819,-5.162557535466552,0.2845113536298275,0.1458530345865991,9.571928805455563,-2.12774735674262,-0.5977932810783386,-0.0346451960504055,-0.0224250704050064,-0.6007820975362886,-0.7522098504129415,-0.2065557253639323,-0.1748600034061015,0.432632178068161,0.238618329167366,-0.0851248875260353,-3.7316263222038746,4.073853951743245,-1.6618495083928106,0.0052085109055042,-0.0101655954495072,-5.068170694285631,0.1157924532890319,-1.9342076290227472,-0.5209043173113838,19
1726994764774773800,0.6400083607174456,-8.047700299814343,2.331344514226913,0.0662810833628755,9.595251813375947,-2.0241382214471697,0.1509239971637725,0.1406498104333877,-0.1980797350406646,-0.5861740000676037,-0.7246727699737283,-0.2793773534920273,-0.2306463587780663,-0.0657160952687263,-0.2321114838123321,0.0654903873801231,-6.27518560013473,5.779734325042367,-1.2645916271574795,-0.1757630556821823,0.2887422144412994,-6.390715767109394,0.4306947886943817,-2.1376821830406785,-0.3992732031131163,20
1726994764854307600,-0.0783775355410762,1.858968994295597,1.0545169442221525,-0.0928079653584864,9.498526300114392,-2.437168841353804,0.89017653465271,-0.0188199747353792,-0.2530156970024109,-0.5521245589960248,-0.7082800858413693,-0.3501433261005949,-0.2662659079134897,-0.8652942776679993,-0.8513250946998596,0.2747463285923004,-1.1811030504792928,0.4305009562760591,-0.3558171789526939,-0.072578527033329,0.9971326589584352,2.268666378126293,0.0040292777121067,-0.0756368996300036,0.0487576742324978,21
1726994764894074400,1.566782868254185,20.980337710022926,-2.542652684479952,-0.1670729053484275,9.394749699297549,-2.807341147264838,1.037614822387695,-0.0864062905311584,-0.1076013147830963,-0.5272483655038653,-0.7009897628065513,-0.3895483516471316,-0.2808463048056113,0.2431999444961547,0.121158018708229,-0.0697613060474395,19.89969702124596,-16.567658046138284,4.302836894896626,0.1174239441752433,0.4922158420085907,17.903229773795605,-0.0202161557972431,5.156323609513044,0.2959306645982898,22
1726994764933842400,1.2023024173092096,26.921687076866625,-15.325322236061096,-0.1883578498362563,9.37740167413354,-2.8634268993631005,-0.9433082342147828,-0.1589280366897583,-0.1062273830175399,-0.5111883751402815,-0.6821434259335821,-0.4250582201876978,-0.3044539245226156,0.6263531446456909,0.5294675827026367,-0.1124842092394828,19.757754063642025,-19.664059880900385,3.062080462965369,-0.0191227551549673,0.1503891050815582,26.756150477707383,-0.0950483456254005,6.101452835038304,0.8351578617215156,23
1726994765013376000,1.3173460428759456,-2.194680958330632,-3.0853415115654466,-0.0120574707330379,9.692124626153706,-1.4943174976326523,-2.4824588298797607,-0.0414846464991569,0.0955801457166671,-0.5170463181739836,-0.6022986177209777,-0.461979831744023,-0.3955682516275526,1.6447491645812988,1.7664165496826172,-0.7404121160507202,1.7917881399482487,0.1575192969202995,-2.40578279235661,0.1794104278087616,-1.6180416345596311,-8.47162187770009,-0.1427739113569259,-1.9928236302509903,-0.2662303036657162,24
1726994765092909800,0.5610939600870013,-14.322355154073238,9.677948801285028,-0.0915310864236205,9.806141465955973,-0.0397902727610664,0.1409512460231781,-0.0559734664857387,-0.3737074732780456,-0.5566971292160556,-0.5548721408340883,-0.4406196167846653,-0.4336582634187986,-0.7757753133773804,-0.5236752033233643,-0.1438893973827362,-14.042703515434264,11.374127280259131,-7.387886730039119,-0.0635991469025611,-0.5246209502220154,-8.835474479070305,0.2365662008523941,-2.0613154210664333,0.4857396996235474,25
1726994765172443400,-0.4476398687340319,-10.711592761087417,-1.1501719056427475,-0.1923601077475585,9.77830244191587,-0.719848863216862,0.6461880803108215,0.0183646026998758,0.2581891715526581,-0.5403079776051991,-0.5726619168125944,-0.456903062293006,-0.4139628053196955,-0.2999776005744934,-0.3625035881996155,0.5049014091491699,-7.42373078135848,5.093112827840447,-1.5154820123448969,-0.051445260643959,0.1988565325736999,-9.372610932725667,-0.271125853061676,-2.5405463598504663,-1.0033274397328495,26
1726994765291745000,0.1735309589140117,-9.111341338473558,1.1190180579662323,-0.0770148688857443,9.766454767733812,-0.883638472578302,0.0949440747499466,0.1450953483581543,-0.1750976890325546,-0.5343984941574299,-0.5813602078665651,-0.4550531094726056,-0.4115400876158072,0.0028366004116833,-0.1111965030431747,0.0092046773061156,-6.215981716015935,6.573568827250599,-3.281547097493708,0.0739271342754364,0.0872554332017898,-9.47061128822863,-0.1016467660665512,-2.836787898762524,-0.8362353547599166,27
1726994765331512000,0.8406964258220047,-7.874049367782473,0.989725396164134,-0.1974042759272269,9.756640060684084,-0.9692245329923928,0.3503910601139068,0.1658045947551727,-0.4627372920513153,-0.5332292941445286,-0.5795847410213044,-0.4620586819651411,-0.4077374556688807,-0.2417933791875839,-0.2131827920675277,-0.0711320415139198,-6.274006619483232,6.296398484033346,-3.010129326453805,0.0919851511716842,0.0195258259773254,-8.767992595949769,-0.2251266539096832,-2.69221985335201,-0.6382359442174435,28
1726994765371278800,0.3889271291330456,1.8504431580126284,-0.6218938081603497,-0.4255881959237158,9.73689432672858,-1.0872673403751103,-0.0190982352942228,0.283590704202652,-0.772240936756134,-0.5327479612631917,-0.5753480485649165,-0.4737191478119203,-0.4009294065486798,-0.2070830762386322,-0.4379738271236419,-0.0149305528029799,-3.415259694629907,2.321703410178422,-0.1749390721462667,0.8567222356796265,-0.9848185181617736,19.823861151278017,-1.325385570526123,7.331877842569351,2.3396270432733,29
1726994765411045600,-1.638975997805595,12.290084771835804,1.71691044748798,-0.5259808533906937,9.705295657894014,-1.304209790188074,1.3008675575256348,-0.2191207408905029,0.2542178034782409,-0.5272657961437356,-0.5774650054017926,-0.482732187232102,-0.3943279831174182,-0.2931066453456878,-0.2359548956155777,-0.235692024230957,15.211540374058483,-13.207426411247251,2.2982826409719883,-0.2010987699031829,-1.0495840311050415,7.065442828378081,0.0465038679540157,2.369614915910363,0.3526795019814744,30
1726994765490579500,-3.7452155793562527,11.52678101696968,3.996659945164621,-0.6909407486405224,9.5864869076401,-1.947373253935576,2.7791976928710938,-0.3133992254734039,0.3329614102840423,-0.5068422601058495,-0.5848889674400045,-0.5071422908472302,-0.3792394512658811,-1.090598702430725,-0.3060503602027893,0.2591990530490875,11.086991423344612,-14.723332494223117,0.3901840703915804,-0.063944824039936,0.1566921919584274,6.9872408138006925,0.1450822800397873,1.3385674023419618,-0.2076613564495928,31
1726994765530364200,0.6317061771225184,3.698711894595623,-8.517636609899997,-0.6441255867779254,9.5210204559952,-2.2595625958248973,-0.998311161994934,0.413958728313446,0.093202568590641,-0.4822868173920073,-0.575132840308311,-0.5333177704388543,-0.3901200688215683,0.6160075664520264,-0.0748733803629875,0.2975826263427734,4.8456619155824185,-1.6532283950418234,5.7617029937893145,-0.2160457521677017,-0.2180708646774292,0.2157158306274563,-0.0628952607512474,0.1006000896725803,-0.0996571736661251,32
1726994765570122500,-0.1000485567370429,-0.4911293202400207,-0.42736616538167,-0.5330679255748167,9.616329672718049,-1.8472749032400548,-0.9848719239234924,0.3235565721988678,0.1627227514982223,-0.4887329811529855,-0.563110169182485,-0.5263950457396082,-0.4086016068072727,1.2565803527832031,0.5142280459403992,-0.1854054182767868,0.7114741989076138,-1.6402736364006996,-0.6408195309698581,-0.1337377578020095,-0.0228710751980543,-2.4669284581929443,-0.1611088067293167,-0.3277405102318153,0.2137408772926777,33
1726994765609890000,0.022230499975942,-2.5657249325096605,1.5627717329166828,-0.5176810444159433,9.670818803274631,-1.541971959863603,-0.4971817433834076,-0.0448009446263313,-0.0615728683769702,-0.4960945202554864,-0.5542756212092753,-0.5209579898121949,-0.4186545584815664,0.4621905982494354,0.4699625074863434,-0.2024624943733215,-1.7025485985279083,3.912974823001027,-1.3368752114713192,-0.0870602577924728,0.018282325938344,-2.521372872824967,-0.0845155417919159,-0.3504920018745586,0.2155725314329378,34
1726994765649657600,0.3963038684461266,-2.2144483195960523,2.494133860504628,-0.5609055979080498,9.673433954209088,-1.5101171243108809,0.2160030305385589,0.2524042725563049,-0.2493879646062851,-0.4974181663440024,-0.5516411187517293,-0.5221940482964925,-0.4190234781561462,0.07109235227108,0.2775495946407318,-0.3007532656192779,-1.9340432322412728,2.0899580165743825,-2.0553160345211623,-0.0404939986765384,0.0422504320740699,-2.282073410579562,-0.2162171304225921,-0.3498226877782494,0.176524770435132,35
1726994765689425000,0.2347111846070736,-2.0573264975607395,0.6198211666047573,-0.6569888677433132,9.64814286108613,-1.6285279612883925,0.3252597749233246,-0.1561976969242096,-0.2362280189990997,-0.4951306877337344,-0.5508313669072432,-0.5287878848432255,-0.4145043517549791,-0.057489588856697,0.104451797902584,-0.2813611030578613,-1.2370242596656085,1.896724432194233,0.1249789633214473,-0.0062779383733868,0.1294642090797424,-0.6562140109132975,-0.2351701855659485,-0.1734178721946664,0.222121076293569,36
1726994765729192400,0.3897138955965638,-0.404848044103384,-0.870930747500807,-0.7380703102145344,9.643474869275092,-1.6214339113742111,-0.509009063243866,0.5493216514587402,-0.1511499285697937,-0.4896004119931155,-0.5388235845493391,-0.5406840723367126,-0.4214515452984742,0.3332906663417816,-0.3317901790142059,-0.2513534724712372,-1.0219406625270844,0.1456318752497434,0.1772052635125816,0.0700018629431724,0.0581777021288871,0.1061320048365741,-0.3667205572128296,0.2203511074789799,-0.0668862096491735,37
1726994765768960000,0.4145747806087136,0.245585702908039,-0.3392623499929905,-0.6810795721005648,9.679427641665937,-1.419577898468822,-0.3312253057956695,0.5680204629898071,0.0241024140268564,-0.4797167550200518,-0.5175477047022096,-0.5518357578019899,-0.4444024438365034,0.9343056678771972,-0.1270433813333511,-0.179258182644844,0.3645873453855514,-2.3784394428789613,-0.0449739909753203,0.1288151144981384,0.0619929954409599,-0.3585420008067041,-0.4635811448097229,-0.1400740767258219,-0.029395496234484,38
1726994765808727600,0.7016318731985985,0.1464952140808105,-0.0091312548302114,-0.6907078897327185,9.673471363610028,-1.455071967306733,0.3309376239776611,-0.0711094364523887,-0.0650685206055641,-0.4776595518938434,-0.5164952796979442,-0.5544552705165774,-0.444582096705142,-0.407815933227539,0.1855959147214889,-0.1010300889611244,-0.3302005071371793,0.4285404698580503,-1.0986997848197817,0.1283043771982193,0.1920905709266662,-0.4918896370880306,-0.3482963740825653,-0.0766483279951382,0.1997003692414611,39
1726994765888262400,0.420870738947764,-0.3434370053291321,-0.3591140285409986,-0.7207444238170981,9.669901103907822,-1.4642198810108005,-0.3775619268417358,0.3394873738288879,-0.0700139328837394,-0.4772220122703812,-0.5147538794291484,-0.5564915838431541,-0.4445275756612221,0.2971603572368622,0.1266896724700927,-0.1148554235696792,-0.5755179144978523,-0.2228296812206506,-0.0157419051416218,0.0705525651574134,0.1857167184352874,-0.3341623599728569,-0.0535813383758068,0.1561573791836388,-0.0816043794999364,40
1726994765928031200,0.0673518270000815,-0.4501403072476386,-0.0368939987637102,-0.7420678554181009,9.68592343342602,-1.3426155086889862,-0.2047149986028671,0.2522725760936737,-0.1107146069407463,-0.4783659173256096,-0.5079504417391332,-0.557172049108592,-0.4502352385768228,-0.0351640433073043,0.0489210523664951,-0.18034328520298,-0.2202928562194109,0.4854904375702142,-0.6159823190942406,0.0734137147665023,0.1515634357929229,0.3074222005527466,-0.1067507490515708,0.1391094968768302,-0.300343969262205,41
1726994765967798800,-0.0286763516470789,-0.7968138102799653,0.859331348991394,-0.7464466550242156,9.682294721534848,-1.366153474534303,0.325193703174591,-0.1987494081258773,0.1546719223260879,-0.4760522079072065,-0.5061747560243679,-0.5598585155733787,-0.4513533948735711,-0.1342946141958236,-0.0658382847905159,-0.0684015676379203,-0.5718377646803856,-0.139976041445136,-0.7375529352769256,0.0330503843724727,0.0955704301595687,0.3418188660753891,-0.1766288727521896,0.043200323233148,-0.3190250331282615,42
1726994766007566300,-0.2769058470621705,0.0972813935786485,2.0283996782839298,-0.6524935290854423,9.655050156256555,-1.5889146205633875,0.8222230076789856,0.2910792231559753,0.1460932046175003,-0.468744205270525,-0.5152855005725804,-0.5616875905761449,-0.446393097786859,-1.2397698163986206,-0.2419874966144561,0.0178730003535747,-0.9399491925388574,0.8230717026084661,-0.1358021167613566,0.0425663851201534,0.0412615165114402,-0.1091244737839791,-0.2078837007284164,0.0298706919812015,-0.1186260871633887,43
1726994766047333600,0.3735793013429269,-0.2718424261927604,-0.1000841760396957,-0.5947436796998605,9.602495208632943,-1.8996726144753395,0.5977057218551636,0.6736750602722168,-0.0478784851729869,-0.4494279219444081,-0.5120645303933045,-0.5784861826063143,-0.4485066623132612,-0.65401691198349,-0.0103258676826953,0.0907059237360954,0.7863736648082733,0.1216068565398454,0.8516630063205957,0.0540644042193889,0.0611676797270774,-0.2160636576844379,-0.1951557546854019,-0.18724073717352,-0.0354918334983405,44
1726994766087101200,0.2137028833698481,-0.2530313427388668,0.2914692099437117,-0.5532307889638468,9.562586392092705,-2.102682765851915,0.4347308278083801,1.148382306098938,-0.0788039192557334,-0.4351265703399683,-0.5077115010332884,-0.5911311331596122,-0.4510631372394594,-1.0194015502929688,-0.1128318458795547,0.1295298933982849,-0.1223357553362846,0.939493265464902,0.3616752573311328,0.0503271706402301,0.1385553777217865,-0.1091007823811378,-0.1569624990224838,-0.1177613235602155,0.0011261042533675,45
1726994766206403800,0.4242968044063076,0.5174065017908811,-0.3116086193919181,-0.4621549354944378,9.480480355814098,-2.4652161013171074,0.4080159366130829,-0.4919472932815552,0.1245790868997573,-0.4104107549660036,-0.5014275199087421,-0.6117691397263647,-0.453731160189255,-0.6138439178466797,-0.1292757838964462,0.0552254319190979,0.2445809097796678,0.196879247406125,0.2180332407243549,-0.0076232347637414,0.0006377702811732,0.0306008077704813,-0.1436663717031479,0.0330510961325839,0.0683112466167658,46
1726994766246172200,-0.1462261878810823,0.2462631637781858,-1.2970511506050824,-0.4677366080842912,9.446361228591202,-2.5918799489855764,0.2460672259330749,-0.5932581424713135,0.1623097509145736,-0.4127099171202518,-0.5115519939051721,-0.6086572628798199,-0.4444337247627384,-0.4814262390136719,0.0804497897624969,-0.0076110544614493,0.5766051252126694,-0.5261737456142902,-0.5844598573010414,-0.0203199647367,0.0074820611625909,-0.0987752214661333,-0.1234196573495864,-0.0643628834503237,0.0700178222057875,47
1726994766285939700,-0.0959900385938584,0.4577881916522979,-1.543670580475032,-0.4902902025347575,9.452410445627567,-2.5655276563718914,-0.3377409875392914,0.0362429358065128,0.0048112459480762,-0.4166108972340013,-0.5138874401135378,-0.605578412014221,-0.4423005964601603,-0.016395416110754,0.0751452520489692,-0.0949399024248123,0.3262818723887205,-0.9243243379056452,0.2245534362733364,-0.0459702126681804,0.0227937772870063,-0.000467470382338,-0.1199991926550865,0.0262459210462053,0.011677764400182,48
1726994766325707300,-0.4074023682286962,0.2708943316876888,0.470369440805912,-0.4286227778466418,9.496550616127251,-2.408774959909916,-0.332612007856369,0.5548112392425537,0.1786570698022842,-0.4171067580208735,-0.5093162334393103,-0.6028352353808566,-0.4507866722080288,-0.1096848845481872,0.1003480777144432,-0.1137920171022415,0.1331020640224218,0.2290717904806136,0.3219615980368107,-0.0492617897689342,0.0042385882697999,-0.0084631240482354,-0.1374581009149551,0.1165186756885144,0.0440835906073916,49
1726994766365474800,-0.9516758706897496,0.462603482979536,-0.3252827783487736,-0.2633815266384743,9.523461419406532,-2.3247985997147858,-0.179963931441307,1.2216686010360718,0.2667228877544403,-0.4058530223974858,-0.5002110282462595,-0.6068942806936615,-0.4655658193630248,-0.2762235403060913,0.0021532792598009,0.0060651428066194,-0.4393190535038709,0.1433645148396491,0.4818996465366333,-0.0084219155833125,-0.0127381654456257,-0.0440627624484943,-0.1633853018283844,0.1116541109926067,0.0771531813778914,50
1726994766405242400,-0.4349530037814751,-0.2788093425959349,0.7805955197982489,0.0524793844696367,9.547810263243315,-2.237615698563308,-0.1650983691215515,2.161743402481079,0.5873018503189087,-0.3853605928305662,-0.4894840335104826,-0.6119575429443302,-0.4872478143314576,-0.1542022824287414,-0.0658905357122421,-0.0608972422778606,-0.5189660061925649,-0.7129319965004921,0.1005079544097185,0.0499587580561637,-0.020264409482479,-0.0393955058563966,-0.1803769022226333,0.1240956959472037,0.1200619012533221,51
1726994766445010000,-0.5565341048255562,-0.4755810379743576,0.5663932355388999,0.57209645214919,9.53973041716218,-2.19923862163499,0.0603125318884849,3.043041229248047,0.8640590906143188,-0.3450746057150072,-0.4717141097113683,-0.6241920878732773,-0.5184530941601397,-0.2665887475013733,-0.0476021319627761,-0.101852461695671,-0.0053448681592941,-0.077026541057229,-0.0519809836605563,0.0711985453963279,-0.0032346281222999,-0.0721622731888433,-0.1854377686977386,0.0022591673996619,0.0862797874324489,52
1726994766484777500,0.3127795628674328,-0.2252455101907253,-0.111454588098824,1.2910361280992626,9.494398406529426,-2.088068695696444,-0.0634778290987014,4.447174549102783,1.00407874584198,-0.2860171054003621,-0.4452092528004749,-0.6389449059057057,-0.558330039235877,-0.319088727235794,0.0562974214553833,-0.0069643724709749,0.1538379780590534,0.4969412213891744,-0.3513602360764518,0.0815017744898796,-0.045478917658329,0.0385247920030495,-0.2134944945573806,0.0730376358178444,0.0494427064877469,53
1726994766524545000,-0.9919720791123808,-0.3633072424471378,-2.46497907769084,1.894286683653295,9.467857021084429,-1.7151472372077403,-0.7494476437568665,2.938676357269287,0.8177070021629333,-0.2324748945885534,-0.4121919877733792,-0.6461779462217528,-0.5987547058021554,-0.3489848375320434,0.0199159774929285,0.0955080017447471,-0.2439052024751901,0.3891612301498651,0.3023965178778395,0.1083450093865394,-0.0881967470049858,0.058020921411924,-0.2581500709056854,0.096433489778731,0.0683251792439958,54
1726994766564307500,-0.3377573522575199,-0.0732581284344196,-0.6064098963677883,2.347839283562452,9.459127186661958,-1.087637561926991,-1.0259383916854858,3.444469451904297,0.6818588972091675,-0.1908921049062026,-0.3791194232633896,-0.6416560971664276,-0.638831874572255,-0.2590072751045227,-0.0004315847472753,0.1128606349229812,-0.3132131319791078,-0.4819190088242292,-0.0176577852329239,0.1176328361034393,-0.1376042515039444,0.0160119131554616,-0.2851757407188415,0.1348588354287203,0.0980896138221491,55
1726994766604067600,-1.013722869279981,-0.28409634308815,-1.387402452659607,2.693853592033684,9.424409509024024,-0.3066452613634988,-1.4006593227386477,2.8047235012054443,0.6534018516540527,-0.1469660497342056,-0.3386961094793828,-0.6331820447654264,-0.6802693295954962,-0.3027480840682983,0.053569171577692,0.071373775601387,0.1873965487897396,-0.0868763194203376,-0.3413070075631141,0.0961608067154884,-0.121893472969532,-0.1005173250262625,-0.2711683213710785,-0.008631393287229,0.109621390455449,56
1726994766643835000,0.1941629741847515,-0.6723655928343534,1.195112213544175,2.906327883456647,9.354188556328417,0.4720002203455195,-1.083371639251709,2.5475759506225586,0.3643048405647278,-0.1159099850732459,-0.3075364333691852,-0.6175403045461544,-0.7145838543291948,-0.2968704998493194,0.042112361639738,0.0358508676290512,0.0943184521198272,0.0302682970136404,-0.1157844339966773,0.0667528510093689,-0.0881506353616714,-0.1047688632572069,-0.2802914977073669,0.059809558394365,-0.0679321841713041,57
1726994766683602200,1.3625199403375383,-0.98254096455276,1.5637686349995434,2.852472082367539,9.323042891958355,1.0557873294841498,-0.2994265258312225,3.04843807220459,-0.1742540150880813,-0.0847077737303956,-0.266859122451501,-0.6123365372873727,-0.73936117246217,-0.2241864204406738,1.20445620268e-05,-0.0001199153484776,0.010000000488758,-0.0962269160896539,0.3859662335008382,0.0485730394721031,-0.0626846328377723,-0.094607251599105,-0.3432583510875702,0.0583222424460574,-0.1348671557324938,58
1726994766725856300,-0.1820280074939131,1.003229532316327,-0.6814882259666919,2.6009198722705245,9.318024187013506,1.6062483249410986,-1.216782808303833,1.49097740650177,-0.0337991788983345,-0.04949161647444,-0.2138825764508967,-0.6102117425763806,-0.7612138288917695,-0.3577516973018646,-0.0309370849281549,-0.0352157838642597,0.1300906072467565,-0.074297992876172,0.0926613325625658,0.0179638247936964,-0.0069191423244774,-0.2096418079433962,-0.3707536458969116,0.0212392992647946,-0.0090046967079397,59
1726994766765623600,0.2164110463500022,-0.3052273939222097,1.8006556292757392,2.526596160431206,9.221085907784104,2.1813504982449112,-0.9765000939369202,0.907561719417572,0.0439751036465168,-0.0393390734178501,-0.1948239915365296,-0.5923054012750867,-0.7808139954404344,-0.4186557829380035,-0.0378518737852573,-0.0568119548261165,0.0439963781148195,-0.0477227051615714,0.1902759036183357,0.0173216294497251,0.0320695266127586,-0.098275345652597,-0.3816985189914703,0.1380303142048418,-0.0549823300341609,60
1726994766805390800,-0.7216811201453208,-0.4666927981197833,2.4077561382561923,2.504612876681984,9.166473443108796,2.423443682862073,0.0557864233851432,0.5804358124732971,0.2232997417449951,-0.0312761012301273,-0.185029608345833,-0.5849810283738835,-0.7890393878662542,-0.6575573086738586,-0.0166216865181922,-0.0820366144180297,-0.0221720843195915,0.1008317795366048,-0.1691711562693119,-0.0050697005353868,0.0904973000288009,-0.1978097514555789,-0.3974038958549499,0.0942797914767172,-0.1020059470156673,61
1726994766845158100,-0.4332476246356964,-0.0196487033218145,1.0552432126700877,2.583839265871048,9.166995421156289,2.336741989356279,0.4753963649272918,0.1353926509618759,0.3208065927028656,-0.0208326964638174,-0.1830927506328001,-0.5893524915985466,-0.7865791401092312,-0.4548963606357574,0.0594777688384056,-0.0807375982403755,0.1951660137474536,-0.0398766678363084,-0.0454606419811025,-0.0326220020651817,0.1168019250035286,-0.128428610584978,-0.3860804140567779,0.1018641365253366,0.0015330342365778,62
1726994766884925400,0.4618178855597972,0.2071136411726474,-0.4965054603204131,2.668750714959204,9.18623846628666,2.158979530352354,0.3648311793804168,-0.1451117247343063,0.1014650389552116,-0.0169158433780079,-0.1871524467869287,-0.595732018739705,-0.7808913397254454,-0.3951965272426605,0.0719849318265914,-0.0787671208381652,-0.0631201807796955,-0.2591892808467149,-0.1126011277854442,-0.0473723001778125,0.1677589267492294,-0.1402326008889358,-0.3277712762355804,0.069327195893391,0.0977491937534883,63
1726994766924693500,0.4905032972961664,0.1964858641743659,-0.6304333076424896,2.6895947655454275,9.194470288059115,2.097181391956657,0.0187542382627725,0.2814453244209289,0.0696955174207687,-0.0145323688542655,-0.1872166059356432,-0.5983506054984714,-0.7789192911377404,-0.4371756613254547,0.0650686472654342,-0.0489955805242061,-0.1034942767441272,0.1975309893131256,0.3007680764257908,-0.0662707015872001,0.1890282034873962,-0.0086189476517203,-0.2948110997676849,0.1252673152761533,0.0479761821657186,64
1726994766964460800,0.1805602730289101,0.1092564935326576,-0.5165824720568954,2.6739263640314337,9.180095725747943,2.178607044755667,-0.2206927686929702,0.4694640338420868,0.0222807712852954,-0.0090771004820258,-0.1813424363114396,-0.5966882545299728,-0.7816620535488082,-0.712893545627594,-0.0110745886340737,-0.0183589085936546,-0.1484837575495243,0.0881692818403244,0.1681505810499191,-0.0784360989928245,0.185793250799179,-0.0582683431346202,-0.2700702846050262,0.0657052836357615,0.0856090759634971,65
1726994767004228000,-0.2033952051714062,0.0004559270739555,0.230261000265181,2.6402432901382444,9.154670777112244,2.3219576772004364,-0.1969304680824279,0.5926927924156189,0.0810828357934951,-0.0029469698520186,-0.1734071729069087,-0.5929106667356568,-0.7863702145040463,-0.6768324971199036,0.103797934949398,-0.0294977780431509,0.3164876236051321,0.1008078141391277,-0.3039232525210827,-0.0759374648332595,0.1916281580924987,0.0108491326979594,-0.26406991481781,0.1081596199403516,0.0636437525626504,66
1726994767043995400,-0.3064791475489735,0.0089268182992935,0.0664727060779929,2.6424717798426745,9.131236125510933,2.410029343885183,-0.0036902702413499,0.4622388482093811,0.2041053771972656,0.005339664819279,-0.1667148117406927,-0.5910405008628227,-0.7892076424962768,-0.7518236041069031,0.1083938106894493,-0.0332262702286243,-0.0778635764032602,0.1184182896316051,-0.2101589271526783,-0.0568369477987289,0.1669069975614547,-0.0300691120465751,-0.2912145853042602,0.0853444884768687,0.0661600690654013,67
1726994767083762700,-0.2732636911675334,0.1919406219601631,-0.1282128306761384,2.689312733733654,9.10070537816882,2.472885028509796,-0.0922642573714256,0.3753680288791656,0.2610718309879303,0.0138791873580894,-0.1629776754424537,-0.5893693510602448,-0.7911318067500217,-0.6619166135787964,0.123883917927742,-0.0474089346826076,0.0410924733668565,-0.0316407544106245,-0.146038264093548,-0.0124211488291621,0.1328458338975906,0.0039442435429285,-0.32871875166893,0.1371918906193226,0.0688014641193905,68
1726994767123529700,-0.1334179981037974,0.0960445452600717,-0.1325555360555648,2.7321739703387022,9.073598175534606,2.5249615449666973,-0.0776950195431709,0.2917993366718292,0.2293684631586074,0.0194869080733905,-0.1612887910588299,-0.587578685535756,-0.7926900448448575,-0.5333861112594604,0.123053066432476,-0.0839904472231864,-0.1601122360229492,0.0389893636077642,-0.0725287912465632,0.0345372781157493,0.1573988050222396,-0.1244407465252094,-0.3708770275115967,0.0682931812371127,0.0535823087768163,69
1726994767163297000,-0.2020841225728392,-0.1883931586116552,-0.2436003743097186,2.785277784016728,9.049332918328046,2.55385533875674,0.0070417402312159,0.1970472335815429,0.2015697658061981,0.0250231688224191,-0.1604766979908513,-0.5865465469470148,-0.7934634116710237,-0.0786201804876327,0.1217798665165901,-0.1609729081392288,-0.1325111123919486,-1.526433906731009,0.2541046710588038,0.0741930603981018,0.1644116640090942,-0.107777488754969,-0.3903951346874237,0.2086610167451202,0.1393164632915519,70
1726994767203064300,-0.7416004571020602,-0.4258551762968302,0.1272366791203618,2.847600092417001,8.997696839115022,2.6651509369015693,-0.1959102153778076,0.7451786398887634,0.4876122772693634,0.0364523578009153,-0.1555816388221531,-0.5830175639779972,-0.796590380134344,-0.4423552453517914,0.1418207436800003,-0.0571589022874832,-0.3543383385717868,0.6948124024420976,-0.6222422562718392,0.0931812152266502,0.2011668980121612,-0.1796642923035658,-0.3679264485836029,0.0892849514646455,0.0748769024424022,71
1726994767242832400,-0.2395683423146605,-0.1890963384449482,0.2653542332172394,2.963870556364953,8.916410302525758,2.8077529429361223,-0.0951206162571907,0.7711318135261536,0.5722813606262207,0.0531561554781989,-0.1504427549472781,-0.5781102086375035,-0.8002061910004272,-0.4956269860267639,0.006398890633136,0.0146205471828579,-0.3008709522783756,0.0922948373377323,0.3597917816720902,0.1092689558863639,0.3197475969791412,-0.3070582260785624,-0.3755024969577789,0.0489015031499788,0.0427320298679638,72
1726994767282599700,-0.6527794333547353,-0.0875292303711175,0.1517570801317691,3.076459701451659,8.848212380090356,2.9008497443065044,0.1468197405338287,0.953546404838562,0.7147494554519653,0.0730581588385804,-0.1431957530023091,-0.575840951305332,-0.8016013821434167,-0.2507120668888092,-0.1039952039718627,-0.0097686806693673,-0.3504366549581289,-0.4519277751863002,-0.069608519885689,0.1334155350923538,0.3838981389999389,-0.1852746064660139,-0.431409478187561,0.0657008175231982,-0.0843955628547351,73
1726994767322367000,-1.2752458537712692,-0.3883405614167451,-0.8908128211870789,3.286973506456613,8.741559931576251,2.991874415577948,0.0445238202810287,1.2004587650299072,1.1796209812164309,0.1003739660617655,-0.1372986005347304,-0.5732416217529812,-0.801541105680394,-0.3198924660682678,-0.1117141619324684,0.0725144073367118,-0.4514250863611698,0.0618769027203321,-0.4420376648128032,0.1372473537921905,0.3889575898647308,-0.0494094207060756,-0.4442824423313141,0.0531999857951886,0.0433850047508254,74
1726994767362134300,-0.7996820591926574,-0.6790946088284253,-1.241407589316368,3.591919745349884,8.549135325491427,3.19073694575578,-0.0824357271194458,1.5138500928878784,1.5541712045669556,0.1378995611435924,-0.1310134105257737,-0.5658207982209899,-0.8022880658089603,-0.1655313670635223,-0.0647732391953468,0.1853489428758621,-0.5168430226892232,0.3177262254893779,0.4486044759824871,0.1535804122686386,0.3675132989883423,0.0185611900712538,-0.4365881681442261,0.0758877006198745,0.0422379992733243,75
1726994767401901600,-1.2338532284140586,-1.3674854537904262,-1.661060111580789,3.999455128841102,8.273409920385479,3.424239412160217,-0.0467657819390296,1.1885267496109009,2.0229058265686035,0.1822335709989259,-0.1281331248139479,-0.5558725333717239,-0.8008610665091108,0.0268785543739795,-0.0301979500800371,0.284972608089447,-0.5074117619991302,-0.4567442355573177,-0.6009855332314967,0.1945628970861435,0.3208332359790802,0.0242911633993731,-0.457848846912384,-0.0134147476855549,0.05468370784719,76
1726994767441668900,-0.615595657864213,-1.7554057439684867,-1.626850675725937,4.43240172470361,7.8999746671557425,3.7569419652462,-0.4866909980773926,1.9450780153274536,1.9214109182357788,0.2290103079028203,-0.1278618273937234,-0.5404633344308873,-0.7994405069983291,-0.1721296161413192,-0.1691324561834335,0.3246034979820251,-0.7705471501231194,0.40379239757061,0.1040121631383895,0.1970973759889602,0.2980351448059082,0.0249705582149908,-0.4583500325679779,0.0325977971238433,0.0455431508990935,77
1726994767481436000,-0.6129661861434579,-2.687522343185544,-2.445804421621561,4.670688502775133,7.438066180703044,4.362362558315694,-0.9664301872253418,2.236680269241333,1.8830939531326287,0.2804252633983169,-0.1172804469964966,-0.5136406454632596,-0.8023590811487994,0.1681185066699981,-0.1749329715967178,0.2194872796535492,-0.1196627367347478,-0.5509428606897592,-0.3868737037345767,0.1774719655513763,0.2486624419689178,-0.0496014178805286,-0.4581120312213897,-0.0421893195596989,-0.0956565871221013,78
1726994767521203200,-1.0693854275301098,-1.204023322817683,-2.673426013293862,4.842796589279175,6.801516582137346,5.143642991638183,-1.880121827125549,2.299483060836792,2.0290210247039795,0.3280875944890843,-0.1128218123817281,-0.474361062855208,-0.8090804835607983,0.4023546874523163,-0.2881712317466736,0.1844213753938675,-0.2239443644642829,0.0281418063789606,0.0922292247556149,0.1528615355491638,0.2411930561065673,-0.1755368553763255,-0.4787451028823852,-0.0803034255697391,-0.1564049607365392,79
1726994767560964600,-2.6803093430668112,-0.5371902296692133,0.4273626582503319,4.906168698993325,5.957513150659203,6.050449208509922,-1.2059165239334106,1.3189237117767334,3.2333908081054688,0.3871317491244132,-0.1056477368752877,-0.4246781266833757,-0.8115516165629133,0.2445661425590515,-0.2409108728170395,0.1359709501266479,0.6733698014408349,0.2847580218672752,0.0213093300104141,0.1172047406435012,0.2406537681818008,-0.0160555331014795,-0.4214138686656952,0.0359040104788262,-0.0813374265262857,80
1726994767600733000,-1.0069751485854386,-1.342546827366948,1.2618114949196575,5.559399967768788,4.975448571446537,6.364618618300557,-0.5957329869270325,0.5706549286842346,4.104245185852051,0.4528236284120528,-0.1312546824902604,-0.3978278178574528,-0.7870552945867738,0.6621806621551514,-0.2144593000411987,0.2895022630691528,0.3351888169437647,0.5085562558591366,0.1006591994486749,0.1044591963291168,0.1702961772680282,-0.0067010873783525,-0.3604040741920471,0.0376563454553135,-0.1320243517883121,81
1726994767640534000,-0.6878302884697913,-1.9411025031030176,-0.370328519386053,6.15364304100275,3.748125913845002,6.652413815906644,-1.4373173713684082,0.3237973153591156,3.9890520572662354,0.5162016243075757,-0.1653896947884285,-0.3653320818050069,-0.7567790716582129,0.3746250569820404,-0.1986885815858841,0.3174346685409546,0.202248665484786,0.3104126876056194,0.2282009989954531,0.0743977203965187,0.1656875908374786,-0.1609997046482749,-0.3332328498363495,-0.0749827146041672,-0.3091504125848412,82
1726994767680302300,0.303669643086195,-0.6361874872550368,2.4311539649784564,6.538958701640367,2.402958674846589,6.902042656725644,-1.1093759536743164,0.4062354862689972,3.823124408721924,0.5705907188326106,-0.2018606954563953,-0.3276370083826078,-0.7254877517898363,-0.0382764786481857,-0.268767386674881,0.3250747323036194,0.8302654135048388,0.6185837337642908,0.5746423007071018,0.0089743677526712,0.1499784290790558,-0.113799854317028,-0.2996143698692322,-0.0462052863359451,-0.3012540881107561,83
1726994767723531000,1.972390206292272,-0.477405549987778,2.9999826109707355,6.601395576331019,0.9055186612792312,7.195276245993376,-0.5955341458320618,0.8972184658050537,3.268265724182129,0.6344383778296652,-0.23079056127917,-0.2826282563219338,-0.6814286501418784,0.4120081067085266,-0.1828554570674896,0.3454347550868988,0.6636725832909345,0.2602098560661077,0.277151053994894,-0.0223608203232288,0.1723967045545578,-0.1340751103056594,-0.2524208426475525,-0.0258579423586372,-0.3006736213416792,84
1726994767763568400,2.1696377024889,0.3440089599981903,2.8707413140296936,6.364943027949333,0.0220046964300097,7.460388487148284,-0.3394257426261902,1.0672587156295776,2.670865535736084,0.6766288685548667,-0.2387529080570207,-0.250246049000128,-0.6500363863240706,0.2177830040454864,-0.2449361383914947,0.3384185433387756,0.465734766742587,0.8138263198792934,0.4724550149083137,-0.0531842373311519,0.1020121797919273,-0.140300606357539,-0.213101178407669,0.0491868776963092,-0.3046564621664583,85
1726994767803337200,2.7509651800483463,0.1901137718591839,2.121205972275138,6.013758184972405,-0.7014253908410668,7.714473722854256,-0.3712117969989776,1.0819987058639526,2.1838467121124268,0.7079455523760776,-0.2432754895793938,-0.2179181794446417,-0.6262123637205511,0.502527117729187,-0.1633328944444656,0.3039303123950958,0.7038280680686235,0.0994102223008871,0.029630145240575,-0.0766504779458046,0.1270253211259842,-0.2806254886398092,-0.2289244085550308,-0.0666309790793573,-0.356271242863126,86
1726994767843105500,3.7350931215316057,0.6190787507396192,2.1421488070607184,5.579249162098765,-1.1766284623485057,7.978590523231029,-0.0041814520955085,1.1936604976654053,1.3679149150848389,0.7204202814621566,-0.2430115466840039,-0.1847984524234826,-0.6227275613197882,0.3354725837707519,-0.0413236208260059,0.3251679837703705,0.5413152006447315,0.3358212696284055,-0.1746573325954377,-0.0752666741609573,0.1559177637100219,-0.1870809435019269,-0.211822897195816,-0.0232091859820997,-0.19094107126249,87
1726994767882874000,2.104888459202647,-0.0427642059713602,1.1870312714844942,5.133680400550365,-1.375201434995234,8.241634141418338,0.1965110450983047,1.173073172569275,0.9823086261749268,0.7269947010826482,-0.2334108506398065,-0.159100569965376,-0.6258474695431901,0.2974056303501129,-0.0715887919068336,0.3272872269153595,0.2096715089619159,-0.2508604284405708,-0.0201788646757602,-0.0661784261465072,0.1146899610757827,-0.1877603406008333,-0.1933172643184662,-0.0692217353580752,-0.1818005188809707,88
1726994767922643700,1.0794228374198078,0.4286171883560717,-0.3808592657506465,4.72546872523278,-1.4964312749162316,8.461738781589268,0.0491780787706375,0.9183796644210817,0.6089592576026917,0.7348836612946213,-0.2220203062508447,-0.1388465781405055,-0.6255994069007587,-0.0408190004527568,-0.0261204373091459,0.306361585855484,0.3327192119598388,0.3394195863813161,0.0635246699273586,-0.0944169089198112,0.127204030752182,-0.2023854070743545,-0.1822840869426727,-0.071551918171579,-0.2949563396734185,89
1726994767962412000,0.3931538069173693,0.5374415740817785,-1.6009949344575405,4.516306334836781,-1.5792184253267942,8.56034061011672,0.0304899550974369,0.0640413835644722,0.1833675652742386,0.741758441989502,-0.2165972491737964,-0.1289562927682047,-0.6214904431779642,0.1021719723939895,0.0336701422929763,0.3792504370212555,0.0910994900733232,-0.3025514527112245,-0.0732253952085971,-0.1142451912164688,0.0290214270353317,-0.0791831345692277,-0.1624703705310821,-0.0062215973365411,-0.1776786531779915,90
1726994768002180600,0.0376043389901518,0.3955781114548444,-1.2785235602676868,4.471275937499105,-1.6112340043991804,8.577994924750923,-0.2170730978250503,0.2545947432518005,0.1457083374261856,0.7428328347372737,-0.2161168583246196,-0.1262436824285285,-0.6209310964374585,0.2309637814760208,0.0346781983971595,0.3106612861156463,0.088861940279603,-0.2184159564316272,0.3355038742423057,-0.1075561419129371,0.0888285115361213,-0.2304487413896247,-0.1547533869743347,-0.0768089345174841,-0.1428955364878755,91
1726994768041949200,-0.5170666023120284,-0.113265436913073,-1.2100970897734165,4.350482735429704,-1.801646978400648,8.602194715505838,-0.5571235418319702,0.3237638473510742,0.3109567761421203,0.7450081092159312,-0.2192732290107226,-0.1154529348605042,-0.619316424717044,0.1126104965806007,-0.0300041250884532,0.2869029939174652,0.1400929458230733,0.0088087448775768,-0.2820620607815682,-0.0450990721583366,0.0311654824763536,-0.1599207320388406,-0.138674646615982,-0.0494579679889604,-0.0601748754422645,92
1726994768081717800,-1.0851289401069282,0.0091220486104488,-0.5188783279091119,4.251759618610143,-2.052872440761328,8.595268131113052,-0.5638635158538818,0.158399224281311,0.3979924917221069,0.7471586745902067,-0.2257780808062978,-0.1038630459148172,-0.6164337762524286,-0.3139829039573669,-0.1702179610729217,0.07312773168087,-0.0263274504333734,-0.1811456717014312,-0.0622995120465755,-0.0454380884766578,0.0649763271212577,-0.1856504905737005,-0.140896275639534,-0.0614433929741615,-0.222759465528652,93
1726994768121486000,0.4611778340905904,-0.0143821610957384,-0.0748515351057052,4.127758560410141,-2.3503407449893654,8.579504160270094,-0.7842844724655151,0.3928579986095428,0.4074550867080688,0.7500191621055293,-0.2333388015962623,-0.0901111348702563,-0.6122943967689174,-0.0309301503002643,-0.2449770420789718,-0.0116630541160702,-0.1897743838369846,-0.6185720433264971,-0.3065488517843187,-0.0435425266623497,0.0010659609688445,-0.0664641209127381,-0.1316685974597931,-0.0030456604393664,-0.1607459673492237,94
1726994768161255000,1.4705369552031158,-0.2048638164192438,0.902092047831416,3.9289860466033217,-2.6518673846974967,8.584931446015835,-0.5997071266174316,0.5399599671363831,0.0685917884111404,0.7502475301062773,-0.2389702716035426,-0.0719966333888756,-0.6122403453170089,0.2663595676422119,-0.1815614700317382,0.084633320569992,-0.2318471004128456,-0.2670493466973304,-0.2404056699216365,-0.0491012409329414,0.0287640541791915,-0.2331619824036955,-0.1334014236927032,-0.0727235466336831,-0.2228706160192377,95
1726994768201023200,0.6567296322852373,-0.1573380951344966,0.8717904330700635,3.784963360115885,-2.741142289692163,8.621518424656987,-0.0285591296851634,0.2544825673103332,-0.1187994629144668,0.748791775206792,-0.2378060564526407,-0.0622348401052973,-0.6155372504022353,0.4344511032104492,-0.1019372195005416,0.1262329667806625,-0.001546060398221,-0.3960726169735193,-0.024816607479006,-0.0484745502471923,0.0163032095879316,-0.2278153241461142,-0.1342600136995315,-0.0142694191529764,-0.1891024393921717,96
1726994768280561400,0.0271773452609777,0.1283183368772268,0.0074555767029523,3.7483290352016687,-2.7130086666196584,8.646386323931813,-0.1244145482778549,0.0309225469827651,-0.2557099461555481,0.7439998636458768,-0.235799319034945,-0.0596293111243238,-0.6223402033583928,0.1636113673448562,-0.0011308244429528,0.2930569648742676,-0.1061725560426712,-0.1516577114105224,0.1686158604741096,-0.0403047204017639,-0.0059746028855443,-0.1754527024905197,-0.1070981845259666,0.0412072314534801,-0.1467602582251653,97
1726994768320330000,-0.1597591848015785,0.0952072176530957,-0.1658271065384149,3.74702145973444,-2.736161286409199,8.639654969850183,-0.202967882156372,0.1447130143642425,-0.1697386801242828,0.7406753483547281,-0.2370292631742633,-0.0575962144243206,-0.6260190166681692,0.3408468663692474,0.0601840950548648,0.2953414916992187,0.2950087822467088,0.0488180991828441,0.414632794406265,-0.0530707314610481,0.0018017659895122,-0.1771231381870806,-0.0915434435009956,-0.0333205721401725,-0.1206939794786274,98
1726994768360098300,-0.1820136867076158,0.1056128763332962,-0.2672095056951046,3.7172017832711335,-2.7865198930323123,8.636440099456905,-0.2098561376333236,0.0525315925478935,-0.1334595531225204,0.7380670807163593,-0.2382798366986038,-0.0537290659341086,-0.6289617044383148,0.4005924761295318,0.0695526152849197,0.259032130241394,0.2866232312172651,-0.1737754351943731,0.0285879427112638,-0.03798533603549,0.0059348233044147,-0.1119137300431728,-0.0738715901970863,-0.0239201860789558,-0.0685265881341882,99
1726994768399867100,0.0824807148098945,0.0220972655177116,-0.1091062714070081,3.6969162433505054,-2.8474048621058463,8.62528157658279,-0.279322475194931,0.2118840217590332,-0.0880354866385459,0.7355685424603887,-0.2402792845446942,-0.0499890039501007,-0.6314315820473574,0.5998483300209045,0.0578783266246318,0.3012815415859222,0.0245300456225872,0.0437064552575349,0.0093967738986015,-0.017941853031516,-0.006618894636631,-0.0732611652082996,-0.0636529549956321,-0.0001347408579051,-0.0261913664309307,100
1726994768439635500,0.2400850596651434,0.0331228096619248,-0.2085030497044324,3.640316988772154,-2.934296379095316,8.620230722934007,-0.2322667092084884,0.0288263726979494,-0.0989762470126152,0.7334585180799,-0.2419820493713156,-0.0439912748318841,-0.6336781654130732,0.3942038118839264,0.0902064368128776,0.3288366794586181,0.0402928474217653,0.1861865884780883,-0.2127040085256099,-0.0095275752246379,-0.0080641554668545,-0.0846774850686546,-0.0543079935014247,0.0077073029955412,-0.0678349663079483,101
1726994768479404000,0.5054232185304165,0.0637605245098471,-0.0826490571141242,3.6966999702513217,-2.967178950260579,8.584908065140247,-0.1543634533882141,-0.1447075754404068,-0.1881584823131561,0.7306679112326729,-0.2456124463729349,-0.0443399907670997,-0.6354785101366629,0.3277848362922668,0.0549760647118091,0.2472117096185684,0.2174830594956874,-0.020652911928296,0.019021584399417,-0.0160658583045005,-0.0161622855812311,-0.1745937841062434,-0.061511356383562,-0.0691608765828888,-0.0400412107482552,102
1726994768519172400,0.5387877279937267,0.1901058077484369,-0.3343418447256088,3.7737680123627184,-3.0097271753937003,8.53642840413153,-0.2874267995357513,-0.1713483035564422,-0.2360386848449707,0.7268420305777415,-0.2505001849332544,-0.0448658827780246,-0.6379165581755974,0.3606645166873932,0.0199079867452383,0.2926512956619262,-0.1013566801935434,-0.2715478271603584,0.0079775182178243,-0.0013872380368411,-0.0098532624542713,-0.0497291907123522,-0.1068172827363014,0.0070628727495612,-0.0885490932044573,103
1726994768598706400,-0.3754316877439618,-0.3203606656461954,0.1061889226555824,4.059808767516911,-3.1061905305877326,8.368985679090022,-0.1441695690155029,-0.3725550472736358,-0.2566111981868744,0.7151914545716039,-0.266153121585128,-0.0496287098757029,-0.644360724173616,0.2937440574169159,-0.1625746190547943,0.4008728265762329,-0.0136003630682826,0.435046198490262,-0.1900549543440342,-0.0064007509499788,-0.047257050871849,-0.1143352307022083,-0.1052303537726402,-0.0142012378711486,-0.0197824675030075,104
1726994768638476000,-0.8208814990878105,-0.2049643541842699,-0.0824544113248586,4.203888444888592,-3.1268662388697264,8.289777702340484,-0.1845122426748275,-0.2966223955154419,-0.1055337265133857,0.7117572506509421,-0.272827337288813,-0.0538906163893987,-0.6450292986479261,0.7395183444023132,-0.1788317412137985,0.4331437051296234,0.1673012707442045,-0.0761567724853754,0.0546592172933276,0.0174036175012588,-0.0823140367865562,-0.1149585228328593,-0.1255544573068618,0.0207933204794069,-0.004212109832032,105
1726994768718041900,-0.6644763008892536,0.2926607578158378,-0.1880073741644621,4.405117119675874,-3.238875538241864,8.140946738788484,-0.1753046661615371,-0.4678060114383697,0.0508982837200164,0.7087982542568709,-0.2855845684323439,-0.0580404039007761,-0.6423999962481138,0.4082557260990143,-0.1522171199321746,0.4308151006698608,-0.1929910077959299,0.5051765502929687,0.1948568016678094,0.0617534667253494,-0.0584535263478755,-0.0925734168170951,-0.1417949795722961,0.0082243131777911,-0.0457515283861896,106
1726994768761537500,-0.2443912324264645,0.2555892105281352,-0.2522258715748787,4.58567710044384,-3.3436601470574736,7.997617295262217,-0.2801893055438995,-0.5407347679138184,-0.001012765453197,0.706791507729233,-0.2972951737930884,-0.062052940531036,-0.6389137494266869,0.53608638048172,-0.0306114312261343,0.4290907084941864,0.3293248933464288,-0.1294914723098278,-0.3762287564057857,0.0111228832975029,-0.0397735014557838,-0.1603882034201174,-0.1210760176181793,-0.0232120446594664,-0.0484971099004382,107
1726994768801307100,-0.0167366152673959,0.3294388751149177,-0.1164741698265075,4.749924244314432,-3.4264883601307865,7.865607702651619,-0.295163631439209,-0.3813672065734863,0.0203304104506969,0.7044128941396504,-0.307594347810094,-0.0659645438906852,-0.6362680633104311,0.2852307260036468,0.0099505353718996,0.4677498042583465,0.1025590417206287,0.6500052924662828,-0.3811182089477777,-0.0179907958954572,-0.0077920001931488,-0.1217356431518215,-0.086650013923645,0.0005734017032285,-0.0061618876263586,108
1726994768841076700,-0.0400374113559722,0.1830301702737808,-0.3257388515532016,4.84909072098732,-3.5599019743204114,7.744920883566141,-0.4280431568622589,-0.358383297920227,0.1255224198102951,0.7029201826733217,-0.3174739315136167,-0.065796817990222,-0.6330753310962861,0.0842973664402961,-0.0216980967670679,0.4301197230815887,0.2141153366282582,0.1365899061381816,-0.0748163907270878,-0.0087574981153011,0.002033494412899,-0.0557190650771837,-0.075891189277172,0.0067341419770498,0.0297574614146724,109
1726994768880846600,0.5377765051245689,-0.0316673501566052,0.2157727484464645,4.943897248885035,-3.7047833234637975,7.615959572610259,-0.3925708830356598,-0.3455249965190887,-0.0036966579500585,0.7004514609518268,-0.3278906158204449,-0.0646673047581804,-0.6306136208103676,-0.4335657656192779,-0.1091932207345962,0.2639521956443786,0.3213257112860679,-0.0612520488202571,-0.0790372963577508,0.0299318097531795,0.0030562460888177,-0.0710434571927879,-0.0713811293244361,-0.0184777621295885,0.0622465762829408,110
1726994768920616200,0.4116191456735134,0.0160948102325201,0.3792646900355815,5.068259541612863,-3.787710612997413,7.492420871224999,-0.2488327920436859,-0.403082937002182,-0.0745297223329544,0.6975260618589759,-0.3369690388224916,-0.0666685903886423,-0.6288597222121716,0.1141087934374809,-0.1567713916301727,0.2569592893123626,0.0635614948064088,-0.4356587774306535,0.0606342091828584,0.055855106562376,0.011855368502438,0.0312521546685486,-0.0513163171708583,0.0385600870787166,0.0559557964425068,111
1726994768960385500,0.3364765186667442,-0.1389665721416473,0.3102057668566703,5.201012646067142,-3.848426655244827,7.36949591782391,-0.2739691734313965,-0.3627788424491882,-0.0838038995862007,0.6939151390905197,-0.3455981587905242,-0.0694420694576379,-0.6278706956538138,-0.1893964856863021,-0.1826895475387573,0.2757468223571777,0.0924815920814871,0.2868950338959694,-0.0409749844670295,0.0469495244324207,0.0279694758355617,-0.0233480966958682,-0.0073323887772858,0.0245572989556938,0.0616800421410938,112
1726994769000155100,0.2947749734908342,0.0116913145765662,0.933312531003356,5.179118209645152,-3.924714652894437,7.344639708986878,-0.2478916496038437,0.3284585773944855,0.206834077835083,0.6926227604517524,-0.348214386092702,-0.0653783575705433,-0.6282882722583025,-0.805385410785675,-0.2132334411144256,0.2175571471452713,0.0049175826579332,0.1365402217775583,-0.1718329958897083,0.0234019327908754,0.0614033415913581,-0.1200415069192647,0.0500646829605102,-0.0725308051071362,0.087524015339883,113
1726994769039925800,0.5250006101816892,0.2805632005259394,0.6105605863064527,5.072493233659864,-4.031977926783264,7.360933841183781,-0.1673489809036255,0.146260529756546,0.0671080872416496,0.6936655716064455,-0.3484095054930063,-0.0575120956439714,-0.6277986766030241,-0.749655544757843,-0.1876625120639801,0.1060965359210968,0.2545250884279608,-0.3133312054008245,0.3330822000533342,0.0081999702379107,0.0855240598320961,-0.0798824602113105,0.0176816061139106,-0.0291033037882996,-0.0320337312170071,114
1726994769079695400,-0.0122673608988523,0.2616644387885928,0.4137380375236272,5.086628141996264,-4.038368212342262,7.347665194287896,0.0519663132727146,-0.1465354561805725,-0.0859844908118248,0.692911207274311,-0.3493643156044375,-0.0576013135514422,-0.6280929226303431,-0.4412726759910583,-0.1711788773536682,0.1517844647169113,0.195719263716042,0.2409218027502298,0.3123907096803188,0.0055049546062946,0.0837966948747634,-0.0219176346344873,0.0141261480748653,-0.0136769126029452,0.0298616501582204,115
1726994769119465200,-0.2109814225167036,0.095907767137885,-0.021863456761837,5.137350613495707,-4.01267204554975,7.326423668816685,0.0109939146786928,-0.124112069606781,-0.0042394390329718,0.6924021871287898,-0.3504082639375394,-0.0605839297205277,-0.62779207434604,-0.1876553148031234,-0.2053577303886413,0.2863078415393829,-0.1008829252019524,0.1053209076493978,-0.006741875475645,0.0205609817057847,0.0323896706104278,0.0371940502893645,0.0158870443701744,0.0215161046288907,0.0709387136101024,116
1726994769199004200,0.2569710202753543,-0.0803022017270326,-0.1408025553971529,5.122949747699499,-4.042214074115455,7.320265146186947,-0.0821676328778266,-0.0957315638661384,0.0490681193768978,0.6937526349420288,-0.3509979555953291,-0.0597560519955821,-0.6260487576942068,1.1865017414093018,-0.644225001335144,0.4709362089633941,-0.8114876477986573,-0.5895885254263877,0.388855525201559,0.0255133435130119,0.0150472419336438,-0.0447502834883518,0.0001733934041112,0.0020071790997026,-0.0534255518791032,117
1726994769238773800,0.2564782683223486,-0.009535597847402,0.0232218856334686,5.146636328235268,-4.0559684587016696,7.296001642546058,-0.0471256338059902,-0.0428854264318943,0.0189847685396671,0.6933688759413666,-0.3526604310913503,-0.0603162276748951,-0.6254856174133917,3.197589874267578,-0.6000403761863708,0.6253421902656555,-0.3718751643061637,-0.9640981298893688,0.1619183355968445,0.0045082229189574,0.046033501625061,-0.1373517573561519,-0.0161256603896617,-0.0302720598733052,-0.1023919780580326,118
1726994769278543400,0.1083019692867994,0.004501987594366,-0.1735311050444841,5.161934435132146,-4.07254959114641,7.275930329897999,-0.0567311383783817,-0.0305409394204616,0.0460776686668396,0.6931729656971529,-0.3540795818683966,-0.0604850248149128,-0.6248844241649488,5.026410102844238,-0.2883349061012268,0.7437082529067993,0.1764442160122096,-1.8859125308007,-1.6953158707953988,-0.0029615792445838,0.0270792506635189,-0.1640924647655338,-0.0441714785993099,-0.0476419224097859,-0.1115464585002046,119
1726994769318313200,-0.01930266636312,0.0862833219632506,-0.0445545965194702,5.183446594238281,-4.094775451479852,7.248109426036477,-0.0819389969110488,-0.0240901056677103,0.0359615944325923,0.6927880900669205,-0.3560409666461043,-0.0606968256574624,-0.6241758527128587,2.988882780075073,-0.1888511478900909,0.5044798254966736,0.6004137246929109,1.6329332105100154,-1.4161127065762875,-0.0167398285120725,0.023620257154107,-0.1489800075007137,-0.0706720128655433,-0.0946884818754624,-0.1465727910953573,120
1726994769358082800,-0.2332020221531391,-0.024008067575097,-0.1175742400228977,5.18665503489077,-4.1344209409087895,7.223264907637238,-0.1335866600275039,-0.0296764615923166,0.0761149674654007,0.6925061427171312,-0.3580084884850775,-0.0595474762782191,-0.6234735600774213,0.5424385666847229,-0.0617754198610782,0.190604493021965,0.5306638966403902,-1.21520055039227,-0.9164785928413272,-0.0398816689848899,0.0175833944231271,-0.1247168965854682,-0.0577081106603145,-0.1486067811409942,-0.0951039764743298,121
1726994769397853400,-0.1766360853224992,-0.0838791834309697,0.091679920309782,5.196828053858876,-4.17735115109682,7.191182254678011,-0.111021913588047,-0.0744786337018013,0.0584480091929435,0.6921958847702014,-0.3604341426186006,-0.0586426925274563,-0.6225055422685851,-0.7296780943870544,0.0318485386669635,-0.1387931108474731,0.9590307634972036,0.3842208511382341,-0.0608034282699227,-0.0226285401731729,0.0056839142926037,-0.1030828555321786,-0.0456922687590122,-0.0769290354995057,-0.1139655571395996,122
1726994769437622800,0.0443622888177633,-0.1004039095133542,0.2125081936925649,5.190259781384468,-4.214546324764192,7.174202478304505,-0.0698749795556068,0.0192097947001457,0.0700182914733886,0.6924229247432422,-0.3618364139981859,-0.0573749183878226,-0.6215568647757925,-1.746919870376587,0.0583657920360565,-0.3897111415863037,0.7353361360102891,1.5745055714607237,-0.7211509587913751,0.0288105048239231,-0.026803670451045,-0.0785517139310482,-0.043149247765541,0.0224182319672312,-0.0535297383393626,123
1726994769477392400,0.4173240793168544,0.0429866165503859,0.0645300475776195,5.158621365061402,-4.249449003580212,7.176433013835549,-0.0588031150400638,0.0320795960724353,0.0727525055408477,0.6932070548500632,-0.3620123363432251,-0.0552341297945443,-0.620773858618883,-0.142670527100563,-0.0126088885590434,0.0537521727383136,-0.8055307852208614,-0.1163601880580186,1.4771449751660226,0.0347058251500129,-0.0319786593317985,-0.1325006275305524,-0.0214995928108692,0.0139244382152741,-0.0601609428150346,124
1726994769517162000,0.4864613284289836,0.088602704821527,-0.0749590871334075,5.138116921693086,-4.267382427416742,7.180500701665878,-0.0562838241457939,-0.0100412098690867,-0.0776760354638099,0.6930069335777432,-0.3619759564422579,-0.0535701970711048,-0.6211643250169839,-1.578264594078064,-0.0863484665751457,0.0807379186153411,-0.2755675841957331,1.945115245875716,0.5451037792727351,0.0096349846571683,-0.0018060932634398,-0.223671630203817,-0.0289569683372974,-0.0565890117455506,-0.1409457632601261,125
1726994769556930800,0.2221720940947532,-0.0760737703770399,-0.1719499733328819,5.200096115744113,-4.244712038186193,7.149252161443233,-0.0633828043937683,-0.1170816719532013,-0.1854631006717682,0.6904855353545748,-0.3638230965104833,-0.0558779044817778,-0.6226879163362343,-1.0782339572906494,-0.3047565817832947,0.4365603327751159,-1.0914230718150737,-0.6317091727972031,-0.9750845110669732,-0.012635719962418,0.00052875012625,-0.1769673083045519,-0.0346685126423835,-0.0420692185776773,-0.1245865664703771,126
1726994769596700200,-0.7235556818455458,-0.3707338853165507,0.2400327449560165,5.210888143393397,-4.2606995886519545,7.131863219746947,-0.147181898355484,0.1627877950668335,0.08960772305727,0.6887288270328963,-0.3651822636618839,-0.0549370352330507,-0.6239203112990956,1.2345850467681885,-0.1677906960248947,0.0847149491310119,0.9180302061975002,-0.9434212525635958,1.028957263290882,-0.0046476684510707,-0.0204023569822311,-0.1199654825409874,-0.0316272638738155,-0.0146545368798892,-0.0425505586541025,127
1726994769636469800,-0.2371943066596984,0.0053910453885793,0.5633803174585104,5.135730903339386,-4.3221366386502975,7.149390693131089,-0.0385517701506614,0.1550448536872863,0.1679596900939941,0.6901669894452307,-0.3646367358500994,-0.0502251466013001,-0.6230465465286813,-0.7088338136672974,-0.3715674877166748,0.0758701264858245,0.3204572578884661,0.7054734971880913,-0.6137813019186258,0.0122827151790261,0.0272429697215557,-0.2066811680395156,-0.0354207567870616,-0.144984855183633,-0.0829638678174931,128
1726994769676239600,0.3994932390719652,0.0810100577354431,0.2715004808872938,5.111509485274553,-4.332363725893199,7.160549800527096,0.0775626376271247,-0.0974880307912826,-0.0362904854118824,0.6911691702075607,-0.3639821680140575,-0.0493004123706008,-0.6223918739916023,1.1812952756881714,0.0186994448304176,-0.0255700144916772,0.4790183189466595,-0.8285258763611316,-0.6891220818459988,0.0346748158335685,0.0210770014673471,-0.1357654745453968,-0.0451065376400947,-0.0772549064530059,-0.1381029593159444,129
1726994769716009200,0.3288070069521665,0.117551151408255,0.0141454297304153,5.169178414911031,-4.279721099986136,7.150802313494682,0.1434258669614792,-0.2123206257820129,-0.136792704463005,0.6909643864547529,-0.3640582458315624,-0.0535923477624893,-0.622220032574495,1.451213002204895,0.3317868113517761,-0.2585825622081756,0.6791486771032214,-0.1385059688925743,-0.6672519030824303,0.0137716410681605,0.0265703275799751,-0.1689436128574423,-0.0201288666576147,-0.0918384170734323,-0.1537774983097799,130
1726994769795466000,0.0462789360940456,-0.1799704904422163,-0.3891612301498651,5.292640543928743,-4.20815223981291,7.102801960435509,-0.0345392897725105,-0.0841424912214279,-0.0558425448834896,0.6882116391287869,-0.3663642812189194,-0.060291873158057,-0.6233031489869313,-0.6557154655456543,0.0316982828080654,-0.3889135420322418,-0.9739933548294007,-0.247463771739602,2.463222004890442,-0.0449805967509746,0.0164394825696945,-0.1202771331728901,0.0218164958059787,0.0028427428662107,-0.0347653823873144,131
1726994769835232500,0.0921259105116128,-0.0737482500389218,-0.1910463034689426,5.326850272044539,-4.20229591500014,7.080661440297961,-0.0696244686841964,0.0067597804591059,-0.0983295068144798,0.6865563823339178,-0.3677466429236198,-0.0612303253211018,-0.6242224368144481,-1.0073946714401243,0.0935068428516388,0.0072273472324013,-0.1692186486728489,0.6213783329188823,-0.1770943504840135,-0.0491253808140754,0.0437413528561592,-0.0772490247014909,0.0224231518805027,0.0334362161427852,-0.0782406386878807,132
1726994769874999000,-0.2492845574259757,-0.2125786285802721,0.2060638398587703,5.300301872336864,-4.24243211055547,7.076648697525262,-0.098457932472229,0.1762661784887313,0.0900610908865928,0.6860023140340994,-0.3684851145400031,-0.0583955465630031,-0.624667589851562,-1.1954026222229004,-0.3018995523452759,-0.0421782210469245,0.8239037695184349,1.9461942732840776,1.359589439843595,-0.0185113325715065,0.0123985223472118,-0.1545740737812593,0.0198098886758089,0.0089961657707899,-0.0264067056650645,133
1726994769914765600,0.53348494541049,0.2592681913018226,-0.0028904607445001,5.271106757512689,-4.262672350029647,7.086285125398636,-0.0226528644561767,-0.0040495046414434,-0.116854652762413,0.6855156240103041,-0.3681837057934352,-0.0560425088260841,-0.6255943190763424,0.7175890803337097,-0.3050775527954101,-0.035627506673336,0.1209416706293821,-2.09285432253778,-0.0596828998073935,-0.0346666686236858,0.0603352561593055,-0.1325286754481028,0.0409535951912403,-0.0265791167896357,-0.0633758406077744,134
1726994769954532000,-0.2932920414566993,-0.0426560694217681,0.18968962816298,5.292534745466709,-4.23578229727745,7.086438854655623,0.047354307025671,-0.0852089449763298,-0.1112729161977768,0.6839949777618178,-0.3680241100845753,-0.057012545537525,-0.6272629157961479,1.7883909940719604,0.2069451510906219,-0.100307896733284,0.75156012558043,-0.5937585045874119,-1.6800275546401735,-0.0338868089020252,0.0432494133710861,-0.0960938094955869,0.0229134485125541,0.015549348561454,-0.1094785661849658,135
1726994769994298600,0.0838145937621593,-0.0188087453663349,-0.147995681771636,5.320048190814257,-4.207555735224485,7.082651152810454,-0.0069051906466484,0.0016114989994093,-0.0648817494511604,0.6831899665086195,-0.3680125373865463,-0.0587542380435057,-0.6279858057606023,-0.5955435037612915,0.2060835510492324,0.1100760996341705,0.3110704208619892,0.7482336115062236,-1.181952360785007,-0.0156940333545207,-0.0134722311049699,-0.0216776587160187,0.0463369935750961,0.0990851093992125,0.035613763394556,136
1726994770034065200,0.1368091018468141,0.0704036157861351,-0.0909340703785419,5.31897793123424,-4.207733722139895,7.083349071946739,-0.0514091216027736,0.0087711261585354,-0.0226246137171983,0.6824559385742457,-0.3680419654422319,-0.0582649881926331,-0.6288117313563376,0.2728244066238403,0.1084172874689102,0.0264102276414632,-1.0468006707563997,-0.2842056486815214,-0.413423272486031,-0.0264822226017713,0.0352966003119945,-0.0972126300582196,0.041549913585186,0.0362862786615267,-0.0854453459023032,137
1726994770073831700,0.7778513356566429,0.0924406755492091,-0.1709118624567985,5.339932456457615,-4.205230214886367,7.069055758178234,-0.0462836176156997,-0.0725253894925117,-0.1828254461288452,0.6811401661350467,-0.3689732443745165,-0.0586277041391531,-0.6296584168355239,-1.9905503988265991,0.1557070910930633,-0.5248687863349915,-0.7043234503701329,0.6860562645345926,2.912364533272385,-0.0723511129617691,0.0413974076509475,-0.0920778975182678,0.0572605840861797,0.022481944853207,-0.0542143915686989,138
1726994770113598500,-0.0484036731630563,-0.1712850796833634,-0.0875111101925373,5.371312514105439,-4.185413753782212,7.057031558385491,-0.0947082117199897,0.1458356082439422,-0.0951559022068977,0.6784148435758769,-0.3697117792938472,-0.0592006258664981,-0.6321090014815745,-1.0267614126205444,-0.1423111706972122,-0.0354203842580318,0.3544828616090119,0.7825310179054736,-1.258754153175652,-0.0655456408858299,0.0118889529258012,-0.0714068517116596,0.0106468293815851,0.1061479787238407,-0.0529353343764785,139
1726994770153365800,-0.3252110282868147,-0.0157978731125593,0.1180769288480281,5.327446484372019,-4.219095950892568,7.070213696041703,-0.0911314487457275,0.1309151798486709,0.0290307458490133,0.6777428752689073,-0.3693609852155205,-0.0556046061037509,-0.6333602119138156,0.5541405081748962,-0.1950853765010833,0.1015258878469467,0.046126229750365,0.1971761845260858,0.8575117323487996,-0.023889921605587,0.0102551057934761,-0.066136222398933,0.0292198210954666,0.1067258425438776,0.1109074116779956,140
1726994770193132300,0.2211234618246555,-0.0363993471145629,0.0423521180391311,5.315318239682912,-4.2225858388349415,7.0772554312467575,-0.0153756942600011,0.0569580793380737,-0.087631955742836,0.6767979350863836,-0.3690626411139638,-0.0543428874928312,-0.6346528661182342,0.7710267305374146,0.0048792911693453,0.127022385597229,0.3964075480163097,-0.5532990684270859,-0.9284840879336,-0.0186905674636364,0.0184730384498834,-0.0274637335874605,0.0470360964536666,0.1073804522613994,0.016738256951922,141
1726994770232899000,-0.03948211556077,-0.1083145365074276,-0.0167523973584175,5.29999266025722,-4.218756051413715,7.091019752705097,-0.048879224807024,0.1072406470775604,-0.0393852591514587,0.6761416082667413,-0.3682615946755597,-0.0533103722736745,-0.6359040743674099,0.5874454379081726,0.2464508563280105,-0.0991626754403114,0.5316097991883755,-0.668908730378747,-0.8658899768546223,-0.0344026498496532,0.0268008280545473,-0.0521226434538373,0.0302228368818759,0.0572853736789897,-0.0365900747805368,142
1726994770272665600,0.0645633653253316,0.0211921333715319,-0.0984451766610145,5.292462849274277,-4.22645741957128,7.09205786358118,-0.0412480384111404,-0.0078281071037054,-0.049370851367712,0.675434679952366,-0.3683351077245276,-0.0522964186582281,-0.6366965649776771,-0.192883625626564,0.4374082386493683,-0.1915185153484344,0.3334239992283284,1.1321399898678064,0.209082018636167,-0.0518896766006946,0.0429460667073726,-0.0481067314765183,0.0141757177188992,0.064217967687454,0.0186741021190187,143
1726994770312432000,0.1558598392754793,0.0318184490650892,-0.1292559099882841,5.310401826068759,-4.227058308073878,7.07827659098804,-0.0510024018585681,-0.0813981518149375,-0.0632054433226585,0.6741944782081911,-0.3692654779369261,-0.0524532122284993,-0.6374586762059729,-0.4241096675395965,-0.0840500444173812,-0.162521407008171,-1.186090337372571,-1.4088824630618095,1.112959196318686,-0.0530004277825355,0.0381644554436206,-0.0474753154049161,0.0205594711005687,0.0928577958495821,0.1428230283740907,144
1726994770352198700,0.5275824433684349,0.1861494713380932,-0.1960048026591539,5.3629018286347385,-4.214992022705077,7.045815752366185,-0.042127501219511,-0.0715866908431053,-0.1866609007120132,0.6724251879365853,-0.3712188665382544,-0.0544052382046153,-0.6380291531386304,-0.6613243818283081,-0.0409444943070411,-0.2683703005313873,-0.1824780893489718,0.9383359121233223,0.3497939731404185,-0.0270364563912153,0.0427532158792018,0.0039442435429285,0.0040141255594789,0.1371918906193226,0.0688014641193905,145
1726994770391965000,-0.5088865107268095,-0.21931524335891,0.039060675278306,5.358192920291423,-4.2376410768866535,7.035805230483413,-0.2214795649051666,0.2525179088115692,0.0932051464915275,0.6705099147723015,-0.3721968367653135,-0.0523762692955917,-0.6396427070709358,0.2869649827480316,-0.0578952506184577,0.0079742297530174,0.0444251249209046,0.5163637147396802,0.1777677197009325,0.0152116259559988,0.0247245803475379,-0.0298571863289456,-0.0278340280055999,0.1576029566157609,0.0686972776591312,146
1726994770431731500,-0.1728214954704046,0.2057517051696777,0.3684750004738569,5.269777554735541,-4.320935446166992,7.0519041323691605,-0.1131531372666359,0.1489159017801284,0.1008783355355262,0.6711205043592521,-0.3719565237260674,-0.0458399667269914,-0.6396439334919078,-0.2847443222999573,-0.2065233439207077,0.2554517388343811,-0.941570656260848,0.3342775473177433,-0.2309823002770543,-0.0007375286659225,0.0413702763617038,-0.0909790146319661,-0.005592203233391,0.0248758542524185,0.0582567714278353,147
1726994770471498000,0.2352870117336511,-0.0223696527183055,0.2536228788912296,5.250577179703116,-4.334628163693845,7.057820078414678,0.0337078422307968,0.0625281184911727,-0.002540272893384,0.6712667749559593,-0.3717059325438604,-0.044564861310022,-0.6397261748821225,-0.2844843864440918,0.0010915836319327,0.018654104322195,0.5015684427984058,-0.1696937188386917,-0.5751648632764816,-0.0064250133000314,0.0437490381300449,-0.0139656024843687,-0.0131659377366304,0.066813185512158,0.0142080112468742,148
1726994770511264500,-0.0381733710497617,-0.0430921227514743,-0.0135445412278175,5.225660180589556,-4.335603730727732,7.075691250669956,0.0012084492482244,0.0247099269181489,0.0380407944321632,0.6719542978616755,-0.3705806365553747,-0.0437052692116649,-0.6397166016818011,0.7102829813957214,0.1413257122039795,-0.1291374266147613,0.5465665453016758,-0.9714385557800532,-0.1453223709091544,-0.00437868013978,0.031547624617815,-0.0781322190104983,-0.0034246135037392,-0.0212004011596669,0.0680819770386908,149
1726994770551032000,0.2177905180096626,0.2426420506715774,-0.0655401014029979,5.242784333869815,-4.322361679577827,7.071123212102055,0.0262370333075523,-0.1008014902472496,-0.0491171367466449,0.6719945052111062,-0.3707434202034891,-0.0449707298160955,-0.6394922034977539,0.1229765862226486,0.3521743416786194,0.0230378676205873,0.6620804917939007,0.150765146484971,-0.6779293644413351,-0.0243308879435062,0.0695588886737823,0.0026053784591145,-0.0142785413190722,0.0220359660678193,-0.0494218098301906,150
1726994770590793700,0.2505202367007732,-0.0367173270225524,-0.0141465987741947,5.256742132073641,-4.318485130405426,7.063125199085474,-0.0482065491378307,-0.0092474268749356,0.0075458185747265,0.6713933197670403,-0.3712373497029384,-0.0454276114974644,-0.6398048907062338,0.8457880616188049,0.0573525130748748,-0.1186546832323074,-0.9253891906581818,-0.2583551681101322,-0.4032297952517867,-0.0517739988863468,0.0384592823684215,0.0420931611422682,-0.0094820372760295,0.08308531137323,-0.0201197297834907,151
1726994770630560300,0.8891431344091891,0.0691825495585799,-0.2528133160740137,5.296276854604482,-4.307069125638902,7.040524660220742,-0.0221681017428636,-0.0915470346808433,-0.1886592209339141,0.6701634620728704,-0.3725896484613966,-0.0470116517572791,-0.6401935079204985,-1.2414084672927856,-0.1248142644762992,-0.1022584065794944,-0.9240973972819744,1.036501102799177,0.9410478014305234,-0.0950114354491233,0.0478751808404922,0.0024215046547906,0.0133525393903255,-0.0097189459245186,-0.0487441206311807,152
1726994770670326800,-0.4299263712584972,-0.2591565476208925,0.0734036743849515,5.316192684429884,-4.299403413316608,7.030192651298642,-0.109471894800663,0.1206206977367401,0.01515126042068,0.6681045874912824,-0.3732934914533869,-0.0470307452885077,-0.6419317156528016,-0.9934258460998536,-0.006845062598586,0.0772411227226257,0.1941813866242766,0.8809370315998792,0.923843568651378,-0.1120543256402015,0.0006444852333515,0.0092266711788368,-0.0022825680207461,0.0510045307106804,-0.0435794450441142,153
1726994770710093300,-0.2775380074858665,0.0781836021378636,0.5127513694614172,5.288452444589137,-4.328639736934006,7.033173712936043,-0.0432412065565586,0.1144546791911125,0.013663618825376,0.6677369940914312,-0.3733926258948032,-0.0445632167968688,-0.6424324440107348,0.7670197486877441,-0.1733695417642593,0.4472182989120483,-0.1014455275207757,-2.548715345519781,1.2751450237452984,-0.0992075875401496,-0.0067526479251682,-0.0784438696424011,0.0033755130134522,-0.0037031208427448,0.0758671555887674,154
1726994770750305800,-0.0874362913906574,0.0339250659555196,0.4636053534984588,5.256218400460481,-4.34318877902925,7.048351992845535,0.0392596647143363,0.0798867717385292,0.0833705142140388,0.6686758993643879,-0.3725293423577612,-0.0430808406831386,-0.6420580019769677,0.489566296339035,0.0821331739425659,0.2481213212013244,0.2436040275715291,0.9612181905388832,-1.3590771064072846,-0.0572715774178504,-0.0161869563162326,-0.0976003050683997,-0.0023699542507529,-0.0040927075363317,0.0524144020751817,155
1726994770789626400,0.4155693446040153,0.1051131101176142,0.1885387045621872,5.241480265533924,-4.332973674485087,7.065593050503731,0.0974289327859878,-0.0580622181296348,-0.0258208978921175,0.6696764437511182,-0.3713286042936677,-0.0432442807926276,-0.641699670345423,-0.121679238975048,0.2918416857719421,-0.1224581450223922,0.5554252668008208,-0.3314724267691373,-0.9510419567003846,0.0075056436471641,-0.0096787586808204,-0.1143551592453848,0.0215442162007093,0.0089295993448467,0.1167219157761894,156
1726994770829531400,0.3404840007424354,-0.0489420178234577,-0.0647504123300313,5.286488451039791,-4.277530019682645,7.065844979438185,0.1504138857126236,-0.1967197805643081,-0.1354760825634002,0.6695484958826335,-0.3708467499578449,-0.047062179370991,-0.6418432475943385,0.5113120675086975,0.5341030359268188,-0.2773036360740661,0.2917177778773009,-0.4919388830572366,0.9492711476355792,0.0118386959657073,0.0145901162177324,-0.0790472332298755,0.0279273856431245,0.0081606008626375,-0.045066870590276,157
1726994770869303300,-0.0570715482652187,-0.1445706757590174,-0.2876034744262695,5.378634235295653,-4.203898089499772,7.040449256896972,0.1124216318130493,-0.2409131675958633,-0.1378223299980163,0.6683261306613177,-0.3717696719331055,-0.0531440304119709,-0.6421085084265733,0.0800783857703208,-0.086928978562355,-0.0374280735850334,-0.7816036739274859,-0.2313040795773267,0.6679115360349417,-0.0025017946027219,-0.0017627571942284,-0.0378173447033041,0.0370859652757644,0.0134784594298864,-0.0553683610765263,158
1726994770909076000,-0.1986877581328153,-0.1326554892987012,-0.0646153877735137,5.415204262802004,-4.169126343587041,7.033088957262039,0.0139596592634916,0.0810137242078781,0.0345184952020645,0.6676958527810285,-0.3719074258015428,-0.05565185971187,-0.6424718777983586,1.084959626197815,-0.2208628058433532,-0.2193172574043274,-0.9743401224404572,-0.5680839651048183,1.2882161022424696,-0.0016990501899272,-0.016225965693593,-0.0067490655515459,0.0520875230431556,0.020283631091332,0.0012651228525239,159
1726994770988619500,0.018793547797203,0.2590077867999673,-0.0538169303834438,5.357685555291176,-4.199115239137411,7.059250988000631,0.0155419325456023,-0.0338618867099285,-0.0158087573945522,0.6691632528731503,-0.3705367765124846,-0.0527339417446904,-0.6419830711815291,3.855696678161621,0.0053443321958184,0.1928166449069976,-0.4925235510773956,0.1068207908183336,-1.296841891768575,0.0441967882215976,-0.0475432872772216,-0.0204030219705891,0.0647011846303939,0.0695995374282123,0.0076879578326101,160
1726994771028391400,0.304570391318202,0.1664341325208544,-0.0791278972506523,5.373727758553624,-4.20395595716685,7.0441603863745925,0.0149804390966892,-0.1632794886827469,0.0215760935097932,0.6695901345367546,-0.3714451927771796,-0.0536306738848865,-0.6409378583594043,4.179911613464356,-0.1761749237775802,0.0808407142758369,0.1050720474548637,-0.8074819192886352,0.3367091583788394,0.0652508586645126,-0.0773564428091049,-0.1042215955048333,0.1039972826838493,-0.0330612681834376,0.0465720372891053,161
1726994771068163000,3.477968956521153,0.9723349200978876,-0.2512111415743828,5.562985425040125,-4.128341620995104,6.941208545944094,0.1087541356682777,-0.900086522102356,-0.8639653325080872,0.6657836544856883,-0.376966953193077,-0.0631883099429859,-0.6408083614838764,3.307119131088257,-0.1674126386642456,0.2261431813240051,0.1170484625831246,-0.2845347345054149,-1.4531202487170696,0.0808292105793953,-0.0593974292278289,-0.0723262224457459,0.0813180431723594,-0.0526265835211379,-0.0495468975145835,162
1726994771107935000,4.701472640356421,0.6019046939030289,0.6288122823119163,6.11882248751223,-3.685037589508295,6.719440940997004,0.3891677260398865,-1.3078533411026,-2.1824393272399902,0.6449985166093305,-0.3856449557633339,-0.0931762466141152,-0.6531256075234578,2.169611930847168,-0.200850173830986,0.2275606542825698,-0.1742263938322663,-0.1905301706403493,-0.8261550555765629,0.1230480596423149,-0.0719043910503387,-0.1180594297239556,0.1026009023189544,-0.015500276122184,0.0536725626098457,163
1726994771147706600,3.8941584788501262,-0.401679350939393,1.7568308083355426,6.7893678791821,-2.932096823224425,6.440317125624418,0.6837939620018005,-1.391620635986328,-2.5546884536743164,0.6147349050005407,-0.3914124352828235,-0.1357627451552744,-0.6711675896160277,1.5166404247283936,-0.0838349685072898,0.1945027709007263,-0.2103441475264728,-0.5672358238428831,-0.5367214431136846,0.1426107883453369,-0.0447109527885913,-0.1902298177205957,0.1443003118038177,-0.0768755060808267,0.0002330798159789,164
1726994771187478500,4.565383084955811,-0.7004908864699304,3.423071245163679,7.38572341452539,-1.9229555826462803,6.1582245235741135,0.8961133360862732,-1.0711994171142578,-3.1706137657165527,0.5776138384789993,-0.3902028533694061,-0.1837380423192908,-0.693068881681154,0.9811773300170898,-0.1251478940248489,0.1873196810483932,-0.2720245047613978,0.0153419460386037,-0.4483896641880273,0.1012092977762222,-0.049428042024374,-0.0874424562699627,0.1114534959197044,0.1189211519866716,-0.2707771350488066,165
1726994771227250400,2.7081775932013987,-2.370947771949321,4.599736605456471,7.738322800475358,-0.6616079058460891,5.987572188836336,1.3303492069244385,-0.3073979914188385,-3.1696617603302,0.5374360234106127,-0.3746079751556568,-0.2332115632359266,-0.7186402023897814,1.1750460863113403,-0.0613232180476188,0.2503734827041626,-0.0145738842755556,-0.2809451855808496,-0.1539952144473791,0.0717401951551437,-0.0704314187169075,-0.1160574148523155,0.0882035940885543,0.0183994110801955,-0.1166832733993884,166
1726994771306794000,1.3554513171255589,-3.0490333498656748,4.603583344012499,7.433812614911794,1.9580258731141684,6.088921270245313,2.128783941268921,1.0479906797409058,-2.830729007720948,0.4771217467203916,-0.2982511113298708,-0.3171714013481375,-0.7634156942264939,-0.0793578773736953,-0.0571563318371772,0.212890163064003,0.1287565821640193,0.0290162511259317,-0.1646300057083368,0.0970971882343292,-0.0466870330274105,-0.1095557687401771,0.1486449092626571,0.1602545488367788,0.0359858572431141,167
1726994771346566700,1.7437351799190044,-3.938584480553865,2.758015098559856,6.769597010785341,3.315643136101961,6.272914148071408,2.1841864585876465,1.5949079990386963,-3.0676586627960205,0.45368728580681,-0.2363406712171952,-0.3525811792059589,-0.7835798589729213,-0.5137322545051575,-0.1482123136520385,0.2809850573539734,0.0430612892217934,0.4658785591274499,-0.1304874976098537,0.1049548313021659,0.0156582687050104,-0.2219930659997276,0.1381492614746093,0.0815731897772289,-0.0272927586514386,168
1726994771386338600,1.2476245641350745,-3.833038239715993,1.4835568880349397,5.817365259778499,4.720538867615163,6.328124578639865,2.30963134765625,1.664885401725769,-3.4899990558624268,0.4225539658921471,-0.1657331366321984,-0.3871536849848458,-0.8025538786719233,-0.3639885485172272,-0.1986670196056366,0.3759672343730926,0.063492228962481,0.4158367633685469,0.0321142171412706,0.1205706819891929,0.0334790721535682,-0.1746093470015563,0.1219462156295776,0.1421055277545005,-0.020074125659652,169
1726994771426110200,0.0742711048692464,-4.376020204529166,0.0191816703319549,4.590531554737687,6.006920447906851,6.246144214567542,2.056669473648072,2.2464699745178223,-3.1405162811279297,0.3884610725898148,-0.0882847363864685,-0.4168225917268981,-0.8170451630366394,-0.4367415904998779,-0.0670328214764595,0.3653914332389831,0.191778417135775,0.076694532623887,-0.9032891486614942,0.0692194774746894,0.1104633808135986,-0.2947668267169967,0.0290521495044231,0.0320616855197236,-0.2016662624869495,170
1726994771465882000,0.7301078799679875,-3.3743151053011418,-2.3001631940215823,3.307563582281768,6.88690821595788,6.148243812307715,1.469407081604004,2.497140884399414,-2.554328680038452,0.3631043903951857,-0.0144209128019768,-0.4316466550979499,-0.8256079389956571,-0.7408577799797058,0.0770686417818069,0.226860836148262,0.1634190224833786,-0.0228515910163521,-1.1136036317020654,-0.0084370039403438,0.1969749331474304,-0.0818084415715187,0.0319371037185192,-0.0051267244758986,0.0082475245191977,171
1726994771505653800,-0.9925300052560864,-2.8818489834994074,-3.390219945919513,2.0506173553109166,7.403747731515764,6.095069271481036,0.866732656955719,2.372952461242676,-1.873950719833374,0.348889761083582,0.0553970906152449,-0.4314731851664595,-0.8300830942113834,-1.11993670463562,0.050966840237379,0.225576251745224,-0.1059628588147461,0.2264569318071007,-0.3469645949333906,-0.0314574502408504,0.1871069520711898,0.0491058985817013,0.0295036789029836,0.02793168445935,0.1041194503046106,172
1726994771545425700,0.4939510265972465,-2.801132355752588,-1.747139435404539,0.9807275584552436,7.742166031900048,5.938638354319334,1.2627639770507812,1.777336597442627,-1.8967573642730715,0.335174313141052,0.1130534532694116,-0.429456203629569,-0.8309299192671886,-1.1491934061050415,-0.1391162276268005,0.4183657765388489,-0.2880260837525129,0.1138292082756757,0.2548427760750055,-0.0491620972752571,0.2332319170236587,-0.1372482604490593,-0.0041624102741479,-0.244528978663031,0.1435422094941139,173
1726994771585186600,0.7107179006475954,-2.079078310641646,-2.1400854447901247,0.0745802667165407,8.172920086154342,5.419243893581628,2.086687088012696,0.4612626135349273,-2.279635667800904,0.3057089075288789,0.1600500593883258,-0.4450611603306786,-0.8263453716163033,-0.9960235357284546,-0.3728736340999603,0.3946259915828705,-0.4796164309702813,0.1821381898701191,0.2677648014903068,-0.0281284935772418,0.2815527021884918,0.0131902524640085,-0.0103213796392083,-0.147571154482942,0.2615114949828945,174
1726994771624958200,0.3063197192035615,-2.387611760371924,-2.672749136945605,-0.7279985596638172,8.559414727443457,4.730416118507087,1.895245790481568,0.0750849917531013,-2.102184295654297,0.2626224494094338,0.1956908012532004,-0.469596651436903,-0.819886366836596,-0.6473515629768372,-0.4419998824596405,0.3158542811870575,-0.2572957221850753,-0.5013140296459198,0.3948182329982519,0.0234655123203992,0.1969061493873596,0.1032062718492932,0.0517780408263206,-0.16045872963937,0.2233953522793948,175
1726994771664730000,0.0674950348630547,-1.7851123154461384,-3.3730861480280754,-1.348991327331215,8.760618267789482,4.1954938337698575,1.1414170265197754,-0.0540682896971702,-1.6360749006271362,0.227031955495943,0.220454079079784,-0.4873287903408074,-0.8138593978681986,-0.7672302722930908,-0.3911937475204468,0.2231756895780563,0.0011886252626776,-0.335492183804512,0.1647586005240678,0.0328708067536354,0.2325684279203415,0.0284504202369833,0.0831143781542778,-0.2670007583152503,0.0828733034572098,176
1726994771704501800,0.7086722932294011,-0.9944833312809468,-2.380155599147081,-1.8997874730266628,8.765313732129336,3.966164269135892,0.4175231158733368,-0.4953993260860443,-1.7317641973495483,0.1940231906787731,0.2359290422079294,-0.4920562779140652,-0.815213477439492,-0.8017032742500305,-0.3875794112682342,0.1977339088916778,-0.166103000870347,-0.00216331551373,0.283479087972641,0.0228480976074934,0.114954687654972,0.3334474531691521,0.2143729627132415,0.0322273084271932,0.2472163911161012,177
1726994771744274700,1.5414561192959546,-0.6093517950385808,-0.521841853889823,-2.4650197019621727,8.663746624055504,3.877315772859752,0.2452340126037597,-0.4306654632091522,-1.9079169034957888,0.1582077775948159,0.2479088401769969,-0.4907678880384241,-0.8201576307811163,-0.2642768621444702,-0.3281480967998504,0.2400830239057541,0.1736379264198243,0.2569330263525247,0.4425649035573005,-0.044881448149681,-0.0959771201014518,0.3643081631179898,0.3027418553829193,0.1549095893459394,0.1847753699732944,178
1726994771784046300,0.6779872321084142,-1.02355277389884,0.4515516353502869,-3.0654549078345297,8.477450145462155,3.8608544674023983,0.3264846801757812,-0.6278709769248962,-2.006951332092285,0.1206760127138918,0.2601140217958902,-0.4852750777576472,-0.8260060675489335,-0.1741802543401718,-0.271853357553482,0.229246437549591,0.3795283094078302,0.3381979356318712,0.195439569991827,0.0279674809426069,0.0379646308720111,-0.1360970445873215,0.1803034245967865,-0.03662679462831,0.0061865979467518,179
1726994771823818200,0.3311760741710662,-0.1941243957400321,1.672496574613452,-3.6434044333934783,8.335906416308879,3.661784431953728,1.1919420957565308,-0.0867012366652488,-1.6890466213226318,0.0791966275102371,0.2721583336215097,-0.4891122449321054,-0.8248800221286678,-0.2598216533660888,-0.2579251825809479,0.1489336937665939,0.3283617474026978,0.0037608138382434,0.1701525685220956,0.1441084891557693,0.027228694409132,0.2885177397269755,0.0610061101615428,0.2165136116753332,0.7501307503644377,180
1726994771903176000,-0.1269759823575615,-0.363693026894331,0.6565911005973816,-4.619678446505963,8.054916222542523,3.1539304791450498,0.7619386911392212,-0.1930184215307235,-1.5546568632125854,0.0117324172097392,0.2970119503575016,-0.5009772503274124,-0.812814871117805,-0.2595593333244324,-0.0897458046674728,-0.0099319331347942,0.448831416606158,0.0537304211437702,0.0520084196567535,0.1024409458041191,-0.1157063841819763,0.3131647627927362,0.2478657066822052,0.3274754295548424,0.4074832149125635,181
1726994771942940700,-0.0904939253956079,-0.6888450184702872,1.0611538980185984,-5.038334943470359,7.90092860687971,2.8915234052956102,0.868209719657898,0.1638494729995727,-1.165496826171875,-0.0136756654999059,0.3107022040019594,-0.5060014620120667,-0.8045121160758086,-0.2072575092315673,-0.0484398044645786,-0.0523698702454566,0.3321956264771521,-0.0590747047811746,0.0241986217111349,0.1897994130849838,-0.2246509492397308,0.2567382526990957,0.3021710813045501,0.2476934888422489,0.4431663400491699,182
1726994771982705400,1.2255413271427154,0.028320085555315,0.2053515999361872,-5.452653411230445,7.72575031915009,2.598407889449596,0.8997378349304199,-0.0337956026196479,-1.571823000907898,-0.0401449220754244,0.3241216917410614,-0.5123116209359864,-0.7942733982005588,-0.088562823832035,0.0148331755772233,-0.0732872039079666,0.2665890357092023,-0.1405325062841177,0.0789683227747678,0.4797839224338531,-0.3442520201206207,0.2910470755415037,0.3968971073627472,0.1806732866830192,0.8307835190948099,183
1726994772022470100,0.996321652624011,-0.5251303740411997,0.3651706982314586,-5.971622340032458,7.421029121184349,2.332046963407844,0.9471501111984252,0.0924559012055397,-1.736223220825195,-0.0730655183925672,0.3406761816176293,-0.5148188348818856,-0.7833025002589237,-0.2112708985805511,0.0400210320949554,-0.0585909485816955,0.2441308279246091,0.2369400396376848,-0.1474929929465055,0.6932210922241211,-0.401054710149765,0.167213409797661,0.4751465320587158,0.0867031365442089,0.5893569086275995,184
1726994772062235100,0.1896200700581073,-0.1392401283860206,-0.4436936153262853,-6.456442915517092,7.097388703215122,2.0277574348576364,0.9460194706916808,-0.076524868607521,-1.6785216331481934,-0.104717340542463,0.3571140630154902,-0.5187318122901753,-0.7696889539320823,-0.1866451799869537,0.0634695217013359,-0.0378035120666027,0.156591368420422,0.0842073924720287,-0.1551332785665989,0.8687620162963867,-0.5221887230873108,0.4497330416209995,0.6241045594215393,0.2133551476444117,0.6458754261199384,185
1726994772101999900,0.2834019310832023,-0.528868976047635,0.0175409173876047,-6.936439431846141,6.693938250949978,1.8020527827225623,0.962784230709076,-0.0558116510510444,-1.7533862590789795,-0.1396337039264795,0.3715424889250071,-0.5196893866378908,-0.7565590832887972,-0.1385402232408523,0.0857811197638511,-0.0086471568793058,0.1712695898532867,0.0834118581801652,-0.1282593001663684,0.9599189162254332,-0.5927129983901978,0.0968773884881753,0.7233853936195374,0.1547414662374183,0.6456778577212244,186
1726994772181530400,-0.8011328425228595,-1.6230390084832906,-0.1932670482583343,-7.670150597003102,5.9827300095021725,1.2434234591834246,0.9799975156784058,0.2986607253551483,-1.042409896850586,-0.1942545444072523,0.3980863296047142,-0.5273806238468668,-0.7250255580640115,-0.4216939210891723,0.0098547684028744,-0.005806696601212,0.1348879245258867,0.0123684831857681,-0.2726373759627342,1.201940894126892,-0.590661346912384,0.3394217418057844,0.7503013610839844,0.2438224378288723,0.1488769215855747,187
1726994772221295400,-0.7012661086261271,-1.9141671499043704,0.0318750746231526,-7.867581048551202,5.787236663496494,0.8828595240950584,0.953831672668457,0.521886944770813,-0.5192248225212097,-0.2084745861967068,0.4083773463661391,-0.5368562498408326,-0.708203092405761,-0.4565869271755218,0.0375523343682289,0.0576142221689224,0.0443042750202119,0.0876952345877885,-0.2653945652276277,1.1897599697113037,-0.704459011554718,0.2907228668221272,0.757956862449646,-0.0794978356747422,0.14318719464452,188
1726994772261060000,-0.1835655923247337,-2.218625897541642,-0.0616968699783086,-7.956869689810276,5.716554523029923,0.4238197980117053,0.8078492879867554,1.0136988162994385,0.0042770546860992,-0.2113641768157038,0.4190200240282725,-0.5502848562674342,-0.6906041102058431,-0.2827943563461303,0.057495791465044,0.173684760928154,0.0050917701810598,0.0275602070987224,0.3000760025084018,1.002219319343567,-0.9638504981994628,0.928000323004648,0.7246444225311279,0.2035248411667533,-0.6323296427831053,189
1726994772300824800,0.3240308785915374,-2.282458610504865,-0.2626198398172855,-7.895992904043197,5.815402435272932,-0.0691266866189194,0.997592031955719,0.8812505006790161,0.4454018771648407,-0.2039074605806849,0.4251320456426392,-0.5681436649369462,-0.6744607273491612,-0.340387612581253,0.0261391457170248,0.2962462306022644,-0.0180912447467446,0.3656844929724931,0.0582329932600259,0.683997631072998,-1.2755740880966189,0.6764087307453155,0.5690420269966125,-0.1188397664466872,-0.6482892092633992,190
1726994772340589600,0.3162731040716171,-1.4765274277895688,-0.749848060965538,-7.772115764483809,5.95158902130723,-0.5858173363246023,1.3526709079742432,0.6513715982437134,0.5620744824409485,-0.1989824116166587,0.4246298483181203,-0.5912341871873806,-0.6561536382044041,-0.6257173418998718,0.0400268919765949,0.375394195318222,0.1369653153218329,0.284948576003313,0.1752279720902443,0.3252111673355102,-1.1824722290039062,0.2567610855854116,0.5554354190826416,-0.2902705930099822,-1.080886114905402,191
1726994772380354300,-0.0085480481147766,-1.3214625382840632,-2.338763266050816,-7.586009255504607,6.122136142104864,-1.0687839545056224,0.9227729439735411,0.5171431303024292,0.7523592710494995,-0.1933477878680706,0.4191627530454262,-0.6154635672621621,-0.6388456989268835,-1.1165075302124023,0.0008181302109733,0.4364985525608063,0.070490563417226,0.7735340569794178,-0.3159229754596948,-0.3845196068286896,-1.5106524229049685,0.1561757368242368,0.1885187476873397,-0.3190423130566254,-1.3736704260356722,192
1726994772420119300,-0.4698638293713331,-2.37887082003355,-2.366248508217186,-7.320418875443935,6.380030122444033,-1.370052381668985,0.2052490264177322,0.7027918100357056,1.1947503089904783,-0.1778700177358909,0.4132455957230029,-0.6317288264187321,-0.6312756125961648,-0.9956616163253784,0.1448268145322799,0.6396874189376831,0.3078882836945354,0.8816016329884528,-0.3763905959039926,-0.8606049418449402,-1.4391692876815796,-0.3121426532033831,-0.0057032047770917,-0.7473914615936577,-1.1365426087409258,193
1726994772499648800,-1.172480768084526,-3.1112767478108405,-3.3592648356854915,-6.341869610875845,7.26746060771644,-1.7706112041458486,-0.4108543694019317,-0.1641970872879028,1.820427179336548,-0.1187881203632886,0.3889489530975154,-0.6625667976952739,-0.6289779294359812,-1.2141475677490234,0.262942224740982,1.3569352626800537,-0.0948565775845199,2.573548173481226,-0.9023848932981492,-0.950362265110016,-0.6957947015762329,-0.8138054232217371,0.0831321328878402,-0.3918413726119324,0.6360376304555684,194
1726994772539413800,-4.1703824811279775,-3.1135406010895967,-3.838264157670736,-5.776777228802442,7.82293526661694,-1.2652761022903023,-0.6282036304473877,-2.135399580001831,2.6478850841522217,-0.1052353371837202,0.3442248524251954,-0.6678475707197763,-0.6514709978562531,-0.6604154109954834,0.1690574586391449,1.860439419746399,-0.4806967370202764,2.37775262965858,-0.0638654461890459,-0.7701037526130676,-0.5320772528648376,-0.5070855987846851,0.1845398843288421,0.1874227426769212,0.5244876556908712,195
1726994772579171300,-2.6053674993291494,-5.658183582603932,-2.937166381573677,-4.7677258584648365,8.545739837834239,-0.6399211208254099,-0.6989679932594299,-1.8047893047332764,4.061489582061768,-0.0840430907944824,0.2745262372996098,-0.6762116853979784,-0.6784613769385522,-0.140766367316246,0.2012263238430023,2.1753382682800293,-0.7582672950688749,0.8960527676671742,0.2657771348044276,-0.6042300462722778,-0.2094055414199829,-0.6765889096178114,0.1144803166389465,-0.0633147809031885,0.2330239256398752,196
1726994772618936300,-1.1186147378623486,-6.831290958154201,-2.5152982290863988,-3.1273522688210007,9.294625191247462,-0.0037006243520372,-1.367984414100647,-1.7084428071975708,5.055789470672607,-0.0387020996317699,0.1885062911440202,-0.6816553803344209,-0.7059132697291477,-0.3437277376651764,0.2090663015842437,2.334458351135254,-0.7541421048976481,0.8662100025892258,0.1033782491490244,-0.5014864206314087,-0.0261746030300855,-0.2719577962007373,0.1160286590456962,0.1899080384203232,0.4340682568361982,197
1726994772658701000,0.8258534422814846,-6.989087902972102,-1.38437521379292,-1.1589470405116675,9.706507956293224,0.7816350919790566,-2.0761640071868896,-1.1353390216827393,5.197043895721436,0.0206582023068063,0.0993281137333365,-0.6710302724947822,-0.7344560539904742,-1.1489096879959106,0.1509436517953872,2.402320384979248,-0.9109913936018944,0.2190115842372179,0.2377504792377352,-0.4133782386779785,0.0141742089763283,-0.3149297997038811,0.1723377257585525,0.2403216996989212,0.4839733110055327,198
1726994772698465800,1.911450584422052,-5.955172140491008,-0.5082797770053148,0.974909081434831,9.619348143756389,1.6395403536900877,-2.122830867767334,-2.2042856216430664,5.189676284790039,0.0813088319206356,0.0036346903346337,-0.6452855895889249,-0.7595935049636312,-1.1033971309661863,-0.0370479747653007,2.623646974563598,-0.6061588442161678,0.8962252016246318,0.451844188556075,-0.4036217033863067,0.0695987343788147,-0.3792123753264546,0.1970253884792328,0.1147950576331466,0.268731089239195,199
1726994772779240400,2.589201377426088,-2.3382804509699344,2.0378606034599245,4.59819171410203,8.509933195915817,1.6149427957892415,0.858731210231781,-2.097825288772583,3.894729614257813,0.1591201192788728,-0.1819100310839073,-0.620136740079657,-0.7463376130432051,-0.4018887877464294,0.2213776707649231,2.504805564880371,-0.115460608869791,0.4853197571784257,-0.4964993228405713,-0.3584660589694977,0.1509526818990707,-0.1227827775845769,0.0889399200677871,-0.1089489710866007,0.0043340408698917,200
1726994772819005200,3.727548112979531,-4.017452850085497,1.940882722872496,5.780874142727256,7.838299424487352,1.1458420597448944,0.6447609066963196,-0.1373734176158905,3.253758192062378,0.2042396261216273,-0.2332381745889455,-0.62223650591138,-0.7188239733398583,-0.98650723695755,0.3157709836959839,2.3118953704833984,-0.639857407939434,-0.971395885682106,0.03934212256819,-0.3375189006328583,0.1982385963201522,0.0059375459559727,0.0533077009022235,-0.2051795313049107,0.1315202016584575,201
1726994772858770000,1.066920206460357,-1.1585749923288822,-0.4941606507599353,6.820627525320648,6.971098072773218,1.026272042794898,-0.6555020809173584,-0.609561026096344,3.7935776710510254,0.2457685172828211,-0.2834436316255452,-0.6060811802675831,-0.7013724008754795,-1.6162798404693604,0.2240549474954605,2.260815143585205,-0.1250146191567182,0.0251695125699043,0.3570487665742635,-0.3445020914077759,0.2012546211481094,0.0024533239943382,0.0710835009813308,-0.093716568103386,0.2107273381577804,202
1726994772898534700,1.008662078759074,-3.744105280026793,1.319803665161133,7.852128627875447,5.728299905881285,1.3042419388920068,-0.5598095059394836,1.3771934509277344,4.375647068023682,0.3031578398691645,-0.3305593318199276,-0.5694143448573015,-0.6889072325737187,-1.4362376928329468,0.0921822339296341,2.502917051315308,-0.1201835457384586,-0.0837783534049987,0.4767833995014429,-0.2885947525501251,0.1341821402311325,0.2928689024074934,0.0634380355477333,0.032418444801832,0.2451624359946697,203
1726994772938472700,2.644134452357888,-3.676068393371999,-0.6167606099903583,8.72099119080007,4.177803278778494,1.6311539258778094,-0.7087287306785583,-0.4790631830692291,4.41630220413208,0.3674041854010654,-0.3762464516205386,-0.5246645588737338,-0.6694624263163725,-1.3179326057434082,-0.1417529135942459,2.661751508712769,-0.3229506821393966,0.3821113116383552,-0.129419137725979,-0.2427674084901809,0.1560586988925933,-0.0528979934741975,0.0459685437381267,-0.0234725998583715,0.2391294394407421,204
1726994772978245400,5.493929424470663,-2.946201628683508,3.570507539486885,9.23220643673539,2.767683675137162,1.8101612703762948,0.0042641973122954,0.7628008127212524,3.3445067405700684,0.4189560999146198,-0.4132418474450455,-0.4867634312919582,-0.6455760123217956,-1.519175410270691,-0.280725747346878,2.8717427253723145,-0.8371364683181047,0.2542103233903646,-0.2949871549367904,-0.1549444496631622,0.1187235489487648,0.248318744601123,0.0876626670360565,0.1934493277563713,0.4704977433606982,205
1726994773018016800,0.7285615273088216,-2.5147487785100937,-1.793974690207094,9.51039267899692,1.6799207332648336,1.7031446647249162,-0.0770402029156684,-1.4731783866882324,2.906940698623657,0.453460867852279,-0.4439821622253067,-0.4648049352910399,-0.617421703101128,-2.088456869125366,-0.3452803492546081,2.8804614543914795,-1.1771370694577694,-0.0439621835842728,-0.5490052436906844,-0.047476653009653,0.1524229198694229,-0.170517986034695,0.0724447071552276,-0.1057223463234491,0.2779093250162899,206
1726994773097559800,-0.2654758137702941,-2.9739187799096105,-3.3264252268791195,9.736639475184678,-0.9471846967503428,0.6863689837455749,-1.9221041202545168,-0.8706009387969971,3.921238899230957,0.491521280849441,-0.5469890471694652,-0.4071951640955963,-0.5416660068565353,-1.8753944635391235,-0.6158767938613892,2.094642162322998,-1.750481731569767,-1.6852596100747583,-0.7420920400112867,0.1278892308473587,0.3048395216464996,0.0061257722792506,-0.1055621802806854,0.0147109295425121,0.0143052302518743,207
1726994773137331200,2.897798247781396,-4.323785282640159,-0.2046849892536178,9.436529570406677,-2.638552852833271,0.4004109384387731,-2.5326356887817383,0.0270832516252994,4.557611465454102,0.5077886877145774,-0.6049946400508482,-0.3369958583596875,-0.5124118673904186,-0.8721399307250977,-0.4636360108852386,1.4902249574661257,-1.308545773565769,-2.193360377251357,-0.6027484512507915,0.0873149186372757,0.3928054571151733,-0.1470658261761535,-0.1411480754613876,-0.0318998277552076,0.0893696158071048,208
1726994773177102600,9.281777400112151,-3.436531030717492,1.944545337033272,8.781727106791735,-4.361533706276118,-0.1693942975006997,-2.2245123386383057,-1.0596553087234497,4.390172481536865,0.5182989845359439,-0.664613056214464,-0.2587009681631527,-0.4719423296825072,-0.0148406634107232,-0.1748839169740677,0.8930321335792542,-0.5030787012308836,-2.23700940323323,-0.5388466916393488,0.0578092001378536,0.3481732904911041,-0.1874679335255175,-0.1325051933526992,0.2749470046119764,0.2463243193808943,209
1726994773216874200,12.756482970923184,-0.0676677610814571,4.05806543098092,8.079357420837878,-5.505585375472903,-0.7634937244802713,-0.5426310896873474,-0.9163877367973328,2.603479385375977,0.5264496575589876,-0.7036647102189341,-0.2092446478912816,-0.4288630947582911,0.4650740027427673,-0.0926125943660736,0.5650439262390137,-0.4295166214138269,-2.014887431890517,-0.3669984251152723,0.0842418298125267,0.1834129989147186,0.0577660607348661,-0.1079008355736732,0.5334730357769877,0.3819458188783377,210
1726994773256645600,8.659753755027054,4.138971443819999,2.9642569253340363,7.55362908090353,-6.161023798903822,-1.0746335573166608,0.1927183419466018,-0.8075850009918213,1.744084715843201,0.5387985279971818,-0.720624734993977,-0.1883906960717116,-0.3935797164619384,0.1831688284873962,-0.1469050198793411,0.4590914845466614,0.3612000410348177,-1.0439609172858295,-0.7346459617890417,0.0843764394521713,0.1333591938018798,-0.0962296195033937,-0.0300393607467412,0.0270655965487705,0.4301091439468786,211
1726994773296417300,7.828655982351303,5.682678556913137,2.120691008490324,7.18538262848854,-6.582001140031218,-1.1036047271918503,0.5968976020812988,0.0202453937381505,0.853866696357727,0.5531344592384518,-0.72478039528989,-0.1759589733506592,-0.3711794658813591,-0.5184111595153809,-0.059393972158432,0.4407536685466766,1.144686167708039,-0.2746528074383735,-0.630829540418461,0.0544821545481681,0.2672552764415741,-0.071563266116078,0.0530997850000858,-0.19774012028547,0.3237511118020862,212
1726994773336188700,7.118926581284404,5.365525162875652,-0.3952162924051284,7.149018937209248,-6.65016399115324,-0.915010493050143,0.7688845992088318,-0.2518778145313263,-0.5048315525054932,0.5645330335647959,-0.7172519913741521,-0.1794495257213309,-0.3669468058839702,-0.9213008284568788,-0.1135718300938606,0.6341716647148132,-0.147243986621499,-0.0922278365161269,-0.3474515016674995,-0.0029417318291962,0.0948357880115509,0.3226189294343814,0.1009985357522964,0.2394720240670256,0.3464739253396168,213
1726994773375960000,5.0703094598799945,5.633341986814141,-0.7288542266450821,7.316390935102104,-6.466822855234145,-0.906086670425534,0.454544186592102,-0.6381238102912903,-0.835059404373169,0.56639518682774,-0.7113025687733996,-0.2006146002897137,-0.3646900761550044,-1.0543075799942017,-0.2522734999656677,1.0150842666625977,-1.5248445917129516,0.774025932149589,0.2255425203759223,-0.112270675599575,-0.0841386020183563,0.3758205409310758,0.215029701590538,0.2077114244027063,0.6320395007301122,214
1726994773415732700,5.625665460836888,4.066859562811255,0.3814892342172563,7.56593794285655,-6.168669345220923,-0.9351482219979168,0.0162239912897348,0.1067143753170967,-1.2269753217697144,0.5606828653710334,-0.706626058505322,-0.2199065799516462,-0.371423656491437,-1.0869081020355225,-0.4188345670700073,1.3831231594085691,-0.7108160272598266,2.188329543477297,0.9051130030877887,-0.1940431296825409,-0.3932855725288391,0.1922644105544313,0.3767801225185394,0.391211148416996,1.0604876891948285,215
1726994773455504100,5.1755976343035694,2.5021792197942734,0.7644472258128225,7.9063190677464,-5.739288332885503,-0.8491418903451412,0.0418008230626583,0.4830129146575928,-1.596712589263916,0.5512209554042466,-0.6982732030871097,-0.2360269528314767,-0.3909746147982689,-0.3076483011245727,-0.4927197396755218,1.9213933944702148,-1.0396259568214417,2.0888021245375272,2.477255790939927,-0.1710341274738311,-0.3847288787364959,-0.555141152629815,0.3626926839351654,-0.1681244784942828,1.0389227039229123,216
1726994773495275800,3.726220079246163,0.3161474318653345,0.9048131433583796,8.311075926434993,-5.168894337272644,-0.6155634360950439,0.1398918628692627,0.7125083804130554,-2.015850782394409,0.5414833382489238,-0.6832403451741685,-0.2541016141037296,-0.4188206354392074,-0.3792194426059723,-0.6178717613220215,2.2382054328918457,-0.7519564314216375,2.017481686167419,1.5121493607908487,-0.1344766914844513,-0.2592160701751709,-0.663262760381028,0.3716389536857605,-0.1706052807256579,1.2993467141963542,217
1726994773535047200,1.7147376334935425,-1.1546870449796318,0.4635293291201814,8.757052684262394,-4.397766464652121,-0.3795823411500081,0.5095340609550476,0.0926230773329734,-2.38020133972168,0.5287947082952547,-0.6631743962447514,-0.2820514729474908,-0.4483558406048786,-0.4675495624542236,-0.759941577911377,2.412262201309204,-1.9008125782907008,-0.3967265508376061,0.4128494181208312,-0.1235181540250778,-0.1735523641109466,-0.7925826024509965,0.3893075883388519,-0.1870121708483435,1.3074831127703188,218
1726994773574805800,-0.6925847895205021,-2.0795883059903977,0.3947287646165117,9.124365655219554,-3.57177507520467,-0.3984695585800334,0.8394893407821655,-0.7496272921562195,-2.254284381866455,0.5143206726863613,-0.6451179027745733,-0.3227060354716568,-0.4638513191796399,-0.4233022034168243,-0.8692315220832825,2.192110300064087,-1.755427371278405,-2.884328233094513,-0.505211329345405,-0.1737967282533645,-0.0828482806682586,-0.7725991142168641,0.3779866993427276,-0.212993072866369,1.1781834367055446,219
1726994773694120200,-5.529359049770235,-3.905577698487043,-0.0403356636501848,9.516005258181693,-2.132748964422196,-1.033164651852846,0.6651991009712219,-0.5585100650787354,-0.126752957701683,0.4905599164762835,-0.6123397502592893,-0.4215646651776271,-0.4546144765818124,0.7134313583374023,-0.302433431148529,0.7128922343254089,-0.1847802288115024,-8.604787654608488,-1.7315236408606172,-0.3209560215473175,-0.0338657312095165,-0.1838844672818668,0.4882662892341614,-0.2130100240011699,1.2017881111115216,220
1726994773733891600,-5.680986366042495,-4.56815634906143,-0.0047390842858701,9.46412251073122,-2.311881396605074,-1.1206850413303822,0.6542374491691589,-0.2354599386453628,0.9233859181404114,0.4988294357939081,-0.6127208998236997,-0.4262770613634919,-0.4404883446545906,0.2969800531864166,0.014123922213912,-0.0460318773984909,0.2717535788655281,-9.271272372710705,-2.076654298365116,-0.393705815076828,-0.1830612123012542,0.1156816312093287,0.4678325057029724,-0.1196451828117482,0.6505188680116086,221
1726994773773663000,-3.9835120020389554,-4.241642421482503,-0.5256861082278191,9.339489584368469,-2.7745649590834973,-1.116286952501908,0.5399597883224487,-0.2283395081758499,1.2591241598129272,0.5149491080157429,-0.6177103986121708,-0.4187465330455759,-0.4217968632464702,0.227865993976593,0.2065849751234054,-0.8742106556892395,0.0159252988845109,-8.977306377515196,-2.0637883870512246,-0.4587017893791199,-0.1208556592464447,0.4962166334416717,0.2551282942295074,-0.2465531049017794,0.2205724951446987,222
1726994773813434600,-2.907501311150193,-4.522668563345074,-1.2388964832782745,9.176419083061814,-3.242624953903257,-1.2037881258223204,0.4079182147979736,-0.5419846773147583,1.2144219875335691,0.5277000238140133,-0.6257797116311539,-0.4120386682377994,-0.4001956913543057,0.8449581861495972,0.5355528593063354,-1.6229071617126465,-0.0941366658121347,-9.051101681566236,-1.143172256013751,-0.4991728961467743,0.0611079521477222,0.6741755648657679,0.0772346854209899,0.1366681224735453,-0.0445605193701805,223
1726994773853206300,-2.48088684091866,-5.961068797314167,-2.171551134894788,8.949718697887658,-3.756546536187827,-1.4004472276717423,-0.4025047123432159,-0.4682939350605011,1.702863693237305,0.5349509995396108,-0.6408503494365231,-0.4008912175682656,-0.3773915692896805,1.7276760339736938,1.0494853258132937,-2.497910976409912,-2.2522113562792536,-8.159220062103866,-0.570616260061413,-0.5292930006980896,-0.1306096017360687,2.6532036017373204,0.136344164609909,1.0312596950143575,0.5922594982013106,224
1726994773892978700,-2.003523595702648,-6.833371856081485,-1.4177834162674845,8.574259829875826,-4.4730955541417,-1.6259947895489633,-1.4047924280166626,0.2585739195346832,2.7982430458068848,0.536763900504314,-0.6699169732911212,-0.3662156588739662,-0.3591403977300087,1.8242584466934204,0.2633712589740753,-3.4619381427764893,-5.973550677746534,-5.483358346095681,-0.6968756185822188,-0.2891218364238739,-0.2126535326242447,1.4558033503212031,-0.252614289522171,1.2831459593713284,0.0253321968849049,225
1726994773972521500,1.6026251660078763,-2.5128368074089287,-1.4105110871769486,7.302758131068945,-6.309647257184982,-1.740258589849621,-1.2158812284469604,0.1245540156960487,3.0011744499206543,0.5533202185229825,-0.7263270410508008,-0.2473409041949429,-0.3242042456727223,2.2135157585144043,0.4021796286106109,-4.3939738273620605,-6.796656867146492,-3.353811830976605,-0.7579021880835294,0.1404804289340973,0.2415379285812378,-0.9008439474664628,-0.7549226880073547,-0.10527246539779,0.5068392593408003,226
1726994774012318500,2.349078908360004,-2.0583090788573024,-0.9459072241604328,6.521138967311382,-7.008532023632526,-2.127349297335744,-1.4702975749969482,-0.2306629121303558,2.8891026973724365,0.5511227499515219,-0.7546044218966181,-0.1975773147625012,-0.2963091572700242,1.869279742240905,-0.0367367006838321,-4.715750217437744,-9.1368656558305,-0.8035613848440348,-2.039689718583226,0.1897409409284591,0.3520621359348297,-0.9108535195011646,-0.85239577293396,0.0119673858633672,0.3136250737808644,227
1726994774052091000,2.965110035032034,-0.6283814896792173,0.6241551041558384,5.67077476862967,-7.572656437456607,-2.582163441613317,-1.6491938829421997,0.2677268087863922,2.902562141418457,0.5437721507931604,-0.7815596240959057,-0.1442852921703189,-0.2695516913156401,1.500899076461792,-0.0616343282163143,-4.780269145965576,-8.536700206810236,1.6216057608097791,-1.825404578346014,0.0636714771389961,0.5557178854942322,-1.5844181859269737,-0.7678000330924988,-0.4114652702860534,0.3194332486029714,228
1726994774091863000,3.9856773633793,0.7139636776357888,1.3656179063528775,4.880200145000219,-7.950586664018035,-3.023601679228246,-1.910073518753052,0.7582967281341553,2.5251283645629883,0.5310331350836226,-0.8042275933624725,-0.0858997144488118,-0.2526714648679014,1.3053135871887207,-0.0138065656647086,-4.451138019561768,-6.633821343639492,3.383646997269988,-2.159039736106992,-0.0597377270460128,0.4768188297748565,-1.0780586363945155,-0.512539803981781,0.0147970951472467,0.5361869709108025,229
1726994774131635700,4.5931896680310365,0.83214698946774,2.2510575100690127,4.255329878312349,-8.113810894581675,-3.496939614450932,-1.9603068828582764,0.917246401309967,2.101139545440674,0.5115566923982421,-0.8230406632990382,-0.0299727615869808,-0.2449802067347935,1.5160514116287231,-0.0809763371944427,-3.7228479385375977,-5.282001076492667,5.319643117144704,-2.4212236687250432,-0.0801001638174057,0.3017918169498443,-1.0188347324009983,-0.2575715482234955,0.212004317557346,0.5901235821511596,230
1726994774171408100,4.525541488432884,1.147336974477768,3.2772137444645164,3.7332565537542095,-8.157109353560209,-3.961656144061685,-1.7444767951965332,0.82487553358078,1.939117431640625,0.4904587994625105,-0.8375772511944423,0.0212743246102956,-0.2397119692078731,1.3273837566375732,-0.23255355656147,-2.88151216506958,-3.833699041712284,6.834160376110672,-3.019978812555969,-0.0367717333137989,0.0985470488667488,-0.9424925934113562,0.004672170151025,0.2715635179198347,0.6949347136475146,231
1726994774211180800,5.162551105725765,2.149721872663498,4.101317420469225,3.2693779362723228,-8.146597311896086,-4.372010384365916,-1.3648264408111572,0.5940236449241638,1.5851422548294067,0.4719490042288832,-0.8477099264015707,0.0655619814649896,-0.2331384681573849,0.8415001034736633,-0.3257026076316833,-1.95776116847992,-2.265045703411102,8.185663832393288,-3.282061476756632,-0.0213690493255853,0.0275126099586486,-1.0389424315366893,0.162695050239563,0.1368377982183359,0.3105878249768167,232
1726994774290725400,7.286141342788934,1.4481260936915874,4.0882153623119,2.567045951980352,-8.14485719023049,-4.820990123401582,-0.2879804670810699,-0.1765742748975753,0.9068813920021056,0.4548280894389154,-0.8550480999713043,0.1212222748065121,-0.2175529286877369,0.087581843137741,0.3170534670352936,-0.0289688073098659,-1.306957043069601,8.076435980433224,-3.380039912688732,0.0941050872206687,-0.0364138446748256,1.6516384955018757,-0.082608625292778,0.8569348823089152,0.0015032019289617,233
1726994774330498800,8.938905627450346,1.1943752045065164,4.336937609679997,2.2915460261933505,-8.199509402394295,-4.866953125414252,0.2282654941082,-0.3044247627258301,0.3515299260616302,0.4576296217603547,-0.8551864322355714,0.1296214484747188,-0.2059842582839147,-0.3629783987998962,0.4384776353836059,0.9785597920417786,-3.101583621314168,8.066091696551442,-3.749117262969911,0.1662101000547409,-0.1271385997533798,1.1634929403129963,-0.1350301504135131,0.7584547804649919,-0.0087558330884727,234
1726994774370271500,9.587533786344528,2.301706916332245,4.320114192911983,2.329604977083206,-8.27404412663579,-4.720545589616894,0.6549683809280396,0.3213615715503692,-0.6823300719261169,0.4648198352448232,-0.8514342260927408,0.1254615413599221,-0.2079947068714758,-0.6457171440124512,0.5284636616706848,1.787694811820984,-3.6218513577550646,7.115376195326447,-2.960036385029554,0.2722713351249695,-0.2009831070899963,0.939541488520801,-0.1366311907768249,0.6353654302824289,0.1175550603983923,235
