time_imu,phone_acc_x,phone_acc_y,phone_acc_z,phone_gravity_x,phone_gravity_y,phone_gravity_z,phone_gyro_x,phone_gyro_y,phone_gyro_z,phone_ori_w,phone_ori_x,phone_ori_y,phone_ori_z,watch_gyro_x,watch_gyro_y,watch_gyro_z,watch_acc_x,watch_acc_y,watch_acc_z,headphone_gyro_x,headphone_gyro_y,headphone_gyro_z,headphone_acc_x,headphone_acc_y,headphone_acc_z,frame_imu
1722247435825607700,1.0287155634894969,24.700433753430843,0.6061165029117838,-0.2113949352210387,9.788788180094956,-0.5525466060919687,-0.0544787012040615,0.3006376326084137,-0.0788618326187133,-0.5437580019472529,-0.56558785548977,-0.4563796826308912,-0.4197083790631936,0.0973162651062011,0.0246811341494321,-0.3213358521461487,21.113351511240005,-12.46618601962924,-0.6413890014208853,0.1932369768619537,0.0381364151835441,22.06497185235024,1.213692545890808,0.3777952750701457,0.953076092876494,0
1722247435865385700,2.1043843090727923,17.45645631263256,-2.6737071683228013,-0.3037950595641508,9.788212426033615,-0.5186615068206564,-0.4470809698104858,0.071260392665863,-0.2898984849452972,-0.5447849093161786,-0.5603735913735901,-0.4608967515730793,-0.4204344404832366,0.4205931425094604,0.4749148786067962,-0.3412792086601257,16.62095709012747,-11.753214275640248,2.768644044601917,0.0656819194555282,-1.1263457536697388,12.07507423993349,0.9598567485809326,0.4196714096279814,-0.742580481115356,1
1722247435905167600,-0.0609314020311459,1.664081212967634,-3.1021815872073173,-0.3629921120833605,9.797711491262913,-0.2085510900972411,-0.957727074623108,-0.2431275993585586,0.050536036491394,-0.5562911304684908,-0.5518190782014463,-0.4540141535967304,-0.4241545993852609,0.9828684329986572,1.074079990386963,-0.3380680978298187,6.347476929363608,-5.097612477347255,1.3210048576444386,-0.1840385198593139,-2.188106298446656,-7.5972127865642305,0.2412280142307281,-0.6578104132592678,-0.4043054251266643,2
1722247435944950500,-2.5673607170179484,-12.483980034995078,-3.016867694798112,-0.241935929962527,9.799480839022994,0.286430138064269,-1.7784209251403809,0.8204877972602844,0.4391735196113586,-0.5648336011710718,-0.5378025268438359,-0.4429046952622972,-0.442229522832647,1.6023266315460205,2.641895532608032,-0.5914279222488403,-5.734480640342832,3.401989586429298,-3.2871202214509245,-0.2091789990663528,0.5325472950935364,-12.823327725183963,0.3601060807704925,-3.4237530899479984,-0.8293108161937445,3
1722247435984732700,-0.4943815635016187,-15.604181263017653,1.0163719224840402,-0.1125487034784629,9.756192901438476,0.9871258811902254,-1.2061699628829956,0.0266045611351728,0.2714913189411163,-0.5764834196904922,-0.5161988114762245,-0.4280296393743764,-0.4669007330690216,1.4589282274246216,1.141873478889465,0.0145474188029766,-15.800137550359963,8.056662773948908,-5.646428262880444,-0.0719939917325973,-0.404350996017456,-6.413340271371602,-0.2532503604888916,0.2045753183340653,0.1316980059107765,4
1722247436024514600,0.7763271217640488,-14.396230537623168,2.058080530798435,-0.0432525922765024,9.74639105387032,1.0846081311032176,0.460483968257904,-0.3702346384525299,-0.0129695497453212,-0.5804681915539678,-0.5175947932809157,-0.4204711705116525,-0.4672861371483967,-0.9030871391296388,0.2943356931209564,0.1615853905677795,-12.679127344042062,8.687430866503716,-7.814711628150939,0.0675435215234756,-0.1922880709171295,-10.065780244135857,0.2364198565483093,-1.1440764383118598,0.0949730892368126,5
1722247436064296400,0.8292511949609964,-12.673531131470202,0.0824088916826993,-0.037369217343314,9.772507491901516,0.8167633231792598,0.7929209470748901,-0.1682497859001159,-0.0155514813959598,-0.5754781299023045,-0.52777006792457,-0.4240464771673353,-0.4587682942359117,-0.8124733567237854,-0.4631052017211914,0.4001040458679199,-11.494977180951834,5.385644406318664,-4.56265190642625,0.0252354778349399,0.1036043018102645,-10.005541756272317,0.0120784817263484,-1.1177828901480882,-1.09266262354739,6
1722247436104079400,0.7165412730388343,-10.770906535321473,0.2354313886404037,-0.0409273322332883,9.7960175468266,0.4546971668343991,1.1374551057815552,0.0383594632148742,-0.0061281588859856,-0.5660538501815515,-0.5385885438531097,-0.4321334011251578,-0.4502956198726764,-0.5871782302856445,-0.8446221351623535,0.339432954788208,-9.823978735941647,4.513578371177614,-3.39937443549484,0.0786051377654075,-0.1136161163449287,-9.703210083791612,-0.3863405585289001,-1.1356317044410853,-1.4409896659404038,7
1722247436144471300,0.4679283677967265,-9.511527820506693,-1.0806751755684614,-0.060614924527076,9.806463537517187,0.0013394170688407,1.0764386653900146,0.1347076147794723,-0.1136533021926879,-0.5532715917029292,-0.5504636058677629,-0.4437584110199725,-0.4404077196904878,-0.6567005515098572,-0.8829894065856934,0.411653608083725,-7.9181223182648415,4.3351369899988175,-2.9911814648777244,0.1085032746195793,0.0137967644259333,-10.027587583863736,-0.596435546875,-1.4207427044644951,-1.355099288817495,8
1722247436184889600,0.6124584192844107,-8.414841421335936,-1.2144202136695383,-0.109077638967568,9.798989256113767,-0.371888060320355,0.9004615545272827,0.0582112446427345,-0.1014364957809448,-0.5428045188028233,-0.5587678661006871,-0.4546861395255974,-0.4317432943728606,-0.5982609391212463,-0.5878228545188904,0.4388037621974945,-7.123229831436276,3.938405032333732,-1.8393071392312643,0.0885140523314476,-0.0179154779762029,-10.152024110871553,-0.7772407531738281,-1.1384154899407175,-0.7458546074151993,9
1722247436224671500,0.1078788941696751,-4.452660961139202,-2.018303816205263,-0.1288278481687884,9.783349203911422,-0.663201750908792,0.3185382485389709,-0.0881644785404205,-0.0475361868739128,-0.5349970372917519,-0.5664616397692056,-0.4614489015367707,-0.4242218468140578,-0.431189626455307,-0.3410595655441284,0.3125258386135101,-4.876091540637612,2.7629718441843987,0.0795804633237421,0.0124773839488625,3.17765736579895,-8.36479231905341,-0.194965973496437,-2.7133994195029136,-0.0325794760158634,10
1722247436264454400,0.157786697418522,11.191051517277955,3.4182302348732945,-0.2088131568332202,9.778864167451855,-0.7075447505041956,0.7637353539466858,-0.0157516617327928,-0.1531052887439727,-0.5359386049939199,-0.5663298434506967,-0.4640530707563523,-0.4203512315819756,-1.2457829713821411,-1.4745715856552124,0.5466201305389404,4.419247351837158,-1.9393033447265624,0.0863204391032457,0.2826337516307831,1.223791241645813,5.283391654068232,0.0527542456984519,0.2810684831669554,1.205536796120554,11
1722247436304236300,0.1817387787563726,11.865497423517704,-2.873129670470953,-0.2457837279644794,9.745464586675167,-1.0657808271668852,0.1398168504238128,0.4188459515571594,-0.1869119107723236,-0.525568444896447,-0.5743979566551803,-0.4737158283249786,-0.4116285680961223,0.1962457746267318,-0.3159629106521606,0.1460937857627868,8.920494356968998,-9.76071476277709,3.441045877793431,0.5676718950271606,2.005793333053589,14.321349776422975,0.272187203168869,-0.7176455810189246,1.927034230262041,12
1722247436344018400,-1.265032648923248,12.09072072187662,4.995916774457693,-0.2888042467844672,9.728086166372895,-1.2046990301221607,1.415654540061951,0.0458408594131469,0.1783639937639236,-0.514775030718544,-0.5681793561536056,-0.4884616433431152,-0.416634177585801,-0.3280299603939056,-0.3131164014339447,0.6368000507354736,12.54611704995632,-7.539165086743235,1.35643740555346,0.414093017578125,0.7071409225463867,3.5984456399872897,0.6847804188728333,-1.2182681212693451,0.5966552489422261,13
1722247436383801300,0.3107210229024291,6.63947659292221,-3.1062241405963897,-0.2094164382223039,9.679403091746568,-1.5606734454631803,0.2259708642959594,0.1967842280864715,0.1484195441007614,-0.4847568344675931,-0.5580874338198613,-0.5177939911848036,-0.4306259105754774,0.3218362033367157,-0.3415121138095855,0.7052205204963684,6.145483699944615,-3.863461142769456,3.4632536179482933,0.0959642454981803,-0.5501916408538818,7.390707632678747,0.0754685178399086,0.7676843811031431,-0.8640487329021096,14
1722247436423583200,-0.2211019441125914,0.1604097576647996,0.9424224507845936,-0.1366814751454629,9.649381462970377,-1.7438810181304811,0.5169001221656799,0.0618598796427249,0.0836557820439338,-0.4597431375250447,-0.5426366787159809,-0.5426404146468562,-0.4469037946315436,-0.0439708232879638,0.0083141978830099,0.3981198370456695,1.765375349318981,0.0023801731348037,-0.4483090001672506,0.1437957286834716,-0.3666486442089081,-2.0716364702031016,0.1656964868307113,-0.3134348849710077,-0.2266944120910949,15
1722247436463365400,0.385737064387463,-4.198406214085221,-0.5994635843612254,-0.1475140905334614,9.642972180449965,-1.7781288862995803,-0.2379632592201233,0.2371427863836288,-0.1371601521968841,-0.4412340614218228,-0.5214487318214995,-0.5645799863646309,-0.4633068989193671,0.3614786863327026,0.0954279005527496,0.2842475473880768,-2.2112059766739605,3.608720073503256,0.1099772820878773,0.0065589733421802,-0.2220934182405471,-4.630498823466897,0.1801787316799163,-0.5406768662085756,0.2051630916267633,16
1722247436503147000,-0.0444068038129247,-6.753495186290144,1.8831823751844463,-0.170322865321394,9.654369188255073,-1.7130444197095929,0.1269801408052444,0.1789865493774414,-0.0396564900875091,-0.4266694507330262,-0.4988422242314465,-0.5818052897716006,-0.4802209646771133,0.0592170804738998,-0.0941877290606498,0.1339221447706222,-5.032653390702605,4.245549073532223,-0.7045733334779739,-0.0604499019682407,-0.217148408293724,-6.118962772765755,0.3927242755889892,-0.8575724495600908,0.2452065673973411,17
1722247436542930200,0.365038450153917,-7.414243406566977,0.6466894459165632,-0.1576406948102638,9.628430444878338,-1.854414691992104,0.401271253824234,-0.0256972927600145,0.0844891592860221,-0.4082072286526728,-0.4845628471106635,-0.599789697606339,-0.4886900689497767,-0.1076789647340774,-0.0285481046885252,0.1408760547637939,-6.008840017792582,3.9685114167839286,-1.1269021622795612,-0.0614180900156497,0.2356670945882797,-6.280769537746906,0.3558598756790161,-0.9552139086227864,-0.7198951865766197,18
1722247436582544600,0.2984888063821941,-0.1091892735153436,-0.4101543338179588,-0.1346357398631051,9.601450668016076,-1.9910805859759448,0.4558338820934295,-0.6435128450393677,0.2348606288433075,-0.3937192716664324,-0.4751852781671599,-0.6129566149358283,-0.4934250499183983,-0.3579015731811523,-0.5050820112228394,0.3954453766345978,-4.975747262132168,2.4130256030917168,-0.1513192732363939,-0.084413431584835,0.8325799107551575,-0.409375312269479,-0.1666993945837021,-0.7138727844819426,-1.7576830412507056,19
1722247436622319900,0.0582192432958865,16.90998913605213,-1.4968600217223167,-0.0561244036082178,9.54563993346691,-2.246773841400445,0.8239333629608154,-1.3637593984603882,0.1566271334886551,-0.3803935138904387,-0.4766693836938309,-0.6223663579375558,-0.4906599532255274,-1.1858218908309937,-0.8459901809692383,-0.2568829655647278,9.64739818019867,-4.544323930314183,0.3067337068319321,-0.0875993892550468,0.9887790083885192,11.37926055149436,-0.3388793766498565,0.335826639923267,-0.9354151293057948,20
1722247436662096400,-1.3362697929240763,25.90392925298213,-11.449647508406638,-0.1762670328143984,9.522323939809205,-2.337661880680173,-1.1387977600097656,-0.2580973207950592,-0.0158342625945806,-0.3902155688185121,-0.4862093920393766,-0.6186986466254369,-0.4780630129352948,-0.5924704074859619,0.3314357399940491,-0.7090234160423279,18.388013524401188,-14.578838683092592,0.8822551284611224,0.0877353847026825,0.1374545395374298,24.82987495685816,-0.1536684036254882,1.4593195417486131,0.6828685744091868,21
1722247436701871900,-0.2201277287855744,20.05353383026123,-4.1908056759536265,-0.1470828777756541,9.654467387932538,-1.7146419180341064,-1.5388013124465942,0.1731552183628082,0.0799543932080268,-0.4035489738638412,-0.4723858103855911,-0.6035512057472449,-0.4997257009491166,1.747228741645813,0.95897376537323,-0.7514981031417847,19.05342856744528,-19.262804308331013,1.6730752512842415,0.0367423743009567,-1.0127315521240234,18.97158381245136,0.4405654668807983,2.037206085073948,1.2700843793548642,22
1722247436741647400,-2.4722768334835767,0.6598562398731708,-2.370649081263691,-0.0214339884365443,9.74579425702095,-1.0906181121077387,-1.7547471523284912,-0.131530076265335,0.6860821843147278,-0.4149529054869753,-0.4626946797336046,-0.5843968535412132,-0.5217357224567533,1.41822612285614,2.092537641525269,-0.0788202807307243,7.998250916990638,-6.380652638256549,1.8738743024826048,-0.0710946917533874,-1.942965269088745,-2.2033852199204267,0.4313511252403259,-0.0452220063530607,-0.0101276032155787,23
1722247436781423000,-0.313308518644981,-13.894426678633687,1.107466736382246,0.3025347025058232,9.796749368232488,-0.3202229011433198,-1.953686475753784,-0.0747720301151275,0.7824773788452148,-0.4082818282016623,-0.4395928084662306,-0.5684056537786932,-0.5630089293004666,2.174059629440308,2.895443916320801,-0.315188467502594,-4.992682614842057,5.288620786893367,-3.238616010522842,-0.5125685930252075,0.5577507615089417,-13.991749573266503,0.2216217815876007,-3.5086072558909653,-1.0623562595456837,24
1722247436821199400,2.486198391330242,-16.185689357841014,5.655217134013772,0.4736334841031581,9.793319978305696,0.192171763834916,-0.2139677554368972,-0.4231411814689636,0.0444871485233306,-0.4078448949420438,-0.4272234547731973,-0.5546909825534623,-0.586055074367977,0.2687287628650665,0.5896609425544739,-0.2902325093746185,-17.76772824741602,13.407566706275938,-7.664898667824268,-0.3666344881057739,-0.5847168564796448,-3.528740820120275,-0.4497744441032409,1.1733868500787763,0.5672738542983308,25
1722247436860967000,1.8054530926853416,-15.469937627744674,1.5393208608329296,0.3798544360896572,9.799272164708375,-0.0196007770934375,0.700985312461853,-0.1894294917583465,-0.4750657975673675,-0.4033777521789999,-0.4263885815241668,-0.5649709187726267,-0.579902690777494,-1.0974071025848389,-0.5463166832923889,0.0162271410226821,-14.237732751059532,8.103054522767662,-7.002479883986712,-0.2892883718013763,-0.4571210741996765,-9.48107306101024,0.0207822136580944,-1.0614929207146169,0.8752324632827192,26
1722247436900742700,0.2260802439818158,-12.452038251811263,0.2722258360197767,0.1824301768203265,9.800760357439517,-0.2867414690357632,0.809240460395813,0.4605327844619751,-0.4684678316116333,-0.4009352579204416,-0.4236817624166971,-0.5788898952200685,-0.5697642450270903,-0.97120201587677,-0.96298348903656,0.2909979224205017,-11.443637454336882,6.136762048828602,-4.55206942987442,-0.0915625169873237,-0.179153099656105,-10.90845622640252,0.0673908367753028,-1.563833663059771,0.2271201814888045,27
1722247436940519200,-1.0427264801200478,-10.514361046981811,-0.2226571741979569,0.0612535786236403,9.785326056942344,-0.6434454224940389,0.955176055431366,0.3497786819934845,-0.2104211747646331,-0.3863068208449459,-0.416303929230984,-0.5995812070358878,-0.5638797925266346,-0.3624041974544525,-0.8964627981185913,0.434313952922821,-7.718124646577238,5.106595994269847,-2.622265442638099,0.0672232210636138,0.1822667568922042,-9.99863270753622,-0.2103185504674911,-1.6098513178691267,-1.140969485272467,28
1722247436980294400,-0.4293037823807448,-9.330593745729328,-0.9422304353438318,0.0234867060155374,9.755862062048912,-0.9964742859024552,0.7811512351036072,0.0364654511213302,-0.0583709888160228,-0.3668467455468107,-0.4077195673465628,-0.6201377287447823,-0.5609075812763434,-0.5642380118370056,-0.5523080229759216,0.4480261504650116,-5.778576971700788,5.65186256288886,-2.118259251298756,0.1173250153660774,0.4126472175121307,-10.220538259649276,-0.6027005314826965,-1.557167044777423,-1.574560370387882,29
1722247437020070100,0.1000979214372578,-8.1417393504709,-1.2521123770736158,0.0001593909565606,9.728495331695676,-1.235612200910598,0.4575042426586151,0.2499807924032211,-0.0723428577184677,-0.3502479447818588,-0.3975569707797761,-0.6363545767107909,-0.5606492294305722,-0.4739424288272857,-0.2194189429283142,0.3553771078586578,-6.799896871981025,4.994294726213813,-2.130943668565899,0.1000020503997802,0.1812317669391632,-9.508404720050097,-0.8955761790275574,-0.8929246987745165,-1.2482725066497922,30
1722247437059845400,0.0679890334916533,-5.374043984895945,-0.1894470515787601,0.0090741646229114,9.709643331709504,-1.3759116290912032,0.5727230310440063,-0.0976372361183166,0.0967007577419281,-0.3377251611942197,-0.389561356654423,-0.6468337661440015,-0.5619517640194125,-0.2312685549259185,-0.0716462060809135,0.1269220262765884,-4.476901668426394,2.93249780524075,-0.7743560408867896,-0.0181682743132114,1.0436463356018066,-9.619784197086096,-0.8623501658439636,-1.5741224173620345,-0.8526831431485712,31
1722247437099622000,1.6336936734884977,7.237234396278858,-2.132569516202062,-0.0024940798401788,9.70054466397464,-1.4386810967370869,-0.2567963302135467,-0.3480316400527954,-0.2214629650115966,-0.3287513952293927,-0.3809359392393822,-0.6544005924729326,-0.5644202160754697,-0.6414070725440979,-1.3727258443832395,0.2744443118572235,2.224304527699948,-1.5354939960211516,1.0219862552344798,-0.0671491250395774,0.0355495773255825,10.533649100297689,-0.6626930236816406,2.741545609796047,0.8572322578202932,32
1722247437139397600,-0.5730332215426489,13.143318388473986,0.4672678215287625,-0.0412292925882386,9.670133159098029,-1.6301025171287358,0.7479968070983887,0.0532878115773201,0.0096393534913659,-0.3140212910845896,-0.3685378047532179,-0.6687989112129915,-0.564161901595701,-0.0649629235267639,0.0488845817744731,-0.3665875494480133,12.367367918002603,-10.836584583890437,0.3963783219218253,0.1178556457161903,2.364396095275879,5.971900572451949,0.2264866530895233,-1.4027438141763209,-0.0953588371513877,33
1722247437180415200,1.2040849898770452,14.972317776441573,4.441481395477056,-0.0883868701137602,9.674789460471272,-1.6003125051513314,0.9109724760055542,0.2687041461467743,-0.0561343990266323,-0.3097087888537519,-0.3590121455391035,-0.6728324526123318,-0.5678795286640538,0.5475302934646606,-0.7092275619506836,0.3410076797008514,12.219461668080092,-8.606645849695802,1.210346096098423,-0.161590576171875,-0.2969430387020111,8.804162810483575,0.3751140832901001,0.3008693083105608,-0.7007544327769428,34
1722247437220191500,-0.1191300728964619,6.56666737729907,-2.36407642487511,-0.0043209624780211,9.56680956274569,-2.1555770284324884,0.7380257844924927,-0.044771958142519,0.3081886768341064,-0.2986229772336449,-0.3730847961622329,-0.6860842340037343,-0.5485621792299834,-0.7989485263824463,-0.1679316610097885,0.3691251575946808,6.5904416361182925,-6.38205023009479,3.0930823349505663,-0.1137055084109306,-0.4629747867584228,5.344534397295117,-0.0504543855786323,0.9641412383787332,-1.0105136249098927,35
1722247437259967000,0.7668774486344307,-0.0477232896834611,-1.261879591719806,0.083213887922652,9.552702711459991,-2.2156978812657298,-0.0091605074703693,0.034952063113451,0.1239362955093383,-0.2944831877086925,-0.3765947157981638,-0.6864004438826435,-0.5480058789238081,0.4514048397541046,0.3210161328315735,0.4172303080558777,1.3632102606892584,-0.714659258684516,0.8484815267402678,-0.1385694146156311,-0.5489220023155212,-2.0475078449882567,-0.0874866023659706,0.2694365523611195,-0.3812256879102438,36
1722247437299742500,0.4075434937324375,-4.446800544673204,-1.1398629853352904,0.0982316161087248,9.577423895740507,-2.105626564218849,-0.6039268374443054,0.1381824761629104,-0.0765055194497108,-0.2951465811374077,-0.3741115769909202,-0.6836648313445599,-0.5527488827024646,0.5667582750320435,0.3805440068244934,0.1287783086299896,-3.303144304534793,3.80617975114584,-0.9910831674486398,-0.1333461552858352,-0.5007866621017456,-4.636555347026884,0.070782296359539,0.1159244452555663,0.5198753761224448,37
1722247437339518000,-0.0386435504113556,-7.491539412215352,1.4247604156732558,0.0690200707395561,9.626269467452168,-1.87097931169346,-0.4237402081489563,0.147710308432579,-0.0949312597513198,-0.2989121637432285,-0.3674751986695477,-0.6784949352459758,-0.5614785277151374,0.3958656787872314,0.1997866332530975,-0.1263954490423202,-5.116701208698749,5.32050820954144,-1.9031427748039365,-0.1273126304149627,-0.3769023418426513,-7.068568851444125,0.3343329727649688,-0.7796348580725491,0.5268187655195593,38
1722247437379294700,0.142804588535102,-8.254693529477715,2.1174014654256403,0.0402020775655051,9.63584802765846,-1.8218670518696307,0.1335977613925933,0.1252335011959076,-0.1396671086549759,-0.2991473141339676,-0.3638414696008821,-0.6786079530507719,-0.563579193369842,-0.0172910094261169,0.0321946032345294,-0.2257317006587982,-6.907213337361812,5.414040479719638,-2.53047826256156,-0.0885321348905563,-0.0002121626166626,-7.444653157877922,0.2850112020969391,-0.952476227287203,-0.2307251106455922,39
1722247437419070000,-0.4014097402177751,-3.786433432668448,0.9077718470335008,-0.0085971199832245,9.61990577763915,-1.9046581478029487,0.2950517237186432,-0.0698331817984581,-0.0382755659520626,-0.2989375572317529,-0.3633181920489519,-0.6819900537017889,-0.5599337276188714,-0.3230186998844147,-0.2864742875099182,-0.0286014508455991,-6.168258426332473,4.241310120788216,-1.7803525536984204,-0.077365718781948,0.4539992809295654,-3.7572234125360846,-0.0964781492948532,-0.7908373662188649,-1.129683390495926,40
1722247437458845700,0.6270043561071157,17.347196311968563,1.025212523804605,-0.0031652867827637,9.5664746317029,-2.157072089295834,1.0854787826538086,-0.5794107913970947,-0.1474219709634781,-0.2955856117459421,-0.3694282593634424,-0.6881154179731502,-0.550135586291618,-1.1441292762756348,-0.7462561726570129,0.5054208636283875,2.7064859868526456,-2.377796468800306,1.793266395807266,0.3431263566017151,1.2371376752853394,8.443411097738146,-0.1723219603300094,0.2686710661476478,-0.0066691070669563,41
1722247437498622200,-0.219755023015663,25.12664139642716,-15.641332305282354,-0.0977758260320872,9.563991582715513,-2.165841963467747,-2.016059637069702,-0.6293535232543945,-0.0522236712276935,-0.3115464909646547,-0.3830415900619863,-0.6809598739424747,-0.5408433043112184,-0.2417805790901184,0.6836761236190796,-0.5470823645591736,18.705443981814383,-17.296946134155988,6.267620717838407,0.4254764318466186,0.573016881942749,19.513913743096587,-0.3949007093906402,0.5124691915191709,-1.5487003913357853,42
1722247437538397400,0.1291124007312115,19.20602034483552,-3.0234032340466976,-0.1523060649171937,9.739726919806005,-1.1335291792038829,-2.0926876068115234,-0.0063172159716486,0.0786075592041015,-0.3345713235345504,-0.3656244647304545,-0.6512393210882013,-0.574689534584604,2.30662488937378,1.1856809854507446,-0.3261222839355469,18.603330345773696,-18.896769686746595,2.0916632130570707,0.1124414578080177,-0.5939785242080688,22.80579489533901,0.460844486951828,1.950210523188114,-0.0066489165164093,43
1722247437578173200,-2.065536545892805,6.893904942977428,2.454700844782591,-0.0464486072722589,9.780362881577014,-0.7160612344369292,-0.9322882890701294,0.2745953798294067,0.4597507119178772,-0.3379803363166519,-0.3606058473636195,-0.6375518675339068,-0.5909825820511942,1.585230827331543,1.4431195259094238,0.0489946715533733,7.556456413283944,-9.649791797336936,-0.4344315737232566,-0.5688052773475647,-1.5980993509292605,4.300499684120714,0.6389191150665283,0.2928486268044449,-0.6745209442373364,44
1722247437617948400,-1.3807872723035512,-9.855136090749502,-0.4613771925875917,-0.0138352518196799,9.800070621609688,-0.3589365530822426,-1.4523323774337769,0.6282178163528442,0.0196702890098094,-0.337745438229165,-0.349453834271092,-0.6294304483987847,-0.6063228968046902,2.128284454345703,2.1303465366363525,-0.0169199593365192,-3.1145103229045867,7.505878318691253,-3.0987358306676147,-0.759181022644043,-0.3778528571128845,-12.407102547019718,0.6377894282341003,-2.1946461792781946,0.1711974561988376,45
1722247437657843200,0.2585347259281203,-14.933077652943131,2.616262110570073,0.0025828529605307,9.800208568775654,0.3553912086255848,-1.4478697776794434,0.5252397060394287,-0.0725421905517578,-0.341095370299172,-0.329111295032227,-0.6112003319557943,-0.6338563748859697,1.023084044456482,0.2462724894285202,-0.7633960247039795,-12.435214542782306,13.968731101250649,-7.358440855324268,-0.2464157193899154,-0.1720625460147857,-4.3341386266112325,0.1491363942623138,0.922554990145564,1.452203718394041,46
1722247437697623000,1.0960640294887125,-14.158869057703017,5.742457026049494,-0.0780795115757267,9.799028419080376,0.3786189760105684,1.0485254526138306,-0.224175214767456,-0.3586680889129638,-0.3439187559049715,-0.3260222115342642,-0.6118866912705014,-0.6332647137085432,-1.0067692995071411,-0.7526633143424988,-0.5119211077690125,-10.893937871706486,8.55509803328812,-8.30130915018022,-0.0187294837087392,-0.1619411259889602,-10.523547393000126,0.155102401971817,-0.8305651271037757,1.398317083775252,47
1722247437737403000,1.011901791332662,-13.062193764448166,-1.3171335691690444,-0.2406697459516115,9.803687058541176,-0.0147910958063672,0.7220853567123413,0.0948662534356117,-0.3660807311534881,-0.3430259761720853,-0.3282575261770584,-0.6268980240188256,-0.6177209902422152,-1.362657070159912,-0.9106760621070862,-0.0297415498644113,-10.969261700499056,5.79391950226128,-3.468885194094479,-0.0466678105294704,0.1447824388742447,-10.761785655754805,-0.1315285712480545,-1.323310358107835,-0.2369029224976897,48
1722247437777184000,0.2429177623404189,-10.598001453220844,0.1984825909495353,-0.2861630298269912,9.797141582420467,-0.3232796218328178,0.9544022083282472,0.0761813670396804,0.0609979629516601,-0.3386020632553335,-0.331478484005504,-0.6376556186625932,-0.6073433547687396,-0.5098530650138855,-0.9359757304191588,0.4487136006355285,-8.467578739789127,2.951686489835381,-2.738832551445067,0.0011550069320946,0.276847243309021,-9.921915378558635,-0.3027518689632416,-1.397249600674212,-0.225595109079685,49
1722247437816963800,1.2080450526144355,-9.603949499094483,-0.514199303247407,-0.282387073218543,9.777829563707114,-0.696219273565337,0.801769495010376,0.490138828754425,-0.1257021576166153,-0.3287416340659456,-0.3343187976355768,-0.650944117995634,-0.59701907489195,-0.4716846048831939,-0.5813668966293335,0.5745091438293457,-7.059735556647181,4.982220842060446,-3.339170726683736,0.101208284497261,0.1475306153297424,-10.00626071819663,-0.41447314620018,-1.4301703118927775,-0.4377196189505979,50
1722247437856740000,1.465318051511049,-8.514393097934127,-1.30712655441761,-0.3780512591252103,9.759078686007856,-0.8876073762092739,0.1927583664655685,0.5733764171600342,-0.4021555185317993,-0.3218102990490928,-0.3270010499025612,-0.6620617011903296,-0.592606733714502,-0.0647677183151245,-0.6380391716957092,0.5474218726158142,-6.812359463191032,5.425080344650149,-2.0650464242883024,0.1237068921327591,0.0181708503514528,-9.874731602579354,-0.5510746836662292,-1.4957408084340391,-0.4971374380810186,51
1722247437896520000,0.3748841003311797,-6.3928293982625,-0.7877708182550966,-0.4525461262803524,9.749800570052862,-0.9523651681281624,0.0638861060142517,0.7852630615234375,-0.0963447988033294,-0.3148862000485882,-0.3163974095792173,-0.6696639369991745,-0.5935399453424942,0.3023666143417358,-0.6079773902893066,0.1278669834136963,-5.32949640263915,3.4300358234792947,-2.3344138386696573,0.1823708713054657,-0.1993802934885025,-9.45806160325706,-0.7097948789596558,-1.623889926224202,-0.569425442841649,52
1722247437936301000,-0.8266371400050818,-0.3024158436328172,-2.847776618027687,-0.4565052391696721,9.758015440690516,-0.8620392927758396,-0.8667091131210327,0.7038981914520264,-0.1325562447309494,-0.3075362917005402,-0.3048184676757279,-0.671593234276922,-0.6012234270934314,0.7411599159240723,-0.2833315730094909,-0.0556796081364154,-0.2416092004925012,0.9263789323478936,0.984292484395206,0.6162857413291931,-0.3071045875549316,14.244664011627435,-1.637621521949768,2.00168205948919,-0.3236712514989078,53
1722247437976081000,-0.459563713424839,10.793806933915617,1.891893943297863,-0.5151754182705656,9.776723063769936,-0.5662549595793709,0.0794733464717865,0.6460914611816406,-0.0796630308032035,-0.303791041888749,-0.2871079700258903,-0.6681616431599545,-0.6154997576402939,0.0028984141536056,-0.2432427108287811,-0.3344257473945617,12.2825923702538,-8.381496201094984,0.3615367256432771,0.3465189337730407,-0.9544488787651062,13.353110308945178,-0.1036622077226638,1.805317337476462,1.3307308634974062,54
1722247438015861000,-0.8320232169575988,11.47066107034087,-1.634438938897848,-0.5223465520089492,9.766655258741974,-0.7141225945245474,-0.1593930125236511,-0.0876526609063148,-0.0774410814046859,-0.2989945645258401,-0.2860207332925651,-0.6742419880801849,-0.6117123961215009,0.4084397852420807,-0.9144929051399232,-0.2813702523708343,7.452212194955348,-5.857504962465167,4.788028057259321,0.0918540209531784,-1.706676006317139,28.13499319181442,0.2799454927444458,3.939713484583794,-1.1546314423348754,55
1722247438055641900,-2.1767560100615024,12.587593554204702,3.323544703006744,-0.5788204997071996,9.767067346674205,-0.6631379649575799,0.4120166301727295,0.7404769062995911,-0.0061696898192167,-0.2953640703071221,-0.2765376404573484,-0.6762673724671279,-0.6155887153937251,-0.1843572258949279,-0.4183415174484253,0.221654936671257,11.518141783440113,-8.715615342980623,2.4088614691495893,0.2084770202636718,0.0223850887268781,10.630822357326746,-0.123837411403656,0.8566486857786774,-2.041683815009892,56
1722247438095422000,0.659219330209121,7.415061152690648,-0.1584544588785618,-0.4792052198208868,9.744331198731064,-0.994352763703838,0.926542341709137,-0.5818905830383301,0.2406854927539825,-0.2871154402348165,-0.2845451188473652,-0.685369942320355,-0.6056952485254006,-0.2364310920238495,0.2319821715354919,0.3384611308574676,5.9841767011791465,-4.6221962745457885,3.684216336253285,-0.0705121457576751,-0.174960047006607,2.908592905779183,-0.1158309131860733,0.0586588813887443,-0.7929331694543361,57
1722247438135202000,0.1841134354658424,1.2100561732411383,-2.21913267802,-0.4269751933027058,9.72725556076765,-1.1698591143440455,-0.1648216396570205,-0.1373928189277649,0.1899532675743103,-0.2892796416281705,-0.2962789469062403,-0.6869243053503696,-0.5972194168864517,-0.047915231436491,0.5773651599884033,0.2023225724697113,0.5915279690563678,-0.9488193122148512,0.7949040311358868,-0.1012611836194992,-0.099730484187603,-0.799714500157535,0.0361561067402362,0.2677663358602672,0.2850773169495165,58
1722247438176224000,0.0037188378600403,-1.882735069808364,-1.7177648723602297,-0.3450422485686838,9.76339888729453,-0.8528587189111858,-1.3341530561447144,0.732753336429596,0.0977906584739685,-0.2874679991739843,-0.2898980633228746,-0.6778221038760248,-0.6114559857700276,1.101227641105652,0.4408810138702392,-0.0473203435540199,-1.3145096504062412,0.8130798854261636,-0.7758008328676224,-0.163082405924797,-0.0729118287563324,-2.412623744292557,0.1171949505805969,-0.1689716881744563,0.4952403357554227,59
1722247438216005000,-0.1512263890548609,-3.646183250457048,0.8360510111689567,-0.2969381428740918,9.791949274474382,-0.447143280856125,-0.4125026762485504,0.1191367879509925,0.2802798449993133,-0.2845838633773979,-0.2777626774782871,-0.6675671185303366,-0.629455330006262,0.2833567261695862,0.3639827370643616,-0.1050737872719764,-2.760004811072349,2.291376076453924,-2.047019623079896,-0.1663283109664917,0.1268975734710693,-2.3285259496748445,0.1073411330580711,-0.3124472256405279,0.5618935860320925,60
1722247438255785000,0.0895613937858492,-3.2824323558956383,1.1483457861941306,-0.1491174888757988,9.789275086829068,-0.564161348300986,0.8217379450798035,-0.4825152158737182,0.3491930067539215,-0.2828508929572047,-0.2894927524531606,-0.6670518491711906,-0.6254848649237145,-0.4655036628246307,0.1448040902614593,0.0263284444808959,-3.1444623935759064,1.8809943636208768,-2.2185125002950428,-0.1237184330821037,0.2908000648021698,-1.3617932334981857,0.0522779747843742,-0.1517618750378955,0.0980811199884396,61
1722247438295565000,0.2167181578041054,-1.2236112358629705,-0.1195499240100383,-0.0762084478736855,9.76642203450799,-0.8840695574719458,0.6792377829551697,0.0858507677912712,0.1260962635278701,-0.2775576723587998,-0.2985569121670896,-0.6752323858556062,-0.6147249399604704,-0.7643191814422607,0.0914201140403747,0.0225127339363098,-0.3589508008033037,1.1269470973998308,-1.2759972566604614,-0.1065854430198669,0.2651317715644836,-0.3785891653941944,-0.1091751158237457,0.0539020559502067,-0.4190387377476319,62
1722247438335346000,1.4843778490290045,1.342455641952157,-1.3827707012057304,-0.0685068239877931,9.757062670010328,-0.98255060916394,-0.1291439831256866,0.2212153375148773,-0.1581985801458358,-0.2747568423018574,-0.2990561558403976,-0.678720527576225,-0.61189254757736,-0.69526606798172,-0.2466707527637481,-0.1071064472198486,-0.54152329043746,-0.5862094043821096,1.0394956084400415,-0.0831441283226013,0.2999970018863678,0.2546643873007967,-0.3359336256980896,0.2922562138692475,-0.7173395107444376,63
1722247438375126000,0.1311530579796526,0.2647416542768478,0.3570645486652851,-0.115890031529311,9.762174898457529,-0.9256873698871584,0.0206098593771457,0.5710060000419617,-0.1143329814076423,-0.2713896238501097,-0.2902830952567999,-0.6803915376288344,-0.6157522067388459,0.0289992559701204,-0.1362504363059997,-0.2497359663248062,0.7372486916333436,-1.8748919550925487,0.5062770588807761,-0.0733326077461242,0.0892362967133522,0.3176006628809497,-0.5177873969078064,0.5775277199503034,-0.4606342652658,64
1722247438414906000,0.8572591458272188,0.2596206580013037,-0.6880757145982235,-0.1894265019810758,9.75592285232544,-0.9779890003368258,0.074267953634262,0.2521535754203796,-0.3537737727165222,-0.2679609192519773,-0.2829072584161032,-0.6854393076287036,-0.6150880824124697,-0.518334150314331,-0.0940079167485237,-0.1275954097509384,-0.2088970174580812,0.3505798628211021,-0.0953685456946492,-0.0812253430485725,-0.0293047465384006,-0.1884428247059695,-0.5314631462097168,0.347802068670839,-0.1295108802631963,65
1722247438454686200,-0.2584267355090007,-0.3428115669071674,0.3276875014029443,-0.3362332479627802,9.748733233082294,-1.009735699339956,0.1630208939313888,0.1933451741933822,-0.3006714284420013,-0.2690857024379082,-0.2747598793974222,-0.6899197081153298,-0.6132787806154055,-0.3926728665828705,0.1480285227298736,-0.0572895519435405,0.5398287614792585,-0.061159109839797,-0.4955576580762862,-0.1219233497977256,0.042797464877367,-0.31951734668985,-0.4701963365077972,0.1353567476140335,-0.1049529419866856,66
1722247438494467000,-0.9038554773073644,-0.9069079236805438,-1.5977240960933268,-0.3507063752776012,9.746301622021198,-1.028116793878749,-0.0870338752865791,-0.2642822265625,0.2039705514907837,-0.2704043155702147,-0.2757672922177116,-0.6901969051007006,-0.6119332418928254,-0.4087122976779938,0.0552461259067058,-0.1050307750701904,-0.1924064859062433,0.2731266207844018,0.0531651884764432,-0.165817454457283,0.1550246328115463,-0.3552210762230679,-0.3626991808414459,0.032112367677479,0.0549763341182144,67
1722247438534247200,0.3508563051423057,-0.1297843177765607,0.8090356515366584,-0.2517962114533409,9.748788178139923,-1.0334924225024875,0.2364049404859542,0.1318278610706329,0.228887140750885,-0.2682930806002111,-0.2805458209959508,-0.6884674952822828,-0.6126380032651385,-0.1266356110572815,0.1478775739669799,-0.0980959087610244,-0.3939566477328539,0.0094733462661504,-0.7949721279360353,-0.161788210272789,0.1932713091373443,-0.215419752024021,-0.270606130361557,0.0931690354895312,0.1118390939043834,68
1722247438574027000,-0.0168880064368248,-0.0914127938061952,0.3429576973795891,-0.1616296548485755,9.735855631330608,-1.1650667655009777,0.3825334012508392,0.3760997951030731,0.1971101909875869,-0.2605194452315535,-0.2820897866544902,-0.6926956219174576,-0.6105143397260301,-0.2213781028985977,0.1403364688158035,-0.1005249768495559,-0.167296594569087,0.2011269679784774,0.0081925126753747,-0.1234281212091445,0.2009214162826538,-0.1839201779160648,-0.2647746503353119,-0.0304096576961106,0.0138606237229541,69
1722247438613806800,-0.3189931036200374,0.0128057055592536,0.0630849633358418,-0.0359474500450422,9.721869776076078,-1.2862236132510003,0.1048562452197074,1.4657942056655884,0.1088320612907409,-0.2417965555416613,-0.2733047016471048,-0.7006309243295001,-0.6131520360589207,-0.2336331754922866,0.0530904047191143,-0.0707606896758079,-0.1803770254164934,-0.0743161130547523,-0.0002383388005197,-0.0883703157305717,0.2409668117761612,-0.1008171756225172,-0.3183140754699707,-0.0778993418363854,-0.1588170816458761,70
1722247438653588000,0.6616711072754115,-0.2145224561244249,0.3737596628785133,-0.0134409449976694,9.716061382058262,-1.3297946055606007,0.2155898213386535,-0.13325896859169,-0.0755752697587013,-0.2304655380986048,-0.2631803426031756,-0.7060713583447707,-0.6156987883550488,-0.2761995196342468,0.0516661442816257,0.0252903439104557,0.5712193405210971,-0.105844639262557,0.257997440713644,-0.0663663074374198,0.2063768208026886,0.0011667918859602,-0.4222605228424072,-0.0033642151652689,-0.1573226966359652,71
1722247438693368000,0.9877806187719106,-0.2263829897880554,-0.9812230138219892,-0.0832215871719177,9.708320558673142,-1.3827521426357328,-0.0519872121512889,-0.7485551238059998,-0.188277393579483,-0.2402270668245387,-0.2708314490429835,-0.7050894026651737,-0.609746170694652,-0.499485582113266,0.1531463116407394,0.1347617655992508,-0.1451046365052461,0.5337637623518705,0.0192195181243121,-0.0672782510519027,0.1411537230014801,0.2010789458519779,-0.4360168874263763,0.1850351351543329,0.0634106698925606,72
1722247438733170700,0.7404793441176414,0.2077513545542955,0.5361293224394321,-0.1832289259825833,9.711575761076809,-1.3498586116850375,-0.0269267801195383,-0.192643404006958,-0.1752882748842239,-0.2485892881576218,-0.2723057681191271,-0.7033300843782603,-0.6077662285502762,-0.4582875669002533,0.1573582738637924,0.0300448182970285,-0.0491822563201189,-0.7293506318598986,0.5201935021609068,-0.0646980479359626,-0.0134896701201796,0.2025456026047468,-0.3757165074348449,0.2509388457053341,0.1745264544910751,73
1722247438772952600,-1.426682908168435,0.0805190593481063,0.3996434611976146,-0.1965858174175024,9.712663556313514,-1.3401152163058518,-0.1178868040442466,0.7384247183799744,0.0236960556358099,-0.247212339056629,-0.2694634144407631,-0.7040712522998056,-0.6087357524216688,0.0447997897863388,0.1674205064773559,0.0321098342537879,-0.3251403011381626,-1.1310375815838574,0.1274327862143516,-0.0460138283669948,-0.0238184053450822,-0.1149784513760358,-0.3365799188613891,0.0439241622619796,0.1322922637431882,74
1722247438812733400,0.488259135098569,0.1274257719516754,-0.0601553396247327,-0.1421472114717587,9.725012750276925,-1.2547104307428,-0.2643275856971741,0.891426682472229,-0.0827931687235832,-0.2354686715354411,-0.2575139180772307,-0.705449509701912,-0.6169133281538527,-0.1136351227760315,0.1249375343322753,0.1043779104948043,0.0242120657145977,0.771957601442933,0.521440871873498,0.0008689630776643,0.0098109673708677,-0.0701159670843277,-0.2972574830055237,0.2039311934779398,0.198577429626137,75
1722247438852511200,-0.630946006404981,-0.0211176068305969,0.344121115135774,-0.1301108280508779,9.734691263726353,-1.1786498851735143,-0.0681250691413879,0.4577856957912445,0.0817758068442344,-0.2274249322769513,-0.2472006616606545,-0.7063895910493923,-0.6230436358605617,-0.529842734336853,0.0865572318434715,-0.0188333094120025,0.2537994045019149,-0.2954530188828707,-0.0737086486808955,0.0185809843242168,-0.0071635330095887,-0.1621421161490492,-0.2423531711101532,0.1192846698031295,0.2673301181337796,76
1722247438892292000,0.6413678125023842,0.3006727993577718,0.4140661004342139,-0.077982051683776,9.730881350049376,-1.2141779293462631,0.1246316581964492,0.4930199682712555,0.0434460528194904,-0.2199413417580942,-0.243415548607082,-0.7089814631573356,-0.6242754701634299,0.233355313539505,0.1391009241342544,-0.1122042685747146,0.473726350018382,-0.6869184343218803,0.2150928033582866,0.0250035915523767,0.0054213786497712,-0.2144287134263664,-0.211492046713829,0.1216842965570744,0.0949133584062103,77
1722247438932073700,-0.0921959709399845,-0.1041471876949071,-0.614362608937919,0.0148335467086057,9.726591543900966,-1.2504203323334455,0.2378076910972595,1.5926004648208618,0.2912030816078186,-0.2076232250425317,-0.237110004346593,-0.7124131814308065,-0.6270078021911138,0.0467047505080699,0.1542944759130478,0.0249982625246047,-0.312160992577672,1.041005428481102,0.2052509160406887,0.0054946336895227,0.003823698265478,-0.3552011294135823,-0.2603029310703277,0.0089815264657285,-0.0815280537275597,78
1722247438971854600,-0.1260113385764882,-0.2157172188669443,-0.1146994152389466,0.3495700281914323,9.709025492072104,-1.3352891113236545,0.2792250514030456,4.335427761077881,0.5601552724838257,-0.1525818267335182,-0.2012525516508072,-0.7263457895074473,-0.6392479384612312,-0.4221253097057342,-0.0421979799866676,0.0640590414404869,-0.4307587304294109,0.3837234230101108,1.355434365990758,0.0080999163910746,0.0846171081066131,-0.0713551078246906,-0.3068945407867431,-0.000980480671022,0.0700317548330174,79
1722247439011635500,-0.4900592798557132,0.0460346059441566,-0.0240738262876868,0.7745203646030276,9.690882517138125,-1.2873499869324263,-0.022173024713993,2.4788753986358643,0.5643155574798584,-0.0941936298719348,-0.166449919428498,-0.7334378011307002,-0.6522966017866623,-0.6077988147735596,-0.0434707030653953,-0.0581731237471103,-0.2853308533191681,-0.7750269258856773,-0.2802677247107029,0.0185215063393116,0.1036756038665771,-0.0360633474926929,-0.2382202595472335,-0.1031198174085468,0.3010039127419702,80
1722247439051417300,-0.0024879443582147,-0.3273071237832307,-0.1963749511457979,1.0495022578652948,9.678611064586043,-1.180440494917333,-0.1287780702114105,2.6165194511413574,0.3356402218341827,-0.0526010443262456,-0.1394501499707798,-0.7353498285463638,-0.6610956969721622,-0.2110871076583862,0.1326884031295776,-0.1553552001714706,0.0923217253446578,-1.1355115121275186,-0.253876707521826,0.0166310314089059,0.1770415902137756,0.0837381857913918,-0.144754409790039,-0.1433510251704137,0.2077277910156175,81
1722247439091198200,-1.3256858550675212,-0.0823696556508541,-0.6439198350727557,1.3584563441604376,9.662767598766088,-0.977703169132769,-0.2813235223293304,2.72119140625,0.6213498711585999,-0.00892963968283,-0.1129961987412168,-0.7328580000377294,-0.67087353032627,-0.343760997056961,0.0384944714605808,-0.1216584891080856,-0.2163683762520551,-0.0579816488474607,0.2821832029432058,0.0114416042342782,0.2027019262313842,0.1846750148713588,-0.0899856761097908,-0.1783382678641937,0.2197181068050675,82
1722247439130979000,-0.6634370209693908,0.217929634219408,-0.7892822457313537,1.720028141117096,9.63450947253108,-0.6229968009661883,-0.519922137260437,3.547919273376465,0.6939593553543091,0.0467822117915297,-0.0787812163099085,-0.7249534575940616,-0.6826767111758314,-0.4414443969726562,0.0536678284406662,-0.130594253540039,0.1180026945680379,-0.3848486276477575,0.1989198133230209,0.0532007850706577,0.1430081874132156,0.1791850208866409,-0.0862001180648803,0.0237261978768161,0.2130245091842487,83
1722247439170819000,-1.3411419290050863,0.2997878332167863,-0.1942506524682045,2.0975600160107017,9.577790390965342,-0.1912155408223159,-0.4839836359024048,2.854610204696656,0.9159310460090636,0.1023049064698013,-0.0491970393300317,-0.7122702652576318,-0.6926647501843569,-0.5290416479110718,-0.0165160503238439,-0.0775121375918388,-0.3624158465653658,0.224738729712367,0.2060182471513748,0.1195083558559417,0.0598046258091926,-0.0203512780836201,-0.1142771989107132,-0.0375289242499391,0.1306550453296396,84
1722247439210541800,0.3111354489222169,0.0936918446540832,-0.0532803392887115,2.3771039564915,9.508852463817597,0.3185875550264492,-0.7648642659187317,3.20054578781128,0.5718995928764343,0.1551253008814267,-0.019022367100781,-0.6952659236122183,-0.7015551628026188,-0.7121281027793884,-0.0623570419847965,-0.0523163676261901,-0.332469036591053,-0.0448369205921888,0.3396948961913585,0.1128346920013427,0.0494985021650791,-0.1291360556014347,-0.1739508807659149,0.0153480401359614,0.0074586871128907,85
1722247439250322700,-0.2579562319204211,-0.23044015622437,0.9347972166031598,2.500574999468028,9.44347778210938,0.859208307133615,-0.5148797035217285,2.8680808544158936,0.5179344415664673,0.2052198103739578,0.0156410774046281,-0.6752391598010855,-0.7083023787569934,-0.5450112819671631,-0.0332593470811843,-0.0167354028671979,-0.2963946836471557,0.1701771184414625,0.063130775238946,0.1003759205341339,0.024257892742753,-0.0888410984209738,-0.1543902605772018,0.0731577413664432,0.0205127271394711,86
1722247439290103600,-0.3771399529665708,-0.8141957377135753,0.487295295035094,2.589082719482481,9.363290731194615,1.3400789759486913,-0.788500964641571,1.897484302520752,0.4420821368694305,0.2433543475999314,0.0386883210931994,-0.6558797138869729,-0.7135149856030122,-0.8592424988746643,-0.0593810118734836,-0.0337909534573555,-0.1443751531869173,0.4204600392550229,0.2701947320509701,0.0595898181200027,0.0668304041028022,-0.0920778975182678,-0.135574534535408,0.022481944853207,-0.0542143915686989,87
1722247439329885200,-0.0950248468235135,-1.0506985549777743,0.6921832229822874,2.619112239304185,9.259518222030996,1.889962975235284,-1.1900105476379397,1.797742486000061,0.3110257983207702,0.2727579707194633,0.0541502695341883,-0.6330137866402167,-0.722471055474405,-0.6912185549736023,0.0246530640870332,-0.0950563102960586,0.326366628062725,0.0732803402662277,0.071621430610679,0.0108017977327108,0.0482661090791225,-0.0044833856418845,-0.1239075511693954,0.0193133247544523,-0.0435864090744406,88
1722247439369666000,-0.3233835205987095,-0.3325461934804916,0.2716428119674325,2.6056562531426546,9.108791069468856,2.5319670398145915,-1.259321212768555,1.6195694208145142,0.4775744676589966,0.2993366636973667,0.0658694450222497,-0.6054476198654011,-0.7345011005267263,-0.7336432933807373,-0.0275608710944652,-0.1555910855531692,0.0497083260208368,-0.0721931295514106,0.1914583914011716,-0.0248876623809337,0.072287693619728,-0.0778486254293005,-0.1031611114740371,-0.0792012364814989,0.0570819006958743,89
1722247439409447000,0.1767225945621728,-0.9872270765423774,2.29504833522588,2.5748133711114525,8.962910772415995,3.0342949226781726,-0.1759836375713348,2.6727590560913086,0.5498473048210144,0.3336949353872466,0.0851119626997933,-0.5814206418259384,-0.7371252450434209,-0.4718750119209289,0.0411290824413299,-0.1998199373483657,0.0700187081217765,-0.0673959584027528,0.0135363579213619,-0.0135533716529607,0.0717405378818512,0.1069429467601235,-0.0514034889638423,0.0926102690956089,0.1731223233141936,90
1722247439449227800,-0.1860160542167723,-0.1977402481496334,0.8730635217458009,2.43611684808284,8.93313464283347,3.230298848554492,0.0670548751950264,1.7196708917617798,0.5674148201942444,0.3705879989831648,0.1182338371169293,-0.5668521483953469,-0.7261983182991978,-0.4824653565883636,0.0905144736170768,-0.1672752499580383,0.1266103639155626,-0.0133358669131994,-0.2601192551732063,0.0203880984336137,0.030319882556796,-0.0311162578957737,-0.0430594570934772,-0.0241778871670714,0.0766559907117858,91
1722247439489009700,-0.8007689776465297,-0.0266296482503414,1.6329931240037083,2.5813068247839808,8.854947825825214,3.331234088465571,0.2557927668094635,0.8510380983352661,0.9130351543426514,0.3937893554208838,0.1244456413226297,-0.5609524205652664,-0.717478545782189,-0.3836775124073028,0.0691932663321495,-0.1552424132823944,-0.0851385358422994,-0.2857546316891908,0.1026607667957432,0.0624944455921649,0.0182275529950857,0.0523906695731449,-0.0412052050232887,0.095980193053279,0.0455570880929008,92
1722247439528790500,-0.209124980995059,-0.4888941085338592,1.2317705769211054,2.7626906891554595,8.834482545423507,3.238802473005652,0.8151720762252808,1.203787088394165,0.9085628390312196,0.4173062037202744,0.1342116020284892,-0.5628981050221737,-0.7007057377952426,0.0114231929183006,0.1084417030215263,-0.126094713807106,-0.0391027608543634,-0.1885433807373046,-0.095301599671971,0.09254702180624,0.0262526348233222,-0.0658607527586864,-0.0335505232214927,-0.0149093815739266,-0.0398119411701802,93
1722247439568571400,0.4579582875221967,-0.6419552570015191,0.1457534558027982,2.8924273683980104,8.842844131055474,3.0997365321427583,0.736305832862854,1.2193650007247925,0.7643404603004456,0.440596305021969,0.1492322298680424,-0.5654088504966406,-0.681114913229221,-0.0791706293821334,0.1445525735616684,-0.1082581952214241,0.188318924331665,0.0406371308147907,-0.0962462053120136,0.100499227643013,0.0339545421302318,-0.0407063190269051,-0.0240076687186956,0.0494433275422547,0.0050535228131921,94
1722247439608353300,-0.0244584416911005,-0.2546644968986511,-0.1636176137953996,3.031127106297016,8.822764050579071,3.023491204591095,0.4787635803222656,1.0989446640014648,0.818749189376831,0.4628309626299172,0.1615692927482979,-0.565455760788965,-0.6632817665910373,0.1999494284391403,0.1508448272943496,-0.13773113489151,0.1039402669459581,0.0222574245154857,-0.3316998057842254,0.1174793019890785,-0.0020557758398354,-0.1170204055324196,-0.0354770980775356,0.0303877015926293,-0.0965426492416299,95
1722247439648134000,0.5470142890691757,0.0902051715821027,-0.1137654953896999,3.1556185783624646,8.780611254504322,3.0188296425208447,0.3230989277362823,0.9965416193008424,0.6566042304039001,0.4825610351915602,0.1707184078203692,-0.5629722475188754,-0.6488854989906182,0.1056130677461624,0.0579986125230789,-0.0926123261451721,-0.5623088888347149,0.9804834475010632,0.2566296594917774,0.1214048117399215,-0.0278727300465106,-0.0278832285080105,-0.0666805207729339,0.150999083105009,-0.1048734561428427,96
1722247439687914800,-0.1373293263286352,0.8706932854831219,-0.1647793510511517,3.2949817486062645,8.73020442482531,3.0161235984325407,0.1925495415925979,0.4425956606864929,0.6549996137619019,0.4988915948985756,0.1761557798667063,-0.561417517085617,-0.6363070352811798,-0.3153610527515411,0.2503354549407959,0.0522175654768943,0.5803127475589513,0.3904004165560006,-1.146566574627161,0.1322891116142273,-0.0267613716423511,-0.1376633988549001,-0.0926372930407524,-0.0127747806980274,-0.0946068040745332,97
1722247439727695600,0.9354077497169376,0.1635837115257978,0.3493649340733885,3.452714980538189,8.668926657041906,3.0164342718169093,0.1292753964662552,0.3914385735988617,0.3402532935142517,0.5082918560871865,0.1743069145505996,-0.5619802119055083,-0.6288361343911869,-0.2457404285669326,0.2533217966556549,-0.0816374346613884,0.2526660165578127,0.4730395367980003,-0.0546411062479019,0.124393843114376,-0.012939671985805,-0.2068887281092815,-0.1523780077695846,-0.0291077630509971,-0.2020383654686622,98
1722247439767457500,0.2582549226060509,0.4320557845026254,-0.0466951156795024,3.479692711573839,8.6555855294317,3.023735534740984,0.1261032074689865,0.3817276358604431,0.1824632585048675,0.5159484349277734,0.1791407806052995,-0.5601258614254404,-0.6228682769670677,-0.1342767626047134,0.314407616853714,-0.0946983769536018,-0.0509241315513849,0.2728285146206617,0.2266986316084861,0.110248863697052,-0.0096331033855676,0.0063576219734793,-0.1840333193540573,0.063838553615543,-0.1196619330171495,99
1722247439807237400,0.4470695215001702,0.3312240049660205,-0.3279673412576318,3.4789719960838554,8.65211873010397,3.034462095938623,0.0736139044165611,0.1664715856313705,0.0202670451253652,0.5197039168552773,0.1821457890485914,-0.5586666219332334,-0.6201791921365299,0.0564812161028385,0.1491211205720901,-0.0735746473073959,-0.512639725780487,-0.0979670377552509,0.4507195684403181,0.1166323125362396,-0.025404779240489,-0.1138677593209315,-0.1726262122392654,-0.0404471612006425,-0.0314602284782566,100
1722247439847017500,0.2431765959396958,-0.03506196103096,-0.1657277378171682,3.4555654015332458,8.670947349214554,3.007346125476062,0.2278828024864196,0.1092223674058914,-0.0378309413790702,0.5207734087042958,0.1856947163078222,-0.558735614216572,-0.6181642967099594,0.3124336302280426,0.0947025567293167,-0.0883965417742729,-0.395957466161251,-0.5888064351379871,0.3300871098905801,0.1345154345035553,0.0072244969196617,-0.0996902356855105,-0.135513350367546,-0.0350018785739084,-0.0431310254231793,101
1722247439886794500,-0.3239662889227271,0.0951250923275947,-0.3071037091881036,3.452439962989092,8.712993177783488,2.8870062201321125,0.3680584132671356,-0.3172653317451477,-0.0145545871928334,0.5183013254620239,0.1884220289078165,-0.5632945843588852,-0.6152724321436953,0.8162158131599426,0.1222428977489471,-0.1390796303749084,0.1607996337652206,-0.7121861465692519,-0.2487374632035382,0.1535060107707977,-0.0123542211949825,-0.0827515037084463,-0.1307398527860641,-0.0162692740335711,-0.1081162191900424,102
1722247439926574600,-0.3161977007478475,-0.2640308756589889,-0.4410957077875733,3.50362800617367,8.745788947448133,2.721422859221697,0.2795121967792511,-0.3748943209648132,0.059656798839569,0.512960554881282,0.1866952398285562,-0.5713063403990962,-0.6128828185280201,0.6907345652580261,0.1194127574563026,-0.1855033785104751,-0.0303717573881149,-0.3408949196308851,-0.0599783025573939,0.1516976356506347,-0.032237708568573,-0.114655000708485,-0.1411672830581665,-0.0603383497751317,-0.1517165654582902,103
1722247439966354700,-0.422416434019804,-0.2016203044533729,-0.0352212432458996,3.57902110081017,8.757598627707361,2.581753399507701,0.3103952705860138,-0.1155627518892288,0.216913565993309,0.5104411129571274,0.1848520930035288,-0.5780976679704387,-0.6091654990050441,0.412073403596878,0.0788466855883598,-0.2390882521867752,0.0151379478991031,-0.1799520780026912,0.0095060064267367,0.165252536535263,0.0005453417543321,-0.1210643745604436,-0.1405461430549621,-0.0170484462791006,-0.155021726217214,104
1722247440006134800,-0.1173071135193109,-0.1589116280615329,0.0757926153481006,3.681225630004704,8.744668418985604,2.4798680192649365,0.2754371464252472,0.1338190734386444,0.369947612285614,0.5131484401208832,0.1846769366899709,-0.5826288228756173,-0.6025917566300348,0.5525146722793579,0.0991096720099449,-0.1899177730083465,-0.0567342791348695,-0.128452192389965,-0.1750754849422723,0.1667112112045288,-0.0319003909826278,-0.1337833882169332,-0.1795341819524765,-0.0202243866012082,-0.1719544120459817,105
1722247440045916000,0.4876870708316564,0.1203156476855278,0.2089787043921649,3.770399997234344,8.71757992105186,2.4409537667199968,0.1668690294027328,0.3196379542350769,0.2823433876037597,0.5188762948554634,0.1858462006121777,-0.5839582000855025,-0.5960044684368195,0.4746659696102142,0.0206908676773309,-0.1712855547666549,-0.1733165855109691,0.1723462791740894,0.0451630838066339,0.1695113480091095,-0.0597381070256233,-0.0914066289268899,-0.1777883470058441,0.0048600957292335,-0.2030742295887321,106
1722247440085696000,0.0646583501324057,0.0420680404007434,0.3337944399759173,3.842229846431315,8.68329946578741,2.4511110035970805,0.0905385091900825,0.3602557182312011,0.350015789270401,0.5262941811563159,0.1879156853459696,-0.5828514498417385,-0.5899035472617516,0.3165170550346374,-0.002978776814416,-0.1375566273927688,0.0386368969082832,0.0380716642409563,0.0314735811501741,0.1729976683855056,-0.0737852677702903,-0.1711332683888264,-0.175752192735672,-0.0329918470758828,-0.2390005340977571,107
1722247440125475800,0.4445715672045945,0.2122738004148006,0.1841667730882763,3.9127252321541306,8.644475521874428,2.476689096967876,0.078632928431034,0.4231186211109161,0.2505050003528595,0.5337337966422228,0.1894966788356698,-0.5812185587882774,-0.5842979523895921,0.3912189900875091,0.0223803762346506,-0.0678481236100196,0.0590133299827575,0.2331044069975614,-0.0285543327026069,0.1679442375898361,-0.0547168925404548,-0.1712890800050459,-0.1629462838172912,-0.0242432074882439,-0.2351079471060074,108
1722247440165256000,-0.0379597282990813,0.134517191517353,0.1884431352332234,3.963553209854662,8.606714238756895,2.5268811148524284,0.1016687825322151,0.5675148963928223,0.3219758868217468,0.5424738671321091,0.192674799609902,-0.577963101549323,-0.5784093359570963,0.2584391236305237,-0.0077524394728243,-0.041185088455677,-0.0387795202493667,0.12389233712852,0.1767706714875996,0.1617205739021301,-0.0666815489530563,-0.1552335606032982,-0.1449055671691894,-0.0601472202503588,-0.1537705388460308,109
1722247440207525400,-0.0395543040141463,-0.0632692338615655,0.1804208645582199,4.019465066690743,8.567322139567136,2.572012926737964,0.1996809989213943,0.5464814305305481,0.368416428565979,0.5525227088121744,0.1970472894599522,-0.5744877711540197,-0.5708368218328719,0.0536739751696586,-0.045198455452919,-0.0280600301921367,-0.0605289952427148,0.2089987242668867,0.2874151853125542,0.1635200530290603,-0.0433815568685531,-0.12719014569805,-0.0996522009372711,-0.0317593781049014,-0.1693269496192224,110
1722247440247305500,0.2229524308174848,0.0516466006070375,0.0912333455860614,4.080774690917134,8.53725257999599,2.5754586832776662,0.2585291564464569,0.5309227705001831,0.2835487425327301,0.5616779086809164,0.2020529923606438,-0.5725929984896119,-0.5619873867010304,0.0143462782725691,-0.071048803627491,0.0275969747453928,0.0214992996245622,0.124569213476777,0.1469435423702001,0.1493833363056183,-0.0346915163099765,-0.1590655947805382,-0.071700319647789,-0.0353248999831965,-0.2097123889615759,111
1722247440287085600,0.0834799549803137,0.0244487970799207,-0.0605973843038082,4.125226996105909,8.518362001565098,2.567177177144587,0.2539172172546386,0.3483745753765106,0.2365804314613342,0.5688887167580688,0.2068366838338861,-0.5712521113208786,-0.5543060999810389,0.0179247669875621,-0.0510150119662284,0.0268460288643836,0.1097854858428239,-0.01973170543015,-0.0628119916133582,0.1192688569426536,-0.0126340612769126,-0.1333159168356563,-0.0628087446093559,-0.0464703076474135,-0.1836321730212308,112
1722247440326865700,0.4034633117467164,0.1636269661456346,-0.5227440634265542,4.160932223476469,8.518495857077836,2.508435065318644,0.2079599499702453,-0.0012316412758082,0.0715665817260742,0.571087341499579,0.209427451749067,-0.5729271688206574,-0.5493212255002342,-0.089868277311325,-0.0568218231201171,0.0438597649335861,-0.0377092606693506,0.1529845761001109,-0.0678676675677299,0.0873044431209564,0.0175172574818134,-0.1664940460145473,-0.066103421151638,-0.0610538091346854,-0.1993067302813753,113
1722247440366646800,0.1100049738124012,0.0435053797274827,-0.5188882647812366,4.193272942849993,8.519655548506975,2.449961687431484,0.1019996255636215,-0.0828672870993614,0.10633235424757,0.5709103924045997,0.2097756060300964,-0.5753963103503997,-0.5467857199814031,0.0338549986481666,-0.0008861180394887,0.0408394113183021,0.0722235246896743,-0.0844254191368818,-0.2433224341511726,0.0513696484267711,0.0444732792675495,-0.1590655947805382,-0.0659091025590896,-0.0353248999831965,-0.2097123889615759,114
1722247440406426600,-0.3115864075601101,-0.0071738371521234,-0.3835826993651688,4.259475015293061,8.498658353185654,2.408329115838557,0.0622163042426109,-0.0381687618792057,0.2531372904777527,0.5715487327480329,0.2079015545324487,-0.5779155061207362,-0.5441714289125252,0.0952792167663574,-0.0120956292375922,0.0248519200831651,0.0145136785209178,-0.1089431897997856,-0.0672929364196956,0.018324602395296,0.0405543223023414,-0.0926812702388968,-0.0775820612907409,0.0343456682710559,-0.1751484223143197,115
1722247440446206700,0.0866229291811585,-0.091700378575921,-0.268121505973488,4.343697313073277,8.452700319609045,2.419610972831398,-0.0262190457433462,0.1886392533779144,0.2812653481960296,0.5752784319056897,0.2056035549254171,-0.5782398736368725,-0.5407591487483014,-0.0492036677896976,-0.0294529423117637,0.0182702504098415,-0.0388017320811748,-0.0292097278714179,-0.0934410847634077,0.0144968414679169,0.0076557286083698,-0.0775887232509441,-0.069426491856575,0.0104299437380861,-0.0736703624971211,116
1722247440485987800,-0.1632335829138755,-0.0852823282271623,-0.0520576656259596,4.40306515558213,8.42548322685957,2.4072031805485485,0.0232139825820922,0.1751795560121536,0.3517872393131256,0.579120355629178,0.2062488328567353,-0.5785570064688513,-0.5360529517198424,-0.0616922937333583,-0.0220066886395216,0.0153345158323645,0.0530681578427553,-0.1405833596885204,0.0415935547567904,0.0378694012761116,0.0135189890861511,-0.0323148679796373,-0.0352727659046649,0.0631839484645985,-0.0254927805743645,117
1722247440525768000,-0.167374920502305,-0.092629183858633,0.1516470438860356,4.526168095898628,8.36160258310139,2.401619389066845,0.1480145901441574,0.1491053998470306,0.3895744085311889,0.5847964562989293,0.2041927150347526,-0.5795315562391697,-0.5295862169772717,-0.0023253760300576,-0.0151233235374093,0.0379660576581954,0.0534077650606632,-0.0628852029800415,0.0389635715793818,0.0538471601903438,0.0001515768235549,-0.0923895481501705,-0.0162124633789062,0.0399792240284848,-0.0464292130186222,118
1722247440565548000,-0.0127034142285585,0.0285106396913528,0.0603343494534492,4.617950307539105,8.310044829821587,2.4058431442417203,0.0655239224433898,0.2799071371555328,0.3102472126483917,0.5903719689642349,0.2037422180880482,-0.5795043131625637,-0.5235692942457785,0.0458663888275623,0.0278110951185226,0.0447559878230094,0.0979775591492652,-0.1144160682529211,-0.0976658628515899,0.0484253503382205,-0.0025092842988669,-0.1018518341661896,-0.0215391553938388,0.0643482430036179,-0.1251391679849941,119
1722247440605328100,0.018890578430891,-0.0549205077111721,0.2007096193492412,4.686762854741514,8.261345973104238,2.4402445955373344,0.0880409628152847,0.3144415915012359,0.3111271560192108,0.5966085550218151,0.2041626995572933,-0.5778405883547798,-0.518146707232266,0.0104205124080181,0.0065968320704996,0.0403945259749889,-0.0540542462706565,0.0768096834361553,-0.0167798698872327,0.0238744169473648,0.0162727236747741,-0.1366723602572455,-0.0410232953727245,0.0157404837944486,-0.1115325304395519,120
1722247440645109200,0.0425642994850873,-0.0140875620633363,0.1761325197145342,4.759455750508606,8.210635776564478,2.470508070245385,0.1233364790678024,0.4062339663505554,0.3410263061523437,0.6036491538140524,0.205436712711861,-0.5760511320562689,-0.5114376453068417,-0.0635873973369598,0.0387311205267906,0.0326340086758136,0.0469119733005762,0.0686351448088884,-0.3732562434010207,0.0009770251344889,0.0310684125870466,-0.078056194632221,-0.0458762496709823,0.0366758647842914,-0.0619926015218719,121
1722247440684889000,0.0260369430541992,0.0107902740836143,-0.0428059992864727,4.831199382726848,8.149396587225795,2.533224346399307,0.0517779476940631,0.510554313659668,0.4229548275470733,0.6124625438314978,0.2071432823370669,-0.5726544862077011,-0.5040318501855876,-0.1027252227067947,0.0030648945830762,0.0428299233317375,-0.2162806979686021,0.1544873818784952,-0.0338947438824921,-0.0004108416615054,0.0300151109695434,-0.0856404757487587,-0.0582603923976421,0.0196955929371528,-0.0476943375836126,122
1722247440724669200,-0.1420627845913171,-0.0911959361851215,-0.0111976858407258,4.9445320396572345,8.057602100625633,2.60711083586514,0.1156924664974212,0.4611426293849945,0.510231077671051,0.6227823941835925,0.2070586462047734,-0.5693865629535751,-0.4950431361629381,-0.1270071268081665,0.008761023171246,0.0255909468978643,-0.055398062095046,-0.0386269600361585,-0.3493944524288177,0.0023362899664789,0.0288434270769357,-0.0740402826549019,-0.074794240295887,0.0436084610760444,-0.0067284229098499,123
1722247440764450300,0.2600941207319498,0.0167652568399906,-0.1525172508493065,5.034682266181707,7.984805159962176,2.658049288202822,0.0871161967515945,0.4604788720607757,0.3793476521968841,0.6315963465456126,0.2081222980681822,-0.5667118359436559,-0.4864244408247196,-0.1522621512413025,-0.023676598444581,0.0289011243730783,-0.1628606579482555,0.0155547120064496,-0.0658669222045689,0.0131309684365987,0.0329920500516891,-0.0605140990676823,-0.0871379077434539,0.0435447481900686,-0.0060437702513358,124
1722247440804230400,0.087015435630083,-0.0725888508707284,-0.1670376513719558,5.105559052437544,7.9106065358072515,2.7433479830428955,0.0671616494655609,0.5304713249206543,0.4317063987255096,0.6410065403837412,0.2093731569699316,-0.5623975979511083,-0.4785210884926595,-0.1922678798437118,-0.0246651638299226,0.02767014503479,-0.1039689085185527,-0.1349421389311552,-0.2224859823495149,0.0242809373885393,0.0290637873113155,-0.0812848652219865,-0.1108476370573043,0.0496344616336049,0.0029995602710725,125
1722247440843995000,0.3596896364718675,0.0949509048044681,-0.5002285724967718,5.175854239413142,7.837937020915747,2.81916251796186,0.0104704052209854,0.4401686191558838,0.3351604044437408,0.6494547832236512,0.2100444525163598,-0.5586985251118922,-0.471111307550001,-0.1422270834445953,-0.1147076487541198,0.0365993939340114,-0.2567489019572734,-0.1427221252828836,0.2869259404908865,0.0220308285206556,0.0162222851067781,-0.0464643436975078,-0.1393822580575943,0.0982422288342844,-0.0106070812701247,126
1722247440883774200,-0.0628846184581518,-0.0337386034727096,-0.2690346752956509,5.230768901905417,7.754140547332167,2.946649664711952,-0.1286113858222961,0.5808784365653992,0.4369417130947113,0.6587040329145858,0.2097256583079641,-0.5529718133948839,-0.4651304117571697,-0.1441978365182876,-0.0855603665113449,0.0233559571206569,0.157094934028387,-0.1592424674510955,-0.2175578782975673,0.0220282860100269,0.0114944716915488,-0.0854566070818342,-0.1907290369272232,0.0514505072127794,-0.0483720267826225,127
1722247440923554600,-0.142559043675661,-0.1536865868896245,0.0557280247017741,5.303111084538698,7.632423216155171,3.129457424406707,-0.1045220866799354,0.7805471420288086,0.5650829672813416,0.6716521638324457,0.2091184986767849,-0.5447123370810254,-0.4565536490757614,-0.2625313699245453,-0.0484953932464122,0.0187597405165433,0.030405075135827,0.1216769991666078,-0.3646247547864913,0.0268786996603012,0.0196449775248765,-0.1399010308470111,-0.2477194219827652,0.0286990795021178,-0.0465403635092079,128
1722247440963334100,-0.1002753146976232,-0.1493102715015411,-0.0634913521796464,5.378292874512076,7.495318930754065,3.326339009900391,-0.1476119011640548,0.6744811534881592,0.5510589480400085,0.6851908484132685,0.2078597865056329,-0.5359087810447893,-0.4473360182148289,-0.182760402560234,0.0226184614002704,-0.0207237526774406,0.099956750267744,-0.3497580250442028,-0.1966068602055311,0.0320363529026508,-0.0052214870229363,-0.0404943933092756,-0.3007039129734039,0.1217017956811469,0.0075907371151435,129
1722247441003113700,-0.0237906254321336,-0.1521861191987991,0.2738122649610042,5.447854486516118,7.361426593136787,3.507230999101698,-0.0614767670631408,0.7256819009780884,0.5771188735961914,0.6978289671362505,0.2066110787556194,-0.5277242198909392,-0.43801118557806,-0.1810224205255508,0.0595042556524276,-0.0615967512130737,-0.084978961366415,-0.1877291417449712,-0.4345756583690643,0.0536909215152263,0.0299828220158815,-0.1070345431668683,-0.3159818947315216,0.060779869297822,-0.0230806528151617,130
1722247441042893000,0.2065133371919393,-0.3150216427057981,0.2797568525791168,5.521913409939408,7.229326399633288,3.6627456782013175,0.0845587477087974,0.6291550397872925,0.5892443060874939,0.7102602396361438,0.206183911860796,-0.5203269570853791,-0.4269408236758239,-0.2685059309005737,0.1200363114476203,-0.0945471823215484,-0.0308919818699359,0.0066004211783409,-0.2632685860496014,0.0664626583456993,0.0228621046990156,-0.1065390238680411,-0.3232762515544891,0.0750374952650163,-0.031543515997671,131
1722247441082673700,0.1453185715168714,-0.3108756289422512,0.1244251288309693,5.6127364211589095,7.129112459734082,3.720662152858078,0.2772673368453979,0.4244148135185241,0.5985220670700073,0.7197011878909835,0.2073499573594257,-0.5170154938980859,-0.4144045129761924,-0.0820846557617187,0.1802157163619995,-0.053067710250616,-0.2574187640428543,0.3063444152534008,-0.4595733215034008,0.0945969000458717,0.0161461383104324,-0.0939758309609256,-0.294130802154541,0.0869620706081856,-0.0107182351856434,132
1722247441122453000,0.0170095869898796,-0.2514998953878879,-0.4011638026326894,5.744336848446727,7.026641680818796,3.714738900288939,0.2309111207723617,0.0836739018559455,0.5972749590873718,0.7268194525154441,0.207171566327799,-0.5173789374044281,-0.401413148965447,-0.2296583950519561,0.0179817397147417,0.0369994640350341,-0.5809276645869016,-0.5438374125987291,0.2584036834269761,0.1074290201067924,0.0115098413079977,-0.1423225406392011,-0.2619072198867798,0.0384180254266364,0.0022037542678619,133
1722247441162232300,0.198746210321784,-0.7392138542264699,-0.7402811911970376,5.922479246678948,6.956656290444731,3.5636429144144057,0.3813658058643341,-0.6789160370826721,0.3833033442497253,0.7261453319261829,0.2037589591953052,-0.5261055566213375,-0.3929480555419108,-0.1865985542535781,-0.078275442123413,0.2521616816520691,-0.6348825421363115,0.3392886534780264,0.0730097066313028,0.1080246940255165,0.0521046556532382,-0.1721722743140533,-0.2863727509975433,-0.0788798225074075,-0.0887853313794359,134
1722247441205739300,-0.51470425709486,-0.9378028281599282,-0.9131769209474324,6.150654965102672,6.912084158268571,3.250067378863692,0.4815167188644409,-0.7556600570678711,0.6038866639137268,0.7195071142737123,0.1996637592195992,-0.5426113358597014,-0.3847297541264963,0.0992550402879715,-0.0942488759756088,0.2995096445083618,-0.175974406543374,-0.2364823589980602,-0.09689860480614,0.108573205769062,0.0439923852682113,0.0554155429528094,-0.2570973932743072,0.0743975305607775,0.1177469936407636,135
1722247441245518600,-1.6652029104739428,-0.6534089634299278,-1.2827668969258663,6.482485703790188,6.73004182998836,2.9756165237382053,0.2779451906681061,-0.5346208214759827,1.2028828859329224,0.7176013418640792,0.1902771158609148,-0.5586415608451643,-0.369814083568588,0.3579635620117187,-0.105289913713932,0.3186909854412079,-0.042044659525156,-0.2073772605448961,-0.4516325916320085,0.0963873490691185,-0.0181991346180439,-0.0289303720739204,-0.2830934822559356,0.0414767143109347,-0.0943775253633037,136
1722247441285298400,-0.8730144219070672,-0.3887199161231517,-0.8226663366779684,6.855076907411218,6.397267672970891,2.8728502690076825,-0.005354902241379,-0.0118179777637124,1.371240735054016,0.7234927441979225,0.1753923692297159,-0.5681222675529363,-0.3507603554927102,0.5053876042366028,-0.2041745781898498,0.3740884959697723,-0.3885924903512001,0.069424833881855,0.2452227148145437,0.0643610283732414,0.0420347154140472,-0.1727955755778588,-0.2698419094085693,-0.0438852641568519,-0.0732149834124371,137
1722247441325077800,-0.5780559085428715,-0.1721972260922193,-0.2344762798726558,7.192337269932032,5.974245674273371,2.95788066830039,-0.1639951467514038,0.6756752133369446,1.5449446439743042,0.7363443041273953,0.1589423950978178,-0.5691461750015349,-0.3295558354058522,0.3164440989494324,-0.1395331621170044,0.3858184516429901,0.3592436462700367,0.1897778909683227,-0.218300805619359,0.0446550473570823,0.0533445477485656,-0.1302349384877365,-0.2217747420072555,0.0129541330200387,-0.1050124718878883,138
1722247441364858000,0.3291694105237722,0.5121989962756633,-1.1737807447671889,7.355618783640861,5.46776856277585,3.4883749074622985,-1.0279258489608765,2.3037309646606445,1.5887457132339478,0.7636789757222854,0.1438599271829448,-0.5490416132611274,-0.3076557688441271,0.4580337107181549,-0.1461648494005203,0.4411189556121826,0.4945721541702747,0.4175830225139856,0.346960576345399,0.0366955995559692,0.0775539427995681,-0.2030286368813365,-0.1835138499736786,-0.0134265271716052,-0.1428816084272228,139
1722247441404637700,0.8859457996726036,0.7415802910968661,-0.2537272160485386,7.197626608511805,4.85696072371006,4.557902958333492,-1.267364263534546,3.1314265727996826,1.2337859869003296,0.8044776688049725,0.1257504842102967,-0.5017952140144468,-0.2918971997786258,0.6559217572212219,-0.0899519175291061,0.4645021855831146,0.5433540129959583,0.3278805397570133,0.0005745850175619,0.0098971091210842,0.0882222577929496,-0.2352437753801234,-0.1801858395338058,-0.039998330587754,-0.1786967807119712,140
1722247441444417300,-0.3312918095052242,-0.3302531141072511,-0.3140530899345874,6.82676032898724,4.188508504927158,5.658808436504006,-1.1817457675933838,2.804707765579224,1.754020929336548,0.8454166341257987,0.1090557611576143,-0.446752612834414,-0.2716424000474955,0.332913339138031,-0.0702141150832176,0.4549654424190521,0.5713561186432838,0.5165168594747781,0.1392348676890134,-0.0025119557976722,0.1164165511727333,-0.1763159682563506,-0.1630193591117859,-0.0365602299148333,-0.1369420166446361,141
1722247441484196600,0.7178279518485069,0.1330100018247962,1.321407008704543,6.577603781855106,3.5009394977420567,6.37565205349028,-0.4935823082923889,1.493378758430481,1.540587306022644,0.8746791072170639,0.0896636092729492,-0.4085249567665672,-0.2449577328160464,0.1447527557611465,-0.0229280367493629,0.4470605552196502,0.5348813682049512,0.7344196056872606,-0.1650292341589927,-0.0107183959335088,0.1150655820965766,-0.1273459664474241,-0.1582883894443512,-0.0230107385172625,-0.1654343626274727,142
1722247441523977000,0.5977355915248393,-0.1131616842776536,2.516075058677792,6.426852079373598,3.191057263751328,6.6845426460951565,0.4685336649417877,1.2072418928146362,1.138628363609314,0.8898856567344356,0.0859967971510862,-0.3895994522096198,-0.2211792896804714,-0.1841375231742859,-0.1578367501497268,0.3934008479118347,-0.0302285495251417,0.6335889951944351,0.5642288971118629,-0.0359603427350521,0.0956343710422515,0.0118519781811279,-0.1479543149471283,0.0499096527126384,-0.2295056335869245,143
1722247441563756500,0.1050894369810819,0.49505643055588,1.667915676563978,6.138838855102658,3.048661593943834,7.013609180766344,0.5704687237739563,1.7899937629699707,1.2492356300354004,0.9049060399071712,0.0921793059096709,-0.3659349971695447,-0.1968242086160549,-0.1748204529285431,-0.1186523810029029,0.3046392202377319,0.3196504715502262,0.0246165548622608,-0.2136755569715052,-0.0851068347692489,0.0892191156744957,-0.0629437282342463,-0.0818349123001098,-0.0103706992479623,-0.0970189249838702,144
1722247441603536000,1.028114382725954,0.4844754153087734,1.1365583908319472,5.805834980982541,2.9528499806568025,7.33098469312191,0.6120569109916687,1.5326578617095947,0.8870465755462646,0.9152345406372536,0.0933096593566758,-0.3428076803769472,-0.1900576531012939,0.0962155759334564,-0.0168209820985794,0.3092537522315979,0.3113759796798229,0.1125543660342693,-0.0363175140500068,-0.1183351725339889,0.1192138120532035,-0.1605241047594696,-0.0615642853081226,-0.0375942422878229,-0.1811089016213081,145
1722247441643316500,0.8462859894573688,0.7639218867644667,0.2160316916435956,5.458544807356596,2.9639997357025742,7.588766445258259,0.5978826284408569,1.2358314990997314,0.5504623055458069,0.9224827320346768,0.0976891525540966,-0.3217723038319579,-0.1895917512021852,0.1167104691267013,0.0057130884379148,0.2569342255592346,0.2172702935278415,-0.2409118658781051,0.0499667577613145,-0.1290418952703476,0.0835331380367279,-0.0901238682405091,-0.0758115202188491,0.0390089176916051,-0.0912807466580532,146
1722247441683095800,0.7846551704525947,0.3656526365295052,-0.2315940024346113,5.231374466583133,3.0787057268127795,7.702251370140909,0.7237815856933594,0.6382227540016174,0.2497168928384781,0.9243928860870688,0.1041427076499042,-0.3105620048781287,-0.1954570421569005,0.2191217839717865,0.0218755472451448,0.2287854701280594,0.2187012031137943,-0.0803489634782075,0.2776660177797079,-0.1399067491292953,0.1040835827589035,-0.1852029477356001,-0.1065288037061691,-0.06455847908766,-0.0979328523578587,147
1722247441722875400,0.8938800998032093,0.9183210058376192,-0.8158604560554027,5.077707168915867,3.2769185609102247,7.723281298688054,0.5180577635765076,0.4898654520511627,-0.2193326354026794,0.9218677273280752,0.1116109579183615,-0.3062110852463782,-0.209612974671534,0.1830463409423828,0.0116044804453849,0.180242508649826,0.188897016480565,-0.2731868265390396,-0.2914800235986709,-0.1306058168411255,0.084482192993164,-0.0789911373947747,-0.1040558144450187,0.0891677091599907,-0.0386370704382192,148
1722247441762654700,1.0446113440185785,-0.0205816002577543,-0.034534137764573,4.774046878179908,3.449676928016544,7.840828650704026,0.252248466014862,1.1386529207229614,-0.3569952845573425,0.9201343534083358,0.1175134064749062,-0.2939721119857283,-0.2304860079043563,0.1444014757871627,-0.0816626697778701,0.155380442738533,0.0145920044541358,-0.3819435538560152,0.1018260512709617,-0.0826416537165641,0.0673530846834182,-0.1109426108555402,-0.0870281010866165,0.0277259167711599,0.0510520596468355,149
1722247441802435300,1.4645055660843849,0.3028273470431566,-0.6913549554646015,4.374652715568244,3.614835049252212,7.997859871846437,0.1345536559820175,0.7009562253952026,-0.6544914841651917,0.9180895643692574,0.1238098302161508,-0.2772972153124595,-0.2547330885156733,0.1881244629621505,-0.1350438147783279,0.0527422726154327,0.0470002361059188,-0.2799497448027134,0.2424262890290468,-0.0600155144929885,0.1180031225085258,-0.1015881691281683,-0.023640651255846,0.0294782517476473,0.0003651298182317,150
1722247441842215000,0.6605915684103966,-1.1332406445860863,-0.99975513420403,4.176144990177452,3.734390818481147,8.048883372119068,-0.0176631454378366,0.2275602668523788,-0.5782569050788879,0.9110624615908156,0.1242491452085742,-0.272366138421072,-0.2834501128924095,0.1771080195903778,-0.2064259648323059,0.0786066278815269,-0.2323801843762397,0.0704062461346387,0.190941089528799,-0.0688689798116684,0.1312181800603866,-0.1673492015391588,0.0002539714332669,-0.0751868862736038,-0.0497691984957549,151
1722247441881988400,-0.6392091731637716,-0.3172594847604632,-0.3840267898708581,4.020719742926955,3.789300804798305,8.10218475419581,-0.0071628936566412,0.2730263769626617,-0.1912916004657745,0.9055656343592078,0.12312322437638,-0.2678511031263599,-0.3050366899704015,-0.1179744750261306,-0.236591637134552,0.1208410337567329,-0.199950909936428,0.0358615869760513,-0.1022094976305961,-0.1020036414265632,0.1303364783525467,-0.0603663976926822,0.0021941170562058,-0.0288382870434084,-0.1496556326068006,152
1722247441921770000,-0.7187652326986194,0.2871644984871149,0.0307002586901187,3.956174790041149,3.814402220568061,8.122154944556952,-0.0671451836824417,0.1271429359912872,-0.0167216658592224,0.900119969162881,0.1203767911744504,-0.2671979844486353,-0.3223333927462654,0.1209901720285415,-0.2201481610536575,0.1989036798477172,-0.1075643026620149,0.0452606989622116,0.0277134979642927,-0.1372792273759842,0.0592090375721454,0.0593154821339529,-0.0309273656457662,0.0438170851583126,-0.0961050067430362,153
1722247441961550600,0.1683499030143022,0.3419996660023927,-0.0382949516028165,3.8949092972174286,3.740113872303069,8.186061891800165,-0.2207137942314148,0.284212201833725,0.0794755071401596,0.8969173538876053,0.1137010118875584,-0.2640058176028094,-0.3360241359184169,-0.1283102035522461,-0.1448165625333786,0.206845685839653,0.3851823896467685,0.1765314559042453,-0.1263122577518224,-0.1050605773925781,0.0227067843079566,-0.0489699972423492,-0.0419064946472644,-0.0135494891142821,0.0284923414162592,154
1722247442001330200,0.8786535968378185,-0.2814119263097643,0.8487737146198749,3.779415370599925,3.73804057316035,8.240962525767088,0.172657698392868,0.295397400856018,-0.0402331128716468,0.8931141158368848,0.1116821616313068,-0.2595283220691601,-0.3500277703797074,-0.3416104912757873,-0.1237355545163154,0.1612163484096527,0.5084264919996261,0.3023135523021221,-0.0418635308045893,-0.0633193030953407,0.045874822884798,-0.0890530241386033,-0.0322292298078537,0.0008992749400174,0.0179755116958753,155
1722247442041109500,0.5397530658945441,0.2835559526011347,-0.375091788265109,3.745867905785143,3.774316586156189,8.23974496667087,-0.058983277529478,0.070664033293724,-0.062879703938961,0.8875575923564893,0.1101145235787008,-0.2603165769108392,-0.3638016710581092,0.0512598231434822,-0.0893444493412971,0.1407605409622192,0.0972515829622745,-0.3336328196734189,0.0921527254533022,-0.0429148152470588,0.0258998814970254,-0.1088607996128033,-0.0251162350177764,-0.0049993009872356,0.0068782192021695,156
1722247442080890000,0.3033437721326947,-0.0473763759419322,-0.3908393924951553,3.721309510850906,3.7595860500141978,8.257587497353553,-0.0756936892867088,-0.1572587937116623,-0.2046833038330078,0.8811965291686347,0.1050853602010001,-0.2606478123845681,-0.3801477940543715,-0.0066112009808421,-0.1045845001935958,0.0393228717148304,0.0240332020163536,-0.427427540180087,0.078874799272418,-0.0621441081166267,0.0253017041832208,-0.0431079002759186,-0.0038124560378491,0.0360314339674892,-0.0827067329849582,157
1722247442120669700,-0.4119266041874885,-0.1809650544375181,-0.3647457508176565,3.762162622503936,3.734408938659728,8.250497246831655,-0.1974894404411316,-0.1356803774833679,-0.026239002123475,0.8745816715759666,0.0986440307226,-0.2638390901352853,-0.3946708889635487,-0.0029850411228835,-0.058414552360773,0.0778488218784332,-0.0936339769870042,0.201877494084835,0.0063736266851425,-0.1084905713796615,0.0670775026082992,-0.1237975258513819,0.0002926241140812,0.0101677811039844,-0.0984924224693793,158
1722247442160449300,0.1004170612558722,-0.0008586626559495,-0.1036187799066305,3.8335555415883658,3.6445343142062425,8.257820721587539,-0.2671689987182617,-0.0920056104660034,0.0685198009014129,0.8695696963594889,0.0892660863208799,-0.2664580290709473,-0.4060544046902111,-0.0054663084447383,-7.03917467035e-05,0.1409761309623718,-0.1217091478705406,0.1383878954708576,-0.2754857511311769,-0.114041157066822,0.0390973128378391,-0.0397152758626732,-0.0108749670907855,0.0779585886097978,-0.0118722024101822,159
1722247442200348000,0.8282201714128256,0.013021394136548,0.2876040589481592,3.813388367350399,3.5962376085489987,8.288276650127768,-0.0814403966069221,-0.0389191284775733,-0.2108633816242218,0.8657854575644248,0.0844135225858104,-0.2651223297284986,-0.4159328676351245,0.0734628587961196,-0.010164251551032,0.2260299026966095,-0.044333062723279,-0.1363344700723886,0.1537871246546507,-0.0680442601442337,0.006054044701159,-0.0499049400049028,0.0046464400365948,0.0389423506948398,0.0518478679333347,160
1722247442240009200,-0.267175018903613,-0.2152168681293725,-0.1219791969835758,3.8146336912363767,3.610344459834695,8.281568092399835,-0.0818399265408515,-0.0142840044572949,-0.0974180325865745,0.8595606493076506,0.0812513970515301,-0.2667503403977523,-0.4282499989318413,-0.0332670472562313,0.0012200695928186,0.2634317576885223,0.2184451825261116,0.2549211020082235,0.3269142520081252,-0.0413786023855209,-0.0020944597199559,-0.0177976412281859,0.0001949017168954,0.0916355057793203,-0.0417338537100469,161
1722247442279789000,-0.2761111895531415,-0.3746393683224916,-0.4940881700456142,3.838234054793417,3.582570317724347,8.282724861219524,-0.0777886435389518,-0.1410695910453796,-0.0541420690715312,0.855099423698402,0.0765942148842799,-0.268014685022366,-0.4371573202130159,0.2060270309448242,-0.1428990662097931,0.170488029718399,-0.0772889913856983,-0.7032020451247691,0.7151729803603142,-0.0442456118762493,-0.0296586062759161,-0.0205588450032519,-0.0239380802959203,0.0783481724492739,0.0115805453951819,162
1722247442319568400,-0.415661406801641,0.4807254151254892,-0.6520575488209724,3.8327860185205935,3.53554786978662,8.305421846196055,-0.2529724836349487,0.1289033442735672,0.0997735932469368,0.8516009048820455,0.0720173805908158,-0.2671232269328707,-0.4452353494750503,0.1162342876195907,-0.176567941904068,0.053311388939619,0.1554559346497059,-0.2639595639884471,-0.1176004704426974,-0.0317118391394615,-0.0046944194473326,-0.1047688632572069,-0.0305462889373302,0.059809558394365,-0.0679321841713041,163
1722247442359348000,-0.0506523288726806,0.44759208406955,-0.6399333957850932,3.8755391185760497,3.395999406103789,8.343726150149106,-0.4042307138442993,-0.3506984710693359,0.0522450804710388,0.8486473275882934,0.0620584953673035,-0.2659644568915222,-0.4530003907733298,0.2959790229797363,-0.2838186919689178,0.0954021885991096,-0.3167015586167573,-0.5942185233145952,0.4330014678549021,-0.0266364254057407,0.0026268269866704,-0.1333077883281279,-0.0486794710159301,0.017164085715136,-0.0439129010824486,164
1722247442399128600,0.7632736519888043,-0.2361737314403057,0.0455365932941436,4.052961970362067,3.3243945978343485,8.288080835294723,-0.0997674167156219,-0.7408663630485535,-0.1813778579235077,0.8411326911315098,0.0506593937939756,-0.2736039096131961,-0.4637568506441715,0.7659494280815125,-0.2930856347084045,0.1228564456105232,-0.2234825921714305,-0.8254746720969677,0.5327222174096852,-0.0228770542889833,0.0126905068755149,-0.1030747270246501,-0.0231580324470996,-0.0132946444202447,0.0257537216490483,165
1722247442438908200,-0.2926818006038665,-0.1689785563066601,0.0208247613638639,4.259724313879013,3.3234885889053345,8.184103743469715,-0.113548070192337,-0.5217747688293457,-0.0513265766203403,0.8319063547707746,0.0413182790853176,-0.2846394855191811,-0.4745575553904175,0.9310148358345032,-0.1793212592601776,0.2463249862194061,-0.1150304007589817,0.2967681931346654,-0.2428513095080852,-0.0068414569832384,-0.0029202965088188,-0.0407063190269051,-0.015926606953144,0.0494433275422547,0.0050535228131921,166
1722247442478687700,-0.4972451727718114,-0.0247451496779918,-0.0700578710883855,4.3988960532039405,3.2590123173415657,8.13627290175855,-0.2010806798934936,-0.3709514141082763,0.1321535110473632,0.8261564037884189,0.0318953379171061,-0.2900831369283832,-0.481975068725157,0.8507229089736938,-0.1240750029683113,0.3896187245845794,-0.4369190066248178,0.5634013602465391,-0.0588368774373084,0.0165904592722654,-0.0318673849105834,-0.0793588838617782,-0.0496659204363822,0.0256578806087374,-0.0372816966067766,167
1722247442518468000,-0.6751213212832808,0.035716625547409,-0.2526017191499471,4.556271850000321,3.146327018404006,8.093911431369184,-0.2949166595935821,-0.355924904346466,0.3087593019008636,0.8219374930412587,0.0205319284686653,-0.2947945254242006,-0.4869224618624019,0.6852338314056396,-0.0131351677700877,0.4782213270664215,0.4418091167539358,-0.0436836589038372,-0.820806826416403,0.0114563191309571,-0.0131782451644539,-0.1067509495856706,-0.058072842657566,0.0027790328343457,-0.0340807268746895,168
1722247442558247700,-0.5087669760003686,0.1147261571153998,-0.3496294302284717,4.69622567961365,2.948804504658282,8.088287746268511,-0.4474047124385834,-0.2751437723636627,0.4122335016727447,0.8200368724984255,0.0065831742188495,-0.2959201875571958,-0.4898237887534678,0.8398532271385193,-0.1027862280607223,0.4289900660514831,-0.212422268974781,-0.1535258433699607,0.4575467841118574,0.0072405985556542,-0.0134391002357006,-0.1272100742412265,-0.0751359611749649,-0.0086285357515065,-0.0328225731898914,169
1722247442598027300,1.3065923014104366,-0.1552475525960326,-0.0342202495098114,4.826454526287317,2.767321856087446,8.075745075559615,-0.3220407366752624,-0.245824709534645,0.0820290148258209,0.8169226591534774,-0.0070062793393398,-0.2969890866266238,-0.4943539537384058,0.823133111000061,-0.1383530050516128,0.3593369126319885,0.0877460879921913,-0.1134609594851732,0.0120405664056539,-0.0095863016322255,0.0179462283849716,-0.0450619341202545,-0.0808480978012085,0.0195044588458025,-0.0456403733290266,170
1722247442637806800,0.3621829145923256,-0.0362862421289086,0.0798030200332403,4.844457215967774,2.661228502760828,8.100584917783737,-0.3429505527019501,-0.0013375193811953,0.0926961079239845,0.8128020645999227,-0.0151122978422201,-0.2945449362137677,-0.5023620794196072,0.8702348470687866,-0.1254191994667053,0.5146281123161316,-0.5903150861352682,1.129869122326374,-0.2049015180811285,-0.0096555799245834,0.0188783053308725,-0.0418531875070882,-0.0855400711297988,0.0296767014957731,0.0258718430198263,171
1722247442677587500,-0.7099141099840403,0.061174015147984,-0.2371890459626913,4.971891755747794,2.4988258177131413,8.075057093295454,-0.372360348701477,-0.6990431547164917,0.2526456415653229,0.8088733081771626,-0.0280408576946098,-0.2958046493165372,-0.5073826948132155,0.1768528968095779,-0.1964571624994278,0.5817317962646484,0.0149742817699909,0.2600397601962089,-0.1680018202289938,0.0046686357818543,0.0094972141087055,-0.0697127200456801,-0.0811109542846679,0.0330437736259424,0.0407505691605852,172
1722247442717367000,0.4649614442825317,-0.2108255013026297,0.5196411289751529,5.212438879966736,2.374136338857561,7.960172238487004,-0.2202294915914535,-0.6089276075363159,0.090247668325901,0.8020406850641886,-0.0431628287182206,-0.3037781260953667,-0.5124319255478753,0.0879882723093032,-0.268335223197937,0.6708120107650757,-0.310167188411951,0.066931263500452,0.0446633175909519,-0.0006879571592435,0.0337434187531471,-0.067942559434846,-0.0770282819867134,0.017815836755291,0.004361903841063,173
1722247442757146600,-0.3706336398124694,0.0085743515998125,-0.3791495392233133,5.398905454429984,2.277887941588461,7.863423344349861,-0.2453991472721099,-0.5103862285614014,0.1670086830854416,0.7959678449863313,-0.0553743922642644,-0.3098558860764371,-0.517066834476825,-0.1773749589920044,-0.1484938561916351,0.6445383429527283,0.2735503991544246,0.4584551311284303,-0.6537880258753895,-0.0131899528205394,0.0079853655770421,-0.0492535953901242,-0.0722043067216873,0.0444513462075497,0.0394924177590757,174
1722247442796926000,-0.3200982153177261,0.1591869378715753,-0.1925532009005546,5.526289140805602,2.129819194580614,7.816289252731203,-0.4377181828022003,-0.1757640093564987,0.2525116801261902,0.7914302274889594,-0.0679451741562309,-0.3112291887776729,-0.5216876545006686,-0.185808926820755,-0.1194330528378486,0.5944530963897705,0.410474651813507,-0.2315840655624866,-0.0095443656757473,-0.011777683161199,-0.0209056623280048,-0.0265287931081955,-0.082842618227005,0.0548886056024115,-0.0066172741317306,175
1722247442836706600,0.2156605202436447,0.3646703474938869,0.4432563929527998,5.543591573262215,1.9428911400854587,7.852652359488606,-0.378952294588089,0.2454799860715866,0.2369084656238556,0.7897987187367678,-0.0782019831014746,-0.3057950484093549,-0.5259199064804022,0.1047438234090805,-0.1681724637746811,0.3364032208919525,1.0017626746341586,-0.9297048619002104,0.3580471299618482,-0.0087574981153011,0.002033494412899,-0.0642382889562752,-0.075891189277172,0.0422457122223218,0.0674112564365845,176
1722247442876483300,0.3234714911431074,0.2464740300498902,0.2125719065785407,5.457028557574748,1.7655530439734457,7.954498284503817,-0.4318995177745819,0.3658595085144043,0.1784538924694061,0.7895357143911916,-0.0847322573177382,-0.2953877039991548,-0.5312248801055363,-0.0162699539214372,-0.1619798243045807,0.2053151726722717,0.26860738979429,-0.0819897164225578,0.2323418981924652,0.0033614882268011,0.0088231498375535,-0.0080237045802641,-0.0722822695970535,0.0497692030623322,0.0291909272728255,177
1722247442916262700,0.2137619931459426,-0.0207343066014349,0.1962777743816375,5.370563741564751,1.630386156375706,8.04172122540474,-0.2217137068510055,0.1243619993329048,0.1205051690340042,0.7883179886103264,-0.0896287522685579,-0.286274388832536,-0.5371857246201561,0.0997842103242874,-0.0381017699837684,0.1441046148538589,0.3538964400231838,0.0570154341638088,-0.0619786095291376,0.0115679297596216,0.0101741189137101,-0.0292899945999728,-0.0770132169127464,0.0416012814055196,0.0466971249734982,178
1722247442956042200,-0.0432072735637426,0.0866824042834341,-0.3839864578604698,5.415795798954368,1.5356884956799446,8.030019097173213,-0.2111474573612213,-0.2289382219314575,0.1168944537639617,0.7851724350657432,-0.0967314851127103,-0.2850017567668336,-0.541221983511857,0.548403799533844,0.0511582791805267,0.1269392073154449,0.3051087359786033,-0.16357961987257,0.0209649004869163,0.0276728067547082,-0.0063687609508633,0.0217699355427757,-0.0650898143649101,0.086059943269845,0.1137502156221773,179
1722247442995745800,-0.0981535002380609,-0.1050379990547895,-0.0264975463032722,5.460865943780541,1.4362141221016644,8.017893775093555,-0.1880214661359787,-0.0001152441836893,0.2143860459327697,0.7824140071858052,-0.1038155318517068,-0.2835904197797224,-0.5446350003981977,0.1720900982618332,0.0815737098455429,0.1244374960660934,0.2647904618546366,0.600472323012352,-0.5712921134963631,0.0369305051863193,-0.0264875944703817,-0.0299132890139124,-0.0773534551262855,0.0765958443226525,0.062267472940497,180
1722247443035522800,0.2180021149337291,0.0947333165310323,-0.2299818910628557,5.455507047095894,1.3334078276216983,8.039269156077504,-0.2542263865470886,0.0729354694485664,0.1342279762029647,0.7808417967358227,-0.1091450574599776,-0.2796403176753971,-0.5478820244684832,0.3275742530822754,0.0343520306050777,0.1509439349174499,0.0670680416226387,-0.248528770622611,0.3019743834756314,0.0270590782165527,-0.0251635555177927,-0.0389081104985205,-0.1037745326757431,0.0747189399682916,-0.0281202430011238,181
1722247443075299300,-0.0104746322631835,-0.0904838423930108,-0.0946913770854473,5.446060588836669,1.201094064432755,8.0664850797832,-0.3199656009674072,0.0357086509466171,0.1769960671663284,0.7796317958577963,-0.1154595816309986,-0.2745775136582826,-0.550863452448667,0.2878212332725525,-0.0298447981476783,0.1354271024465561,-0.1124868537560105,0.0615554156810045,-0.1182932019472122,0.012060122564435,-0.0282617174088954,-0.0803218745418824,-0.091973140835762,0.0376461711211712,-0.0171410678824409,182
1722247443115077000,0.8799749085694551,0.1632543334409594,0.0875870980381965,5.3959764152407645,1.0748472731325776,8.117790904128551,-0.3263371288776397,0.3363129496574402,0.1261227130889892,0.7782000625044133,-0.1204858656514525,-0.2675649488997923,-0.5552448763393657,-0.1619917452335357,-0.2422234266996383,0.1278705149888992,-0.08566898945719,-0.0279687878996133,0.1683439116649329,0.0115483431145548,-0.0725494548678398,-0.0019777286721102,-0.0893811285495758,0.131105035853153,-0.0826858363274019,183
1722247443154853600,0.1840665275841951,-0.0231361070461571,-0.1640472373843192,5.2491252273291344,0.8866949375394731,8.235948496997356,-0.4890669584274292,0.5810675024986267,0.3267369568347931,0.7790905608710768,-0.124459542010516,-0.2541521513921467,-0.55940550630772,0.3615663051605224,-0.3338911831378937,0.0937695428729057,-0.1516287775769829,-0.8545558051526546,0.4075910592012107,0.0198990628123283,-0.0724069774150848,-0.1969788901220075,-0.0764677077531814,-0.0565918749894946,0.0014982003852142,184
1722247443194630400,0.8819634520381688,0.2177982629247009,0.4636579604685306,5.096058818164468,0.7057649544153362,8.348799800151586,-0.3099909126758575,0.2778915166854858,-0.0422467291355133,0.7792773126282273,-0.1280910637830042,-0.2406706033528312,-0.5642669172015412,0.383680909872055,-0.3006369173526764,0.1393446028232574,-0.0053869537353515,0.3070446724772453,-0.2753454658776521,0.0308755170553922,-0.0696050599217414,-0.2297693442907184,-0.0646907985210418,-0.0307963897080859,-0.1520360888693947,185
1722247443234407000,0.4154980329334735,0.2126056627176702,0.4993763395816087,5.052110370844602,0.6747453275777399,8.378024141070247,-0.1506818830966949,0.0504404865205287,-0.2385910749435424,0.7745295576662664,-0.1301948886269449,-0.2364084228440883,-0.5720702555560717,-0.1067828088998794,-0.2831707596778869,0.1766461133956909,0.1052948964253067,0.6549252132117748,-0.3718593822151422,0.0372606292366981,-0.056881945580244,-0.2251020831320434,-0.040305882692337,-0.0183548047534888,-0.109127368993964,186
1722247443274184700,-0.3836480196863412,0.016426818665862,0.3457674941033125,5.030643804445862,0.6572416734606027,8.3923203774482,-0.118644893169403,0.051425501704216,-0.0166557468473911,0.7703094297427436,-0.1320567779487493,-0.2338199089293065,-0.5783706795006723,-0.1004708558320999,-0.1561828702688217,0.1766067594289779,0.0739247756496071,0.1915922469139099,-0.5650662247188389,0.0340416394174099,-0.0193796046078205,-0.2160873490872792,-0.0271171983331441,-0.0396087421817006,-0.1552440271983854,187
1722247443313961200,0.1416162098675966,0.08557334706299,0.3094955727607011,5.018635971266031,0.6271504865795373,8.401806583195924,-0.0279849544167518,0.0183879807591438,0.0182448457926511,0.7680806650077939,-0.1338858381227142,-0.2317361651166768,-0.5817430317093683,-0.2517357170581817,-0.1516468226909637,0.2051322758197784,-0.104054248714447,0.1294260058581829,0.1240828912645578,0.0223978217691183,-0.0055103115737438,-0.1896863219610415,-0.0014253566041588,-0.045245158899785,-0.1415192614322993,188
1722247443353738000,0.1344797821164131,-0.0227750186488032,-0.0499620085209608,5.004674081408977,0.6138436996303498,8.411112756201625,-0.0425886660814285,0.0481538660824298,0.0830848291516304,0.7662542556942894,-0.1347660087852832,-0.2301971106380282,-0.5845527087479766,-0.0789370685815811,-0.2503091096878052,0.2828237414360046,-0.4986828043594956,-0.0575555323898792,0.6352344243139029,0.0039125457406044,0.0054386863484978,-0.0677668101422954,0.0083398791030049,-0.0140636411899875,-0.1360350670007057,189
1722247443393514800,0.5057341841757297,0.0557748229855671,-0.2161842518568038,4.986863699430227,0.5774916257236152,8.424255730891227,-0.083240196108818,0.0058813346549868,0.0089735798537731,0.764950780722319,-0.1362895387826544,-0.2278325402049441,-0.5868286743916323,0.1402930170297622,-0.5267184376716614,0.4693166613578796,-0.772548845334351,-0.0458481434613466,0.1657481960833072,0.0013584953267127,-0.0544867776334285,0.0129508656340069,-0.0035268145147711,0.0523035621118498,-0.1170344705903902,190
1722247443433292300,0.3687175770580768,-0.0992748689508065,0.0083025489211082,4.995640880125761,0.5740749491479248,8.41928729482889,-0.0374236106872558,0.0149464663118124,-0.0781577229499816,0.7617130715636431,-0.1379461615224594,-0.22739101146175,-0.5908108289366613,1.7035292387008667,-0.6350240111351013,0.6360763311386108,-0.5223159011423587,-0.4627665645867586,0.5531393478207289,0.0117180487141013,-0.0664075091481208,-0.1286685842201579,0.0126517293974757,-0.0108978786269552,-0.0042190784289356,191
1722247443473069000,0.0266986218333244,-0.0587540214594453,0.1627139429539442,5.004865220066905,0.5833834237085656,8.413166766121982,-0.0007629715837538,0.0760363936424255,-0.0316839665174484,0.7587519190633195,-0.1389684986518365,-0.2274547017254304,-0.594346440513022,3.327901124954224,-0.2290084064006805,0.8172882795333862,0.2581567229285836,-0.692213618120551,-0.3485872276991605,0.0302221439778804,-0.0468947328627109,-0.1218914639011956,0.0406455770134925,0.0093220412908674,-0.0022693006346089,192
1722247443512845600,-0.1252548576533794,0.2358187439901754,-0.0288251124680042,5.019302326220274,0.5779105452554301,8.404939620524644,-0.0395992882549762,0.0202722866088151,-0.0291851237416267,0.7565307583704957,-0.1404826232465425,-0.2274466629188455,-0.5968197610957066,2.201567411422729,-0.0565992891788482,0.7876632213592529,0.2826744935914874,0.7354296595126391,-0.9356655238702892,0.0460197813808918,-0.0304206367582082,-0.1359131667872425,0.0485631115734577,-0.0048718809235055,0.0055089093185641,193
1722247443552622300,-0.1470744752734899,0.2700757087811827,0.077662500873208,5.023913619408011,0.5652014684710651,8.403048692211508,-0.0407466068863868,0.0108954729512333,0.0017557506216689,0.7543828544391089,-0.1419692549865161,-0.2267344012929265,-0.5994521583443624,0.0760240256786346,-0.0345084741711616,0.4496786594390869,0.71782210662961,0.2584071905583143,-0.7861071228265761,0.0535376369953155,0.0134737156331539,-0.1511097860710229,0.0612370036542415,-0.0793359687770716,0.0308905342649435,194
1722247443592400100,-0.0289426013678312,0.124831225413829,0.1722550937592983,5.0073856784552335,0.5630530582655221,8.413052199831604,0.0186712685972452,0.0203757956624031,0.0598456151783466,0.7532473651352145,-0.1419801139947214,-0.2255999734017625,-0.6013026542288074,-0.6654093861579895,0.055479098111391,0.1873600780963897,0.8774790001004934,-0.1991027686744928,-0.2864016974210739,0.0578633099794387,0.0085921306163072,-0.0013307411428628,0.0463819429278373,-0.0515215357555309,0.0214960048390668,195
1722247443632176600,0.0707429307430982,0.1517866350198164,0.0464911175400018,4.998679224908352,0.6001422508077695,8.415665012678504,0.0844299718737602,-0.0090575814247131,0.0426404699683189,0.7521316046529419,-0.1405890735502118,-0.2261751721368178,-0.6028080944164749,-0.6628793478012085,0.0426139011979103,0.0813888311386108,0.5066664965897798,-0.0243453367054462,-0.3514107606872916,0.0645425543189048,-0.0415078438818454,0.1053204875242896,0.0452740751206874,0.035455177582649,0.0658991211408516,196
1722247443671953200,-0.0088040687024593,0.0745274907831102,-0.2443055999696254,4.994130475562811,0.618145050086081,8.417062604516744,0.0224515367299318,-0.0024781234096735,0.0897183641791343,0.7513086266402884,-0.1400098928077205,-0.2263768092804589,-0.6038925496177167,-0.7090476751327515,-0.2072488814592361,0.0404027849435806,-0.2630672913238406,0.6435533398479223,1.2069810035794972,0.0579000413417816,-0.0438078790903091,0.015092544704664,0.0782493203878402,-0.0239157222496811,0.1014780506840441,197
1722247443711731000,0.197545017838478,-0.0115166886620223,-0.2664531343698501,4.989343241286277,0.5994428703667596,8.421253041943908,-0.0457253940403461,0.0560947023332119,0.0913590714335441,0.7506933802907004,-0.1408678299253522,-0.2253704230887112,-0.6048337021791294,-0.0527427420020103,-0.2026852220296859,0.176506370306015,-0.0926055107221007,-0.2229056690663099,0.1885375355184078,0.0475559942424297,-0.0584149770438671,0.0114443757694156,0.0738742500543594,0.0326615100098191,0.0448584976697573,198
1722247443751507500,0.1397948396593332,-0.2260372085576877,-0.1411784029722213,4.969880415925383,0.5693059081152081,8.434842591357231,-0.0433720201253891,0.0877139642834663,0.1342237889766693,0.7504927596854335,-0.1415877982443801,-0.2233732620055688,-0.6056550328809386,0.0394074246287345,-0.1342219710350036,0.1382341384887695,-0.2538140175491571,-0.04826631051898,-0.1316010118097066,0.0343482457101345,-0.0435966216027736,-0.057828924237471,0.0713218003511428,-0.0010441918445314,0.0707164080623537,199
1722247443791284200,0.1677080979794263,-0.1178702638274058,-0.1025929439902305,4.972044315961003,0.5358081276610493,8.435761459767818,-0.0552253052592277,-0.0006997826276347,0.110588826239109,0.7501054148823767,-0.1431832516866959,-0.2222485486620777,-0.6061733323185355,0.2152777761220932,-0.1215154379606247,0.0786529704928398,0.1563403162688016,-0.4422907627910375,0.0906587605684995,0.0152346286922693,-0.0486815795302391,-0.0033564451340556,0.0689678266644477,0.0622107880169292,0.0720996517148334,200
1722247443831061000,-0.0444359385758638,0.0381019863139837,0.1745265458226204,4.986517077949643,0.4937101670460775,8.429785307967663,-0.0296790804713964,0.0480127185583114,0.135587528347969,0.7497983110220158,-0.1454863100374152,-0.2214368587379614,-0.6063019636465258,1.1154342889785769,-0.0739451423287391,0.0983549654483795,-0.0711795685946941,0.0404740492075681,-0.6596379209473728,0.0149412378668785,-0.0706872344017028,-0.0084911748198966,0.0637876316905021,0.0760151263918262,0.0408686928146518,201
1722247443870832600,0.032978725016117,0.2006875171152874,0.0050046764194965,4.98676433070898,0.4429038166554644,8.432461249178647,-0.1012742891907692,0.0318935811519622,0.1008541733026504,0.7495792833705544,-0.1476718934831085,-0.2196750666684323,-0.6066851536259545,1.1824002265930176,-0.0554630756378173,0.0399830043315887,0.2147925052374601,0.0097170918941497,0.202233760176599,0.0005331262946128,-0.057613231241703,-0.0223570558149251,0.0812320411205291,0.053072560023237,0.0447543157760752,202
1722247443910609200,0.0579500846654176,0.0513127655427902,0.14804419708848,4.972716516134143,0.3956546472897753,8.443099547570943,-0.0502753891050815,0.0603636354207992,0.1132480502128601,0.7495571443350351,-0.1491891794515243,-0.2174035796107322,-0.6071592239307994,1.0588362216949463,0.0550483092665672,0.0308614093810319,0.3298980170592665,0.0227151051551103,-0.6567535976827145,0.0061945528723299,-0.058542463928461,-0.0579566970692947,0.0988504290580749,0.0482079998939065,0.0778239019799977,203
1722247443950386000,0.260356571060419,0.0949494069671258,-0.145815415123105,4.937604870742559,0.3750624160401523,8.464618720939756,-0.0502464286983013,0.1353757083415985,0.0539228804409503,0.7493338203629253,-0.1490144226999425,-0.2149866303810212,-0.6083373992178176,1.619744062423706,0.469099223613739,0.3728696703910827,0.7693643700793386,1.0120996519923209,-0.1453448750019073,0.0343262553215026,-0.0699862390756607,-0.0728653662571683,0.0766490772366523,0.1038786364192143,-0.0243318424696335,204
1722247443990225700,8.53401958942e-05,-0.0825491404036059,0.0393453374385833,4.909524439162015,0.362820372245647,8.48146873345375,-0.0016447650268673,0.0432687141001224,0.0543766804039478,0.7487117630295503,-0.1488516915576238,-0.213092964807893,-0.6098075705898002,-0.0535158589482307,0.0060232933610677,0.4956015348434448,-0.9573881108567118,0.3562386192351579,-0.562655510315299,0.0542572326958179,-0.0821253284811973,-0.1005971213973593,0.0674391016364097,0.0579935173817677,-0.0165605999717197,205
1722247444030006000,0.0089227266460657,-0.1249103185320273,0.0438344655513763,4.918045014747977,0.3628341815752908,8.476530692529678,0.0230933688580989,-0.0038750106468796,0.061633002012968,0.7480006665110064,-0.1493687359857241,-0.2133218130356719,-0.6104734748577902,0.3683517575263977,0.1345744580030441,0.26575568318367,1.2502303627192974,-0.4693886130750179,0.0360287602365016,0.0388614200055599,-0.0491692535579204,-0.1133441921045537,0.088847741484642,0.0143140231963945,-0.0367081915847375,206
1722247444069785000,0.0342535672575235,-0.0539428948506712,-0.0469032054722309,4.918451841983199,0.3559117253683507,8.476587975674867,-0.0113680642098188,0.0347802117466926,0.0730289965867996,0.7477189660465059,-0.1497639949278104,-0.2130376136630814,-0.6108208986518815,0.3871467709541321,0.3037724196910858,-0.1478247791528701,0.534212382902205,-1.2245675136744976,-0.5193921226501464,0.0111070061102509,-0.0194127392023801,-0.0993224892185069,0.0943557620048523,0.0285079454107675,-0.0444864038211992,207
1722247444109564400,0.0723129565387964,-0.0309893412971869,0.0164729958951473,4.917053081101179,0.3374470807319507,8.478154494339227,4.15593385696e-05,-0.026043577119708,0.0531174056231975,0.7472616788398319,-0.1506359435179776,-0.212233929918941,-0.611445494125996,-0.3172966241836548,0.3298583030700683,-0.1433652490377426,0.3223629453793168,0.7259738489031792,0.0178776019960641,-0.0090953689068555,-0.0028896832372993,-0.0082873730432183,0.0930582582950592,0.0846391897517256,-0.0963133705304004,208
1722247444149343500,0.0567997455865144,-0.2379777851875871,0.054206221961975,4.922840432330966,0.3129461881386116,8.475735158237814,-0.0181004162877798,-0.0078984554857015,0.108336254954338,0.7470774039758955,-0.1518874775469602,-0.2116316427078221,-0.6115697842283967,-0.5261633396148682,-0.0572195388376712,-0.0052762203849852,-0.7492126856714486,0.3234001794725656,1.4326649051874876,-0.030654601752758,-0.040475595742464,0.0156921408658963,0.102983571588993,0.0887217280913144,-0.0338444886997109,209
1722247444189123600,0.028116671937704,-0.1342138246566057,0.0539139610171318,4.940151048094034,0.2992640285383909,8.466151921856403,0.0331855230033397,-0.069412849843502,0.08231683075428,0.7469520588788974,-0.1530413248378873,-0.2119545326874895,-0.6113233343051232,-0.6474199891090393,-0.3240885734558105,0.0822775959968566,-0.698241500107944,0.7305266899019479,1.4871563738316296,-0.0447750464081764,-0.0060515911318361,-0.1055760331879369,0.1173477470874786,0.0630492070358712,-0.0516841424387181,210
1722247444230149000,0.2008680247813463,-0.0183559418312273,-0.0390647669315338,4.950855397459864,0.2811195192344486,8.460519468927384,-0.037992924451828,0.0648219957947731,0.0588978640735149,0.7466055847395845,-0.1542450487661905,-0.2117593690672823,-0.6115116489078668,0.6877438426017761,-0.0015975016867741,0.1375686824321746,0.5606076378747821,-0.4789642506718635,-1.2106097154706716,-0.0435966737568378,-0.0306968577206134,-0.0583481395057169,0.1026781648397445,0.1323301846007816,-0.0405729156053159,211
1722247444269928200,-0.0005412672698497,0.0328140542400069,0.0973556278586387,4.916735101193189,0.25000101686595,8.481367611166835,0.0012577364686876,0.0652700886130333,0.0363440886139869,0.7464508038613772,-0.1544850464738074,-0.2090572970904954,-0.6125688660095467,0.5263059735298157,-0.0519344955682754,0.1338162869215011,-0.4660375490814447,0.2327706449985504,0.6108803197801113,-0.0268300157040357,-0.0035048453137278,-0.1310900848791934,0.1379143595695495,-0.0011789338440808,0.0445250461980002,212
1722247444309707500,-0.0273158769488334,-0.1082078977951779,-0.0130617261469364,4.934980367457866,0.2561994879135862,8.470579090648888,0.0658603534102439,-0.1145580559968948,0.0331375710666179,0.745818029932623,-0.1550303087030667,-0.2099672533012557,-0.6128905130012902,0.78211909532547,0.0337844565510749,0.1849200129508972,0.02549450674057,-0.4025578873395919,0.022656068444252,-0.028401181101799,0.0293555110692977,-0.0534253326833946,0.1574738025665283,0.046267387220147,-0.0118791710070858,213
1722247444349487900,0.0686503423780202,-0.1081853389034979,0.0768546916216611,4.954086049944162,0.2673998041028156,8.459072777250409,0.0469219945371151,0.0030751000158488,0.031744010746479,0.745159715674357,-0.1554086988716268,-0.2110816166706219,-0.6132125549240006,0.6059765219688416,0.0797258019447326,0.2278560996055603,0.3996966526895761,0.248284440472722,-1.0658785884529351,-0.0234561972320079,-0.0171373765915632,-0.0745077494696015,0.1205219179391861,0.0698543798389611,0.0049493380653992,214
1722247444389267000,-0.1753343550741672,-0.0434231813367456,0.0328600670725107,4.960145788374543,0.2823943614758551,8.455033146470784,0.0731324851512909,-0.0771572738885879,0.0313298851251602,0.7445307759035069,-0.1552062482451307,-0.2117174723125796,-0.613808263556756,-1.3540412187576294,0.0582151785492897,-0.1289703249931335,0.5625377291545272,-0.0697808077126741,-1.1195645859330892,-0.0364976674318313,0.0228621065616607,-0.0713551078246906,0.1302865743637085,-0.000980480671022,0.0700317548330174,215
1722247444429046300,-0.1026443819165229,0.0077173877106048,-0.0592009615093469,4.988012869465351,0.2828788022582419,8.438607496848702,0.0147294551134109,-0.0518636330962181,0.0585326142609119,0.7438818036940652,-0.1563023807871511,-0.2128857230787524,-0.6139129488319991,0.1878240555524826,0.1659925132989883,-0.0665439739823341,0.5143728331834078,-1.248858489844203,0.6865718128412962,-0.0458132028579711,0.0452243350446224,-0.0226687018802505,0.1543790847063064,0.070569843765092,0.0525394897595746,216
1722247444468825300,0.0295949277967214,-0.1351638188578188,-0.0978454572021961,4.997030873179435,0.2695384053003974,8.43370686532557,0.0136063210666179,-0.0514945797622203,0.0769504383206367,0.7435867870764556,-0.1572384757386687,-0.2127831538066226,-0.6140668774810769,-1.0900613069534302,-0.2702154219150543,-0.2318436503410339,-1.0682073236614464,0.6984282548516988,1.5828700797021389,-0.0558019615709781,0.0225403495132923,-0.0212382398188696,0.1386379599571228,0.032335632206453,0.0207210954934125,217
1722247444508605400,0.4182078764140605,-0.0480514987245202,-0.3022954321235418,5.003012870198488,0.244974694870226,8.43090934356153,-0.1071861758828163,0.011777245439589,-0.0100443828850984,0.7429075035322728,-0.1586682234915715,-0.2120557459523432,-0.614772528619433,-0.5558404922485352,-0.1808702051639557,-0.0432175435125827,-0.0447930814504623,-0.7200193244129419,-0.319594941970706,-0.0667898580431938,0.0184271223843097,0.0208549236066872,0.1103402003645896,0.1154209527128376,0.0006013691348547,218
1722247444548384800,0.1383896490365266,-0.077037994033005,0.2042073983371257,4.988045018169284,0.2239821209250949,8.440356970864533,-0.0476384311914444,0.1009457930922508,-0.0495867989957332,0.7411754521566568,-0.1596349559510104,-0.2101862175798255,-0.6172498955466481,-0.8159471750259399,-0.1458945423364639,0.0015768251614645,0.3549120468065142,0.9657248543083669,0.1319505558997392,-0.0626434162259101,0.0196200497448444,-0.0587638670000247,0.1227113455533981,0.0514476531019899,0.0940719300128519,219
1722247444588163800,-0.231741886472702,-0.0454186660028994,0.0441319871932268,4.978246677732467,0.2176516027293168,8.446305650135875,-0.0389555618166923,0.0547277592122554,-0.0360065400600433,0.7396887348510105,-0.1600788629988174,-0.2091244246358224,-0.6192757030009581,1.0850512981414795,-0.0262137930840253,0.1840236037969589,0.471451098562777,-1.021411670216918,0.2586661337554454,-0.0499075278639793,0.0411323495209217,0.0307846832872717,0.1219186335802078,0.0648060104082105,0.0676335574177559,220
1722247444627943000,-0.015858078867197,0.0086003262912854,0.2908253590822219,4.965720373636484,0.22258962538708,8.453547291827201,0.0498203597962856,0.0047933422029018,-0.0577063784003257,0.7386435120164622,-0.1598230834040767,-0.2084361638889366,-0.6208193119053155,1.2308063507080078,0.1129169315099716,0.1196385473012924,-0.2293541145533323,0.2520265496104955,-1.299620124310255,-0.0219160430133342,0.0030579252634197,-0.0326464425881393,0.0773555263876915,0.1038120648558717,0.1187967766883317,221
1722247444667723500,-0.2365998478978872,-0.096095252534002,-0.0077957684427499,4.987593767270446,0.2556089746745303,8.439725102701782,0.0769002810120582,-0.1307237893342971,0.0117242941632866,0.7374064316877984,-0.1596157040433969,-0.2102774486037179,-0.6217218156880083,0.6722357273101807,0.3457807898521423,-0.0892536789178848,0.7377674548104405,-1.0727321076095104,-0.9954460388332604,-0.0070597077719867,0.0358593836426734,-0.1259553523392416,0.0608875639736652,-0.0149832687940448,0.0757559959650272,222
1722247444707502600,0.0429787255048751,-0.0363839851486496,-0.352405909204483,5.030334592366218,0.2617383808076381,8.414131811761855,-0.0348000675439834,-0.1748206913471222,-0.0349724367260932,0.7360682358067875,-0.1612174515792779,-0.2121499374266895,-0.6222579657909447,-0.4147054851055145,0.3378878533840179,-0.3165384232997894,0.2053638748958706,0.7263444357812404,0.8277285885035991,-0.0378686301410198,0.0387428067624568,0.0277598099076072,0.0098815951496362,0.0863886729007121,-0.0045563435635296,223
1722247444747281700,-0.0821919609963893,-0.1308768805199302,-0.2635615045815706,5.0634775680333375,0.2454991936683654,8.394718670761584,-0.1005505993962287,-0.0471670031547546,-0.0106653654947876,0.7342048892677986,-0.1635950382232804,-0.2126619793882377,-0.623662269122098,-0.3499533832073211,-0.1855254173278808,0.0060539315454661,-1.0363491271078586,-0.8473363752931355,1.737715773499012,-0.0402588173747062,0.0603324137628078,-0.0731252638689475,0.02802718244493,0.0142474573412735,0.1064204207233618,224
1722247444787061000,0.3147761435121298,-0.0155879566889256,0.1410281808465719,5.0440451378107065,0.2060764801446348,8.407468262219428,-0.1493760347366333,0.2307638078927993,-0.0343531817197799,0.7332719649494733,-0.1648625044137691,-0.2101398791466405,-0.6252788845953343,0.2369284778833389,-0.2045654207468032,-0.1415916532278061,-0.5787497360259294,0.7276970194339751,-0.9407505720496178,-0.0115656433627009,0.0095207216218113,0.0401952276996104,-0.0044421125203371,0.1475654462613631,0.023376427741209,225
1722247444826841000,-0.0049281040519475,0.1702394796205684,0.2813765627354383,4.947308518633246,0.1552223268232308,8.465839202645421,-0.1510271281003952,0.2512784600257873,-0.0511592626571655,0.7326147505843174,-0.163922702992818,-0.2036950700562814,-0.6284213288772019,2.7997329235076904,0.4814699292182922,-0.114066481590271,0.4394447257101535,-2.0001403830051423,-0.3378501451075076,0.0166467782109975,-0.001543816877529,-0.000467470382338,-0.0054306387901306,0.0262459210462053,0.011677764400182,226
1722247444866623500,-0.0844634130597114,-0.0722826527320779,0.2441957098543643,4.950529234245419,0.1463534309899434,8.464114278548955,0.0523651875555515,-0.1643970012664795,-0.0829179286956787,0.7312507137230609,-0.1648265108297078,-0.2031809279422204,-0.6299383172875106,1.3481708765029907,0.0563881956040859,0.1658774763345718,-0.0329112127378582,1.171281329166889,-0.0491086065620183,-0.0042327432893216,0.0588339306414127,-0.132061204066826,0.0271975621581077,-0.0528250332692638,-0.0750536061496008,227
1722247444906402600,0.3085258509457111,-0.1123169405492022,0.4981441674381494,4.99597814925611,0.2061397911718115,8.436118602642416,0.1272303313016891,-0.0849983617663383,-0.1278234124183654,0.7291558963011977,-0.1646303769748868,-0.2068199565551421,-0.6312321909085675,0.3121976852416992,0.032859168946743,0.183608740568161,0.9255310833469031,0.8106500279307365,-0.9642635495841504,-0.0312586650252342,-0.0104250907897949,0.0084674759963672,0.0040817502886056,0.0716168868663022,-0.1606208796648308,228
1722247444946182000,0.0388297891318798,-0.0931808446583338,-0.0733919839471578,5.039870482474565,0.2778337024968117,8.407907238158582,0.0833997726440429,-0.2030869722366333,-0.1383899748325348,0.7266654919508762,-0.1640531572636488,-0.2107192563933289,-0.6329622970384304,-0.666721522808075,-0.2839056551456451,0.173859640955925,-0.0507780010789632,0.537651417440176,-0.0626946488440036,-0.0313898473978042,0.0205895211547613,-0.2132463535076938,0.0159360338002443,-0.0929463235164061,-0.0823764324515126,229
1722247444985962000,-0.0012193126618862,-0.1744494254657998,-0.0562736758857965,5.09368565929234,0.3088240301746875,8.374328209161758,0.0017355473246425,-0.1235437393188476,-0.1311508417129516,0.7241917353668479,-0.1654480183400787,-0.2136703777809638,-0.634443258452979,-0.5905497670173645,0.1473146378993988,-0.2267998307943344,0.7672960393726825,-1.18718850787282,-1.0692618011504411,-0.0427362099289894,0.028625326231122,-0.1172323312500491,0.0420906916260719,-0.0418707642629742,-0.0990798578353598,230
1722247445025741000,-0.3382926281780004,-0.2278783794449642,0.041966333591938,5.106345234379172,0.3206538033738732,8.366170037147402,-0.0531831234693527,0.0477357804775238,-0.0441922321915626,0.7225877493706542,-0.1659424304283032,-0.2142595009877884,-0.6359426812417398,-0.7701187133789062,-0.0089769614860415,-0.3171947002410888,0.1159606673464179,-0.8412894963443279,0.4704524429142475,-0.0672642588615417,0.0500299669802188,-0.198601358490996,0.0556482523679733,-0.1137469642191659,-0.1057249949382618,231
1722247445065516500,-0.3511474335759878,-0.2404599756584502,0.2224275301605462,5.08044390040338,0.2931324121818877,8.382931786856055,-0.0338008813560009,0.0284266211092472,0.0280640535056591,0.7226780539255638,-0.1661347082461788,-0.21210534245212,-0.6365115529256966,0.3425582647323608,0.1835915893316269,-0.1526175290346145,-0.1619140247479081,0.1539221492111682,0.5009948806941509,-0.0704662278294563,0.0284375175833702,-0.0829073244578205,0.0245762560516595,-0.0075206350167543,-0.1042236321982927,232
1722247445105295600,-0.2634545370757579,-0.1411459620073437,0.1519119784325361,5.111263986080885,0.2906338916307315,8.364263326743245,0.0559429787099361,-0.1929709315299987,0.0123500060290098,0.7224498624866573,-0.1673505192009804,-0.2133894771296633,-0.63602276113704,0.1261692196130752,-0.3652710020542145,-0.0941682755947113,-1.6163608458936214,0.7598445543229579,0.6137181735545396,-0.048494629561901,0.0034413619432598,0.0006513446147786,0.0168471820652484,0.0055089915169548,-0.0123554524575476,233
1722247445145075500,0.1191349134683609,-0.0901770779987797,-0.0879810657918453,5.137783744215965,0.2781218535221181,8.348425706142187,-0.0293386541306972,-0.0496985986828804,0.0098717333748936,0.722135661530309,-0.1688495998980819,-0.2140994251633153,-0.6357447522114882,0.3559739291667938,-0.0517793372273445,-0.0066143926233053,0.1066235146805644,-0.5128443084418773,1.0021469977766275,-0.0337083414196968,-0.0150868967175483,-0.1179316477589774,0.0210784133523702,-0.0647524672897998,0.046565073258779,234
1722247445184854800,0.3757891228795051,0.2541929155978374,0.018194997382164,5.118604411971568,0.2508339605587534,8.36106190035343,-0.1127727776765823,0.0987851172685623,-0.0917152091860771,0.7213488200471807,-0.1695505150900239,-0.2120308981140767,-0.637143160752942,-1.1750110387802124,-0.1773291677236557,0.1107943877577781,-0.5980518178671598,0.521998505756259,-0.9067898502588272,-0.015483021736145,-0.0203406140208244,-0.0245747592638595,0.0173265598714351,0.0714155830073868,-0.0436836315043736,235
