time_imu,phone_acc_x,phone_acc_y,phone_acc_z,phone_gravity_x,phone_gravity_y,phone_gravity_z,phone_gyro_x,phone_gyro_y,phone_gyro_z,phone_ori_w,phone_ori_x,phone_ori_y,phone_ori_z,watch_gyro_x,watch_gyro_y,watch_gyro_z,watch_acc_x,watch_acc_y,watch_acc_z,headphone_gyro_x,headphone_gyro_y,headphone_gyro_z,headphone_acc_x,headphone_acc_y,headphone_acc_z,frame_imu
1734065701195184600,1.270525108859688,11.81402676399946,-3.2599393690586087,-0.1416590260960161,9.8014243743062,-0.287070280865021,-2.005683898925781,-0.2160823196172714,0.2471749037504196,0.3007029306213312,0.3189574933914554,-0.6425749981909498,-0.6284435682825541,-0.0851256251335144,-0.0723356232047081,0.0228943917900323,0.0086358189582824,0.005106508731842,-0.0114546865224838,0.2084291279315948,0.1101681739091873,0.8578583538293838,-0.2282928526401519,0.4476850230500102,0.1321820265680551,0
1734065701235184600,1.760497952540964,4.574479414603114,-4.461433465659618,-0.1141849537776317,9.783248666146395,0.6673718762002885,-2.768314838409424,-0.3680047392845154,-0.0712853819131851,0.3135641865111456,0.3000803066260122,-0.6131274857549234,-0.6600787499852118,0.0046716360375285,-0.0261136349290609,-0.0114140473306179,-0.0649317502975463,0.1093146204948425,-0.1049578040838241,0.2389922440052032,-0.0278882682323455,0.6487059003055096,-0.2712470293045044,0.3556969866391271,0.6301577055715024,1
1734065701275185000,1.1029505010668188,-4.195273176756501,-2.669095875135064,-0.141528851244552,9.655997666239738,1.7064771701484918,-2.454800844192505,-0.3408423364162445,-0.2056964337825775,0.3218666908798542,0.2784947474446184,-0.5791671205395342,-0.6952754751965389,0.5024153590202332,0.5093656778335571,0.0472521297633647,-0.4105724096298218,0.360069990158081,-0.3150730729103088,0.1879220902919769,0.0156219825148582,0.1210287643909454,-0.0612085461616516,0.1445106892000883,0.7342148768953979,2
1734065701315185000,0.3636710707908496,-11.11230239021182,-1.192300444059074,-0.2608703110025264,9.470629408407213,2.531706635312736,-1.7956370115280151,0.3777495324611664,-0.3408620357513428,0.3297247733552619,0.2683406043593024,-0.5467286425458503,-0.7213618039278783,1.6215389966964722,1.3769296407699585,-0.3927066028118133,-1.0982600450515747,0.9080304503440856,-0.659397304058075,0.1504579186439514,0.0600190348923206,-0.6236889479488134,0.0940184593200683,-0.1048061630602926,0.0719249801345169,3
1734065701355185000,0.6220499485701322,-14.958782587563991,-0.1608189229875803,-0.404476872703433,9.311310368588568,3.050620326796174,-1.0604866743087769,0.1247617155313491,-0.1676180511713028,0.3370802029910369,0.2672739571699044,-0.5225191658002106,-0.7361489655359104,2.3597395420074463,1.474639058113098,-1.0861059427261353,-0.886598527431488,0.8487796187400818,-0.2534005641937256,0.1428261250257492,0.0916501209139823,-0.9358370810449124,-0.0170249640941619,-0.3207793294496834,-0.580471006860584,4
1734065701395184600,-0.4050519691776484,-14.764611430072785,1.041676751871407,-0.4429441121332347,9.260790726184844,3.195610981532931,0.3671938180923462,-0.0302297789603471,-0.0465605705976486,0.3378814779427391,0.2658905186191281,-0.5161118304047834,-0.7407879547532188,1.834428668022156,0.7091135382652283,-1.5834565162658691,-0.1412022113800048,0.3912965059280395,0.2682558000087738,0.140218511223793,0.1382982432842254,-1.0086877977222204,-0.1455170810222625,-0.5224074153507128,-0.5200754287391901,5
1734065701435184600,-1.6853785602793097,-11.556355486500262,-0.7176844517245888,-0.4255592986227944,9.366410324519872,2.873962321902811,1.1923103332519531,0.0780903026461601,0.1875581741333007,0.3337035020719421,0.2710376585151963,-0.5291571480975183,-0.7315554609583474,1.6593215465545654,0.3002599477767944,-1.450224757194519,0.5731329321861267,-0.0465359091758728,0.684701681137085,0.0818677842617034,0.1300917565822601,-0.2997118453711271,-0.0688861683011055,-0.3652373337268829,-0.0344305312596261,6
1734065701475184600,-0.8380772562995552,-5.3021758495152,-1.245146775844693,-0.2949787707009352,9.54021206319928,2.2511605320520696,2.0696074962615967,-0.1786916106939315,0.4164859354496002,0.3297281177013002,0.2782857828749236,-0.5547790375705282,-0.7113765477801635,1.3344228267669678,0.0037338491529226,-0.9009247422218324,1.0939137935638428,-0.5041130185127258,0.6801577210426331,-0.0464823544025421,0.0763994082808494,-0.1975724903672933,0.2603345811367035,-0.397151388653554,0.9718958710934966,7
1734065701515184600,1.0450852451406418,2.5982547447144984,-1.1668329714559018,-0.1586322631308808,9.695074123609066,1.4665570917867123,1.9431416988372805,-0.0175327155739069,0.1734018474817276,0.3203977788614201,0.2852140371312366,-0.5864122709837696,-0.6871091820415349,0.2212385684251785,-0.2775112390518188,-0.1711350679397583,1.220531344413757,-0.7926251888275146,0.5961287021636963,-0.0111846290528774,-0.0006690844893455,0.9464519985616208,0.6433480978012085,0.5109343101020902,0.799386291116476,8
1734065701555185000,0.4516667861625552,7.536195131021738,-0.258780700045824,-0.1654099405722692,9.78016765126586,0.7009600383516401,2.005519151687622,-0.0761395841836929,-0.0920101031661033,0.3093614580380094,0.2983867642385724,-0.612557200343444,-0.6633509658413743,-0.998199701309204,-0.0763157159090042,0.6208839416503906,1.1054739952087402,-0.7622416019439697,0.7184150218963623,0.0242357216775417,-0.1687359809875488,0.3924403979510069,0.6594813466072083,0.0653184945415705,0.3631215106166899,9
1734065701595185000,0.545962222732976,7.188408113789558,-2.182599475392699,-0.1842880431140773,9.804736275333166,0.059540728557459,1.140195369720459,0.0776312425732612,-0.0516623519361019,0.2975277213188795,0.3077004273494484,-0.6342591856907802,-0.6438267489683552,-1.6555947065353394,-0.1685841232538223,1.1231685876846311,0.764130711555481,-0.4990088939666748,0.6507132053375244,0.0115950647741556,-0.1016968712210655,-0.0426794502973556,0.5189196467399597,-0.0254573896005749,0.0973139806739985,10
1734065701635184600,-0.3704488578300923,5.810110174083709,-1.9729718055725096,-0.162859452371858,9.803376092895864,-0.1940800268753431,0.1943736523389816,0.0170929357409477,0.2418238520622253,0.295309941710742,0.3119257747904023,-0.642337635837168,-0.6347414245375441,-2.207087278366089,-0.5400068759918213,1.2314441204071045,0.2595153450965881,-0.1363565921783447,0.3215926885604858,0.0424747839570045,-0.1255872696638107,0.3353589128136635,0.3471777439117431,0.0273875539455562,-0.2498107732571661,11
1734065701675184600,0.919488515247032,3.1837118694245814,-0.4474725493431091,-0.0545831974816275,9.805279880690572,-0.1545199507075361,-0.2887972891330719,-0.0779944434762001,0.2120561003684997,0.2991061777335912,0.3074405441606951,-0.6429297294889362,-0.6345526840304939,-2.380542516708374,-1.0222984552383425,0.8112468123435974,-0.316733181476593,0.3494166135787964,0.029404878616333,0.0437850467860698,-0.1242351531982421,-0.0297059869557619,0.105447232723236,-0.0177825441237539,-0.3174799956433475,12
1734065701715184600,0.5839302074037492,1.0444254660576582,1.0588941363930702,-0.0254826587558607,9.806395732977986,-0.0658991850729333,-0.1255444288253784,-0.1684353798627853,-0.0711415112018585,0.2993067692162467,0.3029929290911339,-0.6415256878551309,-0.6380090639127133,-1.7455620765686035,-0.9633232355117798,0.397686243057251,-0.7103071212768555,0.5842191576957703,-0.2920393943786621,0.0673536881804466,-0.1106652021408081,-0.3026215953379869,-0.0102199837565422,-0.1520088629357516,-0.1912111386418342,13
1734065701755184600,-0.1064567067462951,-0.483068178859353,0.9486229128599166,-0.0759516692341771,9.80623908111155,-0.0479543128272052,0.0323464758694171,-0.0230206381529569,-0.1198994815349578,0.2966208917877635,0.3030468933702269,-0.6407866805681217,-0.6399774368752531,-0.8173575401306152,-0.5520321726799011,0.1449959427118301,-0.5384552478790283,0.6058488488197327,-0.3596134185791015,0.0457300543785095,0.0271523147821426,-0.4049462437808513,-0.0655100494623184,-0.3452711619537323,-0.2201519864439964,14
1734065701795185000,0.3830405553124845,-0.8609422913193702,0.5329565376222133,-0.0999264738604892,9.8056808627069,-0.0951162514340132,0.1880517452955246,0.0936377495527267,-0.0371430553495883,0.2957524395377131,0.3051893019008186,-0.641645594610952,-0.6384990597133824,-0.2208480387926101,-0.1571704000234604,-0.0621966011822223,-0.4752013087272644,0.4308931231498718,-0.2596330642700195,-0.0252518579363822,0.0796616971492767,-0.1417149940669536,-0.0588434003293514,-0.1852501113455742,-0.2408276947259902,15
1734065701835185000,0.5144542643891648,-0.524230794852972,0.585322684675455,-0.1261446826325729,9.804006207492948,-0.1895314053939655,0.3140162229537964,0.1147594973444938,-0.1026552692055702,0.294473224902435,0.3085288946608741,-0.64379603425341,-0.6353125642032923,-0.0200670007616281,0.0165201108902692,-0.0712506845593452,-0.1361265778541565,0.1157235503196716,-0.0881758332252502,-0.0772140547633171,0.0554743707180023,0.0431166726708412,-0.0495180636644363,-0.106098687088862,-0.207067756204307,16
1734065701875185000,0.2383272196797654,0.2465910805583,0.2068389158844947,-0.1650047755711711,9.797833071815967,-0.3816159658694639,0.4292055666446686,0.1220505014061927,-0.0711082220077514,0.2924866258823173,0.3150586182164979,-0.6482245489129526,-0.6284859443395777,-0.104092925786972,0.0181736685335636,-0.0286321155726909,-0.0090446472167968,-0.0577009916305542,0.0091558843851089,-0.0504235737025737,0.0102521292865276,0.050810149782896,-0.050194151699543,-0.0957859673891216,-0.1027406818978488,17
1734065701915184600,-0.0453589717049151,2.013290956479311,0.061646053106524,-0.1922654517340473,9.789673730757832,-0.5437789604097605,0.386323869228363,0.0218962114304304,-0.048637218773365,0.289763962596051,0.3191779935909602,-0.6525721564031127,-0.6231466707771175,-0.0463662445545196,-0.1164070442318916,-0.0758584812283515,0.0692020654678344,-0.0058868527412414,0.0018724203109741,0.014033455401659,-0.0032700933516025,0.0448819287776947,-0.0625600963830947,-0.0446643405042588,-0.0772439832001924,18
1734065701955184600,0.4540996393326669,6.876055982553958,-1.0439466695647686,-0.2116867943070828,9.783546187788248,-0.638578547110036,-0.037841111421585,-0.1629519909620285,-0.1219458132982254,0.2870355670692939,0.3206326649034758,-0.6555555964583956,-0.6205256563937783,-0.1270096898078918,-0.1904381811618805,0.0176251288503408,0.1013702750205993,-0.0453700423240661,0.0076543688774108,0.1043070405721664,-0.1464561074972152,0.2436392450153827,-0.0968793630599975,0.5569948542051016,-0.1581226696409285,19
1734065701995184600,-0.8859857663568109,13.159150748378035,-2.1915864994466303,-0.2669720436774194,9.796005856388806,-0.3706576052099466,-1.2671924829483032,-0.8707711100578308,0.0450176261365413,0.282636672002851,0.3113414123472753,-0.6495881791930478,-0.6334179124554546,-0.1812921017408371,-0.2385536730289459,0.0615478456020355,0.061468482017517,0.0021111369132995,0.0153209567070007,0.0986399725079536,-0.0475645139813423,-0.2326683536678552,-0.1298559606075287,-0.6200842745203524,0.1072904541566967,20
1734065702035185000,-0.4011718398086726,10.66485205270052,-2.3926930091589687,-0.1846593971771188,9.79823814548552,0.3616619959907606,-2.313779830932617,-0.1604268103837967,0.3219949007034302,0.2886226407618911,0.2900977231952021,-0.6303996202625889,-0.6596487893929426,-0.2192197740077972,-0.2246332764625549,0.0683203265070915,-0.0272341966629028,0.0171546339988708,-0.0264211148023605,0.0063913986086845,0.0243595018982887,0.5351385578364134,-0.2198737561702728,0.1252424365632236,-0.0091783088423311,21
1734065702075185000,0.6956691654019057,0.8655278655439614,-3.568351822757721,-0.0787135716955643,9.72432652157843,1.2655787384986876,-2.3570942878723145,0.1454918384552002,0.2501021027565002,0.3072297773704719,0.2747028678656688,-0.6000098146662671,-0.6856650557725354,-0.0798134207725524,-0.0675529539585113,0.0128879630938172,-0.1407751441001892,0.1160662174224853,-0.0763954892754554,-0.0789300352334976,-0.0715154334902763,0.8682973302572965,-0.2148100435733795,0.1925255822412669,0.4074697709091007,22
1734065702115185000,0.7626351348895579,-9.122387048622963,-2.973612490439415,-0.0648749383254209,9.576537176033854,2.1109511202424764,-1.988283395767212,0.135189026594162,-0.1119339242577552,0.3209984012665542,0.2618091046366766,-0.5690583761834627,-0.7103440136597998,0.4191404581069946,0.5826367139816284,0.0049288403242826,-0.4494543671607971,0.3542436361312866,-0.2783160209655761,-0.0952056720852851,-0.0295991115272045,0.0373415964007377,0.0767964124679565,-0.0483428828865289,0.5598492207229137,23
1734065702155184600,-0.2150275195697322,-15.082518857347964,-1.750376809890568,-0.119412753162207,9.42172889163792,2.717934140323102,-1.1213990449905396,0.244704782962799,0.0259858854115009,0.3303337360758501,0.2554339036292343,-0.5442218714647102,-0.7276371593142317,1.36825692653656,1.3313506841659546,-0.3123618364334106,-1.281208038330078,0.8345699310302734,-0.6599481701850891,-0.0415042228996753,-0.0264522545039653,-0.956770563480258,0.1734643578529358,-0.2229844333909451,-0.1275846157751977,24
1734065702195184600,0.3555055191876367,-15.771969440495967,-1.8883990869194267,-0.1141402652525342,9.34683001025915,2.96549055878222,-0.3047209978103637,0.2218360900878906,0.0553035140037536,0.3377458997031579,0.2537166959131671,-0.5333196969718452,-0.7328886021631281,2.7197580337524414,1.452595353126526,-1.1825478076934814,-0.8995770812034607,0.9628055691719056,-0.1590094566345214,0.0097315572202205,0.0969113558530807,-1.106748358979821,0.0470187813043594,-0.4059459223426878,-0.4758559093929826,25
1734065702235184600,0.0259030875414609,-12.453809353137016,-0.5869260282188654,-0.1418724496509879,9.349128934851288,2.9570360341697928,0.3865531980991363,-0.0550090372562408,-0.0817254185676574,0.3386154578407917,0.2561671341996454,-0.5325518877497999,-0.7321930019721248,2.866849899291992,0.7369207143783569,-1.510344624519348,-0.0733779072761535,0.3732252717018127,0.3169086277484894,0.0284429863095283,0.1798383295536041,-0.7413660638242959,0.0244676563888788,-0.224961213356629,-0.1308428869187831,26
1734065702275185000,-1.5696047938071191,-6.250237621361017,0.5845563764780759,-0.0391491298798937,9.450537052971123,2.618436531999707,1.3756943941116333,-0.8331254720687866,0.3346505165100097,0.3309384396183995,0.253992941471913,-0.5495311363419904,-0.723866678777904,1.929004192352295,0.2888239622116089,-1.1041892766952517,0.805609405040741,-0.3187072873115539,0.7712703347206116,-0.0056280754506587,0.1478389650583267,-0.5405880554139614,0.0103578278794884,-0.3543903244873508,0.117690121487528,27
1734065702315185000,0.2872405411317013,1.7113789707154037,1.2301425373278558,0.0980761698186863,9.61214683407545,1.9409775615490967,2.1445798873901367,-0.6580625176429749,-0.0847310572862625,0.3148337295789138,0.2517009303140723,-0.5811061231844291,-0.7069950630568901,1.0990742444992063,0.1894471049308776,-0.6698973178863525,1.2747092247009275,-0.5448063611984253,0.797082245349884,-0.087106317281723,0.1680311560630798,0.5175795202702284,0.145826056599617,0.1573289619799703,0.6076898531757294,28
1734065702355185000,2.2256755237922072,5.663523190066218,2.2986779238998887,0.0681192540088901,9.747653621152043,1.071909539180249,2.4962048530578613,0.0697864070534706,-0.4076065719127655,0.2979538055401596,0.262705342383162,-0.613460452992223,-0.6825508740269651,-0.1214817762374877,0.3524728119373321,-0.0441566780209541,1.307660460472107,-0.7337173819541931,0.8043112754821777,-0.1035732328891754,0.0383932441473007,0.8799649716973305,0.2424736320972442,0.4352176825996488,0.5884153169285505,29
1734065702395184600,-0.2998789090337231,6.537413810285925,-1.688361667743325,-0.0851387093722354,9.806004687833786,0.0734731868240516,2.131200075149536,-0.2390895187854766,-0.2095339745283126,0.2771554304402847,0.280706751338611,-0.6461096112516777,-0.6533995097389078,-1.8030829429626465,0.1452136933803558,0.6047750115394592,1.0628656148910522,-0.7365655899047852,0.6686239838600159,-0.0200999230146408,-0.1087820529937744,-0.0005208090037107,0.1208870112895965,-0.0255117501363158,0.2226834046177566,30
1734065702435184600,0.2839805164224468,6.281814662885665,-2.232991692024469,-0.1766904641245491,9.794351074919105,-0.458091120121628,0.7085531949996948,0.1064483448863029,-0.1987931579351425,0.2656612425102362,0.2903734047155747,-0.6626005075458838,-0.6372346004951562,-2.607499599456787,-0.4865464270114898,0.8135877847671509,0.520687460899353,-0.4100529253482818,0.4142317771911621,0.06238404661417,-0.0747356116771698,0.2977490208655595,0.0530654713511467,0.2049419231567531,0.1282052318915724,31
1734065702475184600,-0.2512424500280991,4.493370572668313,-1.3650327999413012,-0.156819057962764,9.789387899553777,-0.5600546071019024,-0.1010465994477272,0.2567810416221618,0.1779306530952453,0.2666009203009118,0.2929821147925159,-0.6653693092588848,-0.6327472152183384,-2.8937668800354004,-1.014894723892212,0.7418079376220703,-0.0345187783241272,0.0503098368644714,0.1901581883430481,0.0747193098068237,-0.0583127364516258,-0.0037906244546175,0.0381556339561939,-0.0271688696935772,-0.1785126197841018,32
1734065702515184600,-0.1285108089757151,1.4250667051434516,-0.0655576370596885,-0.0624268693198682,9.795957925593852,-0.4535349911872297,-0.2832483351230621,0.2335833460092544,0.2273091226816177,0.274681395213836,0.2919155728995823,-0.6617470412914437,-0.6335821114658923,-2.4198989868164062,-1.2558211088180542,0.4702362716197967,-0.4451496005058288,0.3980933427810669,0.0056969225406646,0.0121714770793914,0.0542464703321456,-0.1203548106521368,0.0035607889294624,-0.1216685235992073,-0.2676663826171309,33
1734065702555185000,0.4874710534607991,-0.8091834625095129,0.1138029413232579,-0.0023458277645018,9.7995597494781,-0.3728253046378493,-0.1668765991926193,0.0211603436619043,0.0597371980547905,0.2794741663951929,0.2904668174942289,-0.659270679663888,-0.6347324942185157,-1.51239013671875,-0.9827073216438292,0.2510062754154205,-0.7045374512672424,0.6013011932373047,-0.4410207271575928,-0.0357226692140102,0.038934051990509,-0.1347352181822061,0.0330331176519393,-0.0410869934741407,-0.1526993294179439,34
1734065702595185000,0.4409990059474483,-1.2572580693989992,1.0034487280249595,-0.0027106115218004,9.800667418459057,-0.3424996879464015,0.0597899556159973,-0.0169861149042844,-0.0382855050265789,0.2797699268577271,0.2898997856602954,-0.6583469747305146,-0.6358193307224976,-0.4831228256225586,-0.4888185858726501,0.2071991115808487,-0.5125697255134583,0.5381060242652893,-0.3845234513282776,-0.0716595947742462,0.0332297310233116,-0.1552946066081524,0.0522112995386123,-0.1087128151100128,-0.0208989956438541,35
1734065702635184600,0.5315404237465933,-0.7248515668749809,1.0653086796104907,-0.0254659017005935,9.79797686420083,-0.4115415138600394,0.2672539949417114,0.0168776903301477,-0.082486517727375,0.2778777688956671,0.2915115625657182,-0.6603058278705287,-0.6338778067512953,0.2054662555456161,-0.0222244076430797,-0.0349647104740142,-0.431338369846344,0.3712937235832214,-0.2200736999511718,-0.0531487688422203,0.0452378280460834,-0.0989443583548068,0.0771839842200279,-0.0644957069166004,0.0697457363992929,36
1734065702675093500,0.2277745354779995,0.7196329554438591,1.1276502041678875,-0.0606295375743182,9.790763864082097,-0.5546872348498553,0.4780465960502624,0.0696584060788154,-0.0919319614768028,0.27515474179608,0.2953025376247901,-0.664136724538306,-0.6292923068047012,0.3562879860401153,0.1136427149176597,-0.1693735271692276,-0.110663890838623,0.0407912731170654,0.0037885308265686,-0.0460261330008506,0.0385649390518665,0.0091425188638531,0.0376095995306968,-0.0705061354456935,-0.0532241429889108,37
1734065702715093200,-0.2441190826878883,2.923312628266215,0.002605871649459,-0.0774520729929208,9.777926009818913,-0.7460057063236832,0.4283170104026794,0.0853294804692268,-0.0003485089982859,0.2728844100897341,0.2998084448017749,-0.6694405134696799,-0.6224935942757337,0.0345477759838104,0.0489059090614318,-0.1010207012295723,0.0862337946891784,-0.1347911357879638,0.0587012767791748,-0.0275206230580806,0.0043353624641895,0.0753109693109989,-0.090842567384243,0.0070842591725289,-0.14201317329593,38
1734065702755093200,-0.5688574336953461,6.85740330453217,-1.273019702154398,-0.068299537912663,9.769279762026668,-0.8525825323183089,-0.023000918328762,0.028841434046626,0.090192049741745,0.2725738629925232,0.3021058781561503,-0.6724594051248978,-0.6182506818407031,-0.1608297079801559,-0.0883297100663185,-0.0089789861813187,0.1417111754417419,-0.0878294110298156,0.0348335057497024,-0.0248444806784391,-0.0418868251144886,0.041859950608015,-0.2314862012863159,-0.0948139074865728,-0.0391634050004184,39
1734065702795093200,-1.4349983165711164,13.480419176518916,-3.522504263818264,0.0248134542574058,9.78643314140141,-0.6288921426150947,-1.2384462356567385,-0.2677564620971679,0.427236407995224,0.2773317340101835,0.2940338922300455,-0.6675392455531703,-0.6253179895595943,-0.1936331987380981,-0.2033929228782653,0.0789639204740524,0.0852682590484619,-0.0351476669311523,-0.0142711549997329,-0.0348581783473491,-0.0198104660958051,0.5231628733605146,-0.2968291342258453,0.1304088063504546,0.0787641785047948,40
1734065702835093200,1.3570051224388182,9.933865344071387,-3.685766488304734,0.1670540362511761,9.803483644923569,0.1848452203391119,-2.7942123413085938,-0.0108965542167425,0.216352105140686,0.290038907573253,0.2736775171040461,-0.6447295037257521,-0.6521516890210939,-0.0940080657601356,-0.167627140879631,0.132378414273262,-0.0581105947494506,0.0583894848823547,-0.0466347336769104,-0.1107470691204071,-0.0537265166640281,0.6490846704900264,-0.2476992607116699,0.1368915194332599,0.4530328138187527,41
1734065702875093200,0.2472694364775903,-0.5897744033873081,-1.5512193884193897,0.1723144592637196,9.73053648213446,1.2072022451147435,-2.1666836738586426,0.729333758354187,-0.0844495370984077,0.3100506507773394,0.2632506577242371,-0.6075762545422771,-0.6822160383232205,0.3200841546058655,0.157502681016922,0.2294206619262695,-0.2555484771728515,0.2063387036323547,-0.1352289170026779,-0.1927773058414459,-0.0589560568332672,0.3234171306073665,0.0009726732969284,0.1199323474563658,0.6199732884265482,42
1734065702915093500,0.5340946017414331,-11.321941165947914,-3.270685219478607,0.039316650200216,9.61367769690454,1.9354685888692733,-1.8252863883972168,0.8823537826538086,-0.239293172955513,0.3275342137786756,0.2658163685302846,-0.5750306283410344,-0.7010012754831585,1.0127052068710327,0.7479460835456848,0.2277438193559646,-0.6254037022590637,0.4877827763557434,-0.3394018411636352,-0.1873787939548492,-0.0776888355612754,-0.5108136793971061,0.1131112053990364,-0.0409960272550582,0.1413511291906237,43
1734065702955093500,-0.0513147839699406,-16.432673237109185,-1.8457102842718365,-0.0163216115755843,9.451928799590467,2.613650174506009,-1.4917542934417725,0.1203299686312675,0.2144567221403122,0.3429201022426908,0.2619080527740594,-0.546026645741621,-0.7180981332780677,1.882313847541809,1.154706954956055,-0.4145815670490265,-1.3027291297912598,0.8426752090454102,-0.6467593312263489,-0.1420423686504364,0.0192021876573562,-0.9569728080540896,0.0213331505656242,-0.196236346392706,-0.2133978360086679,44
1734065702995093200,-0.2048971341669559,-16.122930411589145,-1.1076795023500918,0.051817801588634,9.374723394834994,2.877892647089064,0.0257684551179409,-0.2703263759613037,0.0722596496343612,0.3476686334546522,0.2539879354967004,-0.5373624774540491,-0.7251608440395645,2.6661412715911865,0.9304674863815308,-1.0769673585891724,-0.8357031941413879,0.7203033566474915,0.0377768576145172,-0.1080128103494644,0.0721127092838287,-0.735672236096859,-0.0182018093764781,-0.1469488030672073,-0.0118470896601676,45
1734065703035093200,-0.2852588475288823,-12.046757661509512,-0.4358569303512573,0.1085367735565174,9.415081124186516,2.741324075999856,0.6152094006538391,-0.3946854174137115,-0.0631024315953254,0.3424420326765823,0.250691007956821,-0.5453305368244645,-0.7228430879083362,2.47995662689209,0.4735313653945923,-1.1349929571151731,0.2739554643630981,0.1528598070144653,0.5477607846260071,-0.0882017910480499,0.0662403255701065,-0.5359814384013414,-0.0079816710203886,-0.1445539438199251,0.0666084612868726,46
1734065703075093200,-1.111710146105662,-4.526663185939192,1.3309458214223384,0.1172184945209417,9.531891394099592,2.3021054141305384,1.747800350189209,-0.5791446566581726,0.0707520395517349,0.3303362166238529,0.2531359843920696,-0.5644000938006222,-0.7129184429079413,1.863266110420227,0.0627219080924987,-0.7474860548973083,1.0816380977630615,-0.4469276368618011,0.5965640544891357,-0.0893037691712379,0.0731722339987754,0.0925298151373863,0.0849444568157196,-0.0677231445305049,0.380697207056731,47
1734065703115093200,0.555998901970312,5.411543986728787,-0.0606213497012853,0.1968278460124507,9.687488783046602,1.5113574797607958,2.2059543132781982,-0.2262963056564331,-0.1270569115877151,0.3155930409333539,0.2581107384428925,-0.5969263449018753,-0.6909839311022333,0.5798097252845764,0.0730987563729286,-0.2861718237400055,1.3673152923583984,-0.7693445682525635,0.7900722026824951,-0.0876011103391647,0.0645289272069931,0.4646504786372184,0.173060655593872,0.018502090569958,0.3287973623409867,48
1734065703155093500,1.88568076787144,7.499657836741209,-0.1993285402543842,0.0117243149471585,9.780191616663336,0.7197679069351405,1.9234507083892824,0.2253516167402267,-0.727543294429779,0.2991888404378505,0.2772343724790034,-0.6216455190351063,-0.6687180477291182,-0.924670398235321,0.2362636476755142,0.1690802425146103,1.2858340740203855,-0.8262180089950562,0.7952762842178345,-0.0536467172205448,0.0227133631706237,0.3062742726266384,0.1556209027767181,-0.0688425039492547,0.1167548864640295,49
1734065703195093500,0.1647472571461461,7.142714284107089,-1.5881962431609629,-0.1904848336612805,9.804791220390795,-0.0127762123199994,1.5352661609649658,0.342952698469162,-0.2950254380702972,0.2859039496155288,0.2987913554553864,-0.6413853221332015,-0.6462255915751464,-2.093355417251587,0.0872335880994796,0.7184491157531738,0.9339499473571776,-0.7089877128601074,0.6972560882568359,-0.0029069259762763,-0.0166881009936332,0.1913099228411912,0.0630818530917167,-0.0071427113614976,-0.0494264403395354,50
1734065703235093200,0.4316274395553395,4.833325581100583,-1.3279425479531288,-0.3375054598556831,9.793301273605229,-0.3843608075981959,0.4853656589984894,0.4666698276996612,-0.4241000413894653,0.2799563144946779,0.313691681531426,-0.6489949746870458,-0.6340564372248553,-2.359093189239502,-0.4986781775951385,0.6581018567085266,0.3635269999504089,-0.0498909354209899,0.1909250915050506,0.0693079009652137,-0.0706134438514709,0.0231365454375743,-0.0018732398748397,0.0774601832341402,0.0126131786618381,51
1734065703275093200,0.0196164815526455,3.0476328354179856,-0.6738157916426658,-0.4406968081304803,9.787233351868393,-0.4315575161242857,-0.225836843252182,0.4253594577312469,-0.2339079976081848,0.281667812458352,0.3237303749346453,-0.6459117235720043,-0.6313952671313076,-2.223825693130493,-0.5132389068603516,0.7939813137054443,-0.4971490502357483,0.3198192119598388,0.0282810926437377,0.1342523694038391,-0.09637051820755,-0.0667366177111864,-0.050487857311964,0.0509875521764159,-0.0655177434407174,52
1734065703315093200,-0.3069704381972551,0.8754173913955688,1.184138472652435,-0.5301022441696376,9.786112238883971,-0.3484117250017821,-0.0646198838949203,0.0729632154107093,-0.2242852002382278,0.2833828296911586,0.3287388142489298,-0.6400740948676688,-0.6339795973791146,-1.982309341430664,-0.5117073655128479,0.5473263263702393,-0.5880749821662903,0.5624735355377197,-0.12378591299057,0.1617800295352935,-0.0568893626332283,-0.206075530296564,-0.1260104328393936,-0.0156043233018368,-0.1709014871932566,53
1734065703355093200,-0.1196987944288179,-0.2707400179088116,1.5850772343575954,-0.5876381585435941,9.780957924860717,-0.397403354120627,0.3411518931388855,0.2746959924697876,-0.1630181074142456,0.2813631189935623,0.3320055300079899,-0.640339176350299,-0.6329082428406382,-0.7969231009483337,-0.3131931722164154,0.1244700253009796,-0.6288254261016846,0.5961495637893677,-0.399369478225708,0.1576493382453918,-0.0267912056297063,-0.138183897331357,-0.1651536226272583,0.0082528645604848,-0.1307838502079248,54
1734065703395093500,0.0758717449989169,-1.2042881112337112,0.606979220688343,-0.6187571175698191,9.764007959103584,-0.6720710668671875,0.8411335945129395,0.2824556827545166,0.0439063124358654,0.2811641011268919,0.3426599118818292,-0.6456394298981472,-0.6218365683832079,-0.2128217965364456,-0.049201376736164,-0.1239258125424385,-0.3474307060241699,0.3727351427078247,-0.3250179290771484,0.1377218812704086,-0.0167641714215278,-0.072349196895957,-0.1788230538368225,-0.0101459848307073,-0.1426781400106847,55
1734065703435093500,1.3332073366135355,-0.1360275960803031,-0.2213690340835601,-0.6263196617785841,9.744408940142392,-0.9080958182908594,0.2205836474895477,0.6906447410583496,-0.2861874401569366,0.2808212267048404,0.3506069130217666,-0.6506725700330583,-0.6122414505485254,0.1139651015400886,0.0151641359552741,-0.2251995056867599,-0.2552241683006286,0.0974894762039184,-0.1571119278669357,0.109388418495655,-0.0153465401381254,5.845218896865844e-07,-0.1828890740871429,-0.022344518277049,-0.1139132332973182,56
1734065703475093200,0.0827571936637163,0.0704658673673868,-0.4221837212424725,-0.7071947680227458,9.7381288369596,-0.9160250769201664,-0.2149307429790496,1.1416313648223877,-0.2726327776908874,0.2906700353247219,0.3666849081968274,-0.6420642177744371,-0.6072945029033805,0.1748545616865158,0.0930367261171341,-0.1479280143976211,-0.0320582389831543,0.0124809145927429,-0.0065414309501647,0.0775937959551811,-0.0362375527620315,0.0303150587648153,-0.1713052541017532,0.0281269741360098,-0.0484890133589506,57
1734065703515093200,0.3304755246862769,0.4146323560148477,0.3211095112521201,-0.8066223067846149,9.732891520828009,-0.8891334167327731,0.0514539070427417,0.6478961706161499,-0.3803466856479645,0.2988361198666145,0.3808353234337426,-0.632690795712292,-0.6044532634674302,0.072663202881813,0.2326233237981796,0.043388545513153,0.0380042791366577,-0.0091080069541931,0.1459770202636718,0.0612172745168209,-0.0754033327102661,-0.0017611644536256,-0.1527523547410965,0.0341209538538008,-0.0345278541542589,58
1734065703555093200,-0.4006761652462184,-0.2417319500893354,-0.1976570999108254,-0.8894989621095358,9.714688924661278,-1.0019874963659792,0.3469879627227783,0.4789014160633087,-0.2004621624946594,0.300830843188593,0.3924058103145195,-0.6301625381756423,-0.5986765449942664,0.1072368919849395,0.0319802388548851,0.1052236184477806,0.1257273554801941,-0.0071302652359008,-0.0896630734205246,0.0466821789741516,-0.0528411604464054,-0.1251765317201614,-0.1623472720384597,-0.0455365202289074,-0.0851937731608748,59
1734065703595093200,-0.7907727765500545,-1.2949901264220476,-0.960265419858694,-0.9327530704896896,9.693550275042652,-1.1556098589129746,0.3352863490581512,0.2938042879104614,0.0397767983376979,0.3006717747783441,0.4007534952200217,-0.6311230781468806,-0.5921796580791652,0.3205222487449646,-0.056985318660736,0.118037149310112,-0.0189945101737976,-0.0106967687606811,-0.004677414894104,0.0206342320889234,-0.0044309198856353,-0.1101473048925399,-0.1883531957864761,-0.0618162585742771,-0.1110224802918732,60
1734065703635093500,-0.9097992612078786,-1.1875532495319845,-0.9500595215342938,-0.8707385859295725,9.686220370545982,-1.2606865825429558,0.1188604682683944,0.567359983921051,0.2399322688579559,0.3038271462393301,0.4040739763456106,-0.6332466708010565,-0.5860135860632931,0.3462332189083099,-0.1499418467283249,0.0130434921011328,-0.0130751132965087,-0.0005662441253662,-0.0332407802343368,-0.0148246344178915,0.0353135019540786,-0.0540875640183687,-0.1922852993011474,-0.0392136738829314,-0.0583244709357619,61
1734065703675093500,0.5394087094362825,-0.0424169999688863,0.5226199986554682,-0.7360324477113783,9.689851420524716,-1.3173453122235834,0.1025654003024101,0.8567447066307068,0.2365942448377609,0.3177609873647918,0.4126447714775174,-0.6299922286038441,-0.576074576772938,0.0884182006120681,-0.1284634321928024,-0.039641223847866,-0.0401288866996765,0.0156468749046325,0.0331718474626541,-0.0331523269414901,0.032449647784233,0.0308972425669431,-0.1766172051429748,0.0373587667312473,0.0035511166103184,62
1734065703715093200,1.2611965778917074,0.4207534692436456,0.3777965171791613,-0.6235906021408736,9.684722240942715,-1.4098469241797924,0.1767442971467971,0.4812102913856506,0.1770430356264114,0.3250522503617837,0.4170813336924409,-0.6308132420570993,-0.5678545574991162,-0.0025982614606618,-0.0164224449545145,0.0309620387852191,-0.0274390578269958,-0.0396389961242675,0.05469810962677,-0.04189183562994,-0.0168037414550781,0.032633857101202,-0.1805341094732284,0.0891997208666056,8.89934577047e-05,63
1734065703755093200,0.5813736182561144,0.3768962073385715,-0.4165538255967199,-0.5288508558690548,9.687430915379524,-1.429824567195028,-0.0608265437185764,0.2830535769462585,0.1945530772209167,0.3321253699568622,0.4196220803423797,-0.6299349775843478,-0.5628428231404833,-0.0117110665887594,0.0780179873108863,0.0841432958841323,0.0402394533157348,0.0502704977989196,0.0205054283142089,-0.0478229969739913,-0.0222603976726531,-0.0304097513109445,-0.1841612309217453,0.0365201970152556,0.0136973937019705,64
1734065703795093200,-0.7526013051964342,-0.4359615597695112,-0.3608629180349409,-0.3922761473000049,9.6995778647691,-1.3909442169196904,-0.1799287945032119,0.6732682585716248,0.2738937139511108,0.3437098200701867,0.4221371280337203,-0.6266726914661999,-0.5576246683929599,0.0970564261078834,0.1388561427593231,0.159914419054985,0.0495808124542236,0.0640598535537719,0.0726848542690277,-0.0432649329304695,-0.0194767601788043,-0.0273123698174953,-0.2113653719425201,0.0574068446341902,-0.0221899122372269,65
1734065703835093200,-0.3520630871161818,0.3080120562046766,0.7853738401159643,-0.2574110191278159,9.705140175071358,-1.3836255644693969,0.2265316098928451,0.3798346817493438,0.3309100866317749,0.3536098282804316,0.4242959258070636,-0.6249145875610552,-0.5517381511682957,0.2871475219726562,-0.013898461125791,0.1659658551216125,0.0200117230415344,0.0213227272033691,-0.0895165205001831,-0.034554086625576,-0.0179160889238119,0.013344050219655,-0.2090821117162704,0.1029323320124298,0.0895220116235315,66
1734065703875093200,0.433917778982222,-0.0946557212501764,-0.3833306243002414,-0.2425312472408637,9.672360187497734,-1.5990680580481886,0.6438048481941223,0.1656128913164138,-0.3024068772792816,0.3510067611196457,0.4297064298305892,-0.6299858481451449,-0.5433824776559738,0.2465564310550689,-0.1488863229751587,0.0198972709476947,0.07106614112854,0.0897653102874755,-0.0881809592247009,-0.0174176208674907,-0.0304043069481849,-0.0442442153960466,-0.1952032148838043,0.0804004744697362,0.0696539664626121,67
1734065703915093500,0.0611500862831249,-0.3940273748815059,-0.6387186131678522,-0.3487534876441583,9.646269468429685,-1.7315408842563629,0.0642315745353698,0.112600639462471,-0.1926891952753067,0.3464686438990286,0.4372053991383765,-0.6301868403608386,-0.5400698593669964,0.1844243556261062,-0.1691877096891403,-0.0298445876687765,0.0289881229400634,0.0366877913475036,0.0012092292308807,-0.007980914786458,-0.0036143567413091,-0.0841764128118753,-0.1997490227222442,0.0491901473656296,0.0194832836270332,68
1734065703955093500,0.9563556990690528,0.2339560553908348,0.0427799880623817,-0.3938679100034758,9.636439563810823,-1.7760326446726915,0.1758942008018493,0.2551861107349396,-0.2300754487514495,0.3466356100828384,0.4423293569018676,-0.62840847067538,-0.5378580998753579,0.064247079193592,-0.0843689516186714,0.1574656516313552,-0.0281037092208862,-0.0979734063148498,0.0153397917747497,-0.0114214792847633,0.0118077546358108,-0.0336024098724126,-0.1864853799343109,0.0748796652216464,0.0171500183738768,69
1734065703995093200,0.174706980423443,0.2484305709451436,-0.013025193528831,-0.4856538845036178,9.615229602521657,-1.8659741968825456,0.2943611741065979,-0.0214924495667219,-0.2398995757102966,0.3435862969722719,0.4487970981420804,-0.6274706133004718,-0.5355466020593105,-0.2411690205335617,-0.0608731061220169,0.0303838662803173,0.0229907631874084,0.0673314332962036,0.022882342338562,-0.0163805186748504,0.0113880028948187,-0.0455167195498943,-0.199047639966011,0.0786809572007507,-0.0401237744651734,70
1734065704035093200,-0.298705737068504,0.0805523770958185,0.1020525535032153,-0.5439037558332085,9.595464579343796,-1.949777684728801,0.1049213781952858,-0.0954213067889213,0.0016326128970831,0.3394847104031613,0.4515856159331554,-0.6288731404529193,-0.5341715515880539,-0.3565078675746918,-0.0602390617132186,0.1346364319324493,0.0317080616950988,-0.0396968722343444,0.0066818594932556,-0.0094882901757955,0.0126854795962572,-0.0743383248865604,-0.2223719954490661,0.0495172604281455,-0.0358604179322719,71
1734065704075093200,0.0344397740120068,-0.0222106627643108,1.0171554740771651,-0.5476970471689477,9.59273369307518,-1.96211781860292,0.0987340062856674,-0.118063598871231,0.0412063896656036,0.3363893055500377,0.448746328884353,-0.631400742116614,-0.5355391685643517,-0.277054876089096,-0.052382256835699,0.0578970499336719,0.0046526193618774,0.0014694333076477,-0.0226831287145614,0.0130660329014062,0.0216096974909305,-0.0773071115642786,-0.2368897199630737,0.0583016015168279,-0.0348240606218576,72
1734065704115093200,1.620992597347498,-0.1030319199293851,-1.8862439547121523,-0.573230095821619,9.588409984657169,-1.9759024521969253,-0.2530090808868408,-0.0216149091720581,-0.2611358761787414,0.3360390721778355,0.4506360395929367,-0.630610929643279,-0.535102590108473,-0.1664804071187973,0.0046323998831212,-0.036982923746109,-0.0179084539413452,0.0219890475273132,0.0312738418579101,0.0306509938091039,0.0215617679059505,-0.0551584081202745,-0.2236513644456863,0.0782380357388407,0.0681949998259544,73
1734065704155093500,-0.2148459889903664,-0.4625058678239583,-0.6761071174502372,-0.6642748600330204,9.624965983638166,-1.7575987239681183,-0.741810142993927,-0.2182294130325317,0.0573595166206359,0.3372240916168194,0.448199667212779,-0.6234818803419602,-0.5446717636897016,-0.1499419063329696,0.0468973517417907,-0.107278324663639,-0.0294343829154968,0.0056585073471069,0.0211103707551956,0.0534620098769664,0.0285045858472585,-0.0761345606535673,-0.1782740503549575,0.0567573677495121,0.0974795464992523,74
1734065704195093500,0.3455074549276382,-0.0453133059322834,0.5725508813858032,-0.61246094003506,9.656985508233308,-1.5930786083750426,-0.1626218557357788,-0.0379647351801395,0.1682564914226532,0.3401191165039987,0.4409421745697342,-0.6219279752145568,-0.5505402405990247,0.0492713302373886,0.1042110845446586,-0.3028767704963684,-0.0286451578140258,0.1097429990768432,0.0289620459079742,0.064603753387928,0.0534265376627445,-0.0722977589696645,-0.1517447829246521,0.033058073862642,0.0545738862305879,75
1734065704235093200,0.338538565763086,-0.0013747954845428,-0.1958605718828737,-0.5715245705453679,9.671706692025063,-1.517190569828451,-0.2596207857131958,-0.0832390785217285,0.0882849469780922,0.3426408499803701,0.4378669888793275,-0.6209892820112901,-0.5524872742903402,-0.0137736834585666,0.11832045763731,-0.2132074236869812,0.0159423947334289,-0.0111642479896545,-0.0271126478910446,0.0628092959523201,0.0559289716184139,-0.0794090522795915,-0.1627077460289001,0.0165454035442322,-0.0040887306183576,76
1734065704275093200,-0.1458626883309334,0.0643821635395288,0.7966096660099923,-0.5489049251213669,9.6855563536793,-1.43496353751868,-0.1179592534899711,0.0704434290528297,0.0559986494481563,0.345126731870713,0.4356633474290843,-0.6191609051304441,-0.5547295741184,-0.1869627684354782,-0.0027624529320746,-0.0554901622235775,0.0613648891448974,-0.0697860121726989,-0.0153567790985107,0.0591257959604263,0.0830721408128738,-0.1047790558576583,-0.1782986223697662,-0.020381547641009,-0.0298056479379534,77
1734065704315093200,-0.121237621368654,0.0977852514475584,-0.1629657257579267,-0.5147220850124955,9.693450906321406,-1.393714850676805,-0.1540061384439468,0.0752102360129356,0.0901494324207305,0.347928047682366,0.4348340341517357,-0.6180445348945449,-0.5548750385680483,-0.1486196517944336,-0.0038165322039276,-0.1991183757781982,-0.0143777728080749,0.0547633171081543,0.0234164744615554,0.0507399290800094,0.079566091299057,-0.0567196660876274,-0.1991524547338485,0.0157063954368233,-0.0706368400201201,78
1734065704355093200,-0.5178084336552768,0.4948123926669359,-0.3889512406609952,-0.4437628446375951,9.701343705397845,-1.362855894293636,-0.0349611565470695,0.7806492447853088,0.1611860692501068,0.3544925740906829,0.436305044089353,-0.6157306423782245,-0.5521310186878258,-0.0180595088750123,0.0890472531318664,-0.2092086225748062,0.0296633243560791,0.0384392738342285,0.0290411263704299,0.0417328923940658,0.0757135674357414,-0.0264116215854883,-0.2113963067531585,0.0025093524724245,-0.0345984351724386,79
1734065704395093500,-1.5147420076325535,-0.0113368020504713,0.698945410593599,-0.1968130868347361,9.70890215795338,-1.3670773113809525,-0.0251342952251434,2.1500284671783447,0.7046208381652832,0.3807481782122235,0.4504701686687539,-0.6056221353641088,-0.5341623395325397,-0.0113448807969689,0.1255717128515243,-0.1015759035944938,0.0180198550224304,-0.0035781264305114,-0.0177991390228271,0.0511668026447296,0.0581218898296356,-0.029319617986679,-0.1936272382736206,-0.0072082508783787,0.0276768192157149,80
1734065704435093500,0.0719766189902089,-0.1037111343652009,1.2813340876437722,0.2180210205635987,9.697127549007536,-1.4451878482826053,0.3197468519210815,1.728797435760498,0.8441023230552673,0.4105371361048437,0.4628781856773118,-0.5995230284094094,-0.5077156268832794,-0.0423067882657051,0.0821899846196174,-0.1008308157324791,-0.009533941745758,0.000516653060913,-0.0189313888549804,0.0717061460018158,0.0628987327218055,-0.0549526564151048,-0.1932291090488433,-0.0165045600771903,-0.0344929289713501,81
1734065704475093200,-0.1376549050211906,-0.4247112669587135,1.2183039232350883,0.6437290617410093,9.662886841231584,-1.5442141858324407,0.4682551324367523,2.561169385910034,0.7943621873855591,0.4393215282156336,0.4765617659957218,-0.5929771455959235,-0.4777692958315526,-0.1055805683135986,0.0526531338691711,-0.0016565580153837,0.001261293888092,-0.0592766404151916,-0.0452896207571029,0.0744596794247627,0.0549922809004783,-0.0193137722790241,-0.1932191848754882,0.0079639646165072,-0.0006704466074705,82
1734065704515093200,-0.4370191059984266,-0.1459486861139536,0.3334638928472995,1.1626119927600025,9.597658289995788,-1.6442894479133188,0.6385512351989746,3.173879384994507,0.9999939203262328,0.4755535594493603,0.497087972705143,-0.5802921494551546,-0.4359053036792596,-0.0026848139241337,-0.0674779564142227,0.0380987785756588,0.0300117135047912,0.0110015869140625,-0.0560870766639709,0.0782436281442642,0.0327497832477092,-0.0268809926629066,-0.176898643374443,-0.0088743574596941,-0.0106932434499263,83
1734065704555093200,-0.2021200706690549,-0.2565641930401325,-1.153344836590439,1.8539694324426352,9.486960950005054,-1.652510602161288,0.3331848680973053,3.6919467449188232,1.3273056745529177,0.5190595765369546,0.5169292275864897,-0.5630619531415831,-0.382521534052585,-0.0295097697526216,-0.1421479433774948,0.0367556102573871,0.036771535873413,0.041340172290802,-0.0075304210186004,0.0806570276618003,0.0521191656589508,-0.0868354028880596,-0.1848119050264358,-0.0669373279150575,-0.0566822566866874,84
1734065704595093200,0.0993234208002686,-0.2145966904044151,-1.012863183710724,2.5479157195746898,9.37975086760819,-1.3033778694085776,-0.28360116481781,4.1381707191467285,1.1196858882904053,0.5702867904104562,0.5304523000708912,-0.5339233423829707,-0.329118919633852,-0.0798752009868621,-0.0665630102157592,0.0172205939888954,-0.0294795632362365,-0.0398597717285156,0.0979898571968078,0.0809432417154312,0.0626785531640052,-0.0373363357037305,-0.1903502494096756,-0.0477963914522901,-0.0133820441424846,85
1734065704635093500,-0.8280500755429268,-0.1361357326298952,-1.1186089657086875,3.0952094101071355,9.282136881074308,-0.6572905541036278,-0.7426591515541077,3.808887243270874,1.0502216815948486,0.6235449648139852,0.5383067271510162,-0.493698650512313,-0.278710140292816,-0.0425281003117561,-0.1415542066097259,0.0452670753002166,0.0655403137207031,-0.0508946776390075,-0.0193617045879364,0.084890142083168,0.0503780655562877,-0.0242214180648326,-0.2025340348482132,-0.0503761788124218,-0.01901362028867,86
1734065704675093500,-0.969139046666026,-0.1265548343360424,-0.6097422556608915,3.5611616189926862,9.13608648815155,0.1430225421347189,-0.9231401085853576,3.20943021774292,1.3268532752990725,0.6724946106491189,0.5335324659432329,-0.4561260655546236,-0.2346129173863466,-0.0712686628103256,-0.2662655115127563,-0.1001779362559318,0.0346758961677551,0.040745198726654,0.0091074109077453,0.0871900543570518,0.0632017627358436,-0.0615443097651004,-0.2256412953138351,-0.0893121317325159,-0.0407011359617114,87
1734065704715093200,-0.8097422654360532,-0.9048287793189288,0.2302266596041619,4.10326563192755,8.836967347976564,1.1142672832425684,-0.8107452392578125,2.8140010833740234,1.3994911909103394,0.7244438664139129,0.5189998978731681,-0.4169259937555293,-0.178865454818195,-0.0091349901631474,-0.3058266937732696,-0.0943915545940399,0.0391512513160705,0.0021591186523437,-0.0235213786363601,0.0780680328607559,0.0751387998461723,-0.0952145241767168,-0.2565645575523376,-0.0780411249272525,-0.0142787007212638,88
1734065704755093200,-2.173658920828998,-2.22150232976079,-0.0369610726505517,4.476881210160255,8.542643625384569,1.7751514779239892,-0.6179561018943787,2.010514736175537,1.7186404466629028,0.75602740592428,0.5044563269765459,-0.3937210613458541,-0.1375867240351891,0.0353272855281829,-0.2854052782058716,-0.1487374752759933,0.0004578232765197,0.0629971623420715,-0.0068830400705337,0.0871158018708229,0.1165161281824112,-0.1266354983568191,-0.2806276082992553,-0.1117592701338231,-0.0567629207074642,89
1734065704795093200,-0.9718553198873996,-0.8661550575315952,-0.3113698421999812,4.919595166799426,8.16098882534206,2.316514170972258,-0.5065585374832153,2.160680055618286,1.91153085231781,0.7805446949263294,0.4872458956097132,-0.3801079892949046,-0.094124425300239,-0.0235416255891323,-0.1742704063653946,-0.0212915800511837,0.0097625255584716,-0.0075663328170776,0.019449234008789,0.0843098387122154,0.1361031681299209,-0.0860766934752464,-0.3095895648002624,-0.0432553870217874,-0.0560834140107035,90
1734065704835093200,-1.3098930965214968,-1.5998030943244694,-0.1883054803282022,5.356243539789319,7.666710101160406,2.9500170953184366,-0.4972020089626312,2.3903462886810303,2.4295246601104736,0.8053129217569797,0.4657837890223784,-0.3641928646196311,-0.0433609041186095,0.0739923864603042,-0.0104569112882018,0.0671370923519134,0.0071187019348144,0.0503638386726379,0.056383728981018,0.0801975727081298,0.1422897279262542,-0.0789519561618566,-0.3098566830158233,-0.0406139691349118,-0.0568187425479292,91
1734065704875093200,-0.4936597155004739,-2.542399586501717,0.326605405254662,5.727383375558257,7.0271882087856525,3.739796184656024,-0.3775351047515869,3.898268938064575,2.821565866470337,0.8307114405901957,0.4412420582555874,-0.3385689143482362,0.0243907531994012,0.142973855137825,0.1034319996833801,0.1080430373549461,0.0333534479141235,0.0440096855163574,0.0377234071493148,0.0468061491847038,0.1380600780248642,-0.0381909067064523,-0.2921120524406433,-0.0317079561616294,-0.0599503185719251,92
1734065704915093500,0.0503290882676839,-1.4244400976777076,1.5751789406776426,5.738850525990128,6.307414968088269,4.84277759231776,0.2320674657821655,4.960326671600342,3.352810859680176,0.8562014211387351,0.4147167061077902,-0.2847755451268833,0.1176097224562932,-0.0723965167999267,0.0298746917396783,0.0818778201937675,0.0101337432861328,-0.0058876872062683,0.042560338973999,0.0212841983884573,0.1180310025811195,0.0151227503299713,-0.2691511213779449,0.0100373185581527,-0.0796919608741998,93
1734065704955093500,-2.0625836874365806,-0.1833183395653963,0.8137386415958404,5.94448240417242,5.427068888118863,5.601823982000351,-0.3855131864547729,1.5137521028518677,4.03461217880249,0.8625493022561044,0.3825089596027733,-0.2609087436039729,0.2040150665816495,-0.0164272580295801,0.0391015335917472,0.0077520571649074,0.0386927723884582,-0.015676736831665,0.0156900286674499,0.0108719458803534,0.0740014687180519,-0.0133791215330362,-0.2491510510444641,0.0018283479383215,-0.0170598558723926,94
1734065704995093200,0.823590173524618,-0.9406769222915172,-0.7179226443946362,6.358565894132852,4.427083452290296,6.011651568081975,-0.3650269210338592,1.4071333408355713,3.4925856590271,0.8532900554851478,0.3513677936468307,-0.2646351015645671,0.280009009906471,0.0931860581040382,-0.0260594133287668,-0.0129542862996459,0.0335369110107421,0.020248532295227,-0.0450934171676635,0.0232486948370933,0.0511034205555915,-0.0699263536632061,-0.2456023842096328,0.0348144160106778,-0.0863467425882816,95
1734065705035093200,0.3272340585470199,-0.4187979512616991,-0.4607680842459201,6.530806374844908,3.4275615423202512,6.463031646257639,-1.2481147050857544,1.139936447143555,2.6536810398101807,0.847387346711261,0.312532211834897,-0.2698160613374602,0.3338527869849808,0.0121423350647091,0.0038857555482536,0.0391299538314342,0.0243889689445495,0.0094581246376037,-0.0031555294990539,0.0164526440203189,0.0565926693379879,-0.1506353826254606,-0.235736459493637,-0.0071205634617712,-0.0709551121890544,96
1734065705075093200,-0.8555436471462249,-0.2578600780695677,1.4240174883514642,6.47069472823143,2.374334491778165,6.975889398702979,-1.0775123834609983,1.804424285888672,3.114698886871338,0.8418509262669589,0.2669075403280977,-0.2703497518663347,0.3833515422595933,0.0366820320487022,0.0320343002676963,0.1576835662126541,-0.0174736976623535,-0.0106500387191772,-0.0186178535223007,-0.0008648298680782,0.0686686858534812,-0.1598959629237651,-0.2156243771314621,0.0048691769389435,-0.2106812705263495,97
1734065705115093200,-0.2040992617875337,-0.4574018226832151,0.8146446505248546,6.18197189438641,1.2500320636682212,7.509395971423387,-1.181171178817749,1.7236883640289309,3.0567569732666016,0.8306050849163601,0.2167877129217207,-0.2648215559113426,0.4392809911887184,-0.0088356509804725,0.1296650469303131,0.2936550378799438,-0.0188795924186706,-0.0480257272720336,0.0369697958230972,-0.0516392886638641,0.0857733190059661,-0.2121656638652086,-0.1923612207174301,-0.0693606917376164,-0.227579213835299,98
1734065705155093500,0.9517056813061237,-0.6234304431430995,2.098345905691385,5.841542254179716,0.1954668963901698,7.874551472085714,-1.039839267730713,1.1027700901031494,2.7887628078460693,0.815673431239131,0.1695729494614902,-0.2641110195265419,0.4859702982662476,-0.1766299754381179,0.1854473948478698,0.3829847276210785,-0.0606796741485595,-0.0959274768829345,0.0137612670660018,-0.0735453963279724,0.0853424817323684,-0.092002576392889,-0.1581202894449234,0.029292131758132,-0.193954884392023,99
1734065705195093500,2.177424703103304,0.5721111747942864,3.469728366920352,5.437333677023649,-0.615955065761134,8.137959831932186,-0.3669455349445343,1.2356648445129397,2.400453567504883,0.797517564664646,0.1326417065200663,-0.2597801137711279,0.52809684257923,-0.2571373581886291,0.2870005071163177,0.3381944894790649,-0.0454625487327575,-0.0428381562232971,0.0086996555328369,-0.0624048262834548,0.0252078473567962,-0.0954401496261358,-0.1786220967769622,0.062814589995821,-0.1990475313559174,100
1734065705235093200,2.11588740760088,0.5470861852616071,2.1104870098620654,5.071057063376903,-1.0908692373245954,8.322545999476313,-0.0627763271331787,0.6445357203483582,1.4818744659423828,0.7812406974428763,0.1097316976070404,-0.2522443221462987,0.5603524288422386,-0.2072256952524185,0.2236237078905105,0.3286645710468292,-0.0269474387168884,-0.0743234753608703,-0.0796787738800048,-0.0606797747313976,0.0310453101992607,-0.1765501606047153,-0.1802466213703155,-0.0286804798329249,-0.1521566008433699,101
1734065705275093200,1.0810428398370742,-0.3353758639484643,1.9026836328595875,4.847598728863895,-1.3279957394450903,8.420665012922882,0.1292682737112045,0.4976297616958618,1.1016206741333008,0.7697380892865037,0.0982715568587605,-0.2469985473888644,0.5803770856181915,-0.2089298516511917,0.1926877945661544,0.3678965270519256,-0.0414553880691528,-0.0743422508239746,-0.0258061438798904,-0.0576365962624549,0.037554208189249,-0.0682645579308271,-0.1511821150779724,0.0167994422373827,-0.0776452574774622,102
1734065705315093200,0.9556059036150574,0.1139196630381047,1.0135054271370172,4.560335446177422,-1.4331247777841984,8.562702663072944,0.3697369694709778,0.6892254948616028,0.9517027139663696,0.760219944669768,0.0893632688420038,-0.2354524753257791,0.5988672095672392,-0.2570995390415191,0.0589163042604923,0.3831921219825744,-0.0050434470176696,-0.0081996917724609,-0.0768688321113586,-0.0251392684876918,0.0167811606079339,-0.0881523307055234,-0.1141231805086135,-0.0002614365483168,-0.0188198512822389,103
1734065705355093200,1.6940815066948531,0.2070939135588705,-0.1745353136509656,4.344993198102713,-1.442202694991976,8.672454831168055,0.3958023488521576,0.3930200338363647,0.6874942183494568,0.752037920600591,0.0856033165535317,-0.2247219018510094,0.6136865772339338,-0.3379680216312408,-0.0611494369804859,0.4283826351165771,0.0001645684242248,-0.0435757637023925,-0.0384412407875061,0.0014348328113555,0.0257300026714801,-0.1257598845660686,-0.0960870459675788,-0.0611020869895117,-0.035649405530095,104
1734065705395093500,2.941825897817313,0.630359950145334,-0.4745838436305523,4.157879557907581,-1.4021905642077326,8.77019273634255,0.2441785037517547,0.5455029010772705,0.1578762233257293,0.7479117301245001,0.0829253279951338,-0.214401482350476,0.6227225815381443,-0.2936679422855377,-0.0464953407645225,0.3575197756290436,-0.0319862365722656,0.0486729145050048,-0.001579150557518,0.0155570367351174,0.0230079945176839,-0.0974456442296504,-0.0975591540336608,-0.0420586149852722,-0.0755570530265569,105
1734065705435093500,1.527307474695146,0.3608420213773846,-1.5083745184272528,4.039660297979414,-1.3110408052518965,8.83927036422193,0.282660573720932,-0.2217556089162826,-0.4238948225975036,0.7502718386886897,0.08215769400872,-0.206331636469482,0.6227114986211546,-0.2720704972743988,-0.0878469869494438,0.2670312821865082,-0.0006113648414611,0.0406785607337951,-0.0051594376564025,0.0456001162528991,0.0015277694910764,-0.0718815793842077,-0.1095757409930229,0.0117545388387748,-0.0460778605639934,106
1734065705475093200,-0.3913748145461082,-0.3952384311717003,-1.0031237338542938,4.097000434052944,-1.222344065471366,8.8255791079998,-0.253790020942688,0.1726856380701065,-0.4103278219699859,0.7559942465762558,0.0856755229884281,-0.2065923605312091,0.615184446637102,-0.2974349856376648,-0.033727291971445,0.1878901422023773,-0.0670703053474426,0.0498781204223632,0.0365890860557556,0.0834973379969596,-0.0304870512336492,-0.0564279896646738,-0.1102637127041816,0.0111333359172218,-0.0480143815845251,107
1734065705515093200,-1.4780579983577131,0.1027241691544652,0.149905314785242,4.042098046520352,-1.295335871119797,8.840471556705236,-0.2292429506778717,0.1446650475263595,0.0462364144623279,0.7593787051795888,0.0798294555753257,-0.2070957719153607,0.6116230006850206,-0.3206457495689392,-0.0328257605433464,0.1970926225185394,0.0148848295211792,0.0083346962928771,0.0144672468304634,0.0752100199460983,-0.0335573181509971,-0.0862532190859317,-0.0996502414345741,0.0099245857485453,-0.1025987892091274,108
1734065705555093200,-0.7318243284970521,0.112590314130485,-0.2967214313834905,4.01502299259007,-1.381068281202018,8.83983150523603,-0.1633398532867431,0.0836005508899688,0.3372576236724853,0.7573797254818486,0.0761275891096436,-0.2085632111840382,0.6140698550594539,-0.2305973321199417,0.0198291949927806,0.2755735218524933,-0.0137041211128234,-0.0273646712303161,0.0053945183753967,0.0477734729647636,-0.036991536617279,-0.0728027858823537,-0.0971020013093948,-0.0018665245242416,-0.0993389106303453,109
1734065705595093200,0.1539350086927413,0.4051179470859468,-0.5407540596306324,3.938054903721809,-1.5383235203586518,8.84848418276906,-0.3178761005401611,0.2004671096801757,0.5054065585136414,0.7527535223417694,0.068826241972582,-0.2100376596806616,0.620088171522109,-0.0119582079350948,-0.1550886482000351,0.2748855352401733,0.0136010646820068,0.0782443284988403,-0.0914282947778701,0.0437163971364498,-0.0287939235568046,-0.1247685354411601,-0.0989426523447036,-0.0289768027482437,-0.0505120436191558,110
1734065705635093500,0.9631713704332708,0.4560764192983508,-0.8549293146401643,3.867130771192908,-1.7496935038015244,8.840489676883816,-0.4904438257217407,-0.0442485995590686,0.2688502073287964,0.7485242556561484,0.0593512009205861,-0.2138642200872865,0.6248607500443533,0.0358974635601043,-0.2751286327838897,0.2871028780937195,0.0269127488136291,0.0063354969024658,-0.0342658311128616,0.0673139691352844,-0.0336083136498928,-0.0709025052189827,-0.1192588508129119,0.0094619275397039,0.0395014047831296,111
1734065705675093500,1.010133904877305,-0.1848090165145695,0.0076215809196233,3.817025262548029,-1.9517165438368915,8.81994957768023,-0.6210522055625916,0.4380562305450439,-0.051575880497694,0.7489450350588737,0.0492978914566502,-0.2188091718423072,0.6235170972581324,-0.0852702334523201,-0.2265264093875885,0.4359790384769439,0.0294541716575622,-0.0792385935783386,0.0249066948890686,0.1091020405292511,-0.0426777116954326,-0.0680389324814081,-0.1215583384037017,-0.0285226589227095,-0.0086848262369632,112
1734065705715093200,0.3052513593196869,0.0228964530713856,0.2805073786854744,3.674959555347264,-2.1362283309705554,8.837510368812083,-0.408059686422348,0.2314905524253845,0.0298652071505785,0.7513163074773057,0.0363952240184736,-0.21928922351793,0.6213787163114353,-0.2611224949359894,-0.1889185905456543,0.5820550918579102,0.0356570482254028,-0.126459538936615,0.0434369444847106,0.104899562895298,-0.0541103035211563,-0.0141062667638063,-0.1470769345760345,0.0108827095989312,-0.1232037703424692,113
1734065705755093200,0.7319900404527783,-0.1220145605579018,-0.3723310913801193,3.665859426307678,-2.262011742542684,8.809946654582022,-0.3902440071105957,-0.1075240150094032,-0.1394601911306381,0.7520276797937985,0.03058988723442,-0.2233427382896869,0.6193841216894637,-0.2597533762454986,-0.1461381018161773,0.6684356927871704,-0.0094422101974487,-0.0474804639816284,0.0001020431518554,0.0951750054955482,-0.0737337470054626,-0.0036140988439321,-0.1122010573744773,0.0136211798107367,-0.0158802906990051,114
1734065705795093200,-0.3481359768003225,-0.0739168846040964,-0.5520394237548113,3.7987791195005176,-2.3579934516996146,8.728088455584645,-0.3573427200317383,-0.5719870924949646,-0.3832815885543823,0.7544229566637454,0.0296736329253384,-0.2326172874824332,0.6130699843933994,0.2141369730234146,-0.0662592947483062,0.4599589407444,-0.1044755578041076,0.1437830328941345,-0.0124723240733146,0.0901962295174598,-0.0919650867581367,-0.0449421345323324,-0.0642878264188766,0.0157689084546233,-0.0173567929923534,115
1734065705835093200,-1.216051322002709,0.0333063495352864,-0.3763268830180168,4.031183269274234,-2.439329380388558,8.600559223258495,-0.4268052577972412,-0.3917597830295563,-0.0582732073962688,0.7551600258701192,0.0328213431744164,-0.2457972442823761,0.6068276142880686,0.5343714356422424,-0.2026414722204208,0.2401725798845291,-0.0330347418785095,0.1250420808792114,-0.09229326993227,0.0837022438645362,-0.0941198915243148,-0.0808867236167192,-0.0622309371829032,0.0197398088215035,-0.0395849914133548,116
1734065705875093200,-0.5331909308999776,0.2276306517615914,0.1026291843473911,4.061346352347732,-2.642332663632929,8.526073598855733,-0.5083581805229187,-0.0092201028019189,0.3887229263782501,0.7521925306056774,0.0261419803780475,-0.2541806910710543,0.6073839472827685,0.6652077436447144,-0.3156104683876037,0.2394767701625824,0.0243460536003112,0.0567113757133483,-0.0880438089370727,0.0819056928157806,-0.0812037736177444,-0.0929389804601669,-0.0789410844445228,0.0098912771339877,-0.0227910930007696,117
1734065705915093500,0.0779436559021472,0.2681964709058403,0.7188222235828637,4.085274048162996,-2.831787898518145,8.45351397407949,-0.2599045634269714,-0.4022474288940429,0.2343147248029709,0.747436524725701,0.0206058109525682,-0.261851361472142,0.6102031800970494,1.21462082862854,-0.3633946180343628,0.450880229473114,0.076337456703186,0.0551254749298095,-0.0866609141230583,0.0857725292444229,-0.0688231512904167,-0.0944043768376111,-0.0824647769331932,0.0009307826106669,-0.0046919572085142,118
1734065705955093500,0.1385036308050155,0.1242088557317852,0.5370680645942688,4.204278905510902,-2.923329871661961,8.363526244640349,-0.1164488196372985,-0.3785470426082611,0.2404796332120895,0.7425466282014206,0.0222360327495291,-0.2703412787149358,0.6124097383561217,0.7465220093727112,-0.3384211957454681,0.6015933156013489,0.0195629000663757,-0.0720705986022949,0.1026856154203414,0.0937273055315017,-0.0582491979002952,-0.0909744023889303,-0.072192870080471,-0.0390363171551842,-2.80570507049e-05,119
1734065705995093200,0.09301701413244,0.0814466955870389,0.0107557872921228,4.28657637270838,-3.011650252410769,8.290091006073355,-0.1743768006563186,-0.4552988111972809,0.2544415295124054,0.7374980760172168,0.0230466658780446,-0.2771134035758316,0.6154458762893866,0.938771665096283,-0.229057639837265,0.7514784932136536,0.0287607312202453,-0.0690464973449707,0.0186981707811355,0.1031465083360672,-0.0615239888429641,-0.0325771584779024,-0.0632992535829544,-0.0173405816430691,0.0039168811827898,120
1734065706035093200,0.2332303714647889,0.0317164499953389,0.035940497431159,4.446984961329401,-3.1209847796157,8.164200188603997,-0.2007875740528106,-0.7487574815750122,0.2273981720209121,0.7313957985750259,0.0257852466508641,-0.2882303751223808,0.6175100807752482,0.538294792175293,-0.2624678015708923,0.7384535670280457,-0.0251686573028564,-0.0478053092956543,0.0266266614198684,0.1233729496598243,-0.0581781789660453,-0.075803136742115,-0.0512180253863334,-0.04594342966252,0.030004093119502,121
1734065706075093200,0.4488052592515945,-0.1346300042420625,-0.18291969563663,4.712793952576816,-3.2256317335262894,7.9721549372255796,-0.2886249423027038,-0.9201560020446776,0.1229441836476326,0.7239606933507085,0.0325607584192683,-0.3040937374278714,0.6183427625158884,0.2880809605121612,-0.2241634428501129,0.5930034518241882,-0.0681899487972259,0.0063642263412475,0.0609686076641082,0.1385505348443985,-0.0486589893698692,-0.0881938317596912,-0.0473226234316825,-0.0385173256492242,0.0267032980084419,122
1734065706115093200,1.1235498561769723,0.0057277299970388,0.5686006824553013,4.889786888512969,-3.3333687624067068,7.81978410910964,-0.2151177823543548,-0.1725871115922927,0.1901834309101104,0.7190478841706326,0.0354027330148893,-0.3163046433599562,0.617792939331521,-0.0408705472946167,-0.2597538232803345,0.371419221162796,-0.0820252001285553,0.0199290513992309,0.0139852315187454,0.136356309056282,-0.0473864413797855,-0.0188742118179798,-0.0422123856842517,0.0111900996142474,0.0231833071887493,123
1734065706155093500,0.2337178627207875,0.3557786005079746,0.3898550576329231,4.850818275432288,-3.4202070879042146,7.806544103786349,-0.0728476420044899,-0.0657402575016021,0.2588450908660888,0.716100947944868,0.0318800722527143,-0.3177430841784406,0.620662997545245,-0.1252996772527694,-0.1798364520072937,0.2716699242591858,-0.0697966814041137,-0.0140458941459655,0.0298599749803543,0.1322471648454666,-0.051637914031744,-0.0547030655682086,-0.0628870651125907,-0.0386924082214944,-0.0397439813673496,124
1734065706195093500,0.0699035573095083,0.0451534391954541,0.4412181651234626,4.882951197274029,-3.4642230475023386,7.7670023669928305,-0.0225618332624435,-0.2342323362827301,0.0669502094388008,0.7131949562556612,0.0323436853226159,-0.3208534863927123,0.6223824253995088,-0.1221337169408798,-0.2061132341623306,0.1092294082045555,-0.0598173141479492,0.0295242071151733,-0.031610682606697,0.1201395615935325,-0.0624202191829681,-0.017316460981965,-0.0631939768791198,-0.0167751731625176,-0.0114180505931377,125
1734065706235093200,0.0762614019036293,-0.2731590617492795,0.4286550361484288,4.94827005714178,-3.46523690072,7.725097992721199,0.1249446272850036,-0.2155890166759491,0.0972090288996696,0.7107502848056113,0.0354864046355565,-0.3238368844498207,0.6234616899391653,0.0594691038131713,-0.2754024565219879,0.1096965968608856,0.0106724500656127,0.0260306596755981,-0.0520760864019393,0.1081247478723526,-0.0708957239985466,-0.049823476833105,-0.0366088338196277,-0.0447040468935621,0.0218611186742782,126
1734065706275093200,0.1742290241807699,-0.1016021793872117,-0.0042003742992877,4.987220842304826,-3.4154797671213744,7.722209285542369,0.2478073984384536,-0.1398039162158966,0.049812413752079,0.7086730302097923,0.0399379259345625,-0.3235457834908671,0.6257041574979214,-0.1637858152389526,-0.3311295807361603,0.0611714720726013,-0.0142012536525726,-0.0247796177864074,0.0235917717218399,0.1123112067580223,-0.0628972947597503,-0.089302085262537,-0.0166836883872747,-0.0919908311561681,-0.0149327807158231,127
1734065706315093200,0.1493552796870469,0.2018368698135018,-0.4987561618566513,5.01089748596847,-3.361434873200953,7.730591913962364,0.1104466170072555,-0.0504067316651344,0.0446179807186126,0.7074361222764177,0.0436814209098787,-0.3223995106701344,0.6274429557116015,0.0647674649953842,-0.4149779081344604,0.1947682201862335,0.0405337214469909,0.0091993808746337,-0.0393880009651184,0.1071348935365676,-0.0447455905377864,-0.1040332059264182,-0.0184721089899539,-0.1372462785545271,-0.0411368970304727,128
1734065706355093200,0.1299006376326084,0.2394920622080564,-0.2566875271588564,5.0103006891191,-3.370808558484912,7.726895982053875,-0.0514742322266101,0.0174992941319942,0.0905260294675827,0.7064158362836674,0.0437725829464978,-0.3226792607873933,0.628441537387362,0.2561131715774536,-0.5221372842788696,0.2923720777034759,0.0691726803779602,0.0369099974632263,-0.0369465202093124,0.1038160920143127,-0.0442973338067531,-0.081828972902894,-0.0083294231444597,-0.1612608215361833,-0.0204582661390304,129
1734065706395093500,0.1727215422272682,0.3743015146702528,-0.0496498738318681,4.987830498635769,-3.407904655691981,7.725161121085286,-0.0698458030819892,0.0249058026820421,0.1030103787779808,0.7053745309148828,0.0419915939999002,-0.3230527803380023,0.6295398092503193,0.3423210382461548,-0.7506149411201477,0.458493709564209,0.0691968202590942,0.0011821389198303,-0.0479506254196167,0.0967956185340881,-0.0485232435166835,-0.0693593674302101,0.0053738364949822,-0.1721422810345888,-0.0085199910640716,130
1734065706435093500,-0.0629705431759357,0.3551590073049068,-0.2739981429219246,4.990087337651849,-3.4599896477162835,7.700511832997202,-0.1714832484722137,-0.1591759622097015,0.0715092271566391,0.7039420163068544,0.0404888710057281,-0.3251827600063802,0.630144695655284,1.0948350429534912,-0.6442303657531738,0.6586349606513977,0.0122456550598144,0.0406612753868103,-0.0265854001045227,0.082808680832386,-0.0487404316663742,-0.0551607462078332,0.0044081038795411,-0.1550525414805859,-0.0218587805867195,131
1734065706475093200,0.0648223085224628,0.0151233348518609,0.2771960621803999,5.02854186373055,-3.5350483958318826,7.641177015975117,-0.1927486062049865,-0.037783432751894,0.0911313295364379,0.7024081219359968,0.0390992735822865,-0.3299691729782619,0.6294556511610085,2.300139904022217,-0.1539357304573059,0.8706111907958984,-0.0596423149108886,0.1145882606506347,0.0706505179405212,0.0715943574905395,-0.0535521134734153,-0.0313853183448314,-0.0207568183541297,-0.0731501882476499,-0.0480967991709709,132
1734065706515093200,0.4982148945868015,-0.1877972385451197,0.3305751856684684,4.980765967077017,-3.591150806804001,7.646305611035228,0.035369399935007,0.0637935101985931,0.1876766383647918,0.7008415046368088,0.0359859408143004,-0.3299271241545335,0.631406648799655,2.143186330795288,0.4876840114593506,0.8982442617416382,-0.1018215119838714,0.0086447596549987,0.0820915699005127,0.0687315836548805,-0.0627900138497352,-0.0068260466277599,-0.0107142738997936,-0.0583767399791162,0.0525268905729055,133
1734065706555093200,0.7645774280637502,0.033553310033679,0.1035211647510528,4.997817055121064,-3.5931326282709835,7.634239325666427,0.0127324108034372,-0.1436096429824829,-0.0675537213683128,0.6997007387908049,0.0370063262661828,-0.3307456083534884,0.6321841460116023,-0.9025288820266724,0.2957972586154938,0.2545599639415741,-0.087310642004013,-0.2845878005027771,0.107448786497116,0.0626880824565887,-0.0691091567277908,-0.009246551772952,0.0171584784984588,-0.0295910873052431,0.066959320551157,134
1734065706595093200,-0.0419096349686384,0.1097831477552652,0.0599000496894121,5.055667186543345,-3.564616143360734,7.609476055809855,0.0820029005408287,-0.1460785269737243,-0.0352824293076992,0.6993981683743081,0.0401736014520151,-0.3322811923039884,0.6315199142268025,-2.7232940196990967,-0.189391404390335,-0.3109038174152374,-0.0712058842182159,-0.0326828360557556,-0.0292770266532897,0.0630868673324585,-0.0724412724375724,-0.0282242239654064,0.0184842050075531,-0.0459409271781798,0.0875146173238754,135
1734065706635093500,-0.4553700245946645,0.4918810153901576,0.0530430234014987,5.086504223355651,-3.539550091165304,7.600621133702993,0.0425940193235874,-0.0230514854192733,0.0316227301955223,0.6988658277659284,0.0424959002936167,-0.3326714173310452,0.6317518002515178,-0.6342044472694397,-0.6958081126213074,-0.0735574439167976,0.1245369911193847,0.0401393771171569,-0.3278628587722778,0.080344557762146,-0.0470736175775527,-0.0740700293391943,0.0183170549571514,-0.1216236432778649,0.1752151126086711,136
1734065706675093500,-0.2847106755942106,0.5092360548168421,0.2816238154947758,5.061292625209689,-3.555259116950631,7.610113769191503,0.0395279936492443,0.0596956983208656,0.2187560945749282,0.6972336318625678,0.0418953963833178,-0.3320194979977281,0.6339346151695182,-2.313170909881592,-0.8268049359321594,-0.0959151536226272,0.1027686595916748,-0.1224473118782043,0.0626967549324035,0.1176494657993316,-0.0419316925108432,-0.0525853427618741,-0.0011766646057367,-0.143669607866602,0.1360498079121112,137
1734065706715093200,0.4152694848746061,0.6278180105775595,0.0384977806985378,5.040816823413968,-3.5750799619689584,7.614417603865266,0.0390138626098632,-0.1056055128574371,0.0967372432351112,0.6948894077971799,0.0416209167143678,-0.3317234310776331,0.6366758251891539,-1.1014225482940674,-0.6219174861907959,0.1100701689720153,0.1117528676986694,-0.0054767727851867,-0.0120182633399963,0.1192748844623565,-0.0505234934389591,0.0471288309216499,-0.021613135933876,-0.1265758862572256,0.023810499176383,138
1734065706755093200,0.2609469381690025,0.0888441123619675,0.0697848993659019,5.064954654848576,-3.583630348171293,7.594353890001773,0.0222805403172969,-0.056315753608942,0.097670279443264,0.6931671472893637,0.0428776453568423,-0.3331024218517389,0.6377488310029787,-0.0591885671019554,-0.4961067736148834,0.3901304602622986,-0.0713339447975158,-0.1114754080772399,0.0915482640266418,0.1039568111300468,-0.0698832422494888,0.0913081643879413,0.0040618944913148,-0.0774705858971457,0.0839355897933244,139
1734065706795093200,0.103606504946947,0.0787117176651954,-0.0075339026361703,5.059938287991285,-3.591753448872268,7.593860553526878,0.0520542077720165,-0.0634429305791854,0.0919903665781021,0.6916341563865381,0.0431654745574476,-0.3331029955899372,0.6393913686282042,0.1194562762975692,-0.4911052286624908,0.0221291314810514,-0.1035417020320892,0.1803704500198364,-0.0238000154495239,0.1069575101137161,-0.0832459852099418,0.0792360338002443,0.0438552722334861,-0.0160424224581569,0.1427010824948549,140
1734065706835093200,0.0876432121396064,0.2633858557537198,-0.0444739324986934,5.083832373797893,-3.598808043558895,7.574537428897619,0.0266868602484464,-0.1841337084770202,0.0991000607609748,0.6895667653847792,0.0446670785455829,-0.3343814187183256,0.6408522305661727,0.2886921465396881,0.0293391849845647,-0.1247434690594673,-0.1825439631938934,0.027011752128601,0.1415930986404419,0.1127758398652076,-0.0741088539361953,0.0362573082953691,0.07546266913414,0.005743904813705,0.1471440333783626,141
1734065706875093200,0.2859814261823892,0.4603957438021898,-0.0293763166099786,5.134191857203841,-3.60488005694896,7.537592722859978,0.0388947166502475,-0.2040742188692093,0.0362731888890266,0.6872744611094229,0.0471516406897232,-0.3368478303873051,0.6418442584136146,0.4134966731071472,0.4003263413906097,-0.1434312015771865,-0.1068681478500366,-0.0523505806922912,0.0801509544253349,0.1011940464377403,-0.0503189116716384,0.0352981078743934,0.0814303085207939,0.0336381570392288,0.0427460857927799,142
1734065706915093500,0.0988216087579727,0.1254948038890957,-0.0134966104328632,5.170965298327803,-3.602024959778785,7.513781639161706,0.0269843358546495,-0.0924344807863235,0.0567454770207405,0.6858909885344034,0.0491395877371742,-0.3383623095264747,0.6423781700543529,0.4603347480297088,0.4958668053150177,-0.1473005712032318,0.0084624886512756,-0.0011845231056213,-0.0691463351249694,0.0828393846750259,-0.0293458234518766,0.0310761062651872,0.0581496208906173,0.0281354771028738,-0.0058393736779689,143
1734065706955093500,0.2406786416441202,-0.0227335175946354,0.082151628986001,5.167972546252608,-3.615405542616546,7.509412922558188,0.0296317599713802,0.0095079271122813,0.1219875141978263,0.6842915406569213,0.0493017030082642,-0.3386677372104878,0.6439087614027893,0.1712028235197067,0.0925464928150177,-0.0242420956492424,0.106685847043991,-0.074398398399353,-0.0821378752589225,0.0876770392060279,-0.0287680868059396,0.0288783039599657,0.0602161958813667,0.0397740020462777,-0.0070861588686704,144
1734065706995093200,0.3307517112791538,-0.0799628867700695,0.104192195880413,5.153915379327535,-3.6317978744909167,7.511164150139689,0.0034667602740228,-0.0165104214102029,0.0862612947821617,0.6827106713844996,0.0489772378320671,-0.3385829685426152,0.645653979080035,0.3230922222137451,-0.2187465280294418,-0.0590216442942619,0.1369930505752563,0.0995487570762634,-0.1480682939291,0.0838195756077766,-0.0414153300225734,-0.0525830046743154,0.0974443852901458,0.0578142381249926,0.0042202480435371,145
1734065707035093200,-0.0255938754618167,-0.067617492198944,0.3083855656921863,5.161904624515771,-3.625887481403351,7.50853321711421,0.1432872265577316,-0.1093803793191909,0.0803287550806999,0.6813665219653768,0.0501889896508783,-0.3386036419889096,0.6469685677509989,-0.1607828289270401,-0.5671785473823547,-0.0608815960586071,0.1422489285469055,0.0490780472755432,-0.3072690367698669,0.0705608204007148,-0.0256169531494379,-0.1313023211240768,0.1165923401713371,0.0420756209190003,-0.0532704024165868,146
1734065707075093200,0.2632482008486986,0.0726589934974908,-0.1874514938473701,5.1982250611752265,-3.589741232267022,7.500839740002155,0.1493502855300903,-0.1713805794715881,0.027765741571784,0.6793456063481549,0.0539576430001615,-0.3386032706712155,0.6487880517885943,-0.7982591986656189,-0.6344526410102844,0.2285608649253845,0.0404079258441925,-0.2710902094841003,-0.0395041778683662,0.0556538067758083,0.0009316205978393,-0.2938362313359975,0.0909133702516555,0.0436619037297554,-0.14082652079463,147
1734065707115093200,0.1555208165794611,-0.1965393479272723,-0.3675257369250059,5.223651763376593,-3.566696749027073,7.494166253587603,0.0397608540952205,-0.0195904839783906,0.0290900096297264,0.6783001414859449,0.0563033502122915,-0.3387237827183803,0.6496192716575045,0.2890812456607818,-0.4877666532993316,0.3353124260902405,-0.0840740799903869,0.151895523071289,0.1015829443931579,0.0293075386434793,0.010795316658914,-0.2884235586374998,0.057297121733427,0.1025521187894977,-0.2054454156994819,148
1734065707155093500,0.153708214199543,-0.3150742496758699,-0.2132183877885341,5.222770888888836,-3.5554520091742274,7.500120193555951,0.1013466790318489,-0.0367111675441265,0.0379519164562225,0.6776385841955813,0.0571061870438648,-0.3381407416889307,0.6505426081835886,-0.039803422987461,-0.2344432026147842,0.1891016662120819,-0.0841958820819854,0.0231155753135681,0.0779073238372802,-0.0151014495640993,0.0248924233019351,-0.1584942794322967,0.0562176257371902,0.1576597100379876,-0.2542442256599664,149
1734065707195093500,0.4569236837774514,-0.2776291929006576,-0.6820324158459902,5.242921696513891,-3.526308040015399,7.499820918348431,0.0744514092803001,-0.1036489978432655,-0.0281159747391939,0.6769292493761888,0.0593703466709896,-0.3377731839720549,0.6512689863089467,-0.016643239185214,0.1794609874486923,-0.0084910281002521,-0.1715517342090606,0.0722253322601318,0.1241220235824585,-0.0608937889337539,0.0352328270673751,-0.0461614471942186,0.0470750667154789,0.2297675541924312,-0.2778799527913332,150
1734065707235093200,0.3697282154053449,-0.4220724428877234,-0.6985439901858568,5.272057774627209,-3.5180350094497204,7.4832619977355,-0.0923425927758216,-0.0012819343246519,-0.0633260682225227,0.677256503180943,0.0604803813857277,-0.3388243382792384,0.6502797231410561,0.5655932426452637,0.5114611387252808,-0.070195272564888,-0.1217741966247558,0.0168412923812866,0.0869645401835441,-0.0570901334285736,0.0454375371336936,-0.0002191957086324,-0.0046590454876422,0.216763074658066,-0.2817120783001184,151
1734065707275093200,0.316896204406023,-0.428052394080162,-0.3360878116101026,5.236454546326399,-3.546322069518268,7.49490041308105,-0.1627028435468673,0.184354543685913,-0.0382767431437969,0.6789850723221068,0.0572320551708905,-0.3385128234321705,0.6489320317927781,0.4708382487297058,0.5473098158836365,-0.0131920399144291,-0.0099212229251861,-0.0885393023490905,0.0149807333946228,-0.0322986915707588,0.024069583043456,-0.0513660300999879,-0.0477768741548061,0.2274621998595073,-0.2396820318222045,152
1734065707315093200,0.3361918565064668,-0.3818777951434254,0.3381780618876218,5.179150942870974,-3.5859129061505195,7.515850846651196,-0.1327155083417892,0.2042700797319412,-0.0774875208735466,0.6811772124362684,0.0525692451205346,-0.3376902859660659,0.6474561370099199,-0.1432344764471054,0.1970109492540359,-0.077960655093193,0.102973461151123,-0.0489249229431152,-0.0512741133570671,-0.0136605501174926,0.0127233983948826,-0.1079220300585031,-0.0567926317453384,0.2109057269319891,-0.1665606815099716,153
1734065707355093200,0.0357692325174808,-0.1154731760904192,0.4640437449157237,5.172067706611752,-3.582370995759964,7.522413858428597,0.0363484695553779,-0.0265582185238599,-0.0944015309214592,0.6828830835796587,0.0516115124358348,-0.3373423632859434,0.6459156662185558,-0.1026170030236244,-0.5022234916687012,-0.2417155504226684,0.152283102273941,0.2273651957511901,-0.2746047973632812,-0.0110223395749926,0.0412384830415248,-0.239459328982234,-0.0333436913788318,0.1186526189772877,-0.1926969932854175,154
1734065707395093500,0.1837444560229778,-0.0329822321474552,-0.1949082395941019,5.194231023102998,-3.547097437804937,7.523858796539902,0.0557757243514061,-0.0395750664174556,-0.0453776940703392,0.683511697650575,0.05351222331674,-0.3369367892489184,0.6453075771023077,-0.4841355979442596,-0.5302403569221497,-0.1691895723342895,0.0263631343841552,-0.0598437786102294,0.1009255051612854,-0.0143741853535175,0.0587050691246986,-0.2000754130989313,-0.025220301002264,0.1506707279334776,-0.1591729093462228,155
1734065707435093500,0.4886532855153083,0.1076265542432665,-0.2367033082723617,5.199520946204662,-3.5322327538892626,7.527197001051903,0.003532079514116,0.0200656130909919,-0.0681358352303505,0.6841077678261521,0.0540135341239624,-0.3366040570327356,0.6448075275785371,0.0232735499739646,-0.33168426156044,0.3666711151599884,-0.096273273229599,-0.1689546108245849,0.0727506950497627,0.001741575077176,0.0254618264734745,-0.0404062446683645,-0.0138679081574082,0.2043789737780578,-0.111165542024374,156
1734065707475093200,-0.0477186135083436,0.1323509533941745,-0.2091974617093801,5.217847461012005,-3.500543776422739,7.529319400033354,0.0569712370634079,-0.0253156423568725,-0.0127720925956964,0.6847688989906731,0.0556195357978124,-0.3361815281144099,0.6441894280414185,0.081442579627037,-0.1903520077466964,0.0727591514587402,-0.069278746843338,0.1764722466468811,0.0361287631094455,0.0342891290783882,-0.0149443782866001,-0.0456605119347572,0.0064692152664065,0.2195070396039634,-0.0123731593608856,157
1734065707515093200,0.0548304913401603,-0.0445367686018347,-0.3280640796303748,5.223037430870533,-3.4978342252030967,7.526980143430829,0.0160348210483789,-0.0441171787679195,0.07072065025568,0.6840460977693481,0.0562762485727205,-0.3362496290468159,0.6448645198004818,0.0322955399751663,0.0818092077970504,-0.0444756597280502,-0.1533208787441253,0.0202909111976623,0.1353485584259033,0.0479613691568374,-0.0416650474071502,-0.1213122575074434,0.0294950455427169,0.2101745265806093,-0.0024222587108612,158
1734065707555093200,0.3872551042675972,-0.1393374512806534,-0.2926408840715885,5.2331332929492,-3.50388928745836,7.517144393593073,0.0635216981172561,-0.0865129306912422,0.0712968409061431,0.6826099538679203,0.0570772956436275,-0.3368597388499271,0.6459963747677352,0.1557687371969223,0.4804503321647644,-0.1761368215084076,-0.1534548997879028,0.0281521677970886,0.1641555428504943,0.0445865467190742,-0.0707572847604751,-0.0745394004166126,0.0309155136346817,0.2612684982735663,0.0129746323853731,159
1734065707595093200,0.4541507119327783,0.0135837041944265,-0.4294657680094242,5.2548231467098,-3.4931069044202565,7.507025150638818,0.0598455667495727,-0.1009299084544181,0.0447486452758312,0.681073240254804,0.05902584542302,-0.337289467922804,0.6472179687802283,0.2422913908958435,0.5627402663230896,-0.205677330493927,-0.0794389843940734,-0.0272392034530639,0.0415513515472412,0.0377285778522491,-0.1195046529173851,0.0190343708157539,0.0042664818465709,0.2830168772883713,0.0400958635449409,160
1734065707635093500,0.316103592723608,0.1425377086266875,-0.2604787361353635,5.273459458118677,-3.4930732944115994,7.493960501882434,-0.0198136754333972,-0.0541907548904418,-0.0079209376126527,0.6802633247012035,0.0600351593259663,-0.3380978111327954,0.647554904732829,0.5093201398849487,0.4862833321094513,-0.2027370035648346,0.0019367039203643,-0.0217781066894531,0.0319294333457946,0.0461888238787651,-0.0758695900440216,-0.1512210735589265,-0.0117240250110626,0.1144252014074474,0.0220709620326757,161
1734065707675093500,-0.0691816727757453,0.0568199115917086,-0.0782324097156524,5.291833903720975,-3.496688854560256,7.47930829167366,0.012436456978321,-0.0609851777553558,0.0400699786841869,0.6798482526705065,0.0606729270237622,-0.3390873249620828,0.6474140643773367,0.2312238216400146,0.3540648818016052,-0.2308477312326431,0.0521723330020904,-0.0063004493713378,-0.0153495520353317,0.030744232237339,-0.0725272074341774,-0.0118833300173282,-0.0245132558047771,0.0258088973188307,0.009850947406888,162
1734065707715093200,0.6101917529940605,0.1439797241285443,-0.1795762304276227,5.293310406014323,-3.5109751540660854,7.471566299244761,-0.0066046873107552,-0.0208085719496011,0.1045800223946571,0.6783121727461174,0.0609052515883197,-0.3396272893983837,0.648719042723896,0.0785171017050743,0.0928170159459114,-0.0376114957034587,0.1165061891078949,-0.0871450304985046,-0.0516733080148696,0.0490076355636119,-0.0782230347394943,0.1404915897518396,-0.0053465813398361,0.0146998361846955,-0.0072854808330535,163
1734065707755093200,0.4838952773332595,0.2093190422624349,0.0944043768376111,5.292565140604973,-3.536810437068343,7.459900411370397,-0.0996959134936332,-0.0356102287769317,-0.0379694923758506,0.6778930243016593,0.0599831242838976,-0.3406654445491413,0.6486988667133676,-0.07127346098423,-0.3738272488117218,0.131335511803627,0.1168482899665832,-0.0511043667793273,-0.1241893172264099,0.0900304764509201,-0.1422781348228454,0.1826321108669042,0.0317383371293544,0.0577653392156586,0.0501940637111663,164
1734065707795093200,0.0255079507440328,0.0591407557547092,0.3931383170872926,5.328375289654732,-3.5461458361685274,7.429915607473254,-0.0206259153783321,-0.0955890491604805,-0.014994547702372,0.6778311896534028,0.0607361605854147,-0.342769377780677,0.6475840527698699,-0.0516462326049804,-0.4970211386680603,0.0713809058070182,0.0630171298980712,0.0428686738014221,0.0011751502752304,0.0761374160647392,-0.130427673459053,-0.0472813911348581,0.0878045707941055,-0.065530246729264,0.078102645856142,165
1734065707835093200,-0.1146264961332082,-0.1044163600251078,0.2408843933492898,5.358825957497954,-3.5395582744717595,7.411133165591955,0.0590269789099693,-0.1287242174148559,0.0021258557680994,0.6771483709823287,0.0623396101294092,-0.3438766199549912,0.6475590368933751,-0.5738673806190491,-0.3889444172382355,-0.0294847935438156,-0.0334016680717468,-0.008001685142517,0.0514528155326843,0.0433220528066158,-0.0687252953648567,-0.2368675589233636,0.0684799626469612,-0.0997923352199606,0.0274251825422048,166
1734065707875093200,-0.1673679062396287,-0.304807122683525,-0.0803740979194641,5.398249620869756,-3.518732636325061,7.392415605640411,0.0788800716400146,-0.1294310241937637,-0.0004382236802484,0.6761414867469735,0.0650166656138311,-0.3447673453903868,0.6478743112114642,0.2681980729103088,-0.1216787695884704,0.3362680077552795,-0.1259660720825195,-0.1482810974121093,0.1128592938184738,0.0308398660272359,-0.0549456886947155,-0.2864624876976013,0.0033278986811637,-0.0785838991675991,0.1121042841792106,167
1734065707915093500,-0.1972714615941047,0.0006073182433843,-0.262831436741352,5.444463090512156,-3.481776532110572,7.376003400021791,0.1565812826156616,-0.1778702288866043,-0.0242271441966295,0.6750438249152865,0.068655865902829,-0.3452750347759293,0.6483727260266697,-0.1432030498981475,-0.3794097602367401,0.0023125503212213,-0.0068007409572601,0.1087015867233276,-0.157440185546875,0.0601175427436828,-0.0513193234801292,-0.2053027923583984,-0.0221777316182851,-0.0762890114297624,0.182283735820651,168
1734065707955093500,-0.2715086641937494,0.2116267346829176,-0.6921358767092227,5.496404290151596,-3.4343718068569897,7.359688225036859,0.103608638048172,-0.1574230641126632,-0.0052661206573247,0.6739479485459163,0.072925919904834,-0.3456040037421626,0.6488712439041959,0.2793431282043457,0.0106376679614186,-0.1686150431632995,-0.1348995268344879,0.0467042922973632,0.1128817796707153,0.0966621190309524,-0.0581657513976097,-0.1441378372997045,-0.0454378575086593,-0.0482936369173228,0.1250572892546653,169
1734065707995093200,0.0981716204166412,0.0524228456765413,-0.6777735893577337,5.548852270269394,-3.412684875705838,7.330362177309394,0.0054705487564206,-0.1755446642637252,-0.0816261023283004,0.6732061577110787,0.0759134007346006,-0.3471205865527744,0.6484889762616617,0.2126610577106475,0.2446841895580291,-0.2644164860248565,-0.0941989421844482,0.0338934659957885,-0.0027856230735778,0.0924071073532104,-0.0538422875106334,-0.1276589961856603,-0.0658043324947357,-0.0255483786525437,0.0241910229265689,170
1734065708035093200,0.506897382736206,0.1478366918176412,-0.7352806064307689,5.646800018802285,-3.3827024098962544,7.2692065746009344,-0.1254487037658691,-0.27585569024086,-0.3103356957435608,0.6740113483115001,0.079853301442424,-0.3507093614135956,0.6452404004917948,0.63908451795578,0.5152848362922668,-0.1870390623807907,-0.0136956274509429,-0.0025345683097839,0.0409711748361587,0.0666491687297821,-0.0423023253679275,-0.0938140097290277,-0.0452960580587387,-0.0193276706569246,0.1007061073303222,171
1734065708075093200,0.2619657598227262,0.0594005757346749,-0.4490156871318816,5.749275473892689,-3.3716289349570867,7.193631401395797,-0.2460871785879135,-0.1219211444258689,-0.2480484098196029,0.6765399914763665,0.0821221080637634,-0.355644228570825,0.6395833267833243,1.080733299255371,0.6383867263793945,-0.1026277765631675,-0.0028955042362213,0.0064063072204589,0.0362975448369979,0.0572088062763214,-0.0511963777244091,-4.38391417264e-05,-0.0390901267528533,0.0665093117613345,0.1254939271062612,172
1734065708115093200,0.4271761957675218,0.0058580783784389,-0.1234942777216434,5.790715737783908,-3.3955987163484096,7.14897977424264,-0.2539546191692352,-0.0016844335477799,-0.2255768775939941,0.6794493331236472,0.0806950149348727,-0.3591542842788645,0.6347008387893032,0.4534637928009033,0.2608662545681,0.0529665388166904,0.1827667951583862,-0.2467367053031921,0.0150765776634216,0.0491230823099613,-0.0463781170547008,-0.0493868389815092,-0.0580089762806892,0.015571220183256,0.1224900691151618,173
1734065708155093500,0.2830529715150595,0.2616261526048183,0.0794470462024211,5.838471760693192,-3.400274599204957,7.107796115460991,-0.2175324857234954,-0.0834672898054122,-0.2943151593208313,0.682809758391233,0.0799967651910661,-0.3622206039548456,0.6294184365511826,2.857121706008911,0.7622655630111694,0.6863330006599426,0.0190880596637725,0.0903146862983703,0.0688565373420715,0.0474450513720512,0.0032646656036376,0.0255512053638696,-0.0924436748027801,0.021576337782992,0.0638560938388109,174
1734065708195093500,-0.0156090725421905,0.2394520224586129,0.1963169373482465,5.904447330904007,-3.3923163336768742,7.056916992095112,-0.2170429527759552,-0.086687296628952,-0.2842723429203033,0.6862824417947032,0.0802708035136685,-0.3657238943687593,0.6235535816938114,3.6581645011901855,0.8208368420600891,1.0116091966629028,0.0519808232784271,-0.1117013692855835,0.0761794447898864,0.0399298071861267,0.0154176354408264,0.1297439857661724,-0.0901358425617218,0.0166342622879077,0.0664759209483861,175
1734065708235093200,-0.0616191285669803,0.2498866149723529,0.2088882496297359,5.956442891079187,-3.394820133191347,7.011873735275864,-0.195789486169815,-0.0515965558588504,-0.1777866631746292,0.6889195615490585,0.0800905395822801,-0.3688894609002335,0.6187858803269219,3.496105432510376,0.2596173286437988,0.8457311391830444,0.0090427100658416,-0.0423008203506469,-0.0362755060195922,0.0333826728165149,0.0075165079906582,0.1174275250285863,-0.0910602360963821,0.0302510581844719,0.0496247393906116,176
1734065708275093200,0.196899705672264,0.33055355835855,0.2622872468620538,5.994654840573668,-3.39842341838032,6.977478713721037,-0.0850024744868278,-0.0889517590403556,-0.1726335734128952,0.6906980140876241,0.0799378549590222,-0.3712916878385763,0.615376816032634,2.851015567779541,-0.2456696927547454,0.7148036360740662,-0.006016120314598,0.0549994111061096,-0.0138514637947082,0.0417473092675209,-0.0265241600573062,0.1333107383370399,-0.057701226323843,0.1163256282012909,0.1774269434392452,177
1734065708315093200,0.4271177435785532,0.3741328801050782,0.2268903547883033,6.066854984387755,-3.3357603337183592,6.945239408895373,0.083493560552597,-0.1858081668615341,-0.3412554860115051,0.6928061057191373,0.0835618598398706,-0.3727046344743173,0.6116602614396581,2.745703935623169,-0.1504977494478225,0.5987354516983032,-0.0763338357210159,0.0416792035102844,-0.0495212078094482,0.0747231543064117,-0.0676719695329666,0.1457926187694072,-0.003810454159975,0.1691300570739433,0.2462812839567661,178
1734065708355093200,0.3914876272708177,0.723489923132956,0.3886258080989122,6.170121297594904,-3.192360455304384,6.9216200483769175,0.2186678647994995,-0.2099340111017227,-0.5332995057106018,0.6966917584798086,0.0906533288842284,-0.3726627926942816,0.6062384623340922,2.157306909561157,-0.0950487628579139,0.3610783517360687,-0.1079100370407104,0.0646640062332153,0.0260288715362548,0.099508449435234,-0.0716524720191955,0.1083428858190774,0.0425998717546463,0.1456088779666461,0.2562362762600183,179
1734065708395093500,-0.0127893389463424,0.7060764315173029,0.3576829728245735,6.352335475310682,-2.9627611338183284,6.858590468490124,0.3758952915668487,-0.3700934648513794,-0.5406201481819153,0.6994625375449464,0.1044932401259058,-0.3733502121860916,0.6003689871763948,1.4834532737731934,-0.0500722862780094,0.2814987599849701,-0.0186022669076919,-0.0289036631584167,0.0114409327507019,0.1022972017526626,-0.0654638111591339,0.2251338665097951,0.0783511996269226,0.1311174843427725,0.1942413001179695,180
1734065708435093500,1.059390395477414,1.030902552139759,0.0879763896167278,6.607142011028528,-2.649532512009144,6.74507456394732,0.6286644339561462,-0.9177577495574952,-1.0334731340408323,0.702036011460044,0.1241333668101258,-0.3750837512110319,0.5924934149379283,1.5992180109024048,0.0562905333936214,0.2465923279523849,0.0105321407318115,0.0178963243961334,-0.0627689957618713,0.069973886013031,-0.0297706797719001,0.285153743186593,0.1264793276786804,0.0327979068228043,0.1609340737998485,181
1734065708475093200,0.4291764296740293,0.161475925591588,0.5047954420208931,6.917132089307904,-2.1331008465997874,6.616158261176944,0.7829380631446838,-0.3487123250961303,-1.3763976097106934,0.709113136874,0.1514913997464907,-0.3737915891506682,0.578350139704359,1.1130928993225098,0.1559420675039291,0.3571951389312744,0.0002452433109283,0.0216446816921234,0.0181823372840881,0.0263670682907104,-0.0362123884260654,0.4312894763052463,0.2093760222196579,0.0423673567074583,0.2086462575674056,182
1734065708515093200,0.4246685968607664,0.0111328039109706,0.972225906765461,7.039404131758213,-1.474887843888998,6.666473905441165,1.244842767715454,0.4040542542934418,-1.5103868246078491,0.7219254219664981,0.1766120706703296,-0.3590440027732791,0.564552237395904,0.5656800866127014,0.061185423284769,0.3451636433601379,-0.010156899690628,-0.0336347818374633,0.0692694783210754,0.0163084119558334,-0.0568072199821472,0.3448439495176076,0.3292851448059082,-0.0799762303088326,0.3512093928962945,183
1734065708555093200,0.4907347679644823,0.6484490760002285,-1.1415864481270313,6.906450536295771,-0.6442590769644826,6.932262438422441,0.9085132479667664,0.1732369363307953,-1.7188674211502075,0.7404317772007688,0.199444340228193,-0.3267643388973995,0.5524562464902697,-0.0142155028879642,0.0801685377955436,0.3128885328769684,-0.0256380140781402,-0.0389163494110107,0.0462602376937866,-0.0273848250508308,-0.0963934585452079,0.2044745248407125,0.4593569934368133,-0.1237519605434499,0.4860647303268313,184
1734065708595093200,-0.3352268108665943,1.2012008858080954,0.6003577567219733,7.0596414486229415,-0.0937329438494518,6.8061050789713855,0.3440167605876922,-0.4426740407943725,-1.2660815715789795,0.7514053524535154,0.2215880123716175,-0.3223103821708049,0.5314177827370661,-0.7609288692474365,0.0465257875621318,0.3946033120155334,0.0092231929302215,-0.0474128127098083,0.058059275150299,-0.0465790554881095,-0.1696678102016449,-0.0422334600955247,0.6037548780441284,-0.126361859914055,0.7101818210095167,185
1734065708635093500,-0.2049579244434833,0.0364168645049445,1.0615174706339836,7.10833913629651,0.3022130876023322,6.749115948292613,0.3527307212352752,0.078386589884758,-0.9370200634002686,0.7598560480081623,0.235615250449019,-0.3168221876849319,0.5164571801738161,-1.3087810277938845,0.0347341634333133,0.6016238927841187,0.0326211005449295,-0.0675339102745056,0.1415886282920837,-0.0265824925154447,-0.2847657203674316,-0.0655336716622114,0.6661412119865417,-0.0853551925339736,0.7244941317394376,186
1734065708675093500,0.7482967398703098,1.2547376110106705,0.5410603491008281,6.866162365049124,0.6514960424806923,6.971496132180095,0.0607565343379974,1.7515411376953125,-1.162626028060913,0.7733245159403089,0.2376573827117142,-0.2967685991080647,0.5073623909686517,-1.8644187450408936,0.205806091427803,0.9376972317695618,0.0608956813812255,-0.1496323347091674,0.2789226174354553,0.0270969178527593,-0.299049824476242,0.0223211374014616,0.7324730753898621,-0.1276237604754976,0.7558630834713578,187
1734065708715093200,0.8929775980055331,0.7522353944934904,-0.3469651794552802,6.202687934678792,0.9337315601330248,7.538248556420206,-0.3786004185676574,2.410729169845581,-1.4157527685165403,0.7993347466259801,0.2201852923682953,-0.2591808447398662,0.4953865037556089,-1.9957256317138672,0.6036460399627686,1.6050947904586792,0.1158296912908554,-0.3084434866905212,0.3994229435920715,0.071660004556179,-0.2607148885726928,0.3133253601819276,0.7728054523468018,-0.0847642774361185,0.637988691458106,188
1734065708755093200,1.4673779066503048,1.49676971309036,0.8625041338086128,5.310008442837,1.197605053273216,8.157201708018778,-0.1712348908185959,2.8809702396392822,-1.8987873792648315,0.8287782546778071,0.1967147124963733,-0.2130769549087184,0.4785689320983299,-2.4764912128448486,0.9011972546577454,2.410587310791016,0.1557460129261016,-0.3843308687210083,0.3306023478507995,0.0863262191414833,-0.264256477355957,0.3888157777130603,0.7702680826187134,-0.1826483678819611,0.6872425517097115,189
1734065708795093200,0.7198594576761126,1.098287112365663,1.189082943317294,4.2644197782188655,1.6984398480348288,8.66604964030087,0.7897083163261414,2.270130157470703,-1.8835241794586184,0.857324661028859,0.1838149377925162,-0.1560977655128881,0.4547967101355165,-2.509718894958496,1.0441744327545166,3.2343692779541016,0.1711527109146118,-0.3161764144897461,0.2627788782119751,0.096510075032711,-0.2044068276882171,0.2672270413517952,0.8271821737289429,-0.2331948617599904,0.7770189764857292,190
1734065708835093200,-1.7237001076281069,0.0687532182306051,-0.6245195535540581,3.848554081016778,2.155160848847032,8.758669471809268,0.7998182773590088,0.4073546528816223,-0.1093780100345611,0.8649528546699632,0.1927489311838484,-0.127592996449304,0.4454485301944468,-2.661492347717285,1.1323018074035645,3.9618098735809326,0.2034266144037246,-0.2947607636451721,0.1543608903884887,0.0373593904078006,-0.1884282082319259,-0.0097621000796556,0.8807495832443237,-0.3004108787522651,0.7635688355430961,191
1734065708875093200,0.0898930368930101,0.5678279445171356,0.0552045853495597,3.777341194674373,2.388412555360794,8.72912189028561,0.7928274273872375,-0.0987403243780136,0.1290092766284942,0.8618800005320545,0.2026983700848146,-0.1176946362397294,0.4496935682160995,-2.8083746433258057,1.2159461975097656,4.73127031326294,0.2497709989547729,-0.3053830862045288,0.1447253227233886,-0.1211548149585723,-0.222268134355545,-0.2759977923065423,0.9960306882858276,-0.4618140496348962,0.9145790428303182,192
1734065708915093500,0.6797960350960492,0.1733233075127005,-0.7085702941596508,3.8965708006888624,2.810600149060785,8.5491312338382,1.4566904306411743,-0.5136549472808838,-0.2625919878482818,0.8561385579770119,0.2267132669360214,-0.1127683210565648,0.450456701477592,-3.1760294437408447,1.242109775543213,5.209846496582031,0.4281649589538574,-0.0477913618087768,0.0146825313568115,-0.3017326891422272,-0.1910792291164398,-0.5311258150637149,1.206846833229065,-0.5846718560839071,1.1385998335316776,193
1734065708955093500,0.6670183865875006,0.1563312561795115,-1.867110215175152,4.049408954055608,3.336958895853161,8.284767765223979,1.11960768699646,-0.5702369809150696,-0.8020877242088318,0.8534353239118657,0.2560167118822921,-0.1097717712640444,0.4405153700448181,-3.7974138259887695,0.9173906445503236,5.5043463706970215,0.5976009964942932,-0.0337026119232177,-0.0858644545078277,-0.492587149143219,-0.1441443264484405,-0.5456693042010069,1.424199104309082,-0.7611816481456161,0.9577101824179292,194
1734065708995093200,0.2587242936834693,0.3409337903365492,-2.130902021381259,4.003253936602175,3.782480018867552,8.114011970111727,0.6654653549194336,0.0551595129072666,-0.936294674873352,0.8555112432060814,0.2758191552319125,-0.1011153576938079,0.426380156653842,-3.846303224563599,0.5781856775283813,5.777620792388916,0.6481635570526123,0.2388916015625,0.0728477090597152,-0.6789630651473999,0.0271632820367813,-0.4282862028360366,1.4976983070373535,-0.9891568024959416,0.6748264299899339,195
1734065709035093200,-0.6183423262238502,0.8102280031263828,-2.3252064498633147,3.826722188436985,4.052395568650961,8.068746594974398,-0.0405911728739738,-0.2404959350824356,-1.070054292678833,0.8626022393339666,0.2831190647757937,-0.0919347922084529,0.4090341854416405,-3.355674982070923,0.0169218238443136,5.21412992477417,0.7363787889480591,0.4570172131061554,-0.0809142515063285,-0.7979916334152222,0.3156455755233764,0.3514022851198911,1.4229587316513062,-0.7940258600618689,0.3392766707792878,196
1734065709075093200,-0.0882993379607796,0.8669766030475496,1.2273428236067294,3.7608547547757625,4.190474836564063,8.029089122846722,0.1358227580785751,-0.0551189482212066,-1.0833008289337158,0.8703257821029373,0.2866637560480678,-0.091947115293909,0.3897468188683438,-2.863361358642578,-0.3453346788883209,4.13879919052124,0.4500986933708191,0.5238209962844849,-0.0628843903541565,-0.8463399410247803,0.2807005941867828,2.183845091539621,1.2099217176437378,-0.0529994034554809,0.4475925589935853,197
1734065709115093200,0.1520543095126748,0.8596621883809566,0.4523346024215221,3.438499992702901,4.45711180306822,8.030022604304552,0.1270396411418914,0.5206195116043091,-1.6657238006591797,0.8800122001254562,0.2907312575780712,-0.0778340259744704,0.3674177285071479,-2.584550142288208,-0.4443824589252472,2.914071559906006,0.1815857887268066,0.718619167804718,-0.0174064710736274,-0.6589958071708679,0.0531516671180725,1.1586959883600472,1.1285773515701294,0.571779020230472,0.7276143095865846,198
1734065709155093500,-0.4807637013092636,-0.1702034219264984,-0.2027449245691299,2.952627277816832,4.605461997365952,8.138924877572059,-0.4871854782104492,0.7408814430236816,-1.3630704879760742,0.8931888359323495,0.2855462944183021,-0.0591070004826426,0.3423206099604178,-1.956817388534546,-0.3362857699394226,1.994547963142395,0.016855239868164,0.8217182159423828,-0.0394158363342285,-0.3966808617115021,-0.2202248275279998,0.0112649058580398,0.9714685678482056,0.7483173442669212,0.3900695771664381,199
1734065709195093500,0.4735480708420276,-0.4020028838053345,-0.1946019501239061,2.4068261639297006,4.467506940354407,8.391600246480106,-1.070312261581421,0.9513768553733826,-1.2930169105529783,0.9071253439794932,0.265542075271042,-0.0404335443785719,0.3240002109202795,-0.9902089238166808,-0.1159843504428863,1.311001181602478,-0.0888870954513549,0.9043097496032716,-0.0889606922864914,-0.2134638726711273,-0.1795562803745269,-0.8394938450992107,0.7699194550514221,0.4151144404433667,0.114113139783591,200
1734065709235093200,0.2085477656289935,-1.1631366011559965,1.4262567917108535,1.915408236006648,4.338296915334463,8.583750711798668,-0.0680085122585296,0.9447743892669678,-0.93153315782547,0.9184966890126066,0.2486082777088835,-0.0233330695278728,0.3066160789191388,0.0252267122268676,0.0711606666445732,0.6840624809265137,-0.0184246897697448,0.990887463092804,-0.0799928903579711,-0.1237123534083366,0.062569186091423,-0.5086643924087285,0.6327378153800964,0.3243574801973998,0.0209977067779749,201
1734065709275093200,0.9594723697848616,-0.8086755129873752,-0.7762140898436307,1.4701934024624526,4.48302687330842,8.597173087951541,0.2615364193916321,0.5237506031990051,-0.7544280290603638,0.9219209804665424,0.2483236999331295,-0.0012245274517267,0.2973138783721834,0.8633701205253601,0.0498130321502685,-0.4541757702827453,-0.0200778245925903,0.98350590467453,-0.0107593536376953,-0.1217590272426605,0.173640489578247,-0.0844710118442773,0.4498280882835388,0.3766771577604115,-0.211220711165294,202
1734065709315093200,1.232534254769981,-0.9017708530530332,-0.9048387161910534,1.3187867432035505,4.505493264399469,8.609977624467016,-0.3466207087039947,-0.2629321217536926,-0.8123161792755127,0.9269226416157892,0.2469935848244718,0.0027338127559257,0.2824909245661112,0.9222174286842346,0.1884219944477081,-1.924723505973816,-0.171751320362091,0.794803261756897,-0.0003611892461776,-0.1624299734830856,0.2070176005363464,-0.2710135741531849,0.2239963263273239,0.4051565985959023,-0.3047563423443585,203
1734065709355093200,0.8554507081657647,-0.955062005996704,-0.1417021345853805,1.2716478292793034,4.396876530075073,8.672990837740898,-0.3870695531368255,-0.1149246841669082,-0.4735036790370941,0.932709590562006,0.240417284169603,-0.0002276731531742,0.2687978248519457,1.4589884281158447,0.3438468277454376,-2.5575814247131348,-0.0904578566551208,0.6690129637718201,-0.0556215643882751,-0.2098414450883865,0.1769397258758545,-0.2027314805656671,0.0774459093809127,0.5379093377240002,0.1116051024854183,204
1734065709395093500,0.6037045829318464,0.0846922533795237,-0.7559890479385852,1.2711048084437846,4.326624305458367,8.70832927762568,-0.078418418765068,-0.1003671213984489,-0.1026141047477722,0.9352433742536376,0.2366253987304808,-0.0026810524306557,0.2632890231588293,2.786432266235352,0.5244650840759277,-2.794041156768799,0.0940285921096801,0.554011881351471,-0.0175083838403224,-0.2447012811899185,0.0504495501518249,-0.4532482101351022,0.1443532854318618,0.5171511387903243,0.6796022660896182,205
1734065709435093500,0.2227450716771185,0.3514139755576849,-0.9678209498047828,1.257021338033676,4.348852796140313,8.699296660864352,0.1950258910655975,0.2006112784147262,0.192690297961235,0.9345621241918096,0.237608434103437,-0.0012463052784213,0.2648285620720182,3.900812149047852,0.3009486496448517,-2.713869094848633,0.2965127229690552,0.4365682005882263,0.0313339829444885,-0.248917669057846,-0.0250456482172012,-0.4864712653011083,0.2888718247413635,0.6374236049212515,0.7902554746776819,206
1734065709475093200,0.6501072915360331,0.8235071714162826,-0.6463859329253435,1.2778235953047872,4.424283592438697,8.658132875826954,0.3537013232707977,-0.2774180471897125,0.0089835422113537,0.9326890917985996,0.2419873256381372,-0.0004608242245024,0.2674564286311886,4.009801864624023,-0.2028063833713531,-2.6741318702697754,0.3777821063995361,0.2655220627784729,0.1471302509307861,-0.1975700855255127,-0.1040278226137161,-0.0145166011303663,0.3121640682220459,0.8329790563777089,0.6886857362553477,207
1734065709515093200,0.0210560859017074,0.8844836181655525,-0.5708873320877552,1.4350675824150445,4.62068353189528,8.529961838465928,0.6114633083343506,-0.7475350499153137,-0.313157171010971,0.930910052878568,0.2550374393715054,-0.0069924979202675,0.2613682746809365,2.914741039276123,-0.617129921913147,-2.700007438659668,0.332931637763977,0.060078352689743,0.2288611531257629,-0.0564497113227844,-0.1401681005954742,0.2625707399785518,0.1449730992317199,0.965265785429254,0.2460107964523136,208
1734065709555093200,-1.5747830732278525,0.1048649805754423,1.1478840869665146,1.5548812719278036,4.812675591781735,8.401838147377967,0.4628660380840301,0.3926996290683746,0.1513553857803344,0.9284387591054292,0.2673954351709456,-0.011186829981259,0.2576356423305005,2.022709846496582,-0.6869167685508728,-2.676919221878052,0.3452799320220947,-0.0460268855094909,0.2808364033699035,0.0811833590269088,-0.1139642894268035,0.8899959518462419,-0.1657504737377166,1.2122788907919078,0.1626841323375701,209
1734065709595093200,-0.0085406685259193,2.5677432865947485,1.2246575300455094,1.14069870550707,4.903512631526589,8.415744507655502,0.0144732957705855,2.082971811294556,0.1805534660816192,0.9252842456859416,0.265892602156257,0.0147497176920728,0.2700606480765594,1.7093580961227417,-0.6677902340888977,-2.5060789585113525,0.3307835459709167,-0.1485510170459747,0.3119932413101196,0.190923273563385,-0.1426332294940948,0.5320365001678466,-0.36483895778656,1.113196585271135,0.1655455131180584,210
1734065709635093500,0.2208834059910848,0.5997139058604836,0.9687947632730006,0.3130235276911408,4.79891156258434,8.546510822206734,-0.4663945734500885,2.824472188949585,-0.4159381687641144,0.9258028425674084,0.2468581028518321,0.0575351242122501,0.2804280673605842,1.4646193981170654,-0.561521053314209,-2.0377066135406494,0.2480468153953552,-0.2827836871147156,0.395660400390625,0.2031603455543518,-0.0281062498688697,0.7914952456057072,-0.3597180247306824,0.8333761659365146,0.6336193903326988,211
1734065709675093500,-2.413507833650708,1.1446437898710369,0.6646943275541066,-0.4955969306407496,4.721150277511775,8.581113933554292,0.2153001576662063,1.1443700790405271,0.4500740468502044,0.9240832178854504,0.2294706561868426,0.0991371763064535,0.2891114301440728,1.442218780517578,-0.2179441004991531,-1.0048524141311646,0.1617032289505005,-0.443072497844696,0.4312161803245544,0.1196862086653709,-0.0001214742660522,0.1332704063266515,-0.2295512706041336,0.2713352803882211,0.5458680416435003,212
1734065709715093200,-1.6446197027809917,3.209145001366734,-1.3656605764508247,-0.348852527571842,4.911986445361376,8.48062936002016,0.4079326391220093,-0.9870113730430604,0.9505407810211182,0.9163612492094848,0.2403284986581447,0.0992493935310997,0.3044240235593601,1.1868150234222412,-0.077880635857582,-0.1005059704184532,0.1784085631370544,-0.4435856938362121,0.4248786866664886,-0.0063587203621864,0.0948671028017997,-0.8381851005882024,-0.2431484758853912,-0.6684026074875146,0.0868337954528629,213
1734065709755093200,-0.2145692361419089,-0.4333008161276578,-1.1826952881067991,0.2367156745635904,4.919884505134821,8.47992267305553,-0.3785310387611389,-1.3295881748199463,0.1977345198392868,0.9157992535809544,0.2503516729754426,0.0704863129672937,0.3060512922318998,-0.1867350786924362,-0.0103368563577532,0.2974742949008941,0.1705643534660339,-0.5176573991775513,0.494301825761795,-0.1899107992649078,0.3432142734527588,-0.4328875591516494,-0.4366684854030609,-0.8225898373756557,-0.0382486282430589,214
1734065709795093200,-0.7080939088195561,-0.9865887786388396,-1.0115998857766388,0.4239320992797613,4.699397003126144,8.596879657962917,-0.8704191446304321,0.4945610165596008,0.1930683106184005,0.9184192114590122,0.2416145505642076,0.0574764565301065,0.3079367659644322,-1.2108781337738037,0.1173095703125,0.6860471367835999,0.1377858519554138,-0.5114315748214722,0.4557809829711914,-0.3232836127281189,0.2534042298793793,0.315137378039956,-0.7435814142227173,-0.5711118250260129,-0.1669393786292523,215
1734065709835093200,-0.8102785642698407,-0.2529997785568237,-2.0376281098783013,0.0800471675200387,4.337956723594665,8.794663745254278,-1.208434820175171,1.4567614793777466,0.2539320588111877,0.9203433429774932,0.2160006722549101,0.0702898532848051,0.3183882149730498,-1.7876310348510742,0.2671539187431335,1.2387490272521973,0.2002000212669372,-0.443022072315216,0.4113234281539917,-0.4844374656677246,0.1983530223369598,-0.0912678323775529,-1.083305597305298,-0.8094789383247494,-0.5315255549710244,216
1734065709875093200,-0.4791341273460537,-0.8658341550141573,-2.5820272480130195,-0.3902603870308026,3.816089150741696,9.025272828304766,-1.7471870183944702,1.190529465675354,0.2576039731502533,0.9222993453027222,0.1800358632279152,0.0861756814324933,0.3309453490968603,-2.1702351570129395,0.4478271007537842,1.709086537361145,0.2309181094169616,-0.3349621295928955,0.3444246649742126,-0.7083146572113037,0.0739805102348327,-0.1609814200729131,-1.3970788717269895,-0.4603186599779874,-0.3709714569320902,217
1734065709915093500,0.769624116994068,-0.5323012885838747,0.1783165857553482,-0.7145575518757105,3.168317316415906,9.25319194161892,-1.6726598739624023,0.9337379932403564,-0.0310448072850704,0.9251473773653708,0.1410249044443599,0.0912715315698793,0.3404173266984578,-2.0757997035980225,0.5263450145721436,1.99865984916687,0.238372802734375,-0.1935946345329284,0.0892998129129409,-0.7699129581451416,-0.0125293433666229,-0.5141933849632739,-1.5161726474761963,-0.5193240258499979,0.1629705480635166,218
1734065709955093500,0.6912185426685958,-0.5716553938508033,0.1710106466561555,-1.057681034276262,2.64234055467844,9.384547454234957,-1.145552635192871,0.2743031680583954,-0.466918021440506,0.928891664755708,0.1091529729178948,0.098014643256995,0.3400572409626253,-2.168975114822388,0.3770667016506195,2.024883985519409,0.2494688034057617,-0.1578163206577301,0.1299191117286682,-0.7069595456123352,0.0196390114724636,-0.689336016857624,-1.4450302124023438,-0.4058691307794302,0.5838282813992351,219
1734065709995093200,1.7246218986481427,-0.2237697385497391,0.007583002474904,-0.9812222101043908,2.2420815919309853,9.4963495405972,-0.7907994985580444,-0.8564990162849426,-0.8088281750679016,0.9356429032408624,0.0919134710133776,0.0858651795172082,0.3297746722018654,-2.360215187072754,0.1414138972759246,1.9373013973236084,0.2387685179710388,-0.0750314891338348,0.079210340976715,-0.5424883961677551,-0.0407171063125133,-0.6868617356985807,-1.1768157482147217,-0.2580380467186682,0.8948516482491046,220
1734065710035093200,1.6780398879542946,-0.1322765729837119,1.0103770659834146,-0.6019958062525839,2.0344697919778523,9.574388473567366,-0.0746936053037643,-1.3445358276367188,-1.2950079441070557,0.9449736436304876,0.0896130823721221,0.0617375924309145,0.3085169386703892,-2.413579225540161,-0.1236385926604271,1.861760497093201,0.1069656014442443,0.0482958853244781,0.0260557606816291,-0.3529389500617981,0.0300513170659542,-1.1447919661700725,-0.8856388926506042,-0.4703411645594984,0.4762149519637226,221
1734065710075093200,1.3381936005935071,0.1914157213032245,1.111659511896968,-0.3766223223006352,2.1493651681803168,9.560793078935143,0.7012637257575989,-0.4831836521625519,-1.6313395500183103,0.9537538829474796,0.1004212682552959,0.049505266194399,0.2789592790012164,-2.237215518951416,-0.2132011204957962,1.8706098794937127,0.040359616279602,0.1597781479358673,0.0529093146324157,-0.2998559474945068,0.1793552935123443,-0.17137538831532,-0.7988331913948059,-0.43477242305018,-0.3113052525311708,222
1734065710115093200,0.64755819157511,0.871832518646121,0.0315624284774065,-0.3789586562937125,2.3729092812806365,9.507685173603893,0.5407702922821045,-0.5825705528259277,-2.121652126312256,0.9626332274405018,0.1135375441612788,0.0484994404729396,0.2410273955529837,-2.0961201190948486,-0.2354577928781509,1.7940597534179688,0.0597378611564636,0.297659158706665,0.0433431267738342,-0.3244225978851318,0.2858737111091614,-0.0187052849918603,-0.6542659401893616,-0.4205311317298561,0.0660626639723777,223
1734065710155093500,-0.6885791340757161,-0.1012856607839465,0.5127396790236234,-0.3549935145448893,2.5631235178396103,9.459110235527158,0.5856878161430359,-0.7389802932739258,-1.5835843086242676,0.9703917286815368,0.12538756621866,0.0446941561263228,0.2015447575816701,-1.7441812753677368,-0.1633302420377731,1.640835881233215,0.0035799145698547,0.4357571899890899,0.0017938017845153,-0.255482017993927,0.4420402646064758,0.8826181165546179,-0.503093957901001,-0.0690016217674128,-0.4393436034232377,224
1734065710195093500,0.2959778099419549,-0.443117861264944,0.0144242466717958,-0.2711379859841428,2.6453344757974144,9.439230646058917,-0.1094854772090911,-0.1385240703821182,-0.958523452281952,0.974682942911384,0.1314787093509782,0.0380331911220995,0.1768051507319722,-1.16819167137146,-0.0513731874525547,1.3927593231201172,-0.1406716704368591,0.5223653316497803,-0.0758066773414611,-0.2820117175579071,0.2994742095470428,0.9580097498863936,-0.4558249115943908,0.1456702344987541,-0.3933212724387645,225
1734065710235093200,0.6361410177648067,-0.0383636329248547,0.3229536047488451,-0.4230570334782824,2.530877198751271,9.464991694781183,-0.3286166787147522,0.1972797065973281,-1.192615985870361,0.9787713900465962,0.1250964589749988,0.0420785337336878,0.1568018742313003,-0.9178960919380188,0.0321071147918701,0.996766209602356,-0.1593879461288452,0.5700119137763977,-0.0967943742871284,-0.3679547905921936,0.2104783803224563,0.7297066056907177,-0.3601367473602295,0.1856098480360582,-0.2154872095033526,226
1734065710275093200,0.7519625689014792,-0.9385261739984154,1.1982418168067932,-0.6737020290698855,2.4727605253472924,9.465831652736664,0.3570164144039154,0.1226389035582542,-1.0791616439819336,0.9829009013881154,0.121617151493333,0.0508544760156743,0.128564634372831,-0.6665030121803284,-0.021370280534029,0.5111671686172485,-0.0412580966949462,0.6882343888282776,-0.1117507815361023,-0.4883370399475097,0.2994170784950256,0.4916279174119233,-0.18541119992733,0.4420256090488285,-0.1817144115000963,227
1734065710315093200,0.4990768451783806,-1.472388136027753,-0.4553115724056958,-0.780844379992783,2.669040053294599,9.40408919005096,0.839237630367279,0.0215777046978473,-0.38248211145401,0.9831383412919976,0.1319730597104133,0.0557494855431047,0.113640401203944,-0.234478622674942,0.0203133579343557,-0.1145810484886169,-0.0639836192131042,0.714414119720459,-0.1362859010696411,-0.5360734462738037,0.2753395140171051,0.1583604239195585,-0.0768338367342948,0.2843043415493331,0.0105687402874231,228
1734065710355093200,0.4843632601711898,-1.014869116705656,-0.4060872305095195,-0.5451160907650366,3.092287969702482,9.290370456412434,1.441521167755127,-1.1402686834335327,-0.1047344952821731,0.9810940481541316,0.1558521946682298,0.0450889412494205,0.1055057756440767,0.3606715500354767,0.0786712020635604,-0.8418993949890137,0.0308505296707153,0.710503101348877,-0.1648803949356079,-0.5191419720649719,0.2478457540273666,0.1170657059788703,-0.2508006393909454,0.3692479210751131,-0.4828858080297708,229
1734065710395093500,0.8777448844950646,-1.102281734959781,-0.9114894062519072,-0.2711140936519019,3.592101531657576,9.121057261323928,0.9923728704452516,-0.0972793623805046,0.3850202262401581,0.976721527588899,0.1838559113182675,0.0339484472795176,0.1051650028498935,1.4508056640625,0.0709688067436218,-1.5324021577835083,0.1421422958374023,0.6569874286651611,-0.1379367709159851,-0.4638190567493438,0.2006175816059112,-0.5469318714827299,-0.4922565221786499,0.2845992511089891,-0.1035702645897865,230
1734065710435093500,0.6350101140387356,-0.0518742718830704,-2.3798995785593986,-0.3180777058081701,3.712010352107882,9.071393943488598,-0.3101223111152649,0.448755532503128,0.9306455254554749,0.9737108594617272,0.1894399599334163,0.0400015022162703,0.1199981601828814,2.3406012058258057,0.0740264430642128,-2.137892007827759,0.1292147636413574,0.4644109904766083,-0.045901708304882,-0.3694422543048858,0.2021370381116867,-0.6578922463238239,-0.4485513567924499,0.291637059057597,0.6136436470136046,231
1734065710475093200,-0.0063629591606557,0.7588175493627786,-0.6385697062164545,-0.2385937616614624,3.515131981484592,9.1519018969208,-0.5782420039176941,0.0475231371819973,1.0690633058547974,0.9729568306399052,0.1786187703332229,0.0384474960489219,0.1413225379511575,2.85284161567688,0.0192340854555368,-2.4526073932647705,0.1836934089660644,0.2813360095024109,0.0512891411781311,-0.256749153137207,0.1022427529096603,-0.6856131969422101,-0.2446160316467285,0.5023070958038792,0.8736252472817897,232
1734065710515093200,0.1248257089884951,1.0870347737282513,0.6637438949614762,-0.1088144671198911,3.448780563698709,9.179567317959666,0.3048276901245117,0.0882931128144264,0.4866812825202942,0.9711805909986956,0.175508394323778,0.0341924462578135,0.1575938668008089,3.281600952148437,-0.1254390925168991,-2.313412666320801,0.3119954466819763,0.1643979400396347,0.1120596528053283,-0.1659442335367202,0.0304313078522682,-1.0226181233972311,-0.1587276607751846,0.3899136559523641,0.6939201297774911,233
1734065710555093200,-0.5897776547903195,0.8454331720203161,-0.5017395615816116,-0.0702738108274294,3.74724416257441,9.062207597470284,1.1884034872055054,-0.6252158284187317,-0.242646113038063,0.9679791106815516,0.1916453736907804,0.0350435029532745,0.1583049516281048,3.133209228515625,-0.445344477891922,-2.146683931350708,0.2412672042846679,0.0310603976249694,0.1775794625282287,-0.0967389643192291,-0.0095484144985675,-0.5669435628980398,-0.1575431376695633,0.7115289247695357,0.6762947489768266,234
1734065710595093200,-0.4765568242039531,0.560654399625957,-0.3592021452158689,0.2522501292333006,4.1774703935623165,8.86879339582622,1.0902453660964966,-1.1562498807907104,-0.2689684927463531,0.9645002486510176,0.217746908002935,0.0200916771518836,0.148059988019812,2.2947418689727783,-0.6333754062652588,-2.0913760662078857,0.1350523829460144,-0.1123550236225128,0.2888776063919067,0.0218774229288101,-0.0523462109267711,-0.0185801973074674,-0.0710566416382789,0.7316903999190777,0.5937193416208029,235
1734065710635093500,-0.7693344133324921,0.8053387697800993,0.5856295586675405,0.4830777138726785,4.514427389222384,8.692350787249207,0.7939338684082031,-0.2964701354503631,-0.0761546492576599,0.9609025992782636,0.2381745205262341,0.009291906678853,0.1408997308870524,1.569016456604004,-0.7238979935646057,-1.988888382911682,0.1278237104415893,-0.1920497119426727,0.341068297624588,0.1013464704155922,-0.1329375058412552,0.9661287589341402,-0.0969725474715232,0.8528871412880719,0.1959592099517583,236
