time_imu,phone_acc_x,phone_acc_y,phone_acc_z,phone_gravity_x,phone_gravity_y,phone_gravity_z,phone_gyro_x,phone_gyro_y,phone_gyro_z,phone_ori_w,phone_ori_x,phone_ori_y,phone_ori_z,watch_gyro_x,watch_gyro_y,watch_gyro_z,watch_acc_x,watch_acc_y,watch_acc_z,headphone_gyro_x,headphone_gyro_y,headphone_gyro_z,headphone_acc_x,headphone_acc_y,headphone_acc_z,frame_imu
1733299302517564400,0.691144089192897,15.258318491846325,-0.8224971175909042,0.4680985001992434,9.769318340471386,-0.7153283170524984,-0.7127357125282288,0.1420061290264129,-0.7898728251457214,-0.5217164375718824,-0.5381016908741805,0.4969086070219479,0.4374247658986909,-0.5679023265838623,-0.0155335403978824,0.1779018193483352,0.0544209480285644,-0.2120893597602844,-0.0063776224851608,2.157214403152466,0.0060593970119953,-0.0246411047816276,-0.1712650954723358,-0.9017161271911114,1.2305635392189025,0
1733299302557564200,6.552004061174392,10.01316392171383,-1.9383412216961384,-0.0388777838589157,9.79286814288497,-0.5182596845541149,-0.6042333841323853,-0.0940918624401092,-1.906164288520813,-0.5165540155262605,-0.5465127276810905,0.4772292206940103,0.4546955140446302,-0.3861332833766937,0.0185630712658166,0.5307392477989197,0.0139069557189941,-0.1676875054836273,-0.0530659109354019,2.521350145339966,0.0386523269116878,-0.1726508150786161,-0.0559601038694381,-0.9683099023655056,0.7909326432868837,1
1733299302597564200,7.70346249949634,-1.367469087177515,-1.864116294056177,-0.9785986566677688,9.756151984906197,-0.1737983411459252,-0.946221113204956,-0.4730568528175354,-2.7278897762298584,-0.5012258652384578,-0.5574010541371764,0.4451576284522351,0.4898074065314752,-0.1733709573745727,-0.0144191663712263,0.8039283156394958,-0.0088766813278198,-0.1229907572269439,-0.0558944940567016,2.5855748653411865,0.0349468700587749,-0.2287128940403461,-0.0019315108656883,-0.8039997762612998,0.0722137339480221,2
1733299302747060700,-1.3744266512304544,-13.689713084340095,1.8857360051900147,-2.4866724385827776,9.476815988087653,0.4204786343576386,0.581842839717865,0.3304530382156372,0.4863038063049316,-0.4651109901842803,-0.5652934840533849,0.3987540998908581,0.552367809748538,-0.554780125617981,-0.2062449008226394,1.0692155361175537,0.0549749135971069,0.0201717615127563,-0.0389288514852523,1.5017237663269043,0.2791591286659241,-0.2975324920380487,-0.2407075017690658,-0.1952596468476578,-0.7040140921600162,3
1733299302787060700,-1.092270920816064,-9.418643200582263,1.527294322952628,-2.157708633633703,9.566036824807524,0.0750253573026508,1.034235954284668,0.5632274150848389,1.3315058946609497,-0.4696679838334949,-0.5708742337328462,0.412646798926467,0.5322004259845521,-0.4096183478832245,-0.2125139385461807,0.8396928310394287,0.0331692695617675,0.0652628540992736,-0.0477290600538253,1.3010560274124146,0.3175576329231262,-0.1320849959343671,-0.1547957360744476,-0.1175593164484016,-0.4008057829752564,4
1733299302827061000,1.869759560640156,-2.769668126952648,-1.4711387204885482,-1.5600098669879137,9.674396077239512,-0.3779331491708755,0.931969165802002,0.2498049885034561,1.5692453384399414,-0.4768702531949759,-0.572570636081187,0.4375295355997347,0.5033146515587541,-0.573607861995697,-0.2369977533817291,0.5880977511405945,0.0102539658546447,0.0597107261419296,-0.0143050551414489,1.1409132480621338,0.3228697478771209,-0.0474012181222438,-0.1181802377104759,-0.1041316430659033,-0.4045576828546822,5
1733299302867061000,0.7657349275358021,5.831327149635553,-4.112388557320833,-0.9539790330655872,9.733079152354598,-0.7262930709201842,0.1542790979146957,0.2787909209728241,1.083732843399048,-0.4840131847046872,-0.5690476421140062,0.4617525544703169,0.4782266021923156,-0.7255747318267822,-0.2303307950496673,0.4023622274398803,0.0062174201011657,0.0804938971996307,0.0012478679418563,0.980770468711853,0.3281818628311157,0.0382955361247062,-0.0815647393465042,-0.0891469403665978,-0.4108949230521917,6
1733299302907060700,1.1496404291145503,7.804906857973337,-2.0744658484101293,-0.5899958641182631,9.76643781659901,-0.6625550505030899,-0.2899337708950043,0.0522259026765823,0.7688944935798645,-0.4969855740829928,-0.5610203261335389,0.4680139969288939,0.4682140931387206,-0.7596243619918823,-0.1981442123651504,0.2911238968372345,-0.0215665698051452,0.1001500636339187,0.0105114132165908,0.7915122509002686,0.2869524955749511,0.0458832147747278,-0.0636836290359497,-0.0904114438770804,-0.3757160576432943,7
1733299302947060700,1.1160299820661543,5.731608884298801,-0.3065641954839229,-0.3467432072676718,9.784014974343776,-0.5685166939662769,-0.2114605456590652,-0.0366225913166999,0.4141089916229248,-0.505131507178563,-0.5524180594960766,0.4730967901634363,0.4646029827717721,-0.6623110771179199,-0.150657057762146,0.2128259092569351,-0.0548564195632934,0.1117234975099563,0.0104359537363052,0.6022539734840393,0.2457231432199478,0.0541869327396154,-0.0458025187253952,-0.0909274031757377,-0.3422530562415719,8
1733299302987060700,0.3618739217083901,3.692670860865712,0.7392449069518595,-0.2641604020564816,9.788628605619072,-0.5322956260280683,0.0191778168082237,-0.0941572710871696,0.0672141835093498,-0.5075504673481444,-0.5489095936558057,0.4752239287811636,0.4639535592268069,-0.4988726079463959,-0.131512239575386,0.1715889126062393,-0.0547901391983032,0.1258475184440612,-0.0002244710922241,0.3025491833686828,0.2011979967355728,0.1205605623573064,-0.0746759474277496,-0.013599641549075,-0.7671835189089179,9
1733299303027060700,-0.6926955564185977,0.9194248754262924,0.8430957420486956,-0.2371523672141134,9.788191967767476,-0.5526490800857543,0.0999803692102432,0.0835619196295738,0.1130098178982734,-0.5074692537102703,-0.5486265686485988,0.4766404827994586,0.4629228886697339,-0.4970041215419769,-0.086622416973114,0.1047441214323043,-0.0485312342643737,0.117016464471817,-0.0015977621078491,0.0028443932533264,0.1566728502511978,0.1873889500051736,-0.103549376130104,0.0640912543015554,-1.1928336741529404,10
1733299303067061000,-0.2921196366764605,-0.261274270427227,0.7645650800388306,-0.1720564476483501,9.785708918780088,-0.617022841123119,0.2000718861818313,0.0770947635173797,0.1981916576623916,-0.5081704171139132,-0.5497185961445235,0.4788202950398571,0.4585887178143895,-0.4306069910526275,-0.0534682981669902,0.0116941332817077,-0.0407108664512634,0.1222245991230011,-0.0249674916267395,-0.7193291783332825,0.0664739459753036,0.1893441757261753,-0.30400550365448,0.0127192145858891,-1.305655020560324,11
1733299303107061000,-0.602388166571036,0.6968015304327011,0.2496281832318752,-0.0504808675961801,9.782321029907465,-0.6885154211897403,0.1529467105865478,0.0882812291383743,0.3943236470222473,-0.5096750264232377,-0.5493082946620896,0.4830785787248566,0.4529094092583945,-0.2685951888561249,-0.0147874280810356,-0.0899495407938957,-0.0439134240150451,0.1217640936374664,-0.0423327684402465,-1.441502809524536,-0.0237249657511711,0.1931611036658287,-0.5044616460800171,-0.0423847234007902,-1.416302383929491,12
1733299303147061000,-0.3085428751457482,6.391341205531359,-0.3278314399182796,0.0839366127066314,9.777899706333876,-0.7456685833238065,0.129152700304985,0.0766514986753463,0.2128078490495681,-0.5121514188293236,-0.5485340930463835,0.4869587929614757,0.4468583874721018,-0.0861769244074821,-0.006530137732625,-0.1782095581293106,-0.0263701677322387,0.1132414788007736,-0.0610073059797287,-1.978693485260009,-0.0812588632106781,0.0925958661109209,-0.6262176632881165,-0.2023673964936286,-0.8095036343745887,13
1733299303303278000,2.8933886146456,-6.299530352318286,-1.2131623225629329,-1.5664021983735263,9.68074106235206,-0.002942782303493,-1.0999248027801514,-0.455923855304718,-1.7545371055603027,-0.4801397262877679,-0.5570345444915232,0.4357322071885069,0.5189563761277298,0.4754810929298401,0.1366049796342849,-0.2308451384305954,0.0083793997764587,0.0719015300273895,-0.0709378123283386,-1.2001272439956665,0.172627717256546,-0.0583728994876379,-0.1601862907409668,-0.3194128268694505,1.2574620675384998,14
1733299303343278000,1.3958407567895947,-14.57932851243615,0.7921621850818396,-2.079984465701133,9.575148936545848,0.4007486094279214,-0.8527618050575256,-0.1056679934263229,-0.9131762981414796,-0.4749429592636254,-0.5561754006876464,0.4125971767156271,0.5430118234086749,0.6783484220504761,0.1090296953916549,-0.1174526736140251,0.025663137435913,0.065071240067482,-0.0720748901367187,-0.9561448097229004,0.1220177263021469,-0.0371849445343017,-0.0461356565356254,-0.1312496410887688,0.9186745685156434,15
1733299303383278000,1.0737515137851237,-16.507795990371704,1.5658768593251704,-2.293148492953926,9.512837149539587,0.646365693854913,-0.3216592371463775,-0.053177136927843,-0.2930355370044708,-0.4747484725860267,-0.5537120091881553,0.4005590225848119,0.5545894142608132,0.7776049375534058,0.0964063629508018,-0.1234029680490493,-0.0203177332878112,0.0518860667943954,-0.0600785017013549,-0.7635124921798706,0.1134682744741439,-0.1346247435450553,0.0002214051783084,-0.0335313173975795,0.652780017876625,16
1733299303541634800,2.00726862744987,2.6602397839844225,-0.0097533322513103,-0.794156500704214,9.759980603283644,-0.5314860266782343,0.9602972865104676,0.1749491989612579,1.6133124828338623,-0.4887664148493728,-0.5557335560990299,0.4671814005786377,0.4837449348782475,0.3672752678394317,-0.0345305055379867,-0.2925102710723877,-0.0126428008079528,0.0052452087402343,0.0241659581661224,-0.2877387404441833,0.1752487570047378,-0.1684162645150907,-0.1942761391401291,-0.1615783995853736,0.0972311064298264,17
1733299303581361000,1.0031881773926317,6.054769994318485,-2.9959856502890587,-0.2484160857620649,9.769854347044229,-0.8115434696391224,0.3652302324771881,0.2233959287405014,1.2514575719833374,-0.4954571725690217,-0.5508809757618159,0.4877574711099469,0.4616761952245207,0.5191031098365784,0.0049626808613538,-0.2645701467990875,-0.0177001357078552,0.0063163340091705,0.0348045825958251,-0.2952136397361755,0.1468388736248016,0.0467759897628333,-0.325015515089035,-0.1157395080095622,0.0028219032908702,18
1733299303621361000,0.9755587775152176,6.775527569878101,-1.7938591010034084,0.1863769051521085,9.762271929091217,-0.9130850779455154,0.1530658602714538,0.0014937736559659,0.8834051489830017,-0.5038345012584957,-0.543685435776472,0.5009596105455227,0.4467623045903933,0.5774468183517456,0.0529131069779396,-0.2211729288101196,-0.0295729041099548,-0.0071511268615722,0.0544226169586181,-0.2455507516860962,0.0747289881110191,0.0094078798145055,-0.3114214837551117,-0.1750282117344438,0.1123101272159255,19
1733299303661360600,0.8456322017237543,6.000418226405978,-0.7727565698008984,0.4442437965549528,9.755672092434764,-0.8943564851433038,-0.1269100159406662,0.0719942152500152,0.4604862034320831,-0.5103529263960941,-0.5366966265488221,0.5074999737111556,0.4403865315721575,0.5084818601608276,0.0834270715713501,-0.1548080295324325,-0.0188845992088317,-0.0207844972610473,0.0590448677539825,-0.1842477768659591,0.0373886674642562,-0.0049859717190265,-0.2709662914276123,-0.1962722214236855,0.0884441715252585,20
1733299303701361000,1.0266472327828406,3.777669111454488,0.04542443815656,0.550233689507097,9.75346026160419,-0.8588543060641736,-0.0868734717369079,0.0530880279839038,0.097850501537323,-0.5141457177033488,-0.5335040231809992,0.5090803863513502,0.4380236694594651,0.4515658915042877,0.1139617636799812,-0.119598239660263,-0.0180630683898925,-0.0175095200538635,0.0484376549720764,-0.1373601406812667,0.0296736564487218,-0.0137608143270015,-0.1943042576313018,-0.2083629836466163,0.0680671219628537,21
1733299303741361000,0.5841484167316928,1.479704304260015,0.7734709286153316,0.5664147532509639,9.754787710815668,-0.8328764727860689,0.0059913261793553,0.121095597743988,-0.0124837616458535,-0.5160593909250607,-0.5333725837258868,0.5079159074125612,0.4372846764949502,0.4529483616352081,0.1542984843254089,-0.1515345275402069,-0.007568359375,-0.0100724697113037,0.0427478551864624,-0.0904725044965744,0.0219586435705423,-0.0220668703794479,-0.117642231285572,-0.2208121308531612,0.0477171522036194,22
1733299303781361000,0.503826414325647,-0.0715314507722854,0.7747335689622908,0.5506699985651299,9.75383201752603,-0.8543407741624861,0.0962075367569923,0.0884386524558067,-0.0868667438626289,-0.5159686853419313,-0.5353371639736264,0.5069254168772028,0.436138755967156,0.4414802491664886,0.1833647489547729,-0.1924596577882766,-0.0006845593452453,-0.0204822123050689,0.0266362428665161,-0.0697021186351776,0.0252985972911119,0.0051747722893953,-0.0514159053564071,-0.2331470770955085,-0.0315972988613881,23
1733299303821361000,0.1535927345937117,0.3029430823773145,0.3608160101532935,0.5312982855537906,9.752404615071416,-0.8824533544469624,0.0171636752784252,0.1089946627616882,-0.0347782522439956,-0.5156973916255035,-0.5376699848557946,0.5058691395249642,0.4348145303026706,0.42225381731987,0.2028904110193252,-0.229881539940834,0.0115365982055664,-0.0241978764533996,0.0053503215312957,-0.0732756331562995,0.0169981326907873,0.0028927988320589,-0.0323944464325904,-0.2402040098696947,-0.0190617520130239,24
1733299303861361000,-0.9402646882288156,5.00545383360982,-0.0643231998939067,0.5443234060173854,9.75465093269348,-0.8490646603904664,-0.1901530474424362,-0.1042356193065643,0.0979098007082939,-0.5170112829351956,-0.5365695118047662,0.5053547345361599,0.4352116996508354,0.4248509407043457,0.1810696423053741,-0.2620608508586883,0.0242535471916198,-0.0282561779022216,-0.0072290152311325,-0.0768491476774215,0.0086976690217852,0.0006371288597583,-0.0133729912340641,-0.2472984981752932,-0.0064915174437686,25
1733299303901360600,-0.5157426967645063,14.43546364685893,-0.899023819367215,0.5555461897667497,9.765424840164185,-0.7058391886953264,-0.5699188113212585,0.0510018691420555,-0.179265558719635,-0.5208298121203084,-0.5320650319746046,0.5028862540151696,0.4390312593451082,0.3749409019947052,0.1464017331600189,-0.286001056432724,0.0271804332733154,-0.0454114973545074,-0.016911506652832,-0.0778517797589302,0.0033594910055398,-0.0125040922641754,-0.0123342564329504,-0.2380898672599345,0.031462128174398,26
1733299303941361000,5.078725990569591,11.35867252149582,-2.335244444274902,0.2603438577093184,9.790659234663844,-0.4956002551089972,-0.5436978936195374,-0.3485972285270691,-1.3390522003173828,-0.5187237798193652,-0.5327629239793336,0.4913575554914358,0.453494406588208,0.2973925769329071,0.0954223275184631,-0.307586669921875,0.028644859790802,-0.0590271353721618,-0.0253999680280685,-0.0649651363492012,0.0011470662429928,-0.0051215807974338,-0.0239711627364158,-0.2450857905618846,0.0423360802197828,27
1733299303981361000,5.48574670253694,1.4947148263871668,-2.4970073701143263,-0.4414632259257137,9.794545720708369,-0.2058971049897372,-0.9387596845626832,-0.2363985478878021,-2.106295108795166,-0.5070128192385285,-0.5394157645865377,0.4685386473531361,0.4821206163711614,0.2131780833005905,0.056448295712471,-0.3204966187477112,0.0194431543350219,-0.073061853647232,-0.0226214826107025,-0.0520784966647625,-0.0010653585195541,0.0022790508478879,-0.0356080718338489,-0.2521143740244209,0.053227494856622,28
1733299304021361000,3.073508450430632,-8.520197400298715,-1.3952788851231337,-1.2709741678014397,9.721489252325892,0.2183790767536498,-1.1375222206115725,-0.1032658144831657,-2.0110905170440674,-0.4960218666487572,-0.5462789987783515,0.4364000699578705,0.5148754144355867,0.1329093426465988,0.0221678186208009,-0.2931081354618072,0.0223193764686584,-0.0854032933712005,-0.022663414478302,-0.0424697399139404,0.0028465697541832,0.0072609309136867,-0.0322245955467224,-0.2576364253815263,0.1001830333042889,29
1733299304177248300,-0.3244700006611645,-8.567327984786033,1.7633336143583058,-1.7034186593607068,9.62212345368862,0.8267438152499497,0.5499122738838196,0.343400627374649,1.0940524339675903,-0.508420290780669,-0.5453874961773267,0.4005000313837994,0.5325984312416904,-0.1228270754218101,-0.0703242942690849,0.0791985392570495,0.0201690793037414,-0.0889889895915985,-0.0154130160808563,-0.0931031703948974,-0.0323237925767898,-0.0144935342069657,-0.1497651934623718,-0.176083566006273,0.1359932645524386,30
1733299304336379000,1.0839501055859029,6.085915074166655,-1.4909890838623046,0.0317475209870375,9.802605693045258,-0.2798225382264703,0.4184324741363525,-0.1005666851997375,0.2876700162887573,-0.52746571731699,-0.5412164799762853,0.4704802870391931,0.455535923366727,-0.2075622081756591,-0.0671397447586059,0.3611549735069275,0.002532422542572,-0.0147431790828704,-0.0082011520862579,-0.1831950545310974,-0.0382919386029243,-0.0529341653326991,-0.2577530145645141,-0.127610544800898,0.0961952605760656,31
1733299304376112600,0.1296486356329173,4.269462448561192,-0.5616437029242515,0.11695416276264,9.797819043290614,-0.3993294633449986,0.2206006348133087,0.007744375616312,0.1417977213859558,-0.525935015816109,-0.5421646588967887,0.4758336052733831,0.4505910666713367,-0.2723366618156433,-0.0820333659648895,0.3557792603969574,-0.0060741305351257,-0.0121253728866577,-0.0085893720388412,-0.179020881652832,-0.0100537305697798,-0.019708055126504,-0.2424487173557281,-0.0956543220997788,-0.0214196813499787,32
1733299304416112600,-0.183473164800927,1.8964812710881231,-0.6654992141962051,0.1391802422917913,9.79605261813998,-0.4340373867738992,-0.0498111881315708,0.0539923496544361,0.0415484607219696,-0.5256094434158182,-0.542687953543611,0.4770948883731026,0.4490045519098291,-0.3568363785743713,-0.0569160245358943,0.3114216029644012,-0.0267759561538696,-0.0005391538143157,-0.0041730403900146,-0.1750932484865188,-0.0188965648412704,-0.0125426707088947,-0.1932450979948043,-0.0994518694855272,-0.0352748731292784,33
1733299304456112600,-0.09902933322452,0.2451402972280979,0.3381447076072916,0.190158177256491,9.795993581429125,-0.4156573882136494,0.0167006514966487,0.2525595724582672,0.1509340554475784,-0.5287939637795481,-0.5425616640222664,0.4762556765305414,0.4463008987642861,-0.2768368721008301,-0.0335483849048614,0.3037843108177185,-0.0205893516540527,0.0283839702606201,-0.0095005333423614,-0.1711656153202057,-0.0277394019067287,-0.0050268882513046,-0.1440414786338806,-0.1036741633556783,-0.0492135282412171,34
1733299304496112600,0.2831891468490474,-0.288967748516798,-0.5116612726697698,0.2415899112701416,9.794847334003448,-0.4159427444936707,-0.038179337978363,0.4816967844963074,0.0665511563420295,-0.5327630804631985,-0.5443317990286379,0.4742468460101279,0.4415386970554354,-0.2732807695865631,-0.016603386029601,0.3025658130645752,-0.0285114645957946,0.0330301225185394,-0.008887767791748,-0.1802652329206466,-0.0331873148679733,-0.0329576822280883,-0.0965803861618042,-0.0876940655440092,-0.0384327526383101,35
1733299304536112600,-0.7194768150340766,-0.0971416928470134,-0.4514590251633897,0.3557076541636139,9.793061035108568,-0.3739415587840601,-0.060783427208662,1.6206880807876587,0.5349710583686829,-0.5454926641625161,-0.5501835313703013,0.4651492189481048,0.4282197314541355,-0.2649237513542175,0.0058188335970044,0.2893022000789642,-0.0324816107749938,0.051144853234291,-0.0107254087924957,-0.1960238218307495,-0.0335737392306327,-0.0355699105530977,-0.0493157468736171,-0.0522772266607731,-0.0466433854922652,36
1733299304576112400,-0.1596587201017886,0.0556324553728103,-0.8468132282018661,0.6531633911710232,9.780795427775384,-0.2825023336286656,-0.23345747590065,1.999194622039795,0.7655915021896362,-0.5699885049757959,-0.5578553414318909,0.4507782476364018,0.4008859243343549,-0.2252317517995834,0.0150935593992471,0.247280552983284,-0.0341843962669372,0.0633689761161804,-0.0258762091398239,-0.2182545959949493,-0.0264992229640483,-0.081185414302349,-0.0218589976429939,-0.030423779836297,-0.0624104981403797,37
1733299304616112600,0.3928153687432408,-0.0387765976399183,0.0130781018930021,0.9440469832465052,9.760431854182482,-0.1145320593154057,-0.2798466980457306,1.4769057035446167,0.6132809519767761,-0.5941271545813429,-0.561717398568293,0.4362488670207028,0.375730388138241,-0.2045560330152511,-0.0029480794910341,0.1613994091749191,-0.0159785151481628,0.070335566997528,-0.0270622968673706,-0.2164457291364669,-0.0170671474188566,-0.0949415524542331,-0.0072168251499533,0.0155205905411392,0.0053090661935508,38
1733299304656112600,0.8037748814642429,0.1984913587778806,-0.5740080944567918,1.128046510009095,9.74148457712829,0.036809284188901,-0.3667388260364532,0.9087958931922911,0.2998709082603454,-0.6106462863655651,-0.5631623931967744,0.4254072961963459,0.3591486634375294,-0.2506431043148041,-0.0085066296160221,0.0472762957215309,-0.0351282954216003,0.05957692861557,-0.0225797146558761,-0.2146368622779846,-0.0076350728049874,-0.108690676343441,0.0074253473430871,0.0613772095698863,0.0729001818422228,39
1733299304696112600,-0.4135271712519228,0.0376087229043245,-0.7751093434721231,1.2324939227595924,9.724897599464654,0.2787617405945435,-0.6383934617042542,0.9066815972328186,0.3545028567314148,-0.6255108201992009,-0.5603009390227442,0.4145479035839454,0.3506410264254244,-0.2343243211507797,-0.0031815851107239,-0.0299671608954668,-0.0337482094764709,0.0630282461643219,-0.0183794945478439,-0.2098948061466217,0.0032153483480215,-0.074678516626358,-0.0068747317418456,0.1347550188612192,0.0657099050119519,40
1733299304736112600,-0.4688346324540674,0.1084884317696094,-0.8940637127418071,1.3874597358047962,9.687387076237798,0.6323473976355045,-0.8569637537002563,1.1875696182250977,0.5290536284446716,-0.6455377707606887,-0.5538844410438467,0.401212264104766,0.339884811223047,-0.1842036247253418,0.0002916559460572,-0.0250542275607585,-0.0295166373252868,0.0571781396865844,-0.0092453807592391,-0.2133810967206955,0.010330831632018,-0.076302902957797,-0.032895877957344,0.1836827889636159,0.0385294910110533,41
1733299304776112600,-0.3526932017132639,0.1717085657924413,-0.6510189995534718,1.5526371462628243,9.63344388912618,0.9779771637685596,-0.5305622220039368,0.8270697593688965,0.3817970752716064,-0.6659043229849736,-0.5478554369027279,0.3872873109538107,0.3262426911422469,-0.1795505583286285,0.0382354147732257,-0.0153890829533338,-0.0360821485519409,0.0456850528717041,0.004553884267807,-0.2168674021959304,0.0174463149160146,-0.0778968941509723,-0.0589170232415199,0.2324227083437144,0.0112579646605998,42
1733299304816112600,-0.8252262502938509,-0.2456575991004705,-0.2574871531039476,1.6780111002512277,9.591125088834762,1.168331320254877,-0.2687120139598846,0.812782883644104,0.5265573263168335,-0.6781220229774647,-0.5443348618321021,0.3796462039981351,0.3157829992366094,-0.099267691373825,0.0805898532271385,0.0138122113421559,-0.03225839138031,0.0509564578533172,0.0031463503837585,-0.2288181036710739,0.0091271884739398,-0.018871873730421,-0.0842454805970192,0.2919118391446769,0.0056711044389754,43
1733299304856112400,-0.7223750937588512,-0.8000701817274093,-0.4161201103545725,1.9064574523098765,9.52094914432466,1.3738006282866,-0.3975165486335754,1.688035249710083,0.9913084506988524,-0.6953181734218925,-0.5419400461216802,0.3691295801515749,0.2942396088116276,0.0435549728572368,0.1186219751834869,0.0250412300229072,-0.0281177759170532,0.0616061240434646,-0.0024129599332809,-0.2530703842639923,-0.0137083902955055,0.0146194769829511,-0.085022322833538,0.3077534052684903,-0.0295658478327095,44
1733299304896112600,-0.7966052820958197,-1.0483043533176184,-0.4874824881702661,2.2343233790196475,9.383268520340325,1.769876606260985,-0.6960686445236206,2.5596933364868164,1.4531331062316897,-0.7239705390720983,-0.537185616376302,0.348127874732157,0.2571095215335581,0.1131819859147071,0.1314354985952377,0.0190151631832122,-0.0052318572998046,0.0570208579301834,-0.0001948773860931,-0.3045298159122467,-0.0113286906853318,-0.0492395394653081,-0.0864240974187851,0.2983446486711502,-0.0854495014876127,45
1733299304936112600,-0.2983887800738215,-0.6522071864247322,-0.9414058210879565,2.5758731092974543,9.16494082671404,2.353535887768865,-1.2422021627426147,2.36530876159668,1.4587825536727903,-0.7575321584016016,-0.5254377655482961,0.3223634938958706,0.21480703770678,0.0985199511051178,0.1530791223049163,0.0003115166909992,-0.0178170204162597,0.0473083108663558,-0.0067385137081146,-0.3608190417289734,-0.0011369464918971,-0.0701531481564044,-0.0826861187815666,0.2791009094210341,-0.0908370397448539,46
1733299304976112600,-0.1341258541122078,-0.5810767176687717,0.5096022577807306,2.8316429370895024,8.871897207060456,3.0727213917061684,-1.2778658866882324,2.018970966339112,1.2662662267684937,-0.7900114270687356,-0.5045315113438845,0.2979643629683561,0.1804082366648155,0.1949245184659958,0.1720064282417297,-0.0233948118984699,-0.0187076926231384,0.0560338944196701,-0.0125737488269805,-0.4191778004169464,0.0205171592533588,-0.1167705224245786,-0.0968549251556396,0.223235631673038,-0.1514583894461393,47
1733299305016112600,0.0762260383293032,-0.3733832307815551,1.19730628952235,2.98341375348568,8.590881294330954,3.669656480503082,-0.9122056365013124,1.692365646362305,1.0610060691833496,-0.8154407396195876,-0.4868744952219141,0.2754138888320472,0.1488513781602535,0.2648101449012756,0.1778965294361114,-0.0567600913345813,-0.0232153534889221,0.0443317592144012,-0.013552963733673,-0.4800348281860351,0.0268571581691503,-0.1241349137127399,-0.1100093275308609,0.1615203492552042,-0.1330241764806211,48
1733299305056112600,0.1036933064475655,-0.3014081278949976,1.0786623744413255,3.0731127291113136,8.342932369422913,4.137853837966919,-0.7589978575706482,1.5193997621536257,0.92751282453537,-0.8342818296276651,-0.472204913901645,0.2570032820579368,0.1222520749187536,0.2615967690944671,0.1800198853015899,-0.0731889978051185,-0.0250771641731262,0.0338309407234191,-0.0160306394100189,-0.5408918857574463,0.0331971570849418,-0.1311871703118085,-0.1231637299060821,0.0985100585907697,-0.1151325459592044,49
1733299305096112400,0.1274739950075745,0.1700900246798992,0.6790420018583536,3.102303752282262,8.105468013650178,4.565905355264246,-0.7962567806243896,1.557985544204712,0.8263393640518188,-0.8504098419730849,-0.4584440941191709,0.2388150387735136,0.0979774521687548,0.2716877460479736,0.1544981151819229,-0.1148566827178001,-0.0181798934936523,0.0290925204753875,-0.0144712924957275,-0.5645275115966797,0.0246635824441909,-0.0268108500361442,-0.1412507742643356,0.1011938177820295,-0.0866764129340648,50
1733299305136112600,0.1202668401077389,0.2921229976773262,0.1004582700490951,3.0619264414474365,7.848612144187093,5.019392342591285,-0.924646258354187,1.0657801628112793,0.5834936499595642,-0.8660643602091684,-0.4426804994244617,0.2193540423037169,0.0764884014430351,0.2075018286705017,0.1357095539569854,-0.1595060527324676,-0.0059532523155212,0.016737937927246,-0.0079093426465988,-0.5601932406425476,0.0089936628937721,-0.0228869545906782,-0.152260884642601,0.1033014210531488,0.0241067056439816,51
1733299305176112600,0.1395429107248783,0.2770668828427791,1.116480648443103,3.0321760308280585,7.626493241584301,5.367765635278821,-0.6670872569084167,0.8395199775695801,0.385033369064331,-0.8771504119943586,-0.4277622841798782,0.2081814976023057,0.0654768649153982,0.1921740025281906,0.0982109755277633,-0.2014530897140503,0.0162047147750854,0.0084919333457946,-0.0104682296514511,-0.5169693827629089,-0.0001700054854154,-0.0087403558164834,-0.1098562628030777,0.1299404947189614,0.1956291012145578,52
1733299305216112600,0.0025926468417048,0.0462269136458635,0.3394154947280883,2.9443703216031194,7.437598563191294,5.6730228398174045,-0.6407876014709473,0.8324059247970581,0.4005800187587738,-0.8868504981851755,-0.416153583548413,0.1938363207627932,0.0523429931090308,0.161588653922081,0.0924864634871482,-0.246972769498825,0.0158063173294067,-0.0083249509334564,-0.0032830983400344,-0.4438788890838623,-0.0030247597023844,0.005175356811285,-0.0621711276471614,0.1779416880283504,0.2074569016523659,53
1733299305256112600,0.3877078164711594,0.1518231311053037,0.6209878722965717,2.912549534450472,7.270052377775311,5.902014550799131,-0.4920859932899475,0.3172082304954529,0.1683503985404968,-0.8937456007205381,-0.4050574709544724,0.1871081145595808,0.0462362973429851,0.1723273247480392,0.0865359455347061,-0.2581969201564789,0.008832573890686,-0.0242005586624145,0.0011111497879028,-0.3893622457981109,-0.0023321863263845,-0.0388695366203784,-0.0638106539845466,0.2030392678732052,0.0508478514447808,54
1733299305296112600,0.8806731199666857,-0.2712117270737886,2.74952374906838,2.7832036080911755,7.189855389988422,6.060539225369691,0.0630054846405983,1.3513532876968384,0.3255689740180969,-0.8987087216059976,-0.4008468906423936,0.1741271374998349,0.0363871827850707,0.212710440158844,0.0992987751960754,-0.1846729815006256,0.0033017396926879,-0.040867269039154,0.0084425956010818,-0.357887327671051,0.0046382532455027,-0.0747077427208423,-0.0743803232908248,0.2401821268314495,-0.0026361937224864,55
1733299305336112400,0.2295893846139311,0.0933931539684534,-0.7229670683026314,2.6289377600088715,7.139789336571097,6.187283444797992,-0.2300829291343689,0.4583545625209808,0.1106747165322303,-0.9026816349191812,-0.3988384506829514,0.1595751142409583,0.0250903460812324,0.2213910073041916,0.109916366636753,-0.0368949770927429,-0.0163733959197998,-0.0517201423645019,0.0069747418165206,-0.3504158854484558,0.0176538079977035,-0.0687590634495019,-0.049154981970787,0.2503895412595011,-0.0153317169055342,56
1733299305376112600,-0.361695423336327,-0.2201420495718717,-0.1675999614298343,2.5610689233973623,7.0880591493338345,6.274609846073389,-0.0958902835845947,0.5438893437385559,0.1494608521461486,-0.9052457300521448,-0.3956366211483588,0.15347829758096,0.0211239338781708,0.1879379749298095,0.1346277892589569,0.0960905104875564,-0.0176196694374084,-0.030423104763031,0.0003331899642944,-0.3429444432258606,0.0306693632155656,-0.0627636224269866,-0.0239296425133943,0.2602297663429752,-0.0283583717390894,57
1733299305416112600,0.0671107117205858,-0.1868091042906045,-0.5911947915792465,2.396971709391474,7.017316218590736,6.417334309443831,-0.3010885715484619,1.167872667312622,0.3632494807243347,-0.9094599928623164,-0.392083083400693,0.138122651499302,0.0086856114594372,0.2744920551776886,0.1421149969100952,0.1512357145547866,-0.0161511301994323,0.0055010020732879,-0.0029244422912597,-0.350389152765274,0.0404093079268932,-0.0671639032125473,-0.0177955292165279,0.2432029724899679,-0.0544784630320966,58
1733299305456112600,-0.5141603594765067,0.2917892356783151,-0.8003671188473701,2.277789303519577,6.883333864602446,6.603163755047321,-0.3850919902324676,0.5242159366607666,0.3172287344932556,-0.9146898443244776,-0.384122157534404,0.1256284097914723,-0.0031862386350995,0.3830007016658783,0.109953224658966,0.1575848311185836,0.0069936513900756,0.021493375301361,-0.001605674624443,-0.3578338325023651,0.0501492507755756,-0.0715776280015706,-0.0116614159196615,0.2260438574941828,-0.0808263717316091,59
1733299305496112600,-0.2108570654846727,-0.1663905856400728,0.5763339070558547,2.2348552939392623,6.778277745369076,6.725382021483779,-0.2232098877429962,0.5235174894332886,0.3357689380645752,-0.9180157089537212,-0.3780296051120125,0.1191409026122517,-0.0120961042260567,0.2690237760543823,0.1067514196038246,0.1180900186300277,-0.0146368741989135,0.0059208869934082,-0.000673770904541,-0.3615722954273224,0.0619459003210067,-0.0595341389864683,-0.0110190790146589,0.1898209446587599,-0.0020152853451669,60
1733299305536112600,-0.2942499267034232,-0.3977981255918741,2.4028537531673906,2.228166463825106,6.735698832836746,6.770230047991872,0.1458284854888916,-0.1195663064718246,0.0924994051456451,-0.9191411035674916,-0.3760444040094065,0.115779650912034,-0.019112199526021,0.3310240507125854,0.085538163781166,0.0901292189955711,-0.0124826431274414,0.0403647720813751,-0.0044448375701904,-0.346498966217041,0.0714615806937217,-0.0196323367089033,0.0043074423447251,0.1811215601734817,0.0961883376449346,61
1733299305576112400,0.6010024843662977,0.2255442008763551,-0.3912970731347799,2.241812565731257,6.748166684743762,6.753288850063085,-0.2109745144844055,-0.0044366926886141,-0.1398223787546157,-0.9187319242169514,-0.3765388262323197,0.1178838225981831,-0.0159266530707301,0.265935868024826,0.0471266992390155,0.0414959043264389,-0.0043132305145263,0.0315635204315185,0.0076386928558349,-0.3286298513412475,0.0544475764036178,0.0481891536295414,0.0208073332905769,0.2023382617306895,0.124909551347047,62
1733299305616112600,1.127119092965871,1.390382929775119,-0.3901473185777664,2.208901499123871,6.657127400425076,6.853743028458952,-0.4233156740665436,0.0891537368297576,-0.1318774819374084,-0.9215717440650616,-0.3698590162583097,0.1173058550612301,-0.0122124206298148,0.1356934159994125,0.0451137721538543,-0.0316723138093948,-0.0002363324165344,0.0282462835311889,0.0233903527259826,-0.3378052711486816,0.0464089587330818,0.0788286220431327,0.0212986301630735,0.24299159476161,0.106583182670176,63
1733299305656112600,1.624655942160636,1.6289982091486452,1.263891808325052,2.103864084590972,6.6342895456731314,6.908714974096417,0.1028114855289459,0.1548653393983841,-0.2512658536434173,-0.9231285470703692,-0.3675150279509492,0.1126332937268418,-0.0089580277549199,0.1629620492458343,0.0795632004737854,-0.062928706407547,-0.0030325055122375,0.0372902154922485,0.0240965336561203,-0.3469806909561157,0.0383703410625457,0.1094587381064891,0.0217899270355701,0.2837316014289855,0.0880871565148234,64
1733299305696112600,1.1105119492970406,1.4271850124716758,0.6835784762442112,1.9901288382090627,6.742578655478358,6.837207488721608,0.4858336746692657,0.2059127986431121,-0.1601428091526031,-0.921161229031914,-0.3741170172915878,0.1069387519313719,-0.0079132962213486,0.2388927638530731,0.1232826635241508,-0.0274104587733745,-0.0068857073783874,0.0293236076831817,0.0288895368576049,-0.3686065375804901,0.0273228846490383,0.0964285761415958,0.0129847843199968,0.2805245124833658,0.0733491677187383,65
1733299305736112600,0.1289059275068342,0.7198030513137579,-0.2257131277024746,1.8931470120988785,6.895853154435754,6.710707014921307,0.4263249039649963,0.1400866061449051,-0.2294896841049194,-0.9176659325669267,-0.3838441896597049,0.1025319015270411,-0.0063400699795206,0.3928762376308441,0.1691405326128006,0.0066708787344396,-0.0254533886909484,0.0412938892841339,0.0263118743896484,-0.3983909785747528,0.0211637951433658,0.0723100339293479,0.0008867578580975,0.2871039639389142,0.1282918872617185,66
1733299305776112600,0.4340973733328283,3.0244401758790014,-1.3409247791230678,1.5830175253488123,6.938880395257472,6.746582630422711,-0.631703794002533,0.8107361793518066,-1.2240194082260132,-0.9186838121316347,-0.3850757811493682,0.0879582185187389,0.0002450448383621,0.4309623539447784,0.1843192279338836,0.0296258609741926,-0.0115315914154052,0.0380885303020477,0.0317203998565673,-0.4126243889331817,0.0280331224203109,0.035617841348052,-0.0001626543235033,0.2750004152996465,0.2116486542537808,67
1733299305816112600,-1.56557451537773,1.1424573857426643,-0.8554887020885944,1.1486840782377867,6.75840809277296,7.012476961866021,-0.9378138184547424,0.1834964007139206,-0.7347204089164734,-0.9258292140842856,-0.3706982309510782,0.0710351370401465,0.0194223072417928,0.3832992315292358,0.1931485086679458,0.0116872750222682,-0.0132088065147399,0.0334684252738952,0.033414751291275,-0.367585688829422,0.0314453355967998,0.028204350221157,0.0001019608462229,0.2742899289427325,0.3856548294641077,68
1733299305856112400,-1.7346553630150854,0.4863111063033342,-1.6064672283887862,1.185186082009226,6.50834845932126,7.239276131239533,-0.780032217502594,-0.251949280500412,0.7465028166770935,-0.93203815797431,-0.354464236583745,0.0724896778813353,0.0201302997589337,0.4103710651397705,0.2276477515697479,-0.0282922983169555,-0.0237278342247009,0.0402664989233017,0.0326036363840103,-0.2572569251060486,0.0515730679035186,0.0052618660509586,0.011883239261806,0.3437647394461557,0.3973344536028802,69
1733299305896112600,-2.171451620043069,-0.31283611536026,-2.46680746216178,1.5862189517386256,6.220977624607086,7.413078454440832,-0.7784693837165833,-0.3826881349086761,1.612080216407776,-0.9369956383257444,-0.3384142819506463,0.0866830930163501,0.0010254368780163,0.462928295135498,0.2346782237291336,-0.0440247878432273,-0.0131045579910278,0.0370959788560867,0.0369937270879745,-0.1547728031873703,0.0511007346212863,0.1019528925210237,-0.0197706222534179,0.5436552609648555,0.1596928415670991,70
1733299305936112600,-2.340735735167563,-0.9922235696554184,-3.1307828277915712,2.2374857885733244,5.817586793574691,7.570979444155096,-0.8030270338058472,-0.7310914993286133,2.5325827598571777,-0.940728636853054,-0.3190888189128819,0.1103168004973288,-0.0322852126833682,0.4568418860435486,0.1981456726789474,-0.0450833961367607,0.008354902267456,0.0286892056465148,0.045331597328186,-0.0417636483907699,0.0096911787986755,-0.0385486341029405,-0.0414045825600624,0.7942647103190421,0.018763737180829,71
1733299305976112600,-1.7357886048287152,-0.4513847543507814,-1.9130992284119128,3.142980630585551,5.340793457201123,7.600525272113084,-0.2240034639835357,-0.7879499793052673,3.08408260345459,-0.9387658862509722,-0.3022880512772435,0.1452686919341063,-0.0789780509240215,0.4013693034648895,0.1147566065192222,-0.0588302314281463,0.0447402596473693,0.0287285596132278,0.0519322901964187,0.0712454989552497,-0.0317183807492256,-0.1790004763662815,-0.0630385428667068,1.044853774472326,-0.122191378429532,72
1733299306016112600,-1.5162310771465302,-1.41378601719439,-2.355564178726077,3.9572693072795855,4.885677699628472,7.525992301437258,0.2585184574127197,-0.114069290459156,3.644565343856812,-0.929730638313176,-0.2938044693789965,0.1730898938662949,-0.1389958682295083,0.2385436296463012,0.0139841921627521,-0.116664171218872,0.0410508513450622,0.0067323148250579,0.0715799927711486,0.1659301370382309,-0.0858639180660247,-0.3180740160137414,-0.0612615421414375,1.2457657845258712,-0.2342532847717404,73
1733299306056112600,-0.3962716466769576,-1.6081784162208437,-2.2943641523540017,4.626526412704587,4.306443394955992,7.498011823099851,0.3396905958652496,0.5031741261482239,4.066111564636231,-0.914874507554225,-0.2845777723612548,0.1916331612825102,-0.2128307853563146,0.0900558978319168,-0.0614847317337989,-0.1723235696554184,0.0162618160247802,-0.0118095874786376,0.0855360627174377,0.281474232673645,-0.0545081458985805,-0.4091606466054916,-0.0134166441857814,1.3021616254866122,-0.3433019807726145,74
1733299306096112400,-0.7691407904565334,-1.7123878554970025,-0.7652747626781463,5.009870481008291,3.694337625034153,7.577825949048996,0.8057140111923218,1.1132317781448364,3.858471155166626,-0.8950834007315172,-0.274323163883768,0.1959214069776461,-0.2918685901273917,-0.0169802755117416,-0.0910200402140617,-0.1715857982635498,-0.0027052164077758,-0.028466373682022,0.0959399193525314,0.377394825220108,-0.0119377113878726,-0.4907645785808563,0.1107664704322815,1.2482337820746003,-0.9473239590905608,75
1733299306136112600,0.5983785656034946,-1.7753505076274274,-0.040960955941677,5.050141701120138,3.3218548502236604,7.722159016659855,1.4814265966415403,1.861789345741272,3.182288885116577,-0.8713398506616723,-0.2707816016869545,0.1815400791579137,-0.366725258908457,-0.0565833449363708,-0.1490229368209839,-0.0926764830946922,0.0057740807533264,-0.0275323688983917,0.0959064364433288,0.3761572539806366,0.1284185647964477,1.1168693554997444,0.1649469882249832,1.080404322737828,-0.8886565199360251,76
1733299306176112600,0.9073743721485136,-1.729781765629351,0.0354804787039756,4.768529576063155,3.346915641722083,7.888578243872523,2.166337728500366,2.1951937675476074,2.2927138805389404,-0.8461147746881128,-0.2763493484312588,0.1463744089450401,-0.4316195875721686,-0.1562138050794601,-0.261868417263031,-0.0238274428993463,-0.0050489902496337,-0.030868113040924,0.0714703947305679,0.3169294893741607,-0.1365513205528259,0.924274653545022,0.5357111692428589,0.6393648021169006,-0.7164394200995564,77
1733299306216112600,-0.8660013282746076,-0.2621291336908936,-2.1736042680323124,4.878384327749908,3.498191952599585,7.75463797546029,-0.3165624439716339,-0.9087623357772828,0.7035208344459534,-0.8260069209021672,-0.2927729189310213,0.1375046480274616,-0.4616157184307987,-0.5697705149650574,-0.2216915488243103,0.0920911058783531,0.1855690479278564,-0.0168996155261993,0.1167882084846496,0.2914552688598633,-0.0089581161737442,0.2959825957149267,1.0274711847305298,0.2011744603820145,-0.316607158331573,78
1733299306256112600,-0.871280437721312,-1.2015978492364288,1.666375461384654,4.776672258247435,2.7787781928643582,8.101368761637806,-1.2675960063934326,1.4348522424697876,1.4544565677642822,-0.8268604828961678,-0.2560454694007562,0.146239062455155,-0.4789118425061118,-1.0761417150497437,-0.3038500845432281,0.1879475861787796,0.13955157995224,-0.0524148941040039,0.0703481435775756,0.2659810781478882,0.1186351031064987,-0.3138298025727272,1.519231200218201,-0.2415499811185523,0.080401789643988,79
1733299306296112600,0.9456126251280308,0.3542693649888038,0.5010118318289518,4.427724088281392,2.2106688010573388,8.466320848682523,-0.6098824143409729,1.202542781829834,1.4462270736694336,-0.8191769384629574,-0.2228037769021376,0.1367342385106134,-0.5105010619267033,-1.2330392599105835,0.1202160343527793,-0.1126137673854827,-0.1484243869781494,-0.0645282864570617,0.0107219815254211,0.2186846137046814,0.2717165946960449,-0.6057184069722891,1.802567958831787,-0.5299119822945445,0.231467745706439,80
1733299306336112400,-1.8974632678627967,0.6561760900557041,-0.6317062501877546,4.285529494003951,1.7761827206678686,8.64001152820289,-0.8523432612419128,0.3218843340873718,0.5347016453742981,-0.8145073646298611,-0.2007198815027138,0.1385407950034562,-0.5263987574193693,0.1304182261228561,0.3715142607688904,-0.1854470372200012,-0.1143895387649536,0.0501918792724609,-0.122682861983776,0.09906517714262,0.2835820615291595,-0.4359785109043121,1.8697185516357424,-0.6412229241389781,0.1491108764719217,81
1733299306376112600,-0.2056754250630736,0.0404896851681172,1.2180553553014992,4.197857055769861,1.542676162610203,8.727458340987562,-0.0524939820170402,0.5934407711029053,0.1159303113818168,-0.8138467125825533,-0.1881507936882159,0.1400811613485359,-0.5316297121874703,1.0407581329345703,0.2574920654296875,0.0517573952674865,-0.0268522500991821,-0.031738668680191,-0.1211389899253845,0.0231164693832397,0.1946429759263992,-0.3672977733880281,1.6309895515441897,-0.6416596350558101,0.2398980126604437,82
1733299306416112600,-0.2097542188093066,-0.805109929460287,0.395261885112524,4.171559415952861,1.5742472127854823,8.734427595478296,-0.1648669391870498,-1.1612056493759155,-0.0112657332792878,-0.8134389866201631,-0.1888925932052882,0.1377959164304368,-0.5325871279619082,0.3358691334724426,0.0325271449983119,0.3466904163360595,-0.0040182471275329,-0.1535084843635559,-0.1078055053949356,-0.0528322383761405,0.1057038977742195,-0.2559101130455732,1.3922605514526367,-0.6423950366582721,0.335446444966644,83
1733299306456112600,0.3356272083610296,0.4944767309717833,2.589005854853988,4.610194871106744,1.5796502408728,8.510064128819108,0.4166394472122192,-0.8337751030921936,-0.0680450424551963,-0.8097273221273829,-0.2025945898935538,0.1583127063284528,-0.5274790061277188,-1.0409475564956665,-0.1313765197992324,0.454131543636322,0.0143379569053649,-0.1538997292518615,-0.1131970211863517,-0.006515733897686,0.113973781466484,-0.4052455189883708,1.187021255493164,-0.682896704525128,0.6551862022355198,84
1733299306496112600,-0.973062942111492,-0.0569919071577489,2.4487422286391256,4.813362405002117,1.577160323753208,8.397290567076206,-0.4149985611438751,-0.1142701581120491,0.2415025681257248,-0.8064932375527022,-0.2092146183099936,0.1675904882368193,-0.5269832197066896,-1.0652934312820437,-0.1856236159801483,0.3473075032234192,0.0354118943214416,0.0167927592992782,-0.0969608947634697,0.0512873828411102,0.1434922218322754,-0.4258066609799861,1.0257831811904907,-0.6614991117093711,0.6433546024054289,85
1733299306536112600,-0.4556155237883329,0.6038960138507187,2.660570038852096,4.788821253463626,1.430726338340342,8.437451897072792,-0.0522376932203769,0.0340489782392978,0.2205794900655746,-0.8052646128649246,-0.2024751442503991,0.1697453497946719,-0.5307911175062927,-0.4838055074214935,-0.1415044218301773,0.221943587064743,0.0234403014183044,0.0349407345056533,-0.0803292319178581,0.0691171661019325,0.1489772945642471,-0.3610474808216095,0.8425722718238831,-0.5972325373735279,0.440376453602314,86
1733299306576112400,-0.745709645986557,0.0713176618911325,2.011530376547575,4.792359364461898,1.4431646718919275,8.433324003487824,0.1996763050556183,0.1460020244121551,0.1647409796714782,-0.8030737760728868,-0.2038173127796107,0.1687561518259334,-0.5339030364579997,-0.0946764051914215,-0.0708105340600013,0.2210058867931366,-0.0207794308662414,0.0094279646873474,-0.0687686800956726,0.0869469493627548,0.1544623672962188,-0.2854986111015081,0.6593613624572754,-0.5346805849358439,0.2406368483290076,87
1733299306616112600,-0.3802572082042694,0.2662437294028699,1.353479724791646,4.734561547748744,1.4813738449074327,8.459305416962504,0.3303137719631195,0.2095052152872085,0.3297885358333587,-0.7999646895649659,-0.204788762187,0.1635757558138225,-0.5397788234986498,-0.1278982758522033,-0.0822248980402946,0.2974210977554321,-0.0443181991577148,-0.0246530175209045,-0.0404130220413208,0.0906810313463211,0.1721726506948471,-0.1731423979878425,0.5546824336051941,-0.4476534588679671,0.0896460763946175,88
1733299306656112600,0.2001899793893098,0.3430472753591835,-0.0143979431867599,4.686675176458061,1.481932940094918,8.48583160483837,-0.170078694820404,0.2106391638517379,-0.0014419915387406,-0.7981935457886533,-0.2039489058443085,0.1604613594769242,-0.5436396138925902,-0.3304945230484009,-0.1267746239900589,0.3551882207393646,-0.0330080986022949,-0.0081389546394348,-0.0209550261497497,0.0944151207804679,0.1898829340934753,-0.0557832620203495,0.4500035047531128,-0.3620588498212397,-0.0597027735516428,89
1733299306839990000,-0.1600593367919325,-1.0154634293369948,0.852061650249362,4.114382653747499,1.4416311787143348,8.784300756672025,0.3220086991786957,-0.3029280602931976,0.0679984241724014,-0.8112315235797084,-0.1820408109577396,0.1377912973870842,-0.5383105494258419,-0.2511767745018005,-0.0954591631889343,-0.015708727762103,-0.0167772769927978,0.0037034898996353,0.0026891380548477,0.127395749092102,0.0866941958665847,0.2037958583941683,0.0877003818750381,0.0305501096297055,-0.2725571685996837,90
1733299306879990000,0.2319789100989699,-0.2807442561812698,0.5059264918774367,4.200885463680327,1.528422742460668,8.728509311345219,0.2828184962272644,-0.0625585168600082,0.2202962189912796,-0.8071051232042316,-0.1893637032889209,0.1382435244313724,-0.5418593229294179,-0.264735460281372,-0.0868939012289047,-0.0287596825510263,-0.0116081237792968,0.0141200423240661,-0.0044094175100326,0.134544625878334,0.0818520560860633,0.1570224533140659,0.0759953036904335,0.0551892416499555,-0.2229547689050436,91
1733299306919990000,0.1856111266776919,-0.2459209262117743,0.0969324340105056,4.150288079865277,1.5036249858126045,8.756974942851066,-0.1463254690170288,0.3849572539329529,0.2532444298267364,-0.8048114375489754,-0.1873900245017692,0.1356595976272111,-0.5465894016949503,-0.1186174228787422,-0.0794071108102798,-0.0060432516038417,-0.0133377909660339,0.0224653482437133,-0.0093232989311218,0.1151208132505416,0.0710405632853508,0.1033867247164249,0.0837247371673584,0.0594867196481674,-0.1753317247256636,92
1733299306959990000,0.2332686576485633,0.0248470026172697,0.4231301352471113,4.103528374516964,1.4574631002269685,8.786765100958943,0.1992401629686355,-0.217871680855751,0.1269707232713699,-0.8031475701174824,-0.1844304991629018,0.1341083258350261,-0.5504130148309253,-0.1071304082870483,-0.0672415271401405,0.0049583334475755,-0.0225496888160705,0.0069852173328399,0.0003505945205688,0.0956970006227493,0.0602290667593479,0.0498047721326351,0.0914541631937027,0.0636563334830105,-0.1277154025480151,93
1733299306999990300,0.030061960786581,-0.1458085469909012,-0.1102414129167795,4.164579347807169,1.5227737767882643,8.746874989119172,0.1684448421001434,0.0354220420122146,0.1344803571701049,-0.799461335746004,-0.1899501722385278,0.1339866239136896,-0.5539207101504469,-0.0942596197128295,-0.0568698979914188,-0.0026963907293975,-0.0108656883239746,0.0112307518720626,-0.003078207373619,0.0705186426639556,0.061568196862936,0.0404360552847385,0.1232500523328781,0.0624918928135186,-0.0978147698029875,94
1733299307039990300,0.8135334744125604,0.3794467686042189,-0.104867318663001,4.098769781813025,1.5100274002008138,8.780107396635414,-0.072963111102581,0.3700744211673736,0.0773645192384719,-0.7982562247687571,-0.1877215680923607,0.1307658744560632,-0.5571785422643766,-0.0776489526033401,-0.0240461751818656,0.0045340252108871,-0.0070352554321289,0.0120748132467269,-0.0005838274955749,0.0453402884304523,0.0629073306918144,0.0312526318758726,0.1550459563732147,0.0611490268371999,-0.0678574384346604,95
1733299307079990300,0.3006269143894314,-0.1268102704018354,-0.4316062871694565,4.013724184951186,1.4696582726724443,8.826126220488547,-0.0735660418868064,0.116585835814476,0.1167736873030662,-0.7985745314704781,-0.1833652169653429,0.1279452390631083,-0.5588256078697895,-0.0095817493274807,0.0025134780444204,0.0042493995279073,-0.0082883834838867,0.0169862061738967,-0.0063259154558181,0.0124484486877918,0.0514237433671951,-0.0327367329537868,0.1910300850868225,0.0609981471244245,-0.0446773461163043,96
1733299307119990000,0.2052469705179333,-0.2512387602336705,-0.3234101163446903,4.045658077089488,1.4511827047832309,8.81459594169259,0.054253727197647,-0.2750499546527862,0.1097372099757194,-0.7972838787592398,-0.1838299552069318,0.1295655166649671,-0.560140796656023,0.0413280390202999,0.0109213963150978,0.0157589167356491,-0.0119582414627075,0.0133905410766601,-0.0130289196968078,-0.0097543038427829,0.042134866118431,-0.0272954186826944,0.1904458105564117,0.0533352112811058,0.0287841959357261,97
1733299307159990000,0.681439710649848,-0.0496063269510865,0.138976509013772,4.131055263867974,1.472510301102698,8.771344244465231,0.0645589902997016,-0.0191333666443824,0.0652433708310127,-0.7953150946870942,-0.1877764652077526,0.1323854350348307,-0.5609705273773342,0.0413781069219112,0.0050729890353977,0.0045641851611435,-0.0169486999511718,0.0101432651281356,-0.0139424055814743,-0.0319570526480674,0.032845988869667,-0.0213595988929271,0.1898615360260009,0.0456620463047176,0.1025067270115017,98
1733299307199990000,0.3959285323277116,0.0747936674386262,-0.6167571028590202,4.102626457241177,1.448816267912835,8.78861569726169,-0.1341505646705627,0.1023411229252815,0.0407769232988357,-0.7951365915275426,-0.185945929145284,0.1316411896726704,-0.5620075131502437,0.0131485974416136,-0.0051995692774653,-0.0061388593167066,-0.0065234303474426,0.003691479563713,-0.0115382522344589,-0.0351391620934009,0.031779944896698,-0.0614782587915658,0.1771308928728103,0.0171605397678911,0.1557701151654124,99
1733299307239990300,0.4528182942852378,0.1616471905052662,-0.0465408019006252,4.092423919917643,1.420770469254255,8.797946420186758,-0.0279310550540685,-0.0552024953067302,-0.0662590786814689,-0.7957077696138058,-0.1843046954109242,0.1321413576772988,-0.5616223792182491,0.0593669600784778,-0.0059371581301093,-0.0054315901361405,-0.0009562969207763,0.010190725326538,-0.0056695342063903,-0.0422948189079761,0.0196497999131679,-0.0726297674030065,0.1496642082929611,0.0339336145881563,0.1386795718938112,100
1733299307279990300,-0.0663794748365879,0.001213029051572,-0.1457388427555561,4.129938242536783,1.4279757244579494,8.779230029278994,0.0105082150548696,-0.1755595505237579,-0.0386642701923847,-0.7961774263301097,-0.1856313159420108,0.1338837460489534,-0.5601050486461706,0.0709106996655464,-0.0045599844306707,-0.017203826457262,-0.0087954401969909,0.0026698559522628,-0.0042850524187088,-0.0494504757225513,0.0075196558609604,-0.0834755710661411,0.1221975311636924,0.0507646301407367,0.1217690613642334,101
1733299307319990300,0.1353182787671685,0.0601250906169414,-0.0988888287752866,4.228114246867597,1.4595942670367656,8.727142699167132,0.1156084463000297,-0.369831919670105,-0.073612056672573,-0.795655856870306,-0.1900648622057344,0.1375314692000762,-0.5584730999903197,0.0586995705962181,0.0082550402730703,-0.0252865217626094,-0.0043780207633972,-0.0002669245004653,0.0090295821428298,-0.0541937835514545,0.0038199352566152,-0.0783662652283906,0.094275027513504,0.0593061754494905,0.0851145704448223,102
1733299307359990000,0.1292129476293921,-0.0322027722075581,0.2129898397296667,4.314574678963423,1.4971547668851912,8.678326938071846,-0.0107548022642731,-0.0558226108551025,-0.0626380741596221,-0.7955769985390795,-0.1942944792776907,0.1406347590313856,-0.5563529858684815,0.0729192569851875,0.0101547269150614,-0.0138042354956269,-0.0077459216117858,-0.0031618028879165,0.0044686645269393,-0.0589370913803577,0.0001202144194394,-0.0731195967465639,0.0663525164127349,0.0679181556459516,0.0485536030277609,103
1733299307399990000,0.0313850260838866,-0.0347847515247762,0.1792342851221561,4.2868569432154295,1.478039293657243,8.695323081058262,-0.0872729495167732,0.1089362278580665,-0.035249475389719,-0.7965562338295412,-0.1923945125638312,0.1401651243793266,-0.555730355179361,0.0650794357061386,0.0123322857543826,-0.0187882743775844,-0.0031961202621459,-0.0061899274587631,0.0126781016588211,-0.0610952116549015,0.0109951142221689,-0.0684282240599393,0.044846773147583,0.046334173412621,0.0673608870893716,104
1733299307439990000,-0.1786541471466421,-0.0333327991507947,0.0010673369705677,4.278425214956701,1.479879514696449,8.699162220829725,0.050335980951786,-0.0946262031793594,-0.0430161729454994,-0.797197734367676,-0.1920598380734309,0.13992567615071,-0.5549861514020618,0.0408760979771614,0.0151544380933046,-0.044377788901329,-0.0041738152503967,-0.0055331289768218,0.0114632099866867,-0.0632533356547355,0.0218700133264064,-0.0637093788444995,0.0233410354703664,0.024785773949325,0.0862146406412124,105
1733299307479990300,0.0134258832842111,0.02542933254987,-0.0938742154836654,4.306761374863982,1.519728710003942,8.678284267973899,0.0685599669814109,-0.0279035158455371,-0.07391057908535,-0.7973146022095647,-0.1945928768442164,0.1402292839655423,-0.553858212900047,0.0208914726972579,0.016208678483963,-0.045333132147789,-0.001857578754425,-0.0124647915363311,0.0110038369894027,-0.0576741695404052,0.0224942602217197,-0.0575029254198074,-0.0079404171556234,0.0150381407864391,0.0909554054275155,106
1733299307519990300,-0.2897495465442538,-0.071235682696104,-0.1107517005264759,4.306322106663883,1.525414062163979,8.677504515773057,-0.0521725974977016,-0.0227774977684021,-0.0140354819595813,-0.797934775627404,-0.1946677257042174,0.1402671152295773,-0.5529284177110434,0.0193100869655609,0.0292217880487442,-0.0622821561992168,-0.0073940157890319,-0.0143611282110214,0.0055230259895324,-0.0520950071513652,0.023118507117033,-0.0512847815573215,-0.0392218679189682,0.0052815936647355,0.095734456397593,107
1733299307559990300,-0.0922419381067156,-0.0624985417500138,0.2220855848550796,4.337909669582546,1.5322390858784316,8.660552211928367,0.0819700807332992,-0.1296984404325485,-0.0012040109140798,-0.7977117964359285,-0.1959605176459897,0.1415421811157307,-0.5524682986879978,0.0148607436567544,0.0212406143546104,-0.0549517385661602,-0.0006057024002075,-0.0138714015483856,0.0008109062910079,-0.0452088564634323,0.0160839036107063,-0.0584761543661355,-0.0515166744589805,-0.0018332067765295,0.0897051131054759,108
1733299307599990000,-0.0203963068187236,-0.1153273378789424,0.1928694272428751,4.370959998530149,1.5561878244817255,8.63963977228105,0.0725197717547416,-0.0036465965677052,0.0454817041754722,-0.7968819201318776,-0.1981933138277241,0.1421983810662503,-0.5527008820815748,-0.009643267840147,0.0228493753820657,-0.0435529425740242,-0.010509967803955,-0.0180344432592391,-4.363059997558594e-05,-0.0383227057754993,0.0090493019670248,-0.0656289487302303,-0.0638114809989929,-0.0089743107028305,0.0837082107782363,109
1733299307639990000,0.0336158538758754,0.073228463948518,-0.0075321490705013,4.363185857397317,1.5636574297100303,8.642220436424017,0.0399977937340736,0.0190181192010641,0.0468987487256526,-0.7962250327516857,-0.1984514565815458,0.1413733192732596,-0.5537655841747632,0.0088475923985242,0.0147087313234806,-0.0210784599184989,-0.000535249710083,-0.0157905220985412,-0.0035759359598159,-0.0354888997972011,0.0028171115554869,-0.0440828873544931,-0.0590127483010292,-0.0032128245666623,0.0814598473295569,110
1733299307679990000,0.0838075794994831,-0.0013826865300536,0.063352235969901,4.369557145994901,1.5745228148564696,8.63702695943415,0.0947041437029838,-0.0653567463159561,0.0554124228656291,-0.7953077244563853,-0.1993447989775373,0.1410525780877718,-0.5548437266809411,-0.0147850336506962,0.01960458047688,-0.0087491571903228,-0.0033419132232666,-0.0177516788244247,-0.0042084902524948,-0.0326550900936126,-0.0034150783903896,-0.022501170143485,-0.0542140156030654,0.0025254268243908,0.0792389564096927,111
1733299307719990300,0.1861231678530573,0.0025054069496691,0.1093465099036693,4.406554166741669,1.6194165802024303,8.609887023574114,0.185442566871643,-0.1064355596899986,0.0207690000534057,-0.7940501751635953,-0.2027138529751635,0.1411560352882711,-0.5553974547227207,-0.0006071624811738,0.0235552191734313,0.0062303254380822,-0.0040235519409179,-0.0099862068891525,-0.0070268660783767,-0.030505396425724,-0.0078809522092342,-0.0580640664339065,-0.0501189194619655,-0.00473696539402,0.1113973049536347,112
1733299307759990300,0.0809220871910452,0.0681060063682496,-0.2091623903959989,4.441275936032832,1.674124468076229,8.581535958358645,0.1458463221788406,-0.1008316725492477,0.0255565475672483,-0.7928058071136654,-0.2064392814026812,0.1408767621553625,-0.5558735507321928,-0.0015858742408454,0.0184299666434526,0.0165802352130413,-0.0035870671272277,-0.0094720423221588,-0.0084996223449707,-0.0289556849747896,-0.0053625293076038,-0.0698006814569234,-0.0398462601006031,-0.0101294720873236,0.1055395188361406,113
1733299307799990300,0.0488943792894482,0.0551649839915335,-0.1881698712497949,4.48213197029531,1.709810552354902,8.553211196628212,0.1166991889476776,-0.129476323723793,0.0557821318507194,-0.7915084295696234,-0.2095490744499112,0.1414099410795092,-0.5564232548828915,-0.013939213939011,0.0217898096889257,0.0145688839256763,-0.0065212845802307,-0.0019793957471847,-0.0079292505979537,-0.0300017856061458,-0.0136367874220013,-0.0460907200455665,-0.0321081206202507,0.001491992123425,0.1106672371134162,114
1733299307839990000,0.2943871432170272,0.0600917728692293,0.0304003989607095,4.524392610658705,1.7436399028509857,8.524082132777572,0.0979845076799392,-0.0264703650027513,0.0156542286276817,-0.7903781847691506,-0.2125852118269637,0.1421276881161156,-0.5566953403237334,-0.0085556330159306,0.018919987604022,0.0251107402145862,-0.009124219417572,0.0016873329877853,-0.0075842291116714,-0.0334400124847888,-0.004077123478055,-0.0610030424952506,-0.0333885736763477,-0.0040849312260746,0.1108408401146531,115
1733299307879990000,0.1215793840110301,0.118339233046025,-0.2268073526799678,4.505065686637163,1.754225448142737,8.532142689636348,0.0068499129265546,0.0876989588141441,0.0125195682048797,-0.7901797089184066,-0.2125021223396662,0.1407999870322545,-0.5573456172971719,-0.00452760187909,0.02567008882761,0.0295625459402799,-0.0057069659233093,0.0070345997810363,-0.0117037147283554,-0.0310961231589317,-0.0176664851605892,-0.0709808311522006,-0.037598792463541,-0.0020985797144472,0.1006044005215168,116
1733299307919990000,0.1215431436538696,0.0478515922382473,-0.0794289260238409,4.507795403862,1.750044070804864,8.531559336790442,0.003793983021751,-0.0779837965965271,0.0080011524260044,-0.7900480598274879,-0.2124384275317029,0.1410015507860103,-0.5575055723761403,0.0170842166990041,0.0285031609237194,0.020916860550642,-0.0108894705772399,0.0124338865280151,-0.0166113376617431,-0.0344803556799888,-0.0106291165575385,-0.1097141741722822,-0.0372684597969055,-0.0133883277527987,0.1090618477433919,117
1733299307959990000,0.109908527700603,-0.0093983813337981,0.0400713136255741,4.527809725625812,1.768687834867835,8.517104694980382,0.0446891374886035,0.0268861725926399,-0.0425115711987018,-0.7900267312378004,-0.2138607851795707,0.1414640785710633,-0.556874598951846,0.0429261997342109,0.0087880985811352,0.0179664101451635,-0.00501549243927,0.0166781395673751,-0.0140787363052368,-0.031959094107151,-0.0117414109408855,-0.0970247884690761,-0.0304260216653347,0.0018636019147932,0.10722849483639,118
1733299307999990300,-0.2641445651665329,-0.0127623048089444,-0.3680249186187982,4.5169943171009415,1.7802815342888234,8.520430624532699,-0.0183731131255626,-0.0136427711695432,-0.0189143307507038,-0.7904155187905355,-0.2139324011763076,0.1407545855307672,-0.5564749138865223,-0.0131453247740864,0.0098925111815333,-0.0005516139790415,-0.0129245519638061,0.0038626790046691,-0.0150822848081588,-0.0333812162280082,-0.0070495139807462,-0.0538590159595012,-0.0285143926739692,0.0037352410055696,0.1061418686434626,119
1733299308039990300,-0.0632636809036135,-0.0879572465248405,0.0789823513001203,4.531741804377734,1.7658436974830924,8.515603058245778,-0.0346344858407974,-0.0423113368451595,0.0186975393444299,-0.7903908815508621,-0.2137654014774019,0.141878219871493,-0.5562887171659183,0.0249221660196781,0.008067606948316,-0.0132961720228195,-0.0019871592521667,0.0136620551347732,-0.0099668502807617,-0.0319623313844203,-0.0128385219722986,-0.0753682524561882,-0.0308605469763278,0.013829934040457,0.108285894934833,120
1733299308079990300,0.0224929868370294,-0.037246027071774,0.1615460682183504,4.541005015024543,1.760622163442522,8.511748720905183,0.0103629538789391,0.0021062800660729,0.0080274762585759,-0.790244282413508,-0.2138601384575241,0.1424269362064999,-0.5563203472170479,0.0113267283886671,0.0135429054498672,0.0028311333153396,-0.0089054107666015,-0.000712364912033,-0.0096227973699569,-0.0305434465408325,-0.0186275299638509,-0.0968675520807504,-0.0332067012786865,0.0239070914186537,0.1104340128794312,121
1733299308119990000,-0.0388408950477838,-0.0131381523840129,-0.101454295349121,4.537246539273858,1.7568650028660893,8.514528707012534,-0.0188473872840404,0.0153929404914379,0.0219126418232917,-0.7901188270039977,-0.2136151334199028,0.1422969158328763,-0.5566259158423036,0.0401021838188171,0.021205086261034,0.0128934886306524,-0.007428765296936,0.0079222619533538,-0.0072865337133407,-0.0372565723955631,-0.0165473204106092,-0.0796568895608186,-0.0295281670987606,0.0395562037102878,0.0833203805044293,122
1733299308159990000,0.0008881810113787,-0.0281231016784906,-0.1165624326318502,4.5398649050787085,1.7486562697082757,8.514823306044935,-0.0041052186861634,-0.0294098667800426,0.020241305232048,-0.7899490195161853,-0.2133840892004506,0.1425905515982015,-0.5568804579062981,0.0535018816590309,0.0151283396407961,0.007058102171868,-0.0031410455703735,0.0071014016866683,-0.0097478628158569,-0.0439696982502937,-0.01446711178869,-0.0624392127782106,-0.0258496329188346,0.0551907029546797,0.0562085016950964,123
1733299308199990000,0.1712692975923418,0.0281106805883347,-0.0360837052941322,4.549497825820744,1.7489855016626417,8.50961229339838,-0.0036365941632539,-0.0023690673988312,-0.0077849947847425,-0.7897813699848475,-0.2137356694444778,0.1429950513525419,-0.5568794735972753,0.0200067684054374,0.0173322651535272,-0.0060137575492262,-0.0089780688285827,0.0015563368797302,-0.0084992051124572,-0.0510238148272037,-0.0105443000793457,-0.0607131196379661,-0.0240694750100374,0.046377866423875,0.0611880436733365,124
1733299308239990300,-0.0752072166755795,0.0504984534852206,-0.2723550518900156,4.539345849640667,1.7426089523680508,8.516339555826782,-0.0443906523287296,0.0410219989717006,0.0138933407142758,-0.7900060391240905,-0.2130925158841055,0.1427553830848185,-0.556868989527526,0.0610130578279495,0.0120894592255353,0.0142408469691872,-0.0045777559280395,0.0074714571237564,-0.0121259540319442,-0.0580779314041137,-0.0066214893013238,-0.0589829348444938,-0.0222893171012401,0.0375463251926004,0.066177814784646,125
1733299308429879600,0.0541755345627665,0.0010994856745004,0.0073263973653316,4.631875372517109,1.7029732536807656,8.474431674423814,-0.0429677926003932,0.0226091872900724,-0.0532874204218387,-0.7899994265837577,-0.2142016069858703,0.1484651208944447,-0.5549564370069567,0.0768306404352188,0.0043377433903515,-0.0577973909676075,-0.0109474658966064,0.0134128034114837,-0.000475987792015,-0.0397584959864616,-0.0337817147374153,-0.0052824276359082,0.0036325089167803,0.0861873599086422,0.1123809091635048,126
1733299308469627000,0.0397097868368029,-0.0009326046749949,-0.0498737457156181,4.625691423185169,1.7009655671201644,8.478211777484416,-0.0081541333347558,-0.018832229077816,-0.0364935621619224,-0.7906068004446228,-0.2137644021714183,0.1484461715709278,-0.5542647784135378,0.0680209025740623,0.0137599539011716,-0.0364624746143817,-0.0109879374504089,0.0023552924394607,-0.0014379471540451,-0.0558112561702728,-0.0201378837227821,-0.1017439898775424,-0.0283801946789026,0.0382268913352862,0.0042577168099815,127
1733299308509627000,0.031203239776194,0.0931437092520296,-0.0627098464131355,4.633898402777314,1.70116079743132,8.473689916145801,-0.0351922884583473,-0.0308915004134178,-0.030255177989602,-0.7909149459435639,-0.2139389811972916,0.1489703743647641,-0.5536166326788979,0.0572601333260536,-0.0002326671383343,-0.030630886554718,-5.7578086853027344e-05,-0.0011989921331405,0.0055972337722778,-0.0578748397529125,-0.0064903022721409,-0.0688309596419334,-0.0248216222971677,0.0341721725843846,0.026540800923109,128
1733299308549627000,0.0603428250208497,0.0917054931424558,0.0302899243235588,4.634387355338037,1.6987084358431397,8.473914372551441,-0.0085313655436038,-0.0078532602638006,-0.0243683028966188,-0.7912726593081654,-0.2137512671564508,0.1492011720581473,-0.553115695365479,0.0399264171719551,0.0184944681823253,-0.0429638512432575,-0.0128734111785888,-0.0084627717733383,0.0038047432899475,-0.0671666711568832,-0.0021010031923651,-0.0421048652797937,-0.02750233002007,0.0174840726338326,0.0354079979896545,129
1733299308589627000,0.1395040400192141,0.1039405592069029,-0.0637765988618135,4.6369285642534495,1.704729157437384,8.471315003708005,-0.0104111712425947,-0.0124229481443762,-0.0497917719185352,-0.7916178951329673,-0.2139956135636635,0.1492950631943201,-0.5525015631012029,0.0908692255616188,0.0223877970129251,-0.0214959103614091,-0.0015879869461059,-0.0071283131837844,-0.0022966712713241,-0.073987990617752,-0.0107910931110382,-0.0535626633614301,-0.0186323635280132,0.0023307810351252,0.0542269724890589,130
1733299308629627000,0.0748953742474317,0.0365786492042243,-0.0173228907227516,4.632554002431035,1.7050535670861602,8.473642569872736,-0.0506367497146129,0.0201300214976072,-0.0649748295545578,-0.7924431752519716,-0.2136543182734447,0.1493863620514182,-0.5514249316412219,0.0760830864310264,0.0289951525628566,-0.0066704261116683,-0.0008113980293273,-0.0143825709819793,0.0002236813306808,-0.0674586668610572,-0.0124237537384033,-0.0626636691838502,-0.01970443315804,-0.002302285593003,0.0753121383547782,131
1733299308669627000,-0.1617322384402156,-0.0553928013980388,-0.1206014788895845,4.622878119330108,1.7021546307742594,8.479507662513852,-0.0250851698219776,-0.0010685288580134,-0.0371223576366901,-0.793280206622297,-0.2130103845667508,0.1493050327761641,-0.5504917276529144,0.0636248216032981,0.0143597507849335,0.0005175119731575,-0.0058587193489074,-0.0112884044647216,-0.0073710978031158,-0.0609293468296527,-0.0140564143657684,-0.0717658440500497,-0.0207765027880668,-0.0069603405319154,0.0964218541398644,132
1733299308709627000,-0.1092106085643172,0.0078717562884092,-0.153074007949233,4.63410210865587,1.700690549571067,8.473672965011,-0.0098655009642243,-0.0654306337237358,-0.0043741394765675,-0.7934249581075602,-0.2132448708741378,0.1499651519416201,-0.5500125777008613,0.0490083284676075,0.0112034790217876,0.0061267279088497,-0.0027251243591308,-0.0121589601039886,-0.0015520453453063,-0.0483364015817642,-0.0060285441577434,-0.068525839215517,-0.0337976478040218,-0.0125957160703837,0.0905900792464613,133
1733299308749627000,0.0083773677229881,0.0788911658853292,0.0288397255152463,4.654629640638828,1.6965590027242898,8.463243925455211,-0.0298922955989837,-0.0269457194954156,-0.0081787919625639,-0.7934071653546619,-0.2136868415117297,0.1511045706400896,-0.5495547660738881,0.0472535714507103,0.0039138747379183,0.014985067769885,-0.0022815465927124,-0.0066815912723541,-0.0082590728998184,-0.0369591228663921,-0.0074290456250309,-0.0706342096716165,-0.0475756898522377,0.0084608082227408,0.0943541079550981,134
1733299308789627000,-0.0609343611732125,0.1257426411703228,0.0352992769181728,4.658699082034826,1.6839745387002825,8.463518066221475,-0.0502105541527271,-0.0167258586734533,-0.0120647503063082,-0.7936813973148917,-0.2131870553941882,0.1517628062672472,-0.5491714201318421,0.0363242253661155,0.0021665745880454,0.0019678696990013,-0.0090900659561157,-0.0025337785482406,0.0005410313606262,-0.0250147394835948,-0.0079602636396884,-0.050174189966917,-0.0564719438552856,0.003522913429141,0.0829074157893657,135
1733299308829627000,0.0825794990092515,0.1312844932064414,0.2202285588115453,4.665870873360335,1.6782830490604042,8.460697748103737,0.0088022584095597,-0.0179638229310512,-0.0089009217917919,-0.7937827914388271,-0.2131267127445404,0.1523203198216072,-0.5488939013647591,0.0129230273887515,-0.0049455035477876,0.0182551629841327,-0.0046632885932922,-0.0072329193353652,0.0014898777008056,-0.0236742701381444,-0.0188144817948341,-0.021757073777914,-0.0682974159717559,0.0199849495388567,0.0599316138714551,136
1733299308869627000,0.1270785659492015,0.0613575550213456,0.0416594595998525,4.665065694457292,1.6825192253254353,8.460300273218751,-0.0137647613883018,0.0177553966641426,-0.0292620845139026,-0.7939812008382243,-0.213231494121598,0.1522401732865718,-0.5485884069213163,0.0299528762698173,0.009555728174746,0.0137454997748136,-0.007150650024414,0.0003456622362136,0.006778061389923,-0.0245859213173389,-0.0215591639280319,-0.0434235466629266,-0.0752024725079536,0.0134162386730313,0.0557362080082297,137
1733299308909627000,0.0107616325110197,0.017606529969722,-0.0781061529874801,4.65359182202369,1.6876634563460946,8.465592534407973,-0.0006382330320775,0.0180324725806713,-0.0337867587804794,-0.7944882939949044,-0.2129712251456852,0.1517173366530694,-0.548099881567744,0.0561210997402668,0.0137751875445246,0.0249227881431579,-0.0007814764976501,0.002724677324295,0.0039942115545272,-0.0266159772872924,-0.015414360910654,-0.0524339515924453,-0.0695897340774536,0.0033085400260984,0.0481476525753736,138
1733299308949627000,0.0946957609996199,-0.0222799286082386,-0.1091845973402261,4.651359825187921,1.690290297718346,8.466295129719375,-0.0075924359261989,-0.0104631800204515,-0.0201684683561325,-0.7947623534266547,-0.2129428035625239,0.1516391788559067,-0.5477350950709573,0.0153947072103619,0.0207408443093299,0.0106460461392998,-0.0103891491889953,-0.0050826668739318,0.0047537237405776,-0.028646033257246,-0.0092695578932762,-0.0613859043329954,-0.0639769956469535,-0.0068321841076016,0.0405871541932225,139
1733299308989627000,-0.0091243866980075,-0.0668416855208575,-0.2481219433873891,4.6499850297033785,1.694449901615828,8.466219141873717,-0.0051844241097569,-0.0090626562014222,-0.0150008294731378,-0.794977017900134,-0.21302310017907,0.1515391692572173,-0.5474199694396432,0.062980867922306,0.0290571525692939,0.0101699391379952,-0.0067716836929321,0.0096333175897598,-0.00208580493927,-0.0236308351159095,-0.0059907953254878,-0.0198515324175357,-0.0575463697314262,-0.0153146196402609,0.035617841348052,140
1733299309029627000,-0.0675102324321866,0.0033747371301054,-0.1986719760417938,4.662581768687069,1.692318442545086,8.459715166807174,-0.0225375890731811,-0.0617723539471626,0.0013419449096545,-0.7949617599052818,-0.2133106086473017,0.1522273404725138,-0.5471392043772153,0.0118415178731083,0.0325542017817497,-0.0056871874257922,-0.0068218111991882,-0.0080429911613464,-0.0029783993959426,-0.0186156388372182,-0.0027120327576994,0.0217190798550844,-0.0511157400906086,-0.0238135679163038,0.0306684022471308,141
1733299309069627000,0.0780599757581949,-0.0009302665874361,0.1295370650172233,4.682660387858748,1.6797145431682468,8.451132631900906,-0.0471886247396469,-0.0322762802243232,-0.0096640614792704,-0.7949450373200616,-0.2133658946441011,0.1535811231053234,-0.5467634863014477,-0.0035915006883442,0.0224904883652925,-0.0197726469486951,0.000578761100769,-0.0055789351463317,-0.0079784244298934,-0.0061037894338369,-0.0144261429086327,-0.0036082536250352,-0.0486946739256382,-0.0509001661539077,0.0039566286712884,142
1733299309109627000,-0.0669938073426485,-0.0010290507867932,0.1536094300001859,4.6854085175231095,1.6673932601250707,8.452048577702046,-0.0148420836776494,-0.019771309569478,0.003704085946083,-0.7950952746717895,-0.2128696610202776,0.1541166619142889,-0.5465876405585935,0.0347042232751846,0.0353966988623142,0.0089305713772773,-0.0033135414123535,-0.0058229863643646,-0.0138105154037475,-0.0047505451366305,-0.0150559339672327,-0.0247194307148456,-0.0430622957646846,-0.0339366102628409,-0.0389706589072942,143
1733299309149627000,-0.1248003918841481,-0.0245979962922632,-0.073887658509612,4.702214398634434,1.669115115481615,8.442370648774505,-0.0072337910532951,-0.0597987622022628,0.0003724784764926,-0.794924106200443,-0.2134931081338233,0.1548534567227797,-0.546385167438524,0.0589586980640888,0.0285640936344862,0.0186359286308288,0.0021037459373474,-0.0080383270978927,-0.0204319357872009,-0.0106729809194803,-0.0155136259272694,-0.0232364986807107,-0.0381750352680683,-0.0354521293923258,-0.0747676562145352,144
1733299309189627000,0.0918731047943234,-0.054556935095787,0.1631628557652235,4.709847962252796,1.6643582763433455,8.439054071572423,-0.0322477892041206,0.0176215879619121,-0.0434738993644714,-0.7951573046043205,-0.2134469486538854,0.1554618700963098,-0.5458910413800172,0.0574409626424312,0.0255758147686719,0.0012260461226105,-0.0137837529182434,-0.0078141838312149,-0.0214245915412902,-0.0217305179685354,-0.0116039747372269,-0.002105447846651,-0.0310405157506465,-0.0189005153030157,-0.0671554276451468,145
1733299309229627000,-0.0680751728385686,-0.1493910816527903,0.0995703812986612,4.695169448558986,1.659533778796345,8.44817845827043,-0.0210752878338098,0.0311226565390825,-0.0165386367589235,-0.7957925171432846,-0.2126203663654241,0.1550979046006111,-0.5453911390088844,0.0526302270591259,0.0020917397923767,0.0125941485166549,-0.0008984208106994,-0.0098517537117004,-0.0209913700819015,-0.0271994173526763,-0.0083216801285743,-0.0183709384709596,-0.0357605814933776,-0.014013620044291,-0.0816278973728418,146
1733299309269627000,0.0004988894328474,-0.0897108121939003,0.0040723640054464,4.693333173042536,1.6600078260488806,8.449105509987472,0.0115054231137037,-0.0072320103645324,0.0019235725048929,-0.7958922452818453,-0.2125581743996629,0.1550307470562187,-0.5452889901049045,0.0521218292415142,-0.0147332064807415,0.0160830225795507,0.0018309950828552,-0.0038603693246841,-0.0160526186227798,-0.0326683148741722,-0.0050393855199217,-0.0346165553510189,-0.040480650961399,-0.0091489366173744,-0.0960895534455776,147
1733299309309627000,0.1088943822219967,0.0340142055436968,-0.1156342118710279,4.694023201133311,1.6588358596600592,8.448952365252374,-0.0090332338586449,0.0070266821421682,-0.0024796910583972,-0.7958113641972452,-0.2125506343667172,0.1550662886509759,-0.545399775454697,0.0548345260322093,-0.0272874552756547,-0.0063497154042124,0.0016952753067016,-0.0014445483684539,-0.0115927010774612,-0.0288164056837558,0.0026881587691605,0.008619944307208,-0.0298607796430587,0.0079151570387184,-0.067664253950119,148
1733299309349627000,0.0422720385402441,0.0627558775119483,-0.0894447086036205,4.688820079532265,1.6537372213467956,8.45284002034068,-0.0236717481166124,0.0204561948776245,-0.008228643797338,-0.7959873884081136,-0.2121243879786816,0.1550107821009855,-0.5453247007071126,0.0047971904277801,-0.0350215956568717,-0.0198542065918445,-0.0049498081207275,-0.0127344727516174,-0.0026154965162277,-0.0249644983559846,0.0104157030582427,0.0518809938848018,-0.0192409101873636,0.0249634686037898,-0.0392214187979698,149
1733299309389627000,0.0157344524875283,0.073450290005654,-0.052121232381463,4.685280507229268,1.646484327609092,8.456217972341179,-0.0222170110791921,-0.0064890831708908,-0.0160647965967655,-0.7962495242855171,-0.2116292945799713,0.1551319457588525,-0.5450997698457467,0.0316208153963089,-0.031623613089323,-0.0140442531555891,-0.0050002932548522,-0.0076023638248443,0.0018543154001235,-0.0256361849606037,0.0039028553292155,0.0517120670586824,-0.0110207432880997,0.0306985051244497,-0.0601043400898575,150
1733299309429627000,0.0662576020225882,0.0296726692080497,0.0249397954672574,4.684436749881506,1.6465677681088446,8.456669223240018,-0.0294728130102157,0.017319543287158,-0.0276511032134294,-0.7965698713160392,-0.2115167225771267,0.15521131643926,-0.5446526579714683,0.0453877598047256,-0.0277299657464027,0.0136550851166248,0.001324713230133,-0.0107626765966415,0.0044942051172256,-0.0387258417904377,0.0025780973955988,0.0045657004803419,-9.7413547337e-05,0.0380447762340307,-0.0821931300401687,151
1733299309469627000,0.1295014091819524,0.0045348669506609,0.1508931567788124,4.668478425510227,1.6447708016894758,8.46583861812353,-0.0088348919525742,0.0492151901125907,-0.0427877530455589,-0.797162538070161,-0.2107979910162361,0.1546821377465915,-0.5442146676290258,0.0390861891210079,-0.0127498973160982,0.0087266396731138,-0.0051710605621337,-0.0071214437484741,0.0065595358610153,-0.0465330779552459,0.0077243079431355,-0.0039320787519216,0.0069819781929254,0.0341372474014759,-0.0626534400507807,152
1733299309509627000,0.059281041008234,-0.042474429244548,-0.1089350064933299,4.648616956220567,1.650629756850749,8.475621760991215,-0.0182737782597541,0.0526614189147949,-0.0504424273967742,-0.7978759269479518,-0.2102644623922225,0.1537933788586575,-0.5436271378356676,0.0657359063625335,-0.0191577821969985,0.001183568732813,-0.0074160099029541,0.000152587890625,0.0070281475782394,-0.0246590301394462,0.0417450517416,-0.0233019651323556,-0.0069040087983012,0.0043330607682466,-0.0427303037017583,153
1733299309549627000,-0.0238967161551117,-0.0655042994372546,-0.0356090735197067,4.633932012785971,1.6519621744982895,8.483399993777274,-0.0090167503803968,0.0230424851179122,-0.028664631769061,-0.7984680902877611,-0.2097222519914008,0.1532434274645983,-0.5431221031207972,0.0238529071211814,-0.0198635198175907,-0.0015282616950571,-0.0014094710350036,-0.0086018741130828,0.0120065808296203,-0.0105382231995463,0.0549170188605785,-0.0176274266272783,-0.0145292729139328,0.0161762049056589,-0.0243888835862278,154
1733299309589627000,-0.0366530296146869,-0.0838981803923845,-0.0750426737636327,4.630378119696677,1.6561404830962418,8.4845263674587,0.0120802335441112,-0.0126416673883795,-0.0034158260095864,-0.7986206289608571,-0.2097566193432434,0.1530088734436357,-0.5429508418098158,0.0175438784062862,-0.0146621000021696,-0.021092576906085,-0.0059301257133483,-0.0044548660516738,0.0088521540164947,0.0035825818777084,0.068088985979557,-0.0118698860138654,-0.0221545360982418,0.0280168648250401,-0.0060594461694359,155
1733299309629627000,0.0902785290792584,-0.0148871880084276,-0.0781751265704631,4.630787869541347,1.662696626741439,8.483020054548978,0.0122548369690775,0.0037649807054549,-0.0105309672653675,-0.7985781248214419,-0.210066388342948,0.1528347758217203,-0.5429424570473447,0.0381005518138408,-0.0057890331372618,-0.0096924481913447,-0.0009312033653259,-0.0052400827407836,0.0076550394296646,-0.0043788226321339,0.0423863902688026,0.0105979663819074,-0.0258817113935947,0.0438996397420764,-0.0205859841719269,156
1733299309669627000,0.1027551488146185,0.0483422983646392,-0.0886409910053014,4.632526529902219,1.6617160912714897,8.482263098701834,-0.0224614236503839,-0.0121163865551352,-0.021888542920351,-0.7987531872016103,-0.2100255445158929,0.15301706640038,-0.5426494716041078,0.0325534529983997,-0.007636041380465,-0.004561002831906,-0.007477581501007,-0.012378767132759,0.0047755390405654,-0.0175054855644702,0.0227831099182367,0.0065378773361444,-0.031255267560482,0.0348757908090949,-0.0433121952429413,157
1733299309709627000,0.2232268638446927,0.0036354338929057,0.135554133349657,4.631166639725864,1.6672181958191097,8.481925829571486,0.024687610566616,0.0089103141799569,-0.0447288528084754,-0.7990882188701092,-0.2101309325220984,0.152928510766074,-0.5421401263437622,0.0360243543982505,-0.0151851456612348,-0.0057312622666358,-0.0015411376953125,-0.0055305361747741,0.0007366985082626,-0.0364040769636631,-0.001482006162405,0.0067635027855634,-0.0329485833644866,0.0443460683353245,-0.018636895930767,158
1733299309749627000,0.0733773708999157,-0.0100645901575684,-0.1024766241341829,4.622998823100328,1.68166626175791,8.483529173114896,0.0022057907190173,0.0188325271010398,-0.037274595350027,-0.7995054988204334,-0.2104034936446874,0.1522851332421878,-0.541600018465504,0.0344243273138999,-0.0164221301674842,0.0005778991617262,-0.0041940808296203,-0.0032281130552291,-0.0019754320383071,-0.0402727089822292,-0.0121187269687652,0.0076765259772539,-0.0337287448346614,0.0498537258408963,-0.0234705996975302,159
1733299309789627000,0.0750280607163906,-0.0358991425074636,-0.1412695883870124,4.615362336872518,1.681314379580319,8.48775585089922,-0.0363853499293327,0.0157093331217765,-0.0358767323195934,-0.8000470633516485,-0.2100115572258207,0.1521185025429959,-0.5409989664209016,0.0267376415431499,-0.0166365150362253,-0.0125302458181977,-0.0075846314430236,-0.0030046850442886,0.0058865547180175,-0.0395664572715759,-0.019661147147417,-0.003582534661889,-0.0387468114495277,0.0605833557784557,-0.0184168234393,160
1733299309829627000,0.0957841407582163,-0.0702981095850467,0.0591407557547092,4.608672483845055,1.6802489423058926,8.491600835889578,0.0119897508993744,0.007286989595741,-0.0117709077894687,-0.8003737049562925,-0.2096769666784322,0.1519355774340869,-0.5406967571135877,0.0374318324029445,-0.0204452071338892,0.0086724441498517,-0.006779670715332,-0.0002699345350265,0.0040188580751419,-0.0399887934327125,-0.0088110119104385,-0.0171773447722196,-0.0329109020531177,0.0546243012435734,-0.0055450669065117,161
1733299309869627000,0.0971168506667017,0.0331549583658576,-0.1198971300125122,4.609135425181687,1.6876776310019197,8.489876496315002,-6.3569750636e-06,0.0023303357884287,-0.0101328240707516,-0.8004525497119147,-0.2099927562052601,0.1517887085129904,-0.5404988679958521,0.0349878519773483,-0.0147341648116707,-0.0009581455378793,-0.0084597468376159,0.0051860064268112,0.0097471475601196,-0.0404111295938491,0.0020391233265399,-0.0307546192258596,-0.0270749945193529,0.0486361667446792,0.0073345806717872,162
1733299309909627000,0.203813430583477,0.0947651729740202,-0.0683224255979061,4.6074844431042665,1.688166875823587,8.490674953216313,-0.0038213355001062,-0.0098943719640374,-0.0330069810152053,-0.8006546601431382,-0.2099089572138461,0.1517704851955982,-0.5402369900511559,0.0325180329382419,-0.0189826525747776,-0.0264593791216611,-0.0029713511466979,0.0059095174074172,0.0068989992141723,-0.030511662364006,0.00832936540246,-0.0153273329913616,-0.0165693648159503,0.0562874121502041,0.0438072852835059,163
1733299309949627000,0.0503165210470557,0.0652465252839028,-0.1420733059853315,4.611643024088442,1.688955249722302,8.488260293290018,-0.0383660681545734,-0.0086228186264634,-0.0421704202890396,-0.8010967927832031,-0.2099407044967831,0.1521317262477742,-0.5394671704542192,0.0010317468550056,-0.0004270247300155,-0.0191593207418918,-0.0065359473228454,-0.0044670104980468,0.014525294303894,-0.0156261101365089,0.0037670456804335,-0.0182125330388546,-0.008520022034645,0.0409223774969577,0.021576164253056,164
1733299309989627000,0.0478530535429716,-0.0318174261517822,-0.0091436759203672,4.609318088272214,1.683517296452075,8.490603057023883,-0.0252498276531696,0.0005681439070031,-0.0361330285668373,-0.8016410191788506,-0.2094813818606133,0.1523721327397965,-0.5387689556568026,0.0569860935211181,0.0154589973390102,0.0020040220115333,-0.0090410709381103,0.0065075308084487,0.0035965591669082,-0.0167863517999649,0.0138600207865238,-0.0510702620238065,-0.0020329686813056,0.0380352777533233,0.0287514627099037,165
1733299310029627000,0.1103156471967697,-0.0215244340658187,-0.0770113434880971,4.60760836174488,1.6825018357992172,8.491732353314758,-0.0329810604453086,0.0068901162594556,-0.0532382763922214,-0.8021745208237988,-0.2092360547147724,0.1525202149890096,-0.5380277948755311,0.0348839871585369,0.0081307766959071,-0.0141027765348553,-0.0059058666229248,-0.0004513263702392,0.0003837198019027,-0.0232034195214509,0.0119545338675379,-0.0424292749285697,0.0144286155700683,0.0466289185754954,0.0374663918241858,166
1733299310069627000,-0.0331736630663275,-0.0673690703958272,-0.0896773483157157,4.600412897282839,1.6737286006264387,8.497365390765667,-0.058760043233633,0.0044415513984858,-0.0386896282434463,-0.8029752795115813,-0.2084155585359645,0.1527019885487432,-0.5370993113199842,0.0091394744813442,0.0116704376414418,-0.0313528031110763,-0.0083148479461669,-0.004007488489151,0.0013588815927505,-0.0325990468263626,0.0011226208880543,-0.0154465754568576,0.0173351000994443,0.0221066178679466,0.0383490198776125,167
1733299310109627000,0.0079331310868263,-0.1070971235416829,0.0698094492852687,4.605393900565803,1.6697626196049151,8.495447574445604,0.0046407026238739,-0.0407754182815551,-0.0162568092346191,-0.8033013467737318,-0.2082936555707454,0.1531877402409383,-0.536520554436445,0.0507383160293102,0.0133447144180536,0.001671326579526,-0.0097333788871765,-0.0027324110269546,-0.00242280960083,-0.0439938455820083,-0.0005069720791652,-0.0184825821518898,0.0048531126230955,0.0361379196994006,0.0233934428080916,168
1733299310149627000,0.0827481335744261,0.020776976699382,-0.086907299080491,4.614675523652136,1.6728212765231727,8.48980693821013,-0.0240411944687366,-0.0189758576452732,-0.0212992262095212,-0.8034045309464501,-0.2086671525007157,0.1536174849112057,-0.5360977295539254,0.0254494734108448,0.0102414926514029,0.0129087343811988,-0.0006050467491149,-0.0055438429117202,0.0001390576362609,-0.0436179004609584,-0.0101952776312828,-0.0616740736246109,0.0060584945604205,0.0169879596799612,0.0718646282494068,169
1733299310189627000,0.0764922880500554,0.1207493629276752,-0.0747767163038253,4.617938617101311,1.6630805114924907,8.489946638941765,-0.0574078820645809,-0.0079215355217456,-0.03293476998806,-0.8038686752107225,-0.2082015889813124,0.1542248263889771,-0.5354081641968618,0.0163590386509895,0.0182366203516721,-0.008041488006711,-0.0051982998847961,0.0023232549428939,0.0017556548118591,-0.0402701385319232,-0.0137866735458374,-0.0523836827099323,0.011324867606163,0.0235603238075971,0.087713062505424,170
1733299310229627000,-0.0332438056930899,0.0497590332947671,-0.0075491002053022,4.619785998533666,1.6543139983214437,8.490654494950174,-0.0236915834248065,-0.0309509821236133,-0.027695395052433,-0.804353673415649,-0.2077307863491927,0.1547418231227959,-0.5347131106722917,0.0590303353965282,0.0233826469630002,0.0077587133273482,-0.0079107284545898,0.0041936337947845,-0.002021238207817,-0.0379602275788784,-0.0177591666579246,-0.0554319643646478,0.0059967637062072,0.0276997616998851,0.0774763306513428,171
1733299310269627000,0.003746785312891,0.1014388055190444,-0.0278027836829423,4.632624729579687,1.6557555754318831,8.483374274814128,-0.016738299280405,-0.0428020097315311,-0.0210799872875213,-0.8045411081735389,-0.2081097490624722,0.1554303806113782,-0.5340835409408239,0.0324836783111095,0.0285477414727211,0.0156826842576265,-0.0090306401252746,-0.0004056394100189,0.0006542354822158,-0.0372902527451515,-0.0131970830261707,-0.0574754528909921,0.0059358482249081,0.0230446293704211,0.0875160786285996,172
1733299310309627000,-0.0867988702699542,0.1534967634059488,-0.071342065680027,4.64760339526385,1.6436507116183638,8.47753373209238,-0.0467301681637764,-0.0582429654896259,-0.0161803718656301,-0.8047281721496672,-0.2079553647479916,0.1565906783238211,-0.5335226727053526,0.0289318226277828,0.0297091472893953,-0.00142473122105,-0.0078946352005004,0.0069659054279327,-0.0017964094877243,-0.0376329123973846,-0.0165252275764942,0.00772094964087,-0.0117218773812055,0.0279771173365414,0.0376665905714035,173
1733299310349627000,-0.0886459594413638,0.090314769436419,0.2627870130777359,4.667107429417968,1.6430873786471782,8.46692115266323,0.0233688410371541,-0.0600576512515544,-0.0039010539185255,-0.804788748891047,-0.2084732926634933,0.1576262463099628,-0.5329240486275946,0.0328005962073802,0.0227430630475282,-0.0033432724885642,-0.007794439792633,0.0074535310268402,-0.005384549498558,-0.0297268573194742,-0.017811119556427,-0.0306552505046129,-0.0277707148343324,0.0109917880050837,0.0570145573809742,174
1733299310389627000,0.0978247066751122,0.2821934320762753,0.2689887903273105,4.685790210317075,1.658755780161172,8.453536770433187,0.0493041165173053,-0.0381915159523487,-0.032709252089262,-0.8045487356907125,-0.2097687870978322,0.1580716296501154,-0.5326459126413144,-0.0153741249814629,0.0069554173387587,-0.0092227328568696,-0.00476735830307,0.0051273703575134,-0.001027300953865,-0.0183522850275039,-0.0174695365130901,-0.0548468579530715,-0.0334380790591239,0.0193828919924795,0.0715223906829953,175
1733299310429627000,-0.1389925833657384,0.2036906809866428,0.0518166964769363,4.685431898398697,1.6762065350472926,8.450292673945427,0.0241526998579502,0.0018069187644869,-0.0217852536588907,-0.8047194910825184,-0.2104742224691326,0.1576565411313868,-0.5322326459068167,-0.0115820495411753,0.0096897911280393,-0.0329599529504776,-0.0088098049163818,0.0080827921628952,-0.0048977136611938,-0.0143100367859005,-0.0079152574762701,-0.0456990903794765,-0.0327505804598331,0.0471628793217241,0.0709738168895244,176
1733299310469627000,0.0152066292211413,0.062760261426121,0.0531511599510908,4.689100065517425,1.696678683581203,8.44416980715096,0.0610005259513855,-0.0156479869037866,-0.035953689366579,-0.804784463845561,-0.2114598804883457,0.1573272678922996,-0.5318409971992005,0.0254883542656898,0.0256577860563993,-0.0397885665297508,-0.0028305649757385,0.0087170600891113,-0.0002685636281967,-0.0102677885442972,0.0016390215605497,-0.0365443085432052,-0.0320630818605423,0.074937752084434,0.070428165705502,177
1733299310509627000,-0.1297282036751508,-0.028899200617522,-0.2619973240047693,4.686941426178812,1.7136688352182508,8.441936933532357,-0.021471444517374,0.0043121110647916,-0.042086474597454,-0.8050946654889367,-0.2120531081349757,0.1568900249049519,-0.5312640444934978,0.0014139105333015,0.0207407381385564,-0.0458570457994937,-0.0011112093925476,-0.0061527788639068,-0.0048355311155319,-0.0005434369668364,-0.0234119351953268,-0.0334592020094394,-0.0250993706285953,0.0986332465790212,0.0844786106288433,178
1733299310549627000,0.0492021300643682,-0.1175277705326676,0.1376221717953681,4.675605208650231,1.7089238326482474,8.449182082355023,-0.0171829778701066,0.049729123711586,-0.0452560670673847,-0.8057775308430073,-0.2113174907688216,0.1567051859985659,-0.5305760707965428,0.0269195362925529,0.0237528812140226,-0.0281867701560258,-0.0056928992271423,-0.0037700533866882,-0.0076913833618164,-0.0102770524099469,-0.0080410307273268,-0.032312954583764,-0.0300633572041988,0.0893605374515056,0.0906081994250416,179
1733299310589627000,-0.1114201013073325,-0.1985039259985089,-0.1479851603776216,4.659804705189168,1.720467993839085,8.455565645912289,0.0341816768050193,0.0081611461937427,-0.0124893970787525,-0.8061369774855224,-0.2112667256544978,0.1557321246643057,-0.5303367045323805,0.0683290287852287,0.0035125892609357,0.0290064103901386,-0.0072975158691406,-0.0078335404396057,-0.0177080035209655,-0.0161179304122924,-0.0123753938823938,-0.0674941580802202,-0.0210125781595706,0.080249302496016,0.0755044460564851,180
1733299310629627000,0.0201876325041055,-0.0442751950562,-0.4843003510028124,4.660177045632898,1.7220118622802196,8.455046005952358,-0.083454817533493,0.008083701133728,-0.0113837178796529,-0.806383440609721,-0.2112729086126132,0.1558087562504559,-0.5299368661942374,0.0076172114349901,-0.0014393454184755,0.0287622660398483,0.004698097705841,-0.0048113614320755,0.0030867308378219,-0.0213526897132396,-0.0235907491296529,-0.0452238740831613,-0.0260353647172451,0.0938113793805241,0.0745692110329866,181
1733299310669627000,-0.0190682730853557,-0.0708126349784433,0.0782552060693502,4.655140512770414,1.6795665129996835,8.466351243820785,-0.0798622742295265,0.0147524503991007,0.0418165773153305,-0.806662250658229,-0.2091790960447105,0.1567811175499283,-0.5300563068352263,0.0127006536349654,-0.0106702344492077,0.0233113076537847,-0.0075476765632629,0.0056939870119094,0.0041440725326538,-0.0336196273565292,-0.0270570572465658,-0.0883633431077003,-0.0531612783670425,0.1130728369504213,0.055250762578845,182
1733299310709627000,0.1124535360082984,0.054411389145255,-0.1236637890696525,4.656047983004153,1.664625548977405,8.468802728626132,0.0006768356543034,-0.0165739748626947,0.0435008369386196,-0.8063295280765496,-0.2086464911714228,0.1570918706075106,-0.5306802044068554,0.0392507724463939,0.0080013470724225,0.0048585310578346,-0.0179241895675659,0.011137917637825,0.0136868953704833,-0.0712361931800842,-0.0143711604177951,-0.1438654500991106,-0.1147782057523727,0.2283196569390594,0.003713175304234,183
1733299310749627000,0.1334101070582866,0.1906121498353779,-0.4700163895845413,4.678486317044496,1.6590581241086124,8.45752204067707,-0.0027682941872626,-0.0790514200925827,0.0356457866728305,-0.8057133051344824,-0.2092264599404436,0.1581476369303062,-0.5310741232167846,0.0454431548714637,0.0099827386438846,0.0126837641000747,-0.0189309120178222,0.0094112753868103,0.0170200318098068,-0.2173172384500503,-0.0371511727571487,-0.2111076792448759,-0.4406023621559143,0.5277899486392736,0.0235422036290168,184
1733299310789627000,0.2646633283436298,0.101368662892282,-0.6778823104292154,4.701958670307696,1.6366721047773956,8.448862348881363,-0.0835275873541832,-0.044079590588808,0.0218476839363574,-0.8053137484918756,-0.2090337305726339,0.1597898524417823,-0.5312645233997771,0.0609600618481636,0.0402791798114776,0.0382858626544475,-0.0332804322242736,0.0181393176317214,0.0262169390916824,-0.3633982539176941,-0.059931181371212,-0.2761988678365946,-0.7664264440536499,0.8260441425479949,0.044305005672574,185
1733299310829627000,0.5242348865061998,-0.0087304189443588,-0.7304138771772384,4.709789217802882,1.595038656401634,8.452462419199943,-0.0953521877527237,-0.0035361372865736,-0.0063690692186355,-0.8057010111034705,-0.2073110109400589,0.1614512232352225,-0.5308497977295479,0.2548874616622925,0.0829633101820945,0.100070871412754,-0.0547643899917602,0.0520993471145629,0.0247572362422943,-0.5668739080429077,-0.0832307487726211,-0.2832172221660614,-1.2080955505371094,1.0484099325839429,0.3663534782752394,186
1733299310869627000,1.157364739756286,-0.2143072059385478,-1.288851477536559,4.719053305232524,1.573914181438833,8.45125538149774,-0.0875687897205352,-0.0637444257736206,-0.0587807819247245,-0.8063698079121874,-0.2064417873923128,0.1627504089265382,-0.5297752447732978,0.4764667153358459,0.1318030208349228,0.1628219336271286,-0.0503450632095336,0.0881947875022888,0.0236310362815856,-0.7680820226669312,-0.1294421255588531,-0.2429530163168907,-1.5221740007400513,1.1808872888367623,0.8585609491407871,187
1733299310909627000,1.2677794634133577,-0.5271117571167647,-2.349948676931858,4.694680495998263,1.5186105196289716,8.474914489504695,-0.3882516324520111,0.0960208848118782,-0.011631398461759,-0.80822116640858,-0.2027499616024831,0.1636827825288943,-0.5280898999769768,0.6402415037155151,0.1173316240310669,0.2029945850372314,0.0033716559410095,0.126996248960495,0.0272764712572097,-0.904970645904541,-0.1639186739921569,-0.1635878031790256,-1.6574280261993408,1.2250319163158536,1.1172332203760742,188
1733299310949627000,1.842083618207276,-0.9700336574181914,-2.150705038481951,4.689897061114013,1.3400875976465645,8.507609136882424,-0.6486995220184326,0.021810382604599,0.0450602769851684,-0.8102561165078728,-0.1941256989995338,0.1689611002785672,-0.5265477169274552,0.598034679889679,0.0660555958747863,0.2215618789196014,0.0311925411224365,0.1213554590940475,0.0419830679893493,-0.972078502178192,-0.2110559195280075,0.0127694652020931,-1.6683270931243896,1.2726647512368856,1.1287103076800704,189
1733299310989627000,2.079707840716839,-0.6353719330884516,-2.347975331032276,4.675233160467446,1.068123737031221,8.554045309364795,-0.96696537733078,0.0850434079766273,-0.0581156425178051,-0.8132422299305826,-0.1807850716913586,0.176583785700008,-0.5241868682719679,0.4351712167263031,0.0729089751839637,0.2118735015392303,0.0343778133392334,0.1015839576721191,0.0794494152069091,-0.9681110382080078,-0.3005241155624389,0.3246282599627971,-1.604378342628479,1.276990067090094,1.219588483152911,190
1733299311029627000,1.1900932894036174,-0.4324253484673798,-1.910142716693878,4.642630867548287,0.6993788335748017,8.609717512226105,-1.141816258430481,0.0560334362089633,-0.01115049328655,-0.817717372856818,-0.1621203705627168,0.1863962433167282,-0.5199152349457399,0.468576580286026,0.1720131337642669,0.2436712980270385,-0.0037863850593566,0.0972393602132797,0.0926365852355957,-0.7545776963233948,-0.2152426838874817,0.2584983759731054,-1.2832608222961426,1.089359782609716,1.2117005794472993,191
1733299311069627000,1.0087184851214288,0.2002499659482389,-1.5460288340389727,4.718062248368561,0.3658290160097182,8.58932120540738,-0.8437157273292542,-0.6302527189254761,-0.1314078420400619,-0.8206890244519657,-0.1481990758639663,0.2002586381252742,-0.514201370200868,0.5628314018249512,0.2365598976612091,0.3814148604869842,0.0126011371612548,0.0754008665680885,0.0925408154726028,-0.5410443544387817,-0.1299612522125244,0.2220224564909934,-0.9621434211730956,0.8837082498788833,1.2012329614467918,192
1733299311109627000,0.1433820504963397,0.3832406079292297,-1.536515155762434,5.01552397672534,0.1128080120017752,8.426279345673322,-0.9398947358131408,-0.9598658680915833,-0.1069262772798538,-0.8207126717015841,-0.1442727410256871,0.2226313225833656,-0.5060153140953306,0.6322547197341919,0.22028149664402,0.52418053150177,0.0268020629882812,0.0649198144674301,0.0769524052739143,-0.3939696550369262,-0.0793235301971435,0.2798006917208433,-0.8417327404022217,0.7326987732440233,0.8704632030542939,193
1733299311149627000,-0.5025438637018204,0.7114998448055238,-0.721733142593503,5.276731611657143,-0.2669265788341872,8.261672720840572,-1.4538531303405762,-0.5874309539794922,-0.1038526594638824,-0.8215132751966123,-0.1328136184380985,0.2472497930540322,-0.4963305207907389,0.4512857496738434,0.1829227805137634,0.656838059425354,0.0527209639549255,0.0070625096559524,0.0644118264317512,-0.2384028881788253,-0.0737880617380142,-0.2160468892127275,-0.6717763543128967,0.2084600873455405,0.6609311756283044,194
1733299311189627000,-2.1863281405270096,-0.1110317595768719,0.4607511331111192,5.561403708806633,-0.697310648998618,8.047044466254114,-1.290082931518555,-1.2263370752334597,-0.0581538341939449,-0.822327164013886,-0.1185857241807634,0.2750497071384248,-0.483800593849847,0.2519329488277435,0.2256908416748047,0.6735185384750366,0.0104445219039917,0.00886707380414,0.0312144011259078,-0.0969311892986297,-0.1042780876159668,-0.7535738034904003,-0.4574581682682037,-0.1977156982302665,0.371605261323601,195
1733299311229627000,-3.328915874651074,1.0558811452474444,1.89991884432137,6.130580145323276,-1.0495963658895342,7.581867917916178,-0.5724323391914368,-2.3943309783935547,0.5642225742340088,-0.8112319311390445,-0.1195538719953058,0.3148637760843466,-0.4779858792242106,0.418999433517456,0.1989958137273788,0.6380323171615601,-0.0310953259468078,0.0131140612065792,-0.0408813878893852,-0.0087499246001243,0.0288242101669311,-0.5352531241267919,-0.3197997510433197,-0.8033411662220954,0.3475017705500126,196
1733299311269627000,-3.033933395889401,1.2154637313731014,3.6434821748048063,6.8270970135957,-1.3137756370432674,6.916293884918093,0.143731489777565,-2.430558443069458,0.9931302666664124,-0.78699954934024,-0.1353454068817152,0.3592335896796985,-0.4829745843784317,0.4663829207420349,0.1651680618524551,0.5283498167991638,-0.148928701877594,-0.0126993991434574,-0.0547004342079162,0.0776737108826637,0.0939057320356369,-0.048139469268918,-0.2088725417852401,-1.4355875146359205,0.1203913432702422,197
1733299311309627000,-2.0358044015824794,2.4569223202243444,2.775313439363241,7.347640644368528,-1.5695713299289344,6.30230273964107,-0.1443118005990982,-1.987454891204834,0.9277971386909484,-0.7606506082479665,-0.150610574485961,0.394953731697118,-0.4926852848834078,0.0978192761540412,0.3436354994773865,0.3807623982429504,-0.0586937069892883,-0.0751961022615432,0.0034865140914916,0.1653351485729217,0.1553775668144226,0.5995768354773521,-0.229463905096054,-1.6674496664874254,0.256655524585396,198
1733299311349627000,-1.5974825424224135,2.555000709399581,4.78139022668004,7.752526097872852,-1.95555246873796,5.678427913731336,-0.5583227276802063,-2.03190279006958,0.965209424495697,-0.7366191057105425,-0.1557465941507039,0.4315365131277545,-0.4969019682822427,-0.2664782404899597,0.2250010371208191,0.3491100668907165,0.232396125793457,-0.1079545617103576,-0.029905080795288,0.2740374803543091,-0.0046336352825164,0.701495825728774,-0.1791787445545196,-1.489641030254215,0.6207500449527055,199
1733299311389627000,-0.3730377783447504,2.866439525182545,7.220737434986233,8.130700070062279,-2.3280434268549084,4.964103001567721,-0.0204356405884027,-2.2209720611572266,0.8833363652229309,-0.7088404238738277,-0.1638625086593151,0.4690951496969101,-0.5006437462144141,-0.3584409356117248,0.3058958649635315,0.3333073854446411,0.0318348407745361,-0.0955348089337349,-0.0881346464157104,0.3449054360389709,-0.2471671998500824,0.1280062021881342,-0.1223327964544296,-1.2271907017849386,0.9033113604933024,200
1733299311429627000,1.2832242853045464,3.4224899381443854,7.552893752366304,8.464767774021626,-2.462714347629249,4.295710988539457,0.8059222102165222,-1.966178297996521,0.339784175157547,-0.6799207266690888,-0.1853950087006944,0.4965968062955877,-0.5066834668183454,-0.2844527065753937,0.2876608371734619,0.5089162588119507,-0.0534746646881103,-0.0666896179318428,-0.1021930649876594,0.3560177981853485,-0.3137795925140381,-0.5273439584374428,-0.0405410677194595,-1.0471847016379237,1.1578770731925965,201
1733299311469627000,1.0776058511257172,3.462855266280472,7.350558577641844,8.731288712930679,-2.3016673149742184,3.825874339435994,1.4471813440322876,-1.212313890457153,-0.1842924058437347,-0.6586052965967679,-0.2162009660553256,0.5081258150959745,-0.5111794537439242,-0.356038749217987,0.2805465757846832,0.8095083236694336,-0.1125687360763549,0.0035719573497772,-0.098590612411499,0.3298046290874481,-0.290726751089096,-0.9131167151927948,0.0060379803180694,-0.9543931668244302,1.3299927584812044,202
1733299311509627000,0.3897597805649042,2.367736408687383,5.044184838542342,8.863980442586541,-1.9292985219322143,3.725327222059666,2.02636194229126,-0.4437095820903778,-0.3767063319683075,-0.6461051583383889,-0.2498151995782298,0.4976480082772912,-0.5220029703698458,-0.2985935807228088,0.3437692821025848,0.9825870990753174,-0.1188496947288513,0.0816578418016433,-0.1349252462387085,0.2578740417957306,-0.2585337460041046,-1.0643132388323544,-0.0047865090891718,-0.9207381499819456,1.5258232274867594,203
1733299311549627000,-0.1043453406155109,1.816872604583204,1.834414691014588,8.99132379695177,-1.4447238840326666,3.63858066649884,2.215402126312256,-1.0854138135910034,-0.6457370519638062,-0.6337303948379028,-0.288223463667157,0.4810522304464792,-0.5328244415573549,-0.1939159035682678,0.4093151688575744,1.000186562538147,-0.0528363585472106,0.1568344384431839,-0.1663572788238525,0.1844736486673355,-0.2079657018184662,-0.9899421807199716,-0.0325304456055164,-0.8541053579714148,1.7226754407554865,204
1733299311589627000,-0.5458978522598743,1.0017113097731023,1.870446958382428,9.264981163612008,-0.8110727833874524,3.110091045157611,2.7410926818847656,-2.17397403717041,-0.8899839520454407,-0.6099479106594266,-0.3456543915442496,0.4711183812287817,-0.5352887695577504,-0.1021460369229316,0.4109787344932556,0.9495033621788024,-0.0325947999954223,0.209832563996315,-0.2096929550170898,0.1288374066352844,-0.1996571272611618,-0.8487824824482202,0.0078376419842243,-0.9418953581705688,1.7035507613077758,205
1733299311629627000,-1.2724474552243947,0.0192969672746956,0.816522134834528,9.51747942238748,-0.2076906556093133,2.354747747776657,2.525329351425171,-2.226123332977295,-0.7383750081062317,-0.5785453717215864,-0.4081644668095913,0.4618907313446607,-0.5341759920165613,0.0088443960994482,0.414152055978775,0.8832207322120667,-0.0927022099494934,0.2602209448814392,-0.2578433752059936,0.0780103057622909,-0.2233645021915435,0.1524760420560836,0.0694741010665893,-1.112739854479581,1.4990902649924158,206
1733299311669627000,-0.3335872269660234,-0.9173314102783798,0.1202332300990819,9.685487964618206,0.2414183906281367,1.5176999806553124,2.078100204467773,-1.9494383335113523,-0.6679606437683105,-0.5464315452758145,-0.4632447372165787,0.4560955467563218,-0.528009156542472,0.0999990776181221,0.3308670818805694,0.8528751134872437,-0.0796818137168884,0.3150902986526489,-0.3011860847473144,0.0271832011640071,-0.2470718622207641,1.1544196262151003,0.1311105638742447,-1.2838025235839188,1.2947450656197963,207
1733299311709627000,-1.6051479624837637,-2.486243399515748,-0.397305958160758,9.76039736739099,0.5108773922830819,0.8025245891422033,1.8534663915634155,-1.7730456590652466,-0.1707605719566345,-0.5162452836557045,-0.5067899516670465,0.4497183330459707,-0.5238399396041031,0.3004344403743744,0.2236442118883133,0.7603699564933777,0.0347399711608886,0.4228160083293915,-0.3403438329696655,0.0225106123834848,-0.4027725458145141,2.6495968094170093,0.2378070950508117,-1.3349245157949623,1.3985779266685248,208
1733299311749627000,0.8691121537715196,-3.579662905845046,-2.979585719630122,9.789723415118456,0.5569831272346899,0.1464966479860711,0.7804552912712097,-1.1650521755218506,-0.1072149127721786,-0.4871832083727177,-0.5384618086186419,0.4500995782279684,-0.519732358881966,0.3291640877723694,0.0650235190987587,0.4668154418468475,0.2322062849998474,0.5039558410644531,-0.3459471464157104,0.0748777240514755,-0.4173214137554168,3.614944647106528,0.4297628998756408,-0.9053846596360208,1.0658886714555322,209
1733299311789627000,-1.8545739742070435,-4.95860440415144,-0.8741361194133758,9.79180139043629,0.5209517366496845,-0.1401078693975694,0.3545246124267578,-0.4101931154727936,0.6620608568191528,-0.4750916888728037,-0.5491613585578742,0.4533931136232429,-0.5168601914036406,-0.1413211375474929,-0.0136317759752273,-0.058154921978712,0.4658493399620056,0.5365017652511597,-0.310239315032959,0.1272448301315307,-0.4318702816963196,4.585948318600654,0.62171870470047,-0.4770910406785085,0.7329213299535214,210
1733299311829627000,-2.733365225949884,-6.390825657224655,-3.381421722435951,9.803142284139993,0.0173114765628823,-0.2616559084222651,-0.0497430302202701,-0.4788324534893036,1.8377805948257449,-0.4564505774865335,-0.5426487254733701,0.4678387537398132,-0.527552885430612,-0.387085884809494,-0.1687120646238327,-0.5870946645736694,0.5458903312683105,0.5747213959693909,-0.33772873878479,0.1716858893632888,-0.4802108705043793,1.5965952381938695,0.6413394212722778,0.5197576680269091,-1.002870782006532,211
1733299311869627000,-2.708652809497714,-6.559512829369306,-2.441393619441986,9.740722360584138,-0.9156333741888404,-0.671068246500194,-0.3733516931533813,-1.430797457695007,2.931476831436157,-0.4237675125949565,-0.5279465567934967,0.505457605603597,-0.5349823754124965,0.5200687646865845,-0.3119666278362274,-1.290623903274536,0.3781796097755432,0.7018435001373291,-0.3673112392425537,0.0833549574017524,-0.2585875988006592,-0.4951894092857837,0.2607116103172302,1.6418394244126977,-1.585339100164175,212
1733299311909627000,-1.0507529155135154,-4.230636751082539,0.6541490412075072,9.51904360296428,-2.0837707062415776,-1.102763088735938,-0.1815215647220611,-0.6008670330047607,3.015922784805298,-0.3828494795816181,-0.5045613709747421,0.5492204428174956,-0.5451614181746129,1.5236973762512207,-0.6122705340385437,-2.171744108200073,-0.0471537113189697,0.541958212852478,-0.3326035737991333,-0.0020121708512306,-0.3168979585170746,-0.4388374074667692,0.2728680074214935,1.9812296385690569,-1.6751229775942862,213
1733299311949627000,-0.6650427026003599,-4.849276306687295,-1.4193430667996405,9.201867997094988,-3.169054690779745,-1.2054500676851718,-0.0854110941290855,-0.0996342524886131,2.864082098007202,-0.348437222478791,-0.4740915222554893,0.5802569078218096,-0.5631435759521062,2.058753252029419,-0.7706639766693115,-3.013939142227173,-0.1125776767730712,0.4222469925880432,-0.2257349491119384,-0.0212682429701089,-0.0508548915386199,-0.5215180287629365,0.3597444295883178,1.6924381234019994,-1.1508641256906091,214
1733299311989627000,-1.2103472651422025,-5.461979457980394,-2.9308614362105727,8.739960095164179,-4.2384266743063925,-1.3487741774491966,-0.7931905388832092,-0.3969042003154754,3.217181921005249,-0.3142457178520879,-0.4383674949545302,0.6136792996181144,-0.5766117969795647,2.1421144008636475,-1.3779712915420532,-3.430668592453003,0.5750747323036194,0.2929872870445251,-0.0975648760795593,-0.0405243150889873,0.2151882052421569,-0.6024672962218522,0.4466208517551422,1.4039178263917564,-0.6267030350729823,215
1733299312029627000,-0.1277139412432908,-4.826521746304631,-1.1461771369181573,8.07691119672954,-5.284939468032121,-1.732999997023493,-1.8368357419967647,-0.3143249154090881,3.56213641166687,-0.2825074307875445,-0.3913537225848846,0.6596974101495879,-0.5760478149155901,0.8687918782234192,-1.8792989253997805,-3.378415822982788,0.6811073422431946,-0.0816888362169265,0.1121435761451721,-0.0844499766826629,0.2385444343090057,-1.0714765545904636,0.485512912273407,1.0877866150088609,-0.3141965900585055,216
1733299312069627000,1.3528010948777198,-3.1264415837168693,3.0195851370632645,7.188512743207812,-6.289803323552012,-2.221267936483025,-1.1529792547225952,-0.3822005093097687,3.816593170166016,-0.2469624512717355,-0.3361074896852937,0.7073082090907441,-0.5707507058246267,-0.2834354043006897,-1.984754204750061,-3.3501245975494385,0.4897438287734985,-0.1816784143447876,0.1523689031600952,-0.1295133829116821,0.2429892271757125,-1.7817273491829633,0.5161203742027283,0.804161688824743,0.2413707886267453,217
1733299312109627000,3.4126375294327733,-0.0289180514484643,3.7813784873664376,6.1620741847395895,-7.234341597446799,-2.4214726750500497,0.2592782974243164,-0.3413390219211578,3.438645362854004,-0.2021905558018603,-0.2853479262909011,0.736231828642002,-0.5793602031723089,-0.678657054901123,-1.7915784120559692,-3.2288739681243896,0.2841816544532776,-0.2468574047088623,0.2396979331970214,-0.1302914917469024,0.2690909504890442,-2.268082294628024,0.5252209901809692,0.6304728359352797,0.9230802561286836,218
1733299312149627000,4.792580898258089,1.6207055970996618,1.4292191486477852,5.16056490034461,-8.007388163170218,-2.32824143364504,0.5401698350906372,-0.0725884214043617,2.994065523147583,-0.1580882269825903,-0.2426339450091738,0.7482219211811306,-0.5969094665093966,0.0211681723594665,-1.356837511062622,-2.971574068069458,0.154851496219635,-0.2673285603523254,0.3227178454399109,-0.0634432211518287,0.3232597708702087,-2.3823352812737224,0.5146292448043823,0.4955607268162071,1.465126620592177,219
1733299312189627000,6.468506278276443,3.2733184905916453,-0.2325844747766852,4.301061409656703,-8.526644676741958,-2.228805053989589,-0.105476938188076,0.2706688642501831,2.3767988681793213,-0.1277363971612253,-0.2015392578114895,0.7569804228453854,-0.6083140188403866,0.8890222907066345,-1.2153078317642212,-2.603029489517212,0.2083134651184082,-0.3689249157905578,0.3635697364807129,0.0497555434703826,0.301665723323822,-1.891522771897912,0.4865332245826721,0.566223468462564,1.6810124740242958,220
1733299312229627000,6.953248527827858,3.897370426633954,0.1071671200379729,3.547421262931824,-8.837806721410155,-2.3408085081428287,-0.6890749931335449,0.0746856853365898,2.070706367492676,-0.1048931717310843,-0.164718722948874,0.7695555613907108,-0.6079880758877373,0.9757380485534668,-0.875032901763916,-2.2034010887146,0.1211930513381958,-0.5291405320167542,0.4432776272296905,0.1470895409584045,0.2887954115867615,-0.7155185058623552,0.3860261738300323,0.6180402745373547,1.6374802062898874,221
1733299312269627000,8.390683716157078,4.911899936121702,2.1552318682566285,2.886454723729193,-8.995209698474406,-2.631527191980183,-0.7305433750152588,-0.1219852268695831,1.54485821723938,-0.0848219264823745,-0.1345753352204385,0.7848949173128534,-0.5988610610589319,0.8414156436920166,-0.484177678823471,-1.6072349548339844,0.1176467537879943,-0.6013882756233215,0.4564661681652069,0.2444235533475875,0.2759250998497009,0.4641577266842127,0.2855191230773926,0.6687861269123851,1.5934743296943603,222
1733299312309627000,11.05487779072523,5.368279430019856,3.179699418912828,2.5028873680636283,-9.070165278476477,-2.763707757243514,0.1095492541790008,-0.2183875143527984,0.4071877300739288,-0.0703614204360555,-0.1208683590892526,0.791391633436348,-0.5950962497605807,0.6780855655670166,-0.0251729041337966,-0.6205891370773315,0.1237774491310119,-0.6392855048179626,0.4665063619613647,0.3555879890918731,0.1963479816913604,1.6561293771803378,0.2835407853126526,0.6678172818802297,1.3492324426107107,223
1733299312349627000,11.284903520929811,3.8936856006413696,1.0909677292630076,2.51602303622961,-9.090750385865569,-2.6829624879240987,0.2458264380693435,0.0619087666273117,-0.4100850820541382,-0.0693300991995017,-0.1229690965791913,0.7884615531352351,-0.5986655173521992,0.4285846948623657,0.3011346757411957,0.6276492476463318,0.2381766438484192,-0.5769359469413757,0.4856793880462646,0.4891199469566345,-0.1355285942554474,6.151700090241432,0.435842752456665,0.6394045496053994,2.1460886307276783,224
1733299312389627000,12.435979097414016,1.484623055961728,-0.3253217951849103,2.8167311991617083,-9.013789311259984,-2.64348826340884,0.0063311709091067,-0.1059600561857223,-1.2694333791732788,-0.079256462292743,-0.1358538476194095,0.7850631297652545,-0.5991144497908687,-0.5332093238830566,0.9198671579360962,2.0188353061676025,0.2077504992485046,-0.5390194058418274,0.5089386701583862,0.4763209819793701,-0.2511568963527679,3.7720840047985313,0.5259993672370911,-0.1994096426665783,-0.4274647303853183,225
1733299312429627000,12.026740124875309,-0.5247831680387258,0.4556149392664432,3.3857834247767924,-8.814847870627045,-2.6467580788597465,0.1054605394601821,0.0165613833814859,-1.9473130702972408,-0.0967839531306436,-0.1628690668130819,0.7800133186789586,-0.5963940235539094,-1.3924888372421265,1.320390224456787,3.4976232051849365,0.6586673855781555,-0.4176394343376159,0.5020504593849182,0.1415381133556366,0.3826722800731659,0.4749813185155391,0.1491335332393646,-1.6540619232565164,-1.958249891128391,226
1733299312469627000,8.48469470976293,2.3062170872330663,1.1503089760258791,4.194847644820809,-8.49103794130981,-2.544782389985025,0.3491692841053009,0.1534473747014999,-2.7413783073425293,-0.1256727223959542,-0.1969700400062753,0.7687331152223028,-0.5953642445633048,-1.646647334098816,1.4702534675598145,4.1016764640808105,0.373445451259613,-0.2735287547111511,0.3115995824337005,0.0503876581788063,0.1950508952140808,1.7153104649454354,0.178131490945816,-1.7815810725800691,-1.2693718471713364,227
1733299312509627000,8.962817833435535,-1.4858698411524296,0.8854271826259791,5.266520014244318,-7.926184628689288,-2.368484450575709,0.8937534093856812,-0.4127246141433716,-3.831637382507324,-0.1604514117328612,-0.2499905479198324,0.7471705467724653,-0.5945553879176938,-1.017288088798523,1.526848077774048,3.921043872833252,0.4415248036384582,-0.1061410009860992,0.0388113856315612,0.1489217579364776,-0.1491398513317108,1.5273609584480523,0.1305193305015564,-1.2060637426041063,-0.8816567241765558,228
1733299312549627000,8.013739578023552,-6.868963393944502,0.3684885906077921,6.45202626811862,-7.040898754230141,-2.228783280549198,1.0736054182052612,-0.9279260039329528,-4.404914855957031,-0.1941060415203962,-0.3224153043252569,0.7139220500918078,-0.5904967894804994,0.6679607629776001,1.2518525123596191,3.5373804569244385,0.7278690934181213,0.1265555471181869,0.0249059349298477,0.1464773863554,-0.2825151085853576,0.0382446827203035,0.0137715861201286,-0.6924761415142565,-0.8599623403713107,229
1733299312589627000,5.15004584441781,-7.1690592701971525,1.3684636511728168,7.54087013709545,-5.857792547234893,-2.2342672649182376,1.0615534782409668,-1.0157710313796997,-4.750041961669922,-0.2257753790829847,-0.4018236504798099,0.6726467730502388,-0.5788865614920713,0.5135898590087891,1.1719141006469729,2.8434605598449707,0.4989304542541504,0.1451707035303115,0.0122169852256774,0.1440330296754837,-0.4158903360366821,-1.4491513450860976,-0.1029761359095573,-0.1791862081967294,-0.8373052490137517,230
1733299312629627000,1.96927938079536,-6.909254487800598,2.327361289809644,8.466148999246954,-4.3806034406661984,-2.303269927865266,1.0427826642990112,-0.6834902167320251,-5.017326354980469,-0.260865050321597,-0.4804782369388796,0.6217513562481217,-0.560816791633971,-0.4095893204212188,1.155077576637268,2.081871747970581,-0.0623602271080017,0.1674727201461792,-0.1431477665901184,0.2003114223480224,-0.4812486469745636,-2.793677948093414,-0.0274127572774887,0.192644824706763,-0.2852881101559847,231
1733299312669627000,-0.9242214620530604,-8.245241225999592,1.7762778516054152,9.13543533076644,-2.754768956245482,-2.263946217736602,0.9099957942962646,0.0863000676035881,-4.64915132522583,-0.300796582997126,-0.54695860645106,0.5623748008482131,-0.5423027590310395,-1.628791332244873,0.9621462821960448,1.4876039028167725,-0.1955811381340026,0.2674877643585205,-0.1985093355178833,0.2518598735332489,-0.3650349378585815,-3.657487319281697,0.0871383696794509,0.0849530232075601,0.2526388362899422,232
1733299312709627000,-3.7222675422281024,-8.059653772458434,0.7487551511622965,9.504413604587317,-1.2223664964988827,-2.0838215596459806,0.6045737862586975,0.4352346658706665,-3.917942523956299,-0.3411535296054288,-0.5941558391840283,0.5032138411197776,-0.5266582252971164,-2.2884647846221924,0.6625732779502869,1.2288309335708618,-0.1774041056632995,0.3688810765743255,-0.138450801372528,0.3016880452632904,-0.2541293799877167,-2.9802228484898805,0.1275566816329956,0.0225256835302338,0.5007354991056024,233
1733299312749627000,-5.420572511836886,-8.538360248976945,0.2101142842933535,9.61132441177666,0.0628863674572436,-1.946509622843564,0.3803316652774811,0.1609785854816436,-2.996061325073242,-0.3743475908214612,-0.6272418816214698,0.453665064337758,-0.5105091685684563,-2.2650463581085205,0.5833914279937744,1.1513102054595947,-0.1912541389465332,0.4880871772766113,-0.1524279117584228,0.3515162169933319,-0.1432238221168518,-2.30158592030108,0.167974978685379,-0.0408159214477986,0.7500973595514893,234
1733299312789627000,-6.549723256760835,-8.694228271558881,0.7390367440938949,9.550855622288584,1.0019577588148414,-1.9868647218465805,0.3717567026615143,-0.3026571571826935,-2.0870401859283447,-0.3943482630549309,-0.6528355313174016,0.4184586918495703,-0.4931405055282993,-1.5179897546768188,0.4294641017913818,1.1735122203826904,-0.1501072645187378,0.6840597987174988,-0.2838409543037414,0.4252152740955353,-0.092483639717102,-0.1996364371597766,0.1780174374580383,-0.324422690920718,1.0302024410463868,235
