time_imu,phone_acc_x,phone_acc_y,phone_acc_z,phone_gravity_x,phone_gravity_y,phone_gravity_z,phone_gyro_x,phone_gyro_y,phone_gyro_z,phone_ori_w,phone_ori_x,phone_ori_y,phone_ori_z,watch_gyro_x,watch_gyro_y,watch_gyro_z,watch_acc_x,watch_acc_y,watch_acc_z,headphone_gyro_x,headphone_gyro_y,headphone_gyro_z,headphone_acc_x,headphone_acc_y,headphone_acc_z,frame_imu
1733303441811967500,4.248449763409793,12.490640077406168,-3.979375925147533,0.2094044189909473,9.784711724436283,-0.6212324947074055,-1.2439467906951904,-0.2073829621076584,-1.7751610279083252,-0.5696277076047178,-0.5981461504164416,0.4170074635468276,0.3792757854738609,0.0055495169945061,0.0371533744037151,0.0026530660688877,-0.0078344717621803,0.0058164000511169,0.0070266127586364,0.0832059830427169,0.0621389038860797,-0.0388724592298269,0.0865021795034408,0.0441617247443646,0.1007183822900056,0
1733303441851967500,4.568790263050794,4.789580547398328,-2.352504206633568,-0.6354161375563592,9.786019299903511,-0.0213471663863281,-1.6772472858428955,-0.09806639701128,-2.354997634887696,-0.5690980641520295,-0.5963073572008725,0.3814524064044417,0.4183765807220384,0.0302466060966253,0.0486275516450405,-0.018578452989459,-0.0091739669442176,0.0095939636230468,0.0045937895774841,0.086264744400978,0.0681964084506034,-0.0108107323497533,0.0676791444420814,0.05372965395879,0.0980699136078357,1
1733303441891967700,1.1476356651633977,-4.828687399905919,0.7411445300281048,-1.5332519161827862,9.666321491855385,0.6178642603833228,-1.4147007465362549,-0.2591822445392608,-2.17869520187378,-0.5674191111084,-0.593476669430453,0.3410031276024892,0.4577530960485929,-0.002744365716353,0.054458912461996,-0.0205915365368127,0.0029922351241111,-0.003471553325653,0.0049213767051696,0.0841439142823219,0.0870788693428039,-0.0680295801311731,0.0701400116086006,0.0292483793813735,0.1107401562191545,2
1733303441931967700,-0.6160746735528111,-12.24076164574027,1.7727169442534445,-2.2207550185248253,9.497454871490596,1.0183238602694122,-0.6203112006187439,-0.1593187600374221,-1.3895320892333984,-0.5603297050869387,-0.5916868315597614,0.3130281577036455,0.4878019204690987,0.0388462208211422,0.0304588265717029,-0.0106668006628751,0.0028682202100753,0.0009713172912597,-0.0054097175598144,0.0704125463962555,0.0760331004858017,-0.0431727867722511,0.0468710288405418,0.0695612466778606,0.1237093817770481,3
1733303441971967700,0.0835451291710138,-15.844824248826503,0.2128939050745218,-2.522188865382969,9.409958374345305,1.1232199666354803,0.1022226959466934,0.2078479826450348,-0.1754978150129318,-0.555998072004609,-0.5936300561097672,0.3005579381213035,0.4981309085783555,0.0216925330460071,0.0243181083351373,-0.0145651353523135,0.0101768597960472,-0.0175694227218627,-0.0032194852828979,0.0567807294428348,0.081691600382328,-0.0961795698165893,0.0417122058570385,0.0254649518525227,0.0866337428361177,4
1733303442011967700,0.3714141226656735,-13.360250828349589,-2.166703987124562,-2.411423574722558,9.453511684867738,0.993245825375244,0.38363778591156,0.1013612747192382,0.7661035656929016,-0.5566345851043819,-0.596808419058193,0.3052511526184555,0.4907131408387215,-0.0305016934871673,0.0090940427035093,-0.0146144712343811,0.010250337421894,-0.0099536776542663,-0.0025038123130798,0.0428532212972641,0.0875078588724136,-0.0836462514579296,0.0399486385285854,0.020888583847694,0.1555681628525257,5
1733303442051967700,-0.2791663393400609,-6.889106018263101,-0.4833779754608869,-2.0189679792024195,9.561633621412517,0.8181173681367189,0.4881470501422882,0.1893663853406906,1.2259005308151243,-0.5625919286620924,-0.5964751527368133,0.3201640450735426,0.4745552699709851,-0.0123935304582118,0.0041882330551743,0.008256291039288,0.0067174211144447,-0.0176489949226379,-0.0165700316429138,0.0486025922000408,0.0570890679955482,-0.0445277085125446,0.021697686985135,0.0240398144202306,0.165653503537178,6
1733303442207827500,1.264514908659458,4.910199561944603,-0.5914110646784305,-0.29621006606156,9.800523626074192,-0.179970727904234,0.5480320453643799,-0.0404500663280487,0.3714792430400848,-0.5725032098902002,-0.5952669525839835,0.3934885118550029,0.4038120133951775,0.0137003883719444,0.0108891725540161,-0.0045589739456772,-0.0038480311632156,-0.0016196370124816,-0.0043616294860839,0.0351311638951301,0.0112741766497492,-0.0642663414404029,-0.0535648502409458,0.0017421595007006,0.0641963540772674,7
1733303442247601000,1.3118179271042347,3.658593234696984,-1.1237561924040318,-0.2362229226105846,9.79711937058866,-0.3619951004026457,0.4081227779388428,-0.1889000385999679,-0.080545425415039,-0.567160500382693,-0.5983268079554933,0.4005766403656844,0.3998404574163652,-0.0165794882923364,0.0177848953753709,0.0164695456624031,-0.0080770477652549,-0.0042738914489746,0.0039659142494201,0.0206171628087759,0.0016514778835698,0.0038600912279449,-0.0089196376502513,0.0156812358793918,0.0591567661745939,8
1733303442287601000,0.5934329258948564,2.1421540677577258,-1.0233528674125671,-0.2836830313132144,9.79264193291366,-0.440551481375657,0.0946926996111869,-0.2016604989767074,-0.1192251741886138,-0.562171987143457,-0.5999459118113135,0.4031460998943391,0.4018716498002981,0.0312652662396431,0.0234641395509243,-0.0009206963004544,0.0047561302781105,0.0102342367172241,-0.0007919669151306,0.0619375184178352,-0.0084696151316165,-0.0474409656107425,-0.0552849657833576,0.01018160413336,0.1286456691354513,9
1733303442327601000,0.6912526641339063,1.108843285432458,-0.6152513744711876,-0.3491809192759916,9.790608965781333,-0.4386465610697865,-0.1201761066913604,-0.0307917222380638,-0.2338054776191711,-0.5604052697704055,-0.6007616074920442,0.4018087126163924,0.4044515985794333,-0.0232025031000375,0.0287459883838892,0.0059291534125804,-0.0002353638410568,-0.0030757188796997,-0.0031964778900146,0.1239931806921958,0.0210954882204532,-0.1098351702034473,-0.0844373255968093,0.0101740418814122,0.2149805751554667,10
1733303442367601000,-0.059050593253225,0.0287456174910068,0.2825648957371711,-0.4278702789789065,9.789425893476604,-0.392997045453079,0.0106845255941152,-0.089593231678009,-0.1154950484633445,-0.55950287664685,-0.6004068571490575,0.399435701012476,0.408557520589303,0.0384637899696826,0.0275056455284357,-0.0017579941777512,0.0026938021183013,0.0012038350105285,-0.00899338722229,0.1862437129020691,0.0529533289372921,-0.1006961704581975,-0.077893741428852,0.0059373541597276,0.2093527984015643,11
1733303442526016300,0.0703823538023978,-0.2251893960893154,0.4310989221692085,-0.2586264958648011,9.788229377168417,-0.5422796252300962,0.0897986069321632,0.5403633713722229,0.2999950647354126,-0.5651361787916285,-0.6080106143736862,0.3974564868075164,0.3911170560655231,0.0008333250880241,0.0068841511383652,-0.0071239974349737,0.0028167515993118,-0.006560742855072,-0.0056624412536621,0.1683437973260879,0.1121089830994606,-0.0125351404229877,-0.0468829721212387,0.028578973953519,-0.0176103830192878,12
1733303442565789700,0.6488216356396674,0.2390671147942543,0.411549003046751,-0.2207085060819052,9.784258135449884,-0.6244836054578423,0.2916161715984344,0.397042840719223,-0.0612390115857124,-0.5670299965499763,-0.613415521129152,0.3944124782396547,0.3829324505106803,0.0059282183647155,-0.0037951248232275,0.0081146769225597,0.0046414881944656,-0.0072352290153503,-0.0071033835411071,0.1422126740217209,0.106106087565422,-0.0308844059182563,-0.0810237005352974,0.024949739189248,-0.0573111702739493,13
1733303442605789700,-0.1212010522179305,0.0742325264245271,-0.3940566009759902,-0.2377795957343652,9.776560566684603,-0.7298710755374282,0.1414691805839538,0.3906505405902862,-0.018034329637885,-0.5660326298776781,-0.61955661726064,0.3916154573181958,0.3773513285886482,-0.0083455257117748,-0.0133376568555831,-0.0010050518903881,0.0070592239499092,-0.001701533794403,-0.0045056939125061,0.1154406517744064,0.1008225455880165,-0.0505915385961532,-0.0640983805060386,0.0129699379439465,-0.0076142743960022,14
1733303442645790000,-0.2188902594124898,0.0026660043388605,-0.578127147148177,-0.192164128517732,9.778844878229496,-0.7124971852798014,-0.2296652346849441,0.6595639586448669,0.1886047720909118,-0.5712645957983117,-0.6221052254433,0.3864095454332873,0.3705799716415175,0.0026480029337108,-0.0172248594462871,-0.0198097638785839,0.0041519254446029,0.0060945153236389,0.0014594793319702,0.0845518037676811,0.0857151076197624,-0.0156377141147851,-0.0644386634230613,0.0358177113017067,0.0136377724692225,15
1733303442685789700,0.7879895025070757,0.2241238126844167,-1.1529412972908466,-0.1113281669738702,9.78887527385652,-0.5795628425071015,-0.462894469499588,0.6502829790115356,0.0050771725364029,-0.5822498694899949,-0.6220742643447549,0.377588521425367,0.3625403541026216,-0.0091902799904346,-0.0141563657671213,-0.0131914103403687,-0.0055715888738632,-0.0087543725967407,-0.0032251179218292,0.0674167051911354,0.0524522997438907,-0.0063075757116079,-0.0585732907056808,0.0336089674773626,0.0186916948579251,16
1733303442725789700,-0.3388058383971452,0.2292512387007474,-0.8675169204693287,-0.1036723001921549,9.798112473279238,-0.3957239131337031,-0.475858211517334,1.097330093383789,0.1402689516544342,-0.5935262022333653,-0.6218797091640967,0.3652970459049567,0.3571417128206523,0.0195795819163322,-0.0068451897241175,-0.001637685811147,0.0006001889705657,0.0067673921585083,0.0027204453945159,0.0502816103398799,0.0191894955933094,0.0030780922710895,-0.05270791426301,0.0314576529286801,0.0237299812860786,17
1733303442765789700,-0.0904489263432566,-0.1370323892086744,-0.9968693496346474,0.0301448532970622,9.803473123529551,-0.2478158000476658,-0.1517739742994308,2.581211566925049,0.3298145532608032,-0.6134724929777614,-0.6281221705204834,0.3436533549882369,0.3331914242673049,-0.0123852742835879,-0.0072991526685655,-0.02119966968894,-0.0006533414125442,-0.001632273197174,0.0086833238601684,0.0489112176001071,0.0155825391411781,-0.076597501990199,-0.0477828383445739,0.0050987479111179,0.0557506749249994,18
1733303442805789700,-0.9705996207378804,0.7730278610229492,-0.5690145239531994,0.2074478780956938,9.801412683868408,-0.2442653044918551,-0.0569212362170219,1.674904227256775,0.3662991225719452,-0.6293560763900019,-0.6385271246913324,0.3236312336150922,0.3024184530300481,-0.0113817956298589,-0.010647490620613,-0.0102100018411874,-0.0067512318491935,-0.002037227153778,0.0023306608200073,0.0528336614370346,0.0223118364810943,-0.0172708682745695,-0.0250849798321723,0.0453238455926068,0.0399434494622051,19
1733303442845789700,-1.0477051453154531,0.399340678858757,-1.10462479095459,0.3315395737212151,9.800407306218146,-0.1117793539406266,-0.4306354522705078,1.3564435243606567,0.2991936206817627,-0.6452943947397222,-0.6427744346077472,0.304204186303442,0.2790985974007143,0.0190999452024698,0.0026977150700986,-0.0064518824219703,-0.0090458765625953,-0.006209373474121,-0.0029414892196655,0.0422876998782157,0.0033932235091924,-0.0430190575152635,-0.0501525290310382,0.0223072550065815,0.0177757490567863,20
1733303442885790000,-0.7923758278325199,0.4801268647104501,0.0134451725065708,0.4001757779760286,9.79848013754785,-0.0052148468589904,0.0954182371497154,1.2648292779922483,0.1570446342229843,-0.6561441824410501,-0.6452054498960441,0.2897858012692501,0.2630758651859903,-0.0286958068609237,-0.0139575880020856,-0.0082102343440055,0.0041974708437919,-0.0089914798736572,0.0032861232757568,0.0395558811724185,0.0019397645955905,-0.0272486569315195,-0.0625918582081794,0.0491542540683411,0.0672585957586765,21
1733303442925790000,-1.4471338677838443,0.0528460395246744,-0.3013911950265057,0.537935604676418,9.790765033125878,-0.1481205045945476,0.7260432243347168,1.735263109207153,0.434478610754013,-0.6606445087579107,-0.656509788272018,0.2766711803397654,0.2366365513660296,0.009471021592617,-0.0043606734834611,0.0031076010782271,-0.0024797916412353,-0.001498520374298,-0.0033130943775177,0.0428035296499729,-0.0210280548781156,-0.0835778623968362,-0.0894611701369285,0.034918132113479,0.1140215159773826,22
1733303442965789700,-0.8034651579279453,-0.6403413920640945,0.1907155006119981,0.7141315815486013,9.771077751359345,-0.4317820090625435,0.9018265008926392,2.280181884765625,0.375664621591568,-0.6615353480189958,-0.6741911048853162,0.2597712658480203,0.2008885829006363,-0.0148673402145504,0.0063841161318123,-0.0001866625389084,-0.0024136304855346,-0.0073063969612121,-0.001686155796051,0.0679041072726249,-0.0027120467275381,-0.1714513761609792,-0.0899154916405677,-0.027964860643167,0.1507720146171748,23
1733303443005789700,-1.0757078354846683,-1.3960387635797262,-0.3060872256219387,0.9259206671863792,9.739232998809218,-0.6785283532477915,0.6008991003036499,1.8059054613113403,0.5540258884429932,-0.6629011841627095,-0.6909355931879163,0.2391721647196733,0.1611419313202042,0.0025185733102262,0.0088418936356902,-0.0051381448283791,-0.001290887594223,0.0125849843025207,0.0049541592597961,0.0916232764720916,0.001305928453803,-0.1194511398106813,-0.0926053076982498,-0.0078035133577883,0.0910040668748319,24
1733303443045789700,-1.6862904144272208,-1.6146224777936935,0.6711702455699443,1.2420163688644763,9.697896195292472,-0.7606540440749376,0.3821548521518707,1.4333465099334717,0.8422452211380005,-0.6662272222363474,-0.6961492261624675,0.2327204686751406,0.1317526380859677,-0.002859680680558,0.002367163542658,-0.0112150786444544,-0.0019030049443244,0.0053619146347045,0.0007075667381286,0.1153424382209777,0.0053239031694829,-0.0673819298774004,-0.0952951163053512,0.0124595772690139,0.0312821502313017,25
1733303443085789700,0.1011241866119205,-1.870878043276072,2.174895915278048,1.6762714169770478,9.617617958962915,-0.928414456763491,1.0190082788467407,2.28613805770874,0.772557258605957,-0.666953366714555,-0.7057823904872986,0.2218269141571534,0.0885289188259337,0.0017015155171975,-0.0026891673915088,-0.0114616872742772,-0.0057634562253952,-0.0097615718841552,0.000310480594635,0.1349042505025863,0.0534912534058094,-0.061481765922904,-0.0947189778089523,0.020942633856181,0.0282576878435909,26
1733303443125789700,-1.3859795802496373,-1.3296715637028216,0.0488438181459903,2.066980168829858,9.510957911664248,-1.1998559740051626,1.0768487453460691,1.606024146080017,1.0914441347122192,-0.6609746108674502,-0.719842058087735,0.2073717481611864,0.0440107632758871,0.0027353547047823,-0.0137957734987139,-0.0131933409720659,0.00111074000597,-0.0078022480010986,-0.0025480985641479,0.1544660478830337,0.1016586124897003,-0.0554775570720434,-0.0941428318619728,0.0295989646510221,0.0252360019348561,27
1733303443165790000,-0.2434840544536709,-0.4754319848924875,-0.6166356684364378,2.611349788609147,9.369593630731105,-1.2497941632591187,-0.2378246188163757,2.423847198486328,1.3562248945236206,-0.6605137183693716,-0.7232595237340569,0.2015376718953959,-3.23377355518e-05,0.0013534403406083,-0.0085669234395027,0.0012589012039825,0.001691311597824,-0.0076729655265808,-0.0042229294776916,0.160732626914978,0.0935173779726028,-0.0418155269443988,-0.087946817278862,0.0610968582585454,0.0251950854025781,28
1733303443205789700,-0.5368836479380726,0.3040589346647262,-0.3451472067805007,3.2173417518258094,9.247606834962964,-0.5484880514161661,-1.2359654903411863,2.955737590789795,1.3603168725967407,-0.6848141752160012,-0.7032706240078938,0.1826897274933011,-0.0553560101200169,0.0068456772714853,0.0009776857914403,0.0191714558750391,0.0105334222316741,-0.0083780884742736,0.0009161233901977,0.1809297502040863,0.07149638235569,0.0847808084458112,-0.1394574642181396,0.1190222834067419,0.0649259150274097,29
1733303443245765400,-0.601408434818685,-0.3184294053226709,1.495218099734187,3.797517721262574,9.04095438156128,0.1018642735226545,-0.4854828119277954,1.923766613006592,1.5187665224075315,-0.7024481519530336,-0.6825060874385247,0.1702698097612789,-0.1084441594072146,-0.0018138571176677,0.0026366752572357,0.0412346124649047,0.007697083055973,-0.0085436105728149,0.0074974298477172,0.3274091482162475,0.0632567033171653,0.1824779066858813,-0.2703231275081634,0.1554090815669856,0.2941814280444756,30
1733303443285765600,-1.1864584400326013,-1.0513321767061947,1.5295336263120174,4.309395522759854,8.802111138650774,0.3497653315678238,0.48945352435112,0.986602544784546,1.4833383560180664,-0.7043319233221119,-0.6729880904581039,0.1710378944142563,-0.1474774584238376,0.0003435697872191,-0.0140185207128524,0.0541432201862335,0.0108150839805603,-0.0115898251533508,-0.0046418905258178,0.7039582133293152,0.1990844309329986,-0.0764811821341514,-0.6487086415290833,-0.0109326964952982,0.5549461049817502,31
1733303443325765600,-2.368945930607617,0.4932043729484081,0.6164250944256782,4.896474403452873,8.495375678253174,0.1533109585102647,0.9075095653533936,0.0574337281286716,2.090014696121216,-0.689450086296201,-0.6766618869853044,0.1852350042596339,-0.1802088013682284,-0.2296014875173568,-0.0200169719755649,0.0145181147381663,-0.0125801041722297,-0.0081512331962585,0.0124372839927673,1.0457005500793457,0.2384745925664901,-0.1853670887887477,-1.014991283416748,-0.0641769324241671,0.7537565396461635,32
1733303443365765600,-1.2435890250086783,-0.6415969450831412,-0.4050707469433546,5.637696674892306,8.0239669575274,0.051925851373258,0.2168715149164199,0.7352599501609802,2.105843067169189,-0.6742806671818018,-0.6740805214749989,0.2072871656082557,-0.2190729625999281,-1.3378831148147583,-0.007788854651153,0.0243909191340208,0.005269132554531,-0.0837395191192627,0.0222403407096862,1.2143282890319824,0.3086942136287689,-0.314479206392169,-1.220729112625122,-0.1821510858843102,0.4164795182514935,33
1733303443405765600,-2.6928882541328667,2.0879051756978035,-0.778684863871336,6.196952021375298,7.599034741294384,-0.1511629227640573,0.6198100447654724,-1.9245760440826416,2.306654930114746,-0.6603666456932157,-0.6718818156381513,0.2372382554257134,-0.2370839398760049,-1.9135898351669312,-0.1071517169475555,-0.040474496781826,0.0020148381590843,0.0247585773468017,-0.1251024603843689,1.214040756225586,0.1945498585700988,-0.1313181032150983,-1.378284573554993,-0.0334796990914852,0.2210735948009416,34
1733303443445765400,1.3118161735385656,-0.3114753484010696,1.715526299653202,6.814702226924896,6.985012616357207,-0.9694326958503574,1.3830872774124146,-1.648831486701965,2.047670125961304,-0.6246562164963982,-0.6832157391124822,0.2874779392376482,-0.245717750144666,-2.269469976425171,0.0805003717541694,-0.1072879508137703,-0.0347508564591407,0.036650002002716,0.0303708314895629,1.138694167137146,0.2223610281944275,-0.1436982768386602,-1.3354719877243042,-0.0166327165015041,0.0923201909746974,35
1733303443485765400,2.1497154429227114,-0.5818599770009517,-0.0460335830308496,7.270719901773333,6.3690948869317765,-1.6557951767899095,0.984196662902832,-0.8994195461273193,1.7788023948669434,-0.5896276360348136,-0.6932047809180709,0.3223184621429455,-0.2606094094197129,-2.383675336837769,0.2214010208845138,-0.0568036697804927,-0.0217936262488365,-0.0055648684501647,0.0940083861351013,1.0633474588394165,0.2501721978187561,-0.125242582693696,-1.2926592826843262,0.0254350133719854,-0.0422531146440655,36
1733303443525765600,3.0470518206596373,-0.1877636285364627,0.0222504102528095,7.622408602619171,5.859478308364749,-1.9328239195793864,0.433875024318695,0.1377447247505188,1.310843825340271,-0.5694135356270593,-0.6927560321312807,0.3444352999064016,-0.2778879623289286,-2.451476812362671,0.4643864035606384,0.0251890681684017,-0.027536541223526,-0.0400778651237487,0.0731152296066284,0.9246772527694702,0.1873875856399536,-0.1291167937785386,-1.1497501134872437,0.0023116014106199,-0.0766644297465682,37
1733303443565765600,3.158153649798036,-0.3492570897847414,-0.1209985153831541,7.905303753224015,5.506816963094472,-1.830724750455469,0.1359104514122009,0.757456362247467,0.8720183968544006,-0.5630203921546292,-0.6855192837725658,0.3512894747534947,-0.2994448032591366,-1.827683687210083,0.6403253078460693,0.023079577833414,0.0007502436637878,0.0588133335113525,0.105351984500885,0.7157744765281677,0.148895189166069,0.0234749836117029,-0.9724297523498536,-0.0312982611158862,-0.3335392961710691,38
1733303443605765600,2.0767238564699886,0.1200870996266603,-0.222598648943752,8.116887817808985,5.245617511469125,-1.6643318267278373,0.1261125952005386,0.8996147513389587,0.5684023499488831,-0.5608997416310951,-0.6774357412379844,0.3548776216723014,-0.3170711782300529,-1.6220823526382446,0.5710474252700806,-0.0126539850607514,0.0002738088369369,0.0635657906532287,0.0204460024833679,0.5606266260147095,0.0955455750226974,0.0234714764803647,-0.7769730091094971,-0.0594502600952982,-0.3089722795389592,39
1733303443645765600,2.202370928311348,0.965584569054842,-1.6373368522964418,8.05184456001222,5.400446838653087,-1.47422660350129,-0.2565676867961883,0.9206362962722778,-0.6194114089012146,-0.5674049044201457,-0.6777080699922564,0.3404062453369133,-0.3207600034508357,-1.350839376449585,0.1214161589741706,-0.1458880752325058,0.0456799566745758,-0.0402044653892517,-0.0675227642059326,0.4054788053035736,0.0421959571540355,0.0318237097620964,-0.5815162658691406,-0.0821157174224034,-0.2878710393212735,40
1733303443685765600,-2.796841965082288,-1.6036615233182907,-0.3946445569317787,8.092366540014744,5.458175974044203,-0.9446118505876512,-0.5423277616500854,1.0167980194091797,0.381792813539505,-0.5841705617497243,-0.6634526280461347,0.3286219870452047,-0.332540044629297,-0.8347843289375305,0.1888413727283477,-0.3040183186531067,-0.0834085941314697,0.1726491153240203,0.0772754549980163,0.312772274017334,-0.0012168772518634,0.0335030411511659,-0.4962282478809356,-0.0350252822823822,-0.2669689749374985,41
1733303443725765400,-1.4873153637856245,-0.2782750895887613,0.7105051346797495,8.218164418503642,5.302656326508521,-0.7169399900328367,0.0241821389645338,0.4615859985351562,0.509978711605072,-0.5873761442341905,-0.6538042023018654,0.3302935520809315,-0.3441446348342756,-0.7795887589454651,0.2345521450042724,-0.2095408141613006,-0.0721893310546875,0.0157267153263092,-0.0424106121063232,0.2200657129287719,-0.0446297153830528,0.0384147785902023,-0.4109402298927307,0.0140279408305883,-0.2472442837700247,42
1733303443765765400,-0.0444417837947607,0.3984685721993446,1.1490776806652545,8.314313008660077,5.186306075322627,-0.3805387285593897,-0.0700856000185012,1.4028974771499634,0.1974602192640304,-0.5916963851418029,-0.6441860346726435,0.3231507837515688,-0.3612385867848491,-0.2105489671230316,0.2544678151607513,-0.2880153656005859,3.568828105926514e-05,0.1249603629112243,-0.0318900346755981,0.1594450324773788,-0.0589774958789348,-0.0390524919718503,-0.31070077419281,0.0080784578416496,-0.186092188192904,43
1733303443805765600,-0.4039022876858711,0.0830535462617874,0.3595645487874746,8.344422900241613,5.150223539072275,0.1273559124527033,-0.1195205152034759,1.4736300706863403,0.055011298507452,-0.6013475507748378,-0.6314834027710623,0.3077911103663193,-0.3806239992108486,-0.5923972725868225,0.1785118877887725,-0.3015287518501282,-0.0025797337293624,-0.0381833016872406,-0.0703770518302917,0.1155590340495109,-0.0585370250046253,-0.0503197359174489,-0.2335532903671264,0.033709961900115,-0.1700073148325085,44
1733303443845765600,0.2940308771252632,0.4749450781583785,-0.1284761577874422,8.299058156383037,5.175520477414131,0.7141576658379286,-0.1884031742811203,1.728776931762695,-0.1517352163791656,-0.6140478681344888,-0.6169644874806202,0.2879981139745297,-0.3991957084714077,-0.8708534240722656,0.1129262149333953,-0.2263611406087875,0.0457098186016082,0.0272440016269683,-0.0576348304748535,0.0745593607425689,-0.04996969550848,-0.0557253943532705,-0.1950830668210983,0.0340460619866848,-0.1599669823333621,45
1733303443885765600,-0.6870914528012275,-0.2685498143881559,-0.7855307842433452,8.210271619427203,5.19491900536716,1.3321570969082417,-0.3457897007465362,1.7224490642547607,-0.0013714011292904,-0.627306769238049,-0.6003865474645119,0.2676095808417906,-0.4176210313485869,-0.5804343819618225,0.072813794016838,-0.1998877227306366,0.0258166939020156,0.0244954526424407,-0.0296771526336669,0.034462995827198,-0.0400314517319202,-0.0802706375449895,-0.1504666656255722,0.054491432111524,-0.1395569392502307,46
1733303443925765600,-1.522884105294943,0.4042109152436256,0.4497000161342322,8.154223568990826,5.135372591421008,1.8185064893953504,0.4128264486789703,1.0232325792312622,0.300760269165039,-0.634009084523312,-0.586420470196377,0.251779672464763,-0.436749946511985,-0.8172404766082764,-0.0237727742642164,-0.133035197854042,0.084508016705513,-0.0136369168758392,0.0077477693557739,0.0026046857237815,-0.0424640215933322,-0.0279535903304815,-0.1330457329750061,0.0564500553660094,-0.1221475392878055,47
1733303443965765400,-0.6710784756332635,-0.6298264277905226,-0.0255588041484355,8.144279682603479,5.039496388465166,2.1082152655377984,0.565725564956665,1.818429470062256,0.5966758728027344,-0.6298762447573896,-0.5802038749721119,0.2363776694009466,-0.4590696838188171,-0.7627996206283569,-0.1944925785064697,-0.2581095099449157,0.0889889895915985,0.0412719100713729,-0.0970983505249023,-0.0289164707064628,-0.0499167963862419,-0.0212058696359396,-0.1064442843198776,0.0468481142841279,-0.041033728916943,48
1733303444005765400,1.0565431893527508,-1.802701455889642,-0.4637520684927702,8.013889800149203,4.862192194622755,2.882195312719047,1.4116311073303225,2.260801076889038,1.1111043691635132,-0.6232951952453637,-0.5599180199039372,0.1988485595556976,-0.508383903100845,-0.9901877641677856,-0.3436576128005981,-0.4479420185089111,0.0436693280935287,0.0285709053277969,-0.0670547485351562,-0.0203777328133583,-0.0523198880255222,-0.011281272470951,-0.0911634415388107,0.0414901309149339,0.0143590724810957,49
1733303444045765600,0.3308867358356714,-0.2587520584732294,-0.7698553684666752,8.054504719132185,4.643432831580936,3.1199136432528496,0.5082308650016785,1.1661930084228516,0.7031261324882507,-0.6068277265768656,-0.5540111855201825,0.1843916405497918,-0.5392878314970357,0.0781859084963798,-0.2789745628833771,-0.3541236817836761,-0.0129047632217407,0.0579617023468017,-0.0177423954010009,-0.0118389967828989,-0.0547229796648025,-0.0012269114464521,-0.0758826062083244,0.0361104106379672,0.0697001436918973,50
1733303444085765600,-0.1915279495060443,-0.1197135901391506,-1.0026435491219163,7.95786863771975,4.424188023109734,3.642699207733571,-0.3291192650794983,1.802916407585144,0.88507479429245,-0.6055369013347173,-0.5334072224394297,0.1724840906623578,-0.5648459423541957,-0.2490779906511306,-0.2025085389614105,-0.3016471266746521,-0.0313598662614822,-0.0260946154594421,0.0361490249633789,0.0103564690798521,-0.0407092534005641,0.0003366846084594,-0.0633740723133087,0.0172067535297945,0.0832730342313647,51
1733303444125765600,1.9360504804104568,1.312615507222712,-0.1187292552769184,7.840073448422551,4.110999441049993,4.219398148709535,-0.3465763032436371,1.3861260414123535,0.5358597040176392,-0.6060299773705499,-0.5073002678597157,0.1658824941308975,-0.5897941536113183,0.0828560292720794,-0.1510221809148788,-0.2170065194368362,0.0067821592092514,0.0065231174230575,0.0784060955047607,0.0257935039699077,-0.0295923743396997,-0.0010118073910474,-0.0776397138833999,-0.0028807430680841,-0.0059209144815802,52
1733303444165765600,0.9201023362964392,-0.2707271584272384,-0.3280450826689601,7.7291002140998835,3.943282282981276,4.5696720143213865,-0.1955179125070572,0.7696983814239502,0.3116140067577362,-0.6063333244521547,-0.4912748381852843,0.1601892508553301,-0.6044404225866139,0.2116499543190002,-0.1329760700464248,-0.1414390653371811,-0.0405730009078979,-0.0787649899721145,-0.0224249362945556,0.0286675319075584,-0.0281473882496356,-0.0557107813060283,-0.0774800255894661,-0.0101134342679753,-0.0096679920554161,53
1733303444205765400,0.8661077112585306,-0.3240419845074415,-1.262331134879589,7.618942972335219,3.806408299204707,4.861414780509471,-0.4214149415493011,0.7585679292678833,0.1322948634624481,-0.6096190206424628,-0.4767991798545447,0.1574781516283754,-0.6133741734939541,0.3468884825706482,-0.1310981661081314,-0.1506241112947464,-0.0016341507434844,-0.0032970011234283,-0.0202717185020446,0.041019931435585,-0.0295951832085847,-0.0645540129750967,-0.0669310241937637,0.0160800145221874,-0.0027206571355462,54
1733303444245765400,0.4914461311042308,-0.2435302316829562,-1.724313855612278,7.449073312407732,3.725148358361423,5.177351199972629,-0.530352771282196,0.7162551283836365,-0.1085207387804985,-0.6167561085370874,-0.4612269335118457,0.1526377265629388,-0.6193411046677053,0.4630108177661896,-0.1911463737487793,-0.0855969712138176,-0.0052939504384994,-0.0109245032072067,-0.0057604312896728,0.0533723309636116,-0.0310429781675338,-0.0733452221959829,-0.0563820265233516,0.0423193848133087,0.0042266777843236,55
1733303444285765600,-0.275135037997365,0.1441328688636422,1.3793617695450782,7.296879594424366,3.6445416207298633,5.444561874711513,-0.2189920842647552,0.7446460127830505,0.3291015326976776,-0.6223043152882345,-0.4476271810836015,0.1484402034016338,-0.6247661922634518,0.5488860011100769,-0.1784714311361313,-0.0157180186361074,0.0699959397315979,-0.0722556710243225,-0.0385990142822265,0.0446921363472938,-0.0384788811206817,-0.0603863719016313,-0.0628508478403091,0.1207980609076097,0.0186640761986374,56
1733303444325765600,-1.2170546538263558,0.9892936536833644,-0.5004354932457208,7.187744681444764,3.3816201676175,5.750769511842727,-0.3051973581314087,1.2648333311080933,1.0049984455108645,-0.6186676559353053,-0.4304744249951628,0.1465746502789563,-0.6406698392933221,0.328527569770813,-0.1562016606330871,-0.040193535387516,0.0085616111755371,-0.017108678817749,0.070591926574707,0.0237126387655735,-0.0225046575069427,-0.1243394963741302,-0.0727913975715637,0.1398850752260536,-0.0441194199725985,57
1733303444365765600,-1.0687877538979054,0.6141746851503849,-0.6286836874961853,7.012094100028276,2.998077069610357,6.165424664211272,-0.2358781993389129,1.3486506938934326,1.3686221837997437,-0.6085256902530757,-0.4067748495729959,0.1420740725202291,-0.6663675653270547,0.7081270813941956,-0.1063438132405281,-0.0430110916495323,-0.0574231147766113,0.0602961331605911,-0.0073599815368652,-0.0093465410172939,0.0111894011497497,-0.1070557686179876,-0.0906717926263809,0.1658256087010726,-0.1222951310649514,58
1733303444405765600,1.0848837331742047,0.1484519011065364,-1.7426590751200914,6.85458766258955,2.4616762367531657,6.5669748358130455,-1.1149896383285522,1.2574596405029297,1.1689448356628418,-0.599883164755738,-0.3787024267893126,0.14751926183046,-0.6891753872145224,1.482895016670227,-0.1074884459376335,-0.0993288978934288,-0.0218606144189834,0.043138176202774,-0.0108447074890136,-0.039540659636259,0.0259457491338253,-0.0885281782805919,-0.0833049565553665,0.1769467587068676,-0.0828238291591405,59
1733303444561931300,3.228333101439476,-1.1667708660051226,-0.0289659822434186,3.9280852983713146,0.2450033547091297,8.982232728001474,0.8511731028556824,4.420365810394287,1.92773187160492,-0.5149567163407118,-0.1807270475099948,0.0968055479782084,-0.8323377550512838,4.1017584800720215,0.3860326707363128,0.0086352583020925,-0.0646347850561142,0.0874965786933898,0.1142296195030212,-0.2204879522323608,0.0892456024885177,-0.0443389170753303,-0.0521878041326999,-0.1052458422523457,-0.0715331130064092,60
1733303444601703400,1.824823417457193,-1.105147791915387,0.3977548709720372,2.181424148003012,0.5133310690455138,9.547160274901984,1.718551516532898,5.15171480178833,1.775845289230347,-0.4871988580134862,-0.1104958605129178,0.0319526396542424,-0.8656829887501126,4.618967056274414,0.5539408922195435,0.1032017767429351,0.0220527946949005,-0.0909539461135864,0.1189325451850891,-0.2112490683794021,0.0386649817228317,0.066088245938206,-0.102210521697998,-0.1240985546245705,0.0223820646753069,61
1733303444641703400,0.530483315909095,-1.1798629872903228,1.2441741314202546,0.1587474870083853,1.2688973615273833,9.722915485736728,2.818100452423096,4.793855667114258,2.198902606964112,-0.4491619969101278,-0.036426495185026,-0.0542437913140141,-0.891057970459959,3.981480121612549,0.8634677529335022,0.048713568598032,0.046091005206108,-0.1251100301742553,0.2251121699810028,-0.1643522083759308,0.0198401864618062,0.0336585239738225,-0.0919242575764656,-0.098347269244492,0.0582952448412776,62
1733303444681703400,-0.420349856878817,-0.8094824454560875,2.873879027533531,-0.873117590020597,2.615308755367994,9.411068381413816,2.492413282394409,3.0358591079711914,1.182890772819519,-0.404143301030941,-0.0139458547286886,-0.1413313775619648,-0.9036034171652012,1.878677487373352,0.7345156073570251,-0.0106889046728611,0.0741606801748275,-0.2411043643951416,0.0454688370227813,-0.1320532262325287,0.0002411603927612,-0.0326473011046648,-0.0799361988902092,-0.1207748261624947,0.1177425823271274,63
1733303444721703400,-0.8487145317785442,0.2741340442612767,2.9582465790033337,-0.9662398911584168,3.3653517543837426,9.160304399085044,1.508705735206604,0.3664038479328155,0.9437857866287231,-0.3815423047895711,-0.0215254455099387,-0.1802529373840781,-0.9063503555442206,2.92358660697937,0.8069008588790894,-0.259009450674057,0.0072100758552551,0.1362834572792053,-0.0341532230377197,-0.0747492164373397,-0.0226771254092454,0.0259182851105928,-0.0706238746643066,-0.0208083582183346,0.2467091539800167,64
1733303444761703400,-2.057947844329476,1.4288804182127115,-1.180982638970017,-0.8750986808352171,3.9148280496522783,8.94867065013945,1.4334079027175903,-0.022555312141776,0.7097006440162659,-0.3642910129303756,-0.0336965173399696,-0.206420238480382,-0.9074950088443596,-0.0882411524653434,0.3862419724464416,-0.3117271065711975,0.016363114118576,-0.1484483480453491,-0.1147425174713134,0.0141558647155761,-0.0662885531783104,0.0451771123319864,-0.0766073986887931,0.0622964433066546,0.2347171028912067,65
1733303444801703400,0.352418403359875,-0.65686436458081,-1.460789760431647,-0.9337604209013284,4.300390378527343,8.763853011927008,0.6096332669258118,0.3395073115825653,0.0148174343630671,-0.3554133754761113,-0.0367569833171134,-0.2276330017446747,-0.9058219460551232,1.012406587600708,0.2967716157436371,-0.1746428906917572,-0.0245420336723327,0.112566590309143,-0.1725738048553466,0.1675678342580795,-0.0432860106229782,-0.0536146858096122,-0.0806830525398254,0.0653914867125451,0.1769382831394672,66
1733303444841703400,0.6039490592122078,-0.4677569202199578,-1.5776432849645614,-0.9690648123860358,4.263763652397692,8.777904918155073,-0.7689725756645203,-0.2324931919574737,-0.1850139498710632,-0.3579712662291274,-0.0349267222320849,-0.2263437956770307,-0.9052100518933316,0.691580593585968,0.1115829199552536,-0.1449176222085952,0.0225490629673004,-0.0480644702911376,-0.0914433151483535,0.3209798038005829,-0.0202834662050008,-0.1523106223613023,-0.0847587063908577,0.0687097078824415,0.1191547872126102,67
1733303444881703400,0.4433315040156245,0.2050102391526103,-0.8379752572298049,-1.0222793929621576,3.842986217756569,8.964194967007636,-1.1067261695861816,-0.0436094775795936,-0.2053350359201431,-0.3639034923938471,-0.0250472447865663,-0.2057325906085498,-0.9080864701778052,-0.5411154627799988,-0.0571771226823329,0.037124890834093,0.0185851454734802,-0.1289883852005005,-0.0098026990890502,0.3489490449428558,-0.0104498798027634,-0.1126987429410219,-0.1000785678625106,0.0885104964934289,-0.1393280989304184,68
1733303444921703400,-0.6363640859309584,-0.0534530655071139,0.5292541759729386,-0.991393767767772,3.6136309341594575,9.062516225028038,-0.2074564099311828,0.8282171487808228,0.8289873003959656,-0.3580300528785992,-0.0205880905508755,-0.1936915200055003,-0.9131672063562662,0.4732360243797302,-0.0256345365196466,-0.0112923104315996,-0.0008698105812072,0.0640903711318969,-0.0303069502115249,0.2868822813034057,-0.0049772406928241,-0.0865624311655759,-0.0675366818904876,0.0567063316820189,-0.1964896635666489,69
1733303444961703400,1.5587947921097278,-0.1494870893731713,0.7030383789956569,-1.513604089643806,3.67450012114197,8.96534647513032,0.1231572777032852,2.124039888381958,0.5804340243339539,-0.3362264181997079,0.0082635478473112,-0.2069450677524548,-0.918725869873716,0.7391233444213867,-0.1043165624141693,-0.0626479759812355,0.023964375257492,0.0636235475540161,-0.0016286522150039,0.1783691793680191,0.0302198566496372,-0.0801747759550809,-0.0894864797592163,0.0264961580637842,-0.1783490267202258,70
1733303445001703400,-0.0944660438969731,0.4244876873359084,-0.4951537534505129,-2.041760241246968,3.67872475309968,8.858249205458163,-0.0603403784334659,1.1852502822875977,0.4173015654087066,-0.3215575860793417,0.037371994422955,-0.2166986593150709,-0.921002539374984,-0.2715771496295929,-0.2126856446266174,-0.0567585974931716,0.0106499791145324,-0.0155709385871887,-0.0363125950098037,0.0698560699820518,0.0654169544577598,-0.0736667092353105,-0.1114362776279449,-0.0035464404352009,-0.1604249552339315,71
1733303445041703400,0.5771830712310969,0.3045265521764755,-0.1957552118122577,-2.099895327090472,3.786565534615516,8.799019602376221,0.5009212493896484,-0.4090114831924438,0.2456144392490387,-0.3103948643298621,0.0410236416192693,-0.222916848028259,-0.9231901641864008,0.1839773058891296,-0.1394436657428741,-0.0791742280125618,0.0283308923244476,0.0797797441482544,0.0114255994558334,-0.0600566193461418,0.1054700911045074,-0.0824894826382398,-0.1668873280286789,-0.0083735683307051,-0.3325076150357723,72
1733303445081703400,-0.3114408616095781,-0.711434451419115,0.1568938584983348,-1.827329408928752,4.036082439492643,8.748788129264115,0.6890401840209961,-0.8999066948890686,0.3521722257137298,-0.3109863838835511,0.0231147919042104,-0.2310879857125554,-0.9216027663985532,-0.1506890952587127,-0.2432545721530914,-0.0703072920441627,0.0963784754276275,-0.0103567242622375,-0.0431507676839828,-0.180127277970314,0.1280809789896011,-0.0946469534218311,-0.1503954529762268,0.0348893078777939,-0.2066983383700251,73
1733303445121703400,-0.1017931719146668,-0.0531117047235369,0.3731301328033208,-1.3332315942719577,4.321075439159572,8.701791984811425,1.1542034149169922,-1.297140121459961,0.1400311589241027,-0.3080952585851901,-0.0055667350740738,-0.2372784911652754,-0.921273736192803,-0.0953560546040535,-0.20188769698143,-0.0811952948570251,0.0678158104419708,0.0358697772026062,0.0181514024734497,-0.3001979291439056,0.1506918668746948,-0.1062117190092802,-0.1339035928249359,0.0773581110991537,-0.0809600811138749,74
1733303445161703400,0.4148665300969034,-0.5785337551876902,1.7287153054416178,-0.9881281170353292,4.817916415044665,8.484200788766145,1.3129388093948364,-0.5187569856643677,-0.1086681932210922,-0.3161916548418808,-0.0339924213016694,-0.2574308612843805,-0.9124673700966598,-0.3885397315025329,-0.3308687508106231,-0.000795061700046,0.1134522855281829,-0.0634553432464599,0.0025147199630737,-0.3384539484977722,0.2090005427598953,-0.1309293961584568,-0.1025481671094894,0.078195877097547,0.0125210433989763,75
1733303445201703400,0.1395142691522836,-0.3702706517189741,-0.3858002292841672,-0.8670522255670279,5.111836817532778,8.323924886614083,0.5349792242050171,-0.4104631543159485,0.1944557428359985,-0.3153835765110722,-0.0454856533673247,-0.2711622974207089,-0.9082594665820314,-0.4925188422203064,-0.4637798368930816,0.0026306952349841,0.0933746993541717,-0.0008179545402526,-0.0662230253219604,-0.3505178987979889,0.261031299829483,-0.1530114641070366,-0.0998513847589492,0.1082919958820566,0.0515761657193303,76
1733303445241703400,0.1970624584859236,-0.2062128929406404,0.5410451515316963,-0.5376377907736226,5.298829461696744,8.234302483355998,0.6826363801956177,-1.3448944091796875,0.3442041277885437,-0.3144922701915361,-0.0653687119448664,-0.2754892734163591,-0.906050413499898,-0.6066550612449646,-0.562495768070221,0.0106677832081913,0.0822896957397461,-0.0290107727050781,0.008733257651329,-0.3408679366111755,0.2901993095874786,-0.0670312167435884,-0.1022016853094101,0.0646018707048147,0.0227060450658202,77
1733303445281703400,-0.032921514936164,-0.246426829907298,1.4542285022199153,0.1665478220283985,5.625449772259593,8.030999924904108,1.4037652015686035,-2.155578374862671,0.5080500245094299,-0.3142691536546391,-0.1075177084502946,-0.2810211640875026,-0.9003899027585964,-0.8144015669822693,-0.6210710406303406,0.0070997457951307,0.0594539642333984,0.0080676674842834,0.0096012651920318,-0.3187717199325561,0.2778519093990326,0.0194540575325489,-0.038041353225708,0.0224272281244397,0.0941036403253674,78
1733303445321703400,-0.8810971175324172,0.5018278243869543,-0.1015758759021759,1.0051466910492628,6.129212948623299,7.588992655229568,1.6709076166152954,-2.3216710090637207,0.5710363388061523,-0.3132662448980212,-0.1616949710536346,-0.2948283949480525,-0.8881414369995387,-0.8565431833267212,-0.6104487776756287,0.0046795988455414,0.0243583619594573,0.0057446360588073,0.0174431353807449,-0.254501461982727,0.2359656393527984,0.0859212106525898,-0.0056811571121215,0.0122653150722384,0.1306876963570714,79
1733303445361703400,0.6188382930472492,-0.7576870840281248,-0.0146574709057807,1.4906030071541667,6.440175086805224,7.243799746143817,0.6968344449996948,-0.2614935040473938,0.1397405862808227,-0.3093339843832408,-0.1937341597954855,-0.3051820323496281,-0.8795700936077312,-0.7677227258682251,-0.5121438503265381,0.0242529679089784,-0.0194431543350219,0.0139968395233154,0.0138413906097412,-0.1753487884998321,0.1734141111373901,0.0964659855425357,-0.0094110164791345,0.0045396161910146,0.1537391938596963,80
1733303445401703400,0.14879004701972,1.4667472075313328,-2.379835281151533,1.4921359158098697,6.519710395812988,7.171979541558027,-0.1149203553795814,-0.073854349553585,-0.246628001332283,-0.3114258467542973,-0.1966371954218707,-0.3092969845850733,-0.876745784829223,-0.6380073428153992,-0.455644279718399,0.0249412599951028,-0.0476496815681457,0.004550278186798,0.0277436971664428,-0.1061905026435852,0.1285809427499771,0.0964256535321474,0.0050385138019919,0.0194427324209362,0.0893991158962249,81
1733303445441703400,-0.4904230716668069,1.3364356510102748,-0.2028700122535228,1.4108439723931252,6.484073849764466,7.220573768857121,-0.1048329249024391,0.1960421204566955,-0.2136156111955642,-0.3157883641331482,-0.1928874979715199,-0.3076485083053309,-0.8765982296075934,-0.4271246492862701,-0.4141850173473358,0.0537113212049007,-0.0514876842498779,-0.0105652809143066,0.0131385326385498,-0.0370322167873382,0.0837477669119834,0.0965554173916578,0.0194880422204732,0.0343416839323937,0.025160744741559,82
1733303445481703400,0.5030721253596246,0.5458353084176778,0.0354804787039756,1.2795606482304631,6.525140019646287,7.208027591016888,0.2540100812911987,0.0545155592262744,-0.5004424452781677,-0.3209924225279817,-0.1888541174449318,-0.3111703721613986,-0.8743403287144007,-0.2725705206394195,-0.5009666085243225,0.1246169134974479,-0.0275744795799255,-0.0655825138092041,0.0012286603450775,0.0262090414762496,0.0593274235725402,0.1070259580016136,0.085649587213993,0.0353868821363896,0.0705634825229644,83
1733303445521703400,0.1564564169291406,0.6899585326701402,-0.2550193016856908,1.1584089881122113,6.649017743727565,7.114706333240866,0.3681582510471344,-0.1521317511796951,-0.5919387340545654,-0.3295941460858063,-0.18895873100801,-0.3186620921298181,-0.8683990441927916,0.0747024938464164,-0.5374100804328918,0.1951970160007476,-0.0400561541318893,-0.0369589328765869,0.0093457698822021,0.0788924619555473,0.0294811446219682,0.0819037917047739,0.0770859792828559,0.0550343433491885,0.1226265549764037,84
1733303445561703400,0.1504473857726901,-0.1783066488832235,-0.0614578005254268,1.02660193233639,6.773434396991133,7.0169128984868525,0.4092603325843811,-0.2205146551132202,-0.628594160079956,-0.3403721950553177,-0.1895997723408476,-0.3260198475224495,-0.861341878953088,0.093834638595581,-0.6174073815345764,0.2911640703678131,-0.0230113863945007,-0.0369628071784973,-0.0045505464076995,0.1027439013123512,-0.005442040041089,0.0173299049854278,0.0822595208883285,0.0197713798534125,0.1206926643043756,85
1733303445601703400,0.1032766884706914,0.1945025814026594,1.1652660144001246,1.0008993358030915,6.976280443847179,6.819097247013449,0.887839138507843,-0.3251435458660126,-0.4985410571098327,-0.3466998840396339,-0.1968251583313476,-0.3370202607678888,-0.852922219843267,0.2928468286991119,-0.4986567497253418,0.2548457086086273,-0.0414143949747085,0.0216344594955444,-0.0060875415802001,0.0944453924894332,-0.0159617569297552,-0.0116284784734249,0.049911756068468,0.0409155093647539,0.0223889419406652,86
1733303445641703400,-1.242833384335786,-0.5950175647377968,-0.784820590147376,0.963460124246776,7.196130232474207,6.59225599206388,0.5501837134361267,-0.3610806167125702,-0.3197501003742218,-0.3537744928066269,-0.2047806866554308,-0.349218225070426,-0.8431815407964939,0.5242089033126831,-0.4174907505512237,0.2115735858678817,-0.0313118994235992,0.039117693901062,0.0043295919895172,0.1351439207792282,-0.0014342814683914,-0.067733227533102,0.0188524909317493,0.0460709924317896,0.1733957882270216,87
1733303445681703400,-0.7879520200408995,-0.5540490100115537,-0.6664718586206436,0.9929555371917784,7.30479986602962,6.467173568367958,0.2717077732086181,-0.2541334629058838,-0.1330019980669021,-0.3577860251484971,-0.2117107271474316,-0.3541814337341084,-0.8376892938021371,0.366251528263092,-0.3915543854236603,0.2107815742492675,-0.020572081208229,-0.005051851272583,0.0102360248565673,0.2163329124450683,0.0429112501442432,-0.1482978795886039,-0.0512785948812961,0.0518527907036244,0.1715466532289981,88
1733303445721703400,-0.0981088573787361,-0.5755097311913967,-0.323822788798809,0.9942884662959725,7.384020702260732,6.376364585673809,0.2806725203990936,-0.1768246442079544,-0.1614333540201187,-0.3602602819919757,-0.2156126620846098,-0.3583393295674657,-0.8338565615888568,0.213754117488861,-0.3478451669216156,0.2042007595300674,-0.0185850262641906,-0.0076029300689697,-8.32974910736084e-05,0.2379401326179504,0.0756988599896431,-0.2004927617281675,-0.1216458231210708,0.0884033828571438,0.1988485016524791,89
1733303445761703400,-0.5322390370026231,-0.2482768416881561,-1.4070464798063038,1.0285868956085291,7.427440157270431,6.3202475616544485,-0.0126531952992081,-0.438020795583725,-0.1266158819198608,-0.364268952568491,-0.2207316141941242,-0.3592138713775021,-0.8303921455080847,0.2950330078601837,-0.3859736621379852,0.1193316131830215,0.0011066943407058,0.0548276305198669,-0.0211322307586669,0.2595473527908325,0.1084864661097526,-0.2522977677673101,-0.1920130550861358,0.1252492316301912,0.2253270509943366,90
1733303445801703400,-0.5328132566940039,-0.7623889781087636,-0.2016530376791954,1.12747294790484,7.404951262086629,6.329761239930987,-0.0836648717522621,-0.429640531539917,0.0234163850545883,-0.3685183461847972,-0.2270219250782079,-0.3545885505174095,-0.8288076562563153,0.1154989227652549,-0.3842381238937378,0.0900253877043724,-0.0175448656082153,-0.0052878260612487,0.0133244097232818,0.2377639710903167,0.1736209094524383,-0.2182920377910137,-0.2681862115859985,0.1311617436096072,0.0237999777823686,91
1733303445841703400,-0.2218732572786509,-0.608036620786786,0.3701099081993103,1.2712816263154147,7.403229845121502,6.304475407505035,0.0429485477507114,-0.2729071378707886,0.1401783972978592,-0.3696769272433403,-0.2351670220143915,-0.3510807172669164,-0.827512998300677,0.1962920278310775,-0.3219012022018432,0.0531143099069595,0.0004394203424453,0.0189632773399353,0.0547856092453002,0.2014288306236267,0.1800366044044494,-0.104173491179943,-0.259795069694519,0.074042556810379,0.0055289925545454,92
1733303445881703400,0.1462166894003748,-0.2332610588639974,0.3019020488917827,1.375897016043961,7.395365687617659,6.291729323178529,-0.0135415364056825,-0.2610812485218048,0.0757469236850738,-0.3694793558657966,-0.240433426204026,-0.3484291084140842,-0.8272085527142923,0.0123400455340743,-0.3091247379779815,0.0920910015702247,-0.0094344839453697,-0.0561405420303344,0.0232115089893341,0.1661722809076309,0.1686557382345199,-0.0345657019466161,-0.2011710107326507,0.0028074586361646,0.0220876209065318,93
1733303445921703400,0.476573410012573,-0.2235240932255983,0.6828893249362706,1.4090098888337612,7.399694656732678,6.279299465194344,0.0439435094594955,0.0166763197630643,-0.0378538332879543,-0.370233746649119,-0.2427053304054671,-0.3477627695634144,-0.8264879193468053,-0.0337848402559757,-0.3170240521430969,0.1520924121141433,0.0017020925879478,-0.0299647450447082,0.008784145116806,0.0975552722811698,0.1098029166460037,0.0213327108860015,-0.2199783027172088,-0.0133522335261106,-0.1476601662069559,94
1733303445961703400,0.2980626168593764,-0.0433481433391571,0.1918669722020625,1.376232531608641,7.398186005735397,6.288339096218347,-0.0806324183940887,0.1671843826770782,-0.0275298785418272,-0.3700658701249847,-0.240804322848887,-0.3484210329255204,-0.8268417373479938,0.1234223619103431,-0.201510339975357,0.1532361805438995,-0.0417793542146682,-0.0141176581382751,0.0556842982769012,0.0128277316689491,0.0587580315768718,-0.0365285264521837,-0.2130029499530792,-0.0179018596544861,-0.0417772407606244,95
1733303446001703400,0.2163379811137914,-0.0236152688652276,0.2080360167145729,1.319093324934691,7.378602768865227,6.323495749795437,-0.0749885588884353,0.184943675994873,-0.0356251969933509,-0.369477427099232,-0.2367420753881927,-0.3486325173002632,-0.8281877531823362,0.0371772162616252,-0.1491147726774215,0.1842141300439834,-0.0176992863416671,-0.0541062951087951,0.0470836460590362,-0.0416347198188304,0.0490001551806926,-0.0651648383498191,-0.1788543164730072,-0.017256839749217,-0.0736129332214593,96
1733303446041703400,0.209088594507426,0.0460755224764347,-0.0828057089805602,1.2784586783379317,7.354252171462773,6.360103186702728,-0.1200398355722427,0.0391566976904869,-0.0779138505458831,-0.3701430346699972,-0.2339361957508679,-0.3478488890526777,-0.8290170418473797,-0.0896078869700431,-0.112771563231945,0.1971597671508789,-0.0257406905293464,-0.0330128669738769,0.0425454378128051,-0.0960971713066101,0.0392422750592231,-0.0931453166872263,-0.1447056829929351,-0.0168115801997482,-0.1057990465551614,97
1733303446081703400,0.1684445955604314,-0.6937701999127864,0.6286556304454803,1.215403964009881,7.341270524814725,6.38740269703865,0.0474754758179187,0.3362852036952972,-0.0068530812859535,-0.3703855864118204,-0.2301820453122318,-0.3483523005327871,-0.8297477272282134,-0.0733444988727569,-0.0855738222599029,0.1703802794218063,-0.0473154596984386,-0.0072407126426696,0.0293702781200408,-0.1142446249723434,0.0600946322083473,-0.1297965927362442,-0.12980917096138,-0.0589529780976474,-0.0912394830659031,98
1733303446121703400,-1.0441909266494214,-0.9963415263682605,-0.3378004607468843,1.2379714773878454,7.365815768006444,6.35472850792706,0.2015388906002044,-0.0916274636983871,0.5346660017967224,-0.364682335022032,-0.2298856823916677,-0.3509296035861026,-0.831268839545868,-0.1799721419811248,-0.0180999226868152,0.1619591116905212,-0.0381071045994758,-0.0137034654617309,0.0089546144008636,-0.1387138962745666,0.0659241750836372,-0.0422854825437068,-0.1325390040874481,-0.0749615713514387,-0.0863394360646605,99
1733303446161703400,0.9948974650397896,0.1066039331972599,-0.1781540886700153,1.3996033241935073,7.404754862731695,6.275437529069185,0.2329515218734741,-0.4847311079502105,0.0601421669125556,-0.3613496741468374,-0.2386372064067775,-0.3508475769377989,-0.8302920115938422,-0.189598947763443,0.0275893229991197,0.1946386247873306,-0.0224616453051567,-0.0151846408843994,-0.0058423578739166,-0.1336361616849899,0.0644624382257461,-0.0116571200460195,-0.1059178858995437,-0.0560629557445645,-0.1176195404693484,100
1733303446201703400,0.1170239126637577,-0.2345364856272935,-0.0433732777804136,1.4848467817150055,7.436146610817313,6.218468856656551,0.0016816264251247,-0.0818271189928054,0.0324213616549968,-0.3623740831599406,-0.244881679879975,-0.350684046745869,-0.8280934935885769,-0.0030122797470539,0.0528396591544151,0.2205404490232467,-0.0009658262133598,0.01674485206604,-0.0275662839412689,-0.1843833029270172,0.0534085407853126,0.0487619850814342,-0.0232330337166786,-0.0501046318620443,-0.2406020692765712,101
1733303446241703400,0.1828295331351458,-0.2504711368620395,0.084598437616229,1.4796440985053776,7.421403799715637,6.237290461504459,-0.0144443465396761,0.1368340104818344,0.0859032496809959,-0.3608811357938938,-0.2434158370017561,-0.3503361430426862,-0.8293238428437258,-0.0195363964885473,0.1065588071942329,0.2424103915691375,0.0142465308308601,-0.0216219425201416,-0.0317341685295105,-0.199489563703537,0.0366734787821769,-0.0565203441232442,0.0069396216422319,-0.0271362825982272,-0.0856137521386146,102
1733303446281703400,-0.7534728273339569,0.7340110248863697,-0.8488082014113664,1.5480485032983122,7.410614110153913,6.233517372706532,-0.0640600100159645,-0.2837920188903808,0.2887402772903442,-0.3586252117239596,-0.2458079639797039,-0.3489376875231105,-0.8301861253269307,-0.0517409369349479,0.0458836965262889,0.262283056974411,0.0426570735871791,0.0011227130889892,0.0019447207450866,-0.2145958244800567,0.0199384205043315,-0.1618225470721721,0.0371122807264328,-0.0042440673105418,0.0689563395872712,103
1733303446321703400,0.7154466096699238,0.241046305912733,-0.1550619668960571,1.673368242881447,7.365482006007433,6.254589386829734,-0.1334597617387771,-0.1455975025892257,0.1552710682153701,-0.3568250574903558,-0.2502779863231459,-0.3441883299011732,-0.8316075290777457,0.0028932800050824,0.0246457308530807,0.2605908215045929,0.0224625207483768,0.0050501823425292,-0.0267690122127532,-0.1697368621826172,0.0374842919409275,-0.1563584364473819,0.0499088130891323,0.0281388837695121,0.0644780251294374,104
1733303446361703400,0.4451103502564132,0.3113847475081682,-0.407156905567646,1.7511207601256669,7.3231257963150735,6.282976692402363,-0.1303769797086715,-0.3312130868434906,0.0277370493859052,-0.3574509374914465,-0.2532660359861176,-0.3398730194941305,-0.8322088554834702,-0.0684599950909614,0.0507656447589397,0.2033591419458389,0.0058224685490131,0.0225517749786376,-0.0234173536300659,-0.1256560236215591,0.0398001335561275,-0.0463052395790815,0.0347257256507873,0.0556308479376137,0.0243278010487556,105
1733303446401703400,0.4297119978554546,0.3882183963418006,-0.0567220041751861,1.8527103722922504,7.302705524098872,6.277606105279922,-0.0811075344681739,-0.4217855632305145,-0.0722656100988388,-0.3611478708690967,-0.2596285997859512,-0.3354461915070458,-0.8304463187181491,-0.0556832142174243,0.0761822685599327,0.1655763983726501,-0.0124927759170532,0.0112643241882324,-0.0021152794361114,-0.1065102070569992,0.0058115161955356,-0.0058937342137098,0.0423470363020896,0.0311877499461174,0.022788462652266,106
1733303446441703400,0.6533357520632446,0.5524573569059371,0.037781156861782,1.8928978596434,7.279425186276436,6.292637670195102,-0.1557338386774063,-0.2214139252901077,-0.2024564892053604,-0.3660043560678278,-0.2629369275771638,-0.3317061131649744,-0.8287797884772776,0.1080609783530235,0.0398725122213363,0.1255478262901306,0.0053600091487169,0.0232706069946289,-0.0191763341426849,-0.0940282642841339,-0.0112539138644933,0.0012117138773202,0.0502779856324195,0.0477121837675571,0.0129547586411237,107
1733303446481703400,0.2724954832740128,0.0105219785362482,0.2310509815990924,1.881687460451573,7.263212302622199,6.314695772746205,-0.1966358125209808,-0.2907696664333343,-0.2418366521596908,-0.371566968683791,-0.2639289566794121,-0.3292136373754188,-0.8269811468550284,-0.051487136632204,0.0551946945488452,0.1451037526130676,0.0052252635359764,-0.0190445184707641,0.0098466873168945,-0.0942788645625114,-0.0260449647903442,0.0078559741973876,0.0725231692194938,0.0225967394724488,-0.0640299891009926,108
1733303446521703400,-0.2987298485964536,0.5447165335208177,0.0362894569993019,1.881147508355975,7.190500117632746,6.397528954255581,-0.3955287635326385,-0.2356055378913879,-0.175923615694046,-0.3794030455752999,-0.2642454386404474,-0.3224765801172594,-0.8259761440609584,0.0451688319444656,0.0837297216057777,0.1323490142822265,0.0152860134840011,0.0138306021690368,0.0054414272308349,-0.1023751348257064,-0.0294955596327781,-0.0049491468399763,0.0747747868299484,0.0264924317367374,-0.0125125678315758,109
1733303446561703400,0.5565184688650071,-0.0539373418927192,0.6373971553057431,1.8533951396860184,7.138380054295062,6.463655331113934,-0.1404768377542495,-0.1403453648090362,-0.2904161214828491,-0.3856950784907241,-0.2632082594884367,-0.3180671362735899,-0.8251024638171224,0.0597501695156097,0.076424553990364,0.1365034729242324,0.0151901459321379,-0.0029711723327636,-0.0021915435791015,-0.087984450161457,-0.044839896261692,-0.0084638769626617,0.0810255780816078,0.0420199634753167,0.045703766554594,110
1733303446601703400,-0.0377417016342282,0.2438783144682645,-0.1615875692725181,1.8571850334882736,7.144777646377682,6.45549482101202,0.0132168428972363,-0.5679818987846375,-0.2726889848709106,-0.3928314412799644,-0.2664054947604858,-0.316052964173366,-0.8214756556644192,-0.0372117944061756,0.099898561835289,0.1484445482492447,0.0246371980756521,-0.0110131502151489,0.0209104418754577,-0.0592466033995151,-0.0447062291204929,0.0078314242780208,0.0944633483886718,0.0525827854786068,0.0231374222204089,111
1733303446751468000,-1.013933004899323,-1.487351604142785,-1.108639871814847,2.303060961289704,7.311097504869103,6.116711194446682,0.0813371315598487,-0.7729340195655823,0.1387509256601333,-0.4141127798228531,-0.305878167336772,-0.3075273495656874,-0.8002350572304833,-0.0111647481098771,0.0813340991735458,0.1713200360536575,0.029055081307888,-0.0178319215774536,-0.0028181076049804,-0.051280029118061,-0.0475105382502079,-0.0775525468258652,0.0522959977388381,0.1145678886806126,0.0692638163675554,112
1733303446791230700,0.1575607979744672,-0.6680383772850036,-0.0961076736241579,2.4588527037650345,7.318681091865897,6.046596624734997,0.0540117658674716,-0.5407842993736267,-0.0533257499337196,-0.4174527842467622,-0.3162179082529724,-0.3028458437387182,-0.7962561107467064,0.0087477071210742,0.0737943202257156,0.1890320628881454,0.0254753157496452,-0.0106828212738037,-0.0166693031787872,-0.0349713824689388,-0.0390105061233043,-0.0499766124350484,0.0830126926302909,0.1692016427391208,0.0653851574364584,113
1733303446831230700,0.1953428316190838,-0.0425590387880802,0.506173744636774,2.5183348203033207,7.360735103741288,5.970590074375272,0.1594277620315551,-0.0575700737535953,-0.0695042684674263,-0.4190133808749588,-0.3220637504701264,-0.3030834270591657,-0.7929962808729385,0.204569399356842,0.0498225651681423,0.1779247522354126,0.0324301943182945,0.0262838006019592,-0.0072578489780426,-0.0596989095211029,-0.0366225317120552,-0.0240115747064352,0.0764913558959961,0.1490907104667276,0.087815646097064,114
1733303446871230700,0.6883809080898762,0.3173018625974655,0.4610293655306101,2.4085189393222333,7.378409876641631,5.994037000936269,-0.0732878744602203,0.4903524219989776,-0.20674529671669,-0.4193361956135408,-0.3167827730975124,-0.3066558946455575,-0.7935791614438797,0.161527931690216,0.0979409366846084,0.1994423568248748,-0.0036043412983417,-0.0076115727424621,0.0087463855743408,-0.0844264402985572,-0.034234557300806,0.0020487492233514,0.0699700117111206,0.1290789459861815,0.110134153150022,115
1733303446911230500,0.2138634076938033,0.2688601955115795,0.1644610788822174,2.2449816972866654,7.391537653762102,6.041160571160912,0.000886493595317,0.1643432229757309,-0.3062295019626617,-0.4218031035447643,-0.3091788291140496,-0.3104754359031834,-0.793785641861955,0.0727948695421218,0.0899726450443267,0.1763517558574676,0.0330027267336845,0.0249133110046386,0.0076090097427368,-0.0923013687133789,-0.0391161479055881,-0.0199509011387825,0.0710619986057281,0.1064295995436608,0.0888514188855886,116
1733303446951230500,0.2091027691632509,0.0092582422107458,0.3198012781977653,2.1312290613785385,7.425636322718859,6.040544485089183,0.0681457817554473,0.1936020255088806,-0.2741223275661468,-0.4254875476727479,-0.3058595609734997,-0.3137958871359577,-0.7917970069162564,0.1008014678955078,0.1158357784152031,0.1472119092941284,0.0072754696011543,-0.0025480389595031,-0.0105516612529754,-0.1001762896776199,-0.0439977385103702,-0.041880408874154,0.0721539855003357,0.0838506149236112,0.0674570409402251,117
1733303446991230500,-0.0208162857964634,-0.2929372366696596,0.0008598316997289,1.9898973675407468,7.468209390032291,6.036268707466125,0.0962600633502006,0.3638664186000824,-0.1863558441400528,-0.4267966788693624,-0.3005333168483615,-0.3192423369661319,-0.7909542449046445,0.2363691478967666,0.0813487395644187,0.0918048396706581,0.0342910960316658,0.0458196401596069,0.0001608729362487,-0.1182755008339881,-0.0132639408111572,-0.0078045362710952,0.0935225188732147,0.0371492156337946,-0.0168701785191893,118
1733303447031230700,0.1303651864044368,-0.0846884539872407,-0.3499474101364612,1.8469459635466337,7.489954188850522,6.054730831351876,-0.0523073077201843,0.4196585714817047,-0.1990367472171783,-0.4272100815343614,-0.2938785740861137,-0.3239290274961134,-0.7913260900841164,0.0814789086580276,0.1205554828047752,0.0729784294962883,0.0044331662356853,-0.0222467184066772,-0.0040240287780761,-0.148911252617836,0.0003562355414032,-0.0299666837185621,0.115262858569622,0.020589125977084,-0.0387090853616595,119
1733303447071230700,0.1736363189846277,-0.0476624994069337,-0.343317762863636,1.6534388229221104,7.464749604967236,6.141176358139514,-0.2738561928272247,0.7290576696395874,-0.2255076915025711,-0.4279188571197433,-0.2825890739127716,-0.3271552691416559,-0.7937243533270303,0.0960424020886421,0.0544604063034057,0.0448091067373752,0.0437869206070899,0.0071771740913391,-0.014037013053894,-0.171519786119461,0.0022327781189233,-0.0235246679723262,0.1246992796659469,0.018203692145273,-0.0497238158509135,120
1733303447111230700,0.2720116452798247,0.1180266599655151,-0.4370844263195991,1.376545835341513,7.390339383888244,6.29749153996706,-0.4460391402244568,0.8601816296577454,-0.2686859965324402,-0.4285454677525229,-0.2649082783774,-0.3297588465729673,-0.7983931757865302,0.1078969314694404,0.0662126168608665,0.0586036145687103,0.008188709616661,-0.0003255009651184,-0.004147857427597,-0.189674362540245,-0.0041348058730363,-0.0294411985397338,0.1502716690301895,0.0106971159074455,0.0093228318795561,121
1733303447151230500,0.0261688988707959,0.0289846869438886,-0.3169008805811405,1.1136207289673388,7.277819504645467,6.47792994018197,-0.4771594405174255,0.5636664628982544,-0.2159308344125747,-0.4300277493950695,-0.2471223083295701,-0.3296180519593952,-0.8033421438102506,0.1948275566101074,0.0604720637202262,0.0544758513569831,0.0158845707774162,-0.00958913564682,-0.0079511404037475,-0.207828938961029,-0.0105023896321654,-0.0350707288593053,0.175844058394432,0.0035340924102813,0.0678539313033223,122
1733303447191230500,0.2826750050481408,0.0235036251842975,0.7115805818915367,0.9455505196772516,7.204142274016141,6.586095715868472,-0.1232133582234382,0.3414219319820404,-0.1927110701799392,-0.4320724326348338,-0.2363555593501788,-0.3291483193097548,-0.8056741894000671,0.1637604534626007,0.0576552897691726,0.0375262275338172,0.0149549916386604,-0.0038995742797851,-0.0083938837051391,-0.1699653565883636,-0.0137238726019859,-0.0379120897650718,0.1496918648481369,0.0211374805748462,0.1059495609417557,123
1733303447231230500,-0.0071365738816559,-0.055750528794527,-0.0370177712738513,0.8283479625109582,7.202442484360933,6.603714374667406,0.0136768585070967,0.1548489183187484,-0.1448466479778289,-0.4332347845671787,-0.2308097609217156,-0.3317094054432306,-0.8056073657604721,0.0587293803691864,0.057859506458044,0.0355395078659057,0.0229829475283622,-0.0022761225700378,-0.0011791884899139,-0.1321017742156982,-0.016945356503129,-0.0404968455612659,0.1235396713018417,0.0390392671640962,0.1436804489210248,124
1733303447271230700,0.1593269308641552,-0.0426794502973556,0.222605224815011,0.749571874372661,7.211068273887037,6.603712621101737,0.0291126295924186,0.1773805469274521,-0.1349136084318161,-0.4346675274458954,-0.2277645552137554,-0.3338078252565286,-0.8048352950383186,0.0758353993296623,0.0632305666804313,0.0079177357256412,0.0017088651657104,0.0139369964599609,-0.0039999186992645,-0.1107445806264877,0.0050258710980415,0.0139209733247756,0.0893666371703147,0.029743469421938,0.0336433264046907,125
1733303447311230700,-0.2491628307424485,-0.3605617431312799,-0.2105465382307767,0.6988238300405443,7.233416299295425,6.584808598667383,0.1187071353197097,-0.0412006489932537,-0.0487389676272869,-0.4350719777585058,-0.2262717388950677,-0.3362577643055425,-0.8040174579860447,0.026473706588149,0.0734666958451271,0.0213912017643451,0.0078198388218879,-0.0147880315780639,-0.0095579922199249,-0.1267364770174026,-0.0170484520494937,0.0062210664719343,0.0891575962305069,0.015903817705065,0.0246685773104429,126
1733303447351230700,-0.0295872559469193,-0.2584165429085493,-0.1010240872383117,0.7131319029867649,7.26130617673993,6.552499735736847,0.0897440165281295,-0.0722247511148452,-0.0236464720219373,-0.4358331431936151,-0.2284387346486084,-0.3372406286713448,-0.8025795238021324,-0.0181339755654335,0.0445584505796432,0.0194009542465209,0.0112597197294235,0.0005955696105957,-0.0057082176208496,-0.1139362752437591,0.0081282593309879,-0.0389677362978458,0.0801802948117256,0.0181272659081965,0.0724415513545274,127
1733303447391230500,-0.0585129061799496,-0.3615957623541355,-0.1541185485661029,0.7139254645172506,7.286674426752328,6.524191925141215,0.0958249047398567,0.0522572770714759,0.0354360379278659,-0.4351175530972067,-0.2292090526923762,-0.3388539664568538,-0.8020685646792614,0.0118228597566485,0.0294139087200164,0.0038710627704858,0.0209715664386749,-0.0051256418228149,-0.0190866887569427,-0.1019207090139389,0.0329167805612087,-0.0330173034608364,0.0770328938961029,0.0344877413395792,0.1113783079922199,128
1733303447431230500,-0.2548634535368532,-0.1189396831572055,-0.4571487247049808,0.7471712429717182,7.30483669090867,6.500113714939356,0.0860806629061698,-0.208278477191925,0.0780397579073906,-0.4344264315342506,-0.2313399001614347,-0.3392171773763984,-0.8016777013672357,0.0056946594268083,0.0202844310551881,-0.0046427301131188,0.0113497227430343,0.0013507604598999,-0.0123529434204101,-0.0749586895108223,0.0544398725032806,-0.0267044670522212,0.062632068991661,0.0241350549556314,0.0597469049543142,129
1733303447471230500,0.3202224992845207,-0.0520423219263553,-0.0110205757081508,0.8189687242690473,7.339692900234461,6.452021591943502,0.1540377885103225,-0.1167047768831253,0.0181830395013093,-0.4340646909163971,-0.2362651752788293,-0.3394366251602663,-0.8003432481795665,0.0751861184835434,0.0327389687299728,0.0144003368914127,0.0106671974062919,0.0026755928993225,-0.0050043761730194,-0.0770990327000618,0.0592905059456825,-0.030464696368575,0.0579063333570957,0.0221414699856191,0.0282557881474494,130
1733303447511230500,0.0841791892908513,0.0726315209686756,-0.7726362313568592,0.8304058448888361,7.3458017385035745,6.443601554122567,-0.1256747245788574,-0.0389159806072711,-0.0299903266131877,-0.4345700942666134,-0.2373147996157859,-0.3393367489378197,-0.7998005973840208,0.0273842420428991,0.0182834938168525,0.0269753821194171,0.0221585184335708,-0.0123512744903564,-0.0104856193065643,-0.0798228085041046,0.0638240575790405,-0.0670236179590225,0.0587525852024555,0.0127151046663522,0.0203878312513232,131
1733303447551230700,0.2604774209611117,-0.0046013563156127,0.3613730595141649,0.825143467381224,7.312003513798118,6.482601439124346,-0.0780661106109619,-0.017869159579277,-0.0838245376944542,-0.4365408909333422,-0.2364798396207719,-0.3369816164262195,-0.7999703651893001,-0.0411687195301055,0.0078243529424071,0.046502947807312,0.0085575282573699,-0.014711856842041,0.0017748177051544,-0.0825465843081474,0.0683576166629791,-0.1035205802291631,0.059598833322525,0.0033693303026258,0.0125131523534655,132
1733303447591230700,-0.0390306454662233,-0.3027414223253726,0.2829915967166423,0.8054743057932704,7.312364748325943,6.484667724004387,0.0488794073462486,0.0214966777712106,0.0287408363074064,-0.4370360687612655,-0.2357058086076145,-0.3373673536829878,-0.7997658822469222,0.0475773923099041,0.0039380555972456,0.0291058458387851,0.015138030052185,0.0017725825309753,-0.0104265213012695,-0.1191216930747032,0.0594704449176788,-0.0135240829616785,0.0881168693304061,0.0263010008178651,0.0266530291259288,133
1733303447631230700,0.101539197153598,0.0222299519866704,-0.4556067559599876,0.8333964050069451,7.321834002938866,6.470439876687526,0.0194569826126098,-0.1203144341707229,0.000526201329194,-0.4364737837560032,-0.2372775588986147,-0.3373407068524634,-0.7996195109200498,-0.0477629750967025,-0.0187546331435441,0.0504750497639179,0.0061842426657676,-0.0178930163383483,-0.002375990152359,-0.1251916736364364,0.0527129508554935,-0.0008668459624052,0.0926290079951286,0.0406581005375832,0.0491737807527184,134
1733303447671230500,0.3124883248358964,-0.1516711554139852,0.2657324188798666,0.8183231198418885,7.345349318560958,6.445663747349381,0.1256697028875351,0.031626421958208,-0.1203754022717475,-0.4379255938325991,-0.2381055349424148,-0.3386271668505449,-0.7980342461171559,0.0367822721600532,0.0028001400642096,0.0729607865214347,-0.0043957009911537,0.0103188753128051,0.0014086961746215,-0.1208323091268539,0.0222375858575105,0.0162602299273014,0.0761825665831565,0.0394739322543144,0.0528305496945977,135
1733303447711230500,0.0930944632828235,-0.3152811704248189,-0.4776315407633781,0.7508616949874908,7.356777890548109,6.4408396881937975,-0.1036525219678878,0.1765721440315246,-0.1304685324430465,-0.4387522785466258,-0.2355169535839506,-0.3407936948958306,-0.797425833465064,0.1004989370703697,0.0437714345753192,0.0899915695190429,-0.0189369246363639,0.0141072869300842,0.0067811906337738,-0.1017535924911499,0.0088880416005849,0.0452227050393819,0.0775733739137649,0.0500143962953239,0.1441270236447453,136
1733303447751230500,-0.1801361293327063,-0.2158171721100807,-0.1465466520071029,0.6962362247001379,7.318066174837947,6.490881191691756,-0.1481181681156158,-0.0301482956856489,-0.0940448567271232,-0.4409251227692516,-0.232071693497459,-0.3394110903533576,-0.7978269275959476,0.4166984558105469,0.045541800558567,0.0586351752281188,-0.0130777508020401,0.0343867540359497,-0.0148566663265228,-0.0658915415406227,-0.0090866722166538,0.0902630392491817,0.1563379764556884,0.0365944312952458,0.0644262949422001,137
1733303447791230700,-0.173516857323423,-0.3679243808537721,0.5675672477543354,0.7247817165091633,7.321434189966321,6.48395519182086,0.1964014768600464,-0.2472691386938095,0.0159972440451383,-0.4422776006030868,-0.2342241704033026,-0.3384513658684976,-0.796856445937569,0.3724958300590515,0.0443148799240589,0.0529144369065761,0.0050735399127006,-0.0151410102844238,0.013441115617752,-0.0840397551655769,-0.0491378381848335,0.0772352153718471,0.2512984871864319,0.0545955135405063,0.080681848694384,138
1733303447831230700,0.0196286834470927,0.0024433014988899,0.1847971799463033,0.817593782654032,7.401026782119274,6.381749785843491,0.3784025311470032,-0.3738393485546112,0.087605208158493,-0.4418380622813437,-0.2420919612797691,-0.3406065160027879,-0.7938248149103934,0.1498172134160995,0.0507659614086151,0.0805321484804153,0.0027214884757995,-0.0451661348342895,0.0330978631973266,-0.1021879613399505,-0.0891890078783035,0.0652548547208309,0.3462589979171753,0.0728911217529326,0.0963823989123106,139
1733303447871230700,0.4695037638872861,0.3689215751975774,0.0327957696646451,0.9314032633159308,7.50456022183001,6.243753520038724,0.4278296530246734,-0.4122499525547027,-0.0261503104120492,-0.441937660888262,-0.252437713878452,-0.3434128234562181,-0.7893250457485005,0.1462797373533249,0.0302923247218132,0.0832820609211921,0.0140241906046867,-0.0133824348449707,-0.0018959194421768,-0.093180812895298,-0.0776887089014053,-0.0230143803626298,0.4164185225963592,0.0274754514247179,0.0552729744106531,140
1733303447911230500,0.1099148843761533,0.1051747771769762,0.104936292245984,1.044838576903194,7.613432099959254,6.0921554298609495,0.4893181324005127,-0.6084181070327759,-0.0132435020059347,-0.4434315791230691,-0.2638399453669219,-0.3460852572824002,-0.7835700286229462,0.0810871571302414,0.0646658539772033,0.1128077358007431,0.0024662464857101,-0.0159492492675781,-0.0065685212612152,-0.0920796245336532,-0.08649393171072,-0.0501297663033008,0.4524974822998047,0.0290507379174232,-0.0133595400497317,141
1733303447951230500,0.4447825065415352,0.2507563835442066,0.3971113123714924,1.1475113081313668,7.740041294831037,5.911460424536466,0.4459728002548218,-0.2743938565254211,-0.10233785957098,-0.4451715593826504,-0.2759166675414929,-0.3499562746842466,-0.7766742650619693,0.0680696219205856,0.0912605002522468,0.1333014965057373,-0.0045970305800437,-0.0030083656311035,-0.0024464279413223,-0.0622996017336845,-0.0540660806000232,-0.0841693985491991,0.5046530961990356,0.0169230046849697,0.0862096722051501,142
1733303447991230500,-0.2205035763606428,0.08435410746634,-0.7034767704129219,1.1455630966730417,7.805288550767302,5.825422309505939,0.124079093337059,0.0087927663698792,-0.0137911550700664,-0.4449131492741277,-0.2788711222281037,-0.3538601528075362,-0.7739937166810692,0.1182054951786995,0.0861358791589737,0.1175877079367637,-0.0055278688669204,0.0139792561531066,-0.0149042308330535,-0.0209560431540012,-0.0329952090978622,-0.0077051675498485,0.5448340177536011,0.0507894723210483,0.0727101391628384,143
1733303448031230700,0.1130816778440028,0.0100397479772567,-0.1741255638062953,1.1392353549562393,7.8270801113367074,5.797356490972637,0.0602059252560138,0.0393221378326416,-0.04551263153553,-0.4448576742905564,-0.2795871694067388,-0.3553140582594009,-0.7731006504803215,0.1570586115121841,0.0908879786729812,0.0621335059404373,-0.0006847381591796,0.022242248058319,-0.0043298304080963,0.0287176705896854,-0.0356478504836559,0.0259235458076,0.5432107448577881,0.0397303181681782,0.0097889880865812,144
1733303448071230700,0.2259572386566549,0.220327927532792,-0.4154389962226152,1.0678094834502785,7.821196898517012,5.818852867987752,-0.1571031510829925,0.298074334859848,-0.1081096827983856,-0.4450442058613729,-0.2756355848858967,-0.3568558509618142,-0.7737018442854818,0.0640940517187118,0.0501365512609481,0.0367642976343631,0.0047696828842163,0.0003487467765808,0.0036213099956512,0.0293764006346464,-0.088065966963768,0.0366536141365766,0.5424840450286865,0.1117360719213262,0.0030745851397514,145
1733303448111230700,0.1774414834212511,0.0045189387291669,-0.4143500319421291,0.9689321989823132,7.776487403696775,5.895575457662344,-0.2244559079408645,0.2105206251144409,-0.1245230510830879,-0.4459646939126533,-0.268728552123685,-0.3566430613839071,-0.7756972860247909,0.0374536514282226,0.0178209021687507,0.0152185251936316,0.011796660721302,0.0036364197731018,-0.0160161554813385,-0.0948296785354614,-0.1032890006899833,0.1122346325606107,0.6639077067375183,0.1020157651567831,-0.1502747326195239,146
1733303448151230500,-0.2147832990176975,-0.2013122614175081,0.0327940160989761,0.90910178046301,7.73975546362698,5.953159047102928,-0.1136751547455787,0.0971264243125915,-0.0123896803706884,-0.4472036239955992,-0.2644388493304398,-0.3557322922747696,-0.7768754968524034,0.0268497448414564,0.0201692767441272,0.0078138727694749,-0.0042295381426811,-0.0258942246437072,-0.0114906132221221,-0.2357223629951477,-0.1750142574310302,0.1058119060367345,0.6638712286949158,0.1961841778140515,-0.1684815665699541,147
1733303448191230500,0.3075498455204069,-0.0877852509588003,-0.3202764944940805,0.8711457054257392,7.7106240616887805,5.99647971791327,-0.1808602213859558,0.1369185000658035,-0.06348317861557,-0.4472795571613527,-0.2611365921700206,-0.3550666252147054,-0.77825214087859,0.0078627383336424,0.0249374005943536,0.0167628917843103,0.0053919032216072,-0.0087594389915466,0.0047764778137207,-0.3191982507705688,-0.1783505827188491,-0.0040273558199405,0.6947463750839233,0.1165863980293273,-0.0130760469332337,148
1733303448231230500,-0.0083615856319665,-0.0897287862420082,-0.2507552145004272,0.8360071720272302,7.657501543310284,6.069114746013283,-0.2351911067962646,0.0278855226933956,-0.0356615521013736,-0.4487180809665174,-0.2574980575170401,-0.3524996584648942,-0.7798018998199391,0.1172840371727943,0.0231187809258699,0.0127152213826775,0.0138815119862556,0.0068218111991882,-0.0052935034036636,-0.3591798841953277,-0.2168402075767517,-0.0056166708379983,0.6902781128883362,0.1168397243364248,0.0166673494234681,149
1733303448271230700,-0.0887254544183611,-0.3290115896135568,0.2343243041813373,0.8306284746635705,7.614567241469025,6.123627257445454,-0.0812485069036483,-0.0093675954267382,0.0431470274925231,-0.4494358401947648,-0.2555586605470566,-0.349959511543948,-0.7811694261193081,0.1713853478431701,0.0311824604868888,0.0135790836066007,0.0143310651183128,-0.003336489200592,0.0015401691198349,-0.3375996947288513,-0.197493627667427,-0.0413724593520164,0.7063343524932861,0.0574801473324187,0.2675320156477391,150
1733303448311230700,0.2459502253714948,0.0863490806758403,0.1568535264879465,0.8640613001227379,7.61280490797162,6.12119213925302,0.0389272682368755,-0.1701670438051223,0.0038526153657585,-0.4496198178864408,-0.2572655709135883,-0.348884634425858,-0.7809840625963014,0.0517409779131412,0.0286179427057504,0.0192151330411434,0.0183521658182144,-0.0095872282981872,0.0022326558828353,-0.2529942095279693,-0.2135781049728393,0.0023585458248853,0.7161005735397339,0.0998802874980494,0.332468013677746,151
1733303448351230700,0.2785626012932509,0.0594546440094709,0.2001414640724658,0.8938480241645127,7.623089570620656,6.10409078232646,0.0272327028214931,-0.0877419635653495,-0.0347405262291431,-0.4506419156243547,-0.2597200662514219,-0.3483152076569635,-0.7798357693578779,-0.0197704881429672,0.0163173861801624,0.0327915959060192,-0.0025068968534469,-0.0220248103141784,-0.008355975151062,-0.1637748479843139,-0.2175911217927932,-0.0486216998279094,0.7115224003791809,0.0807814092118758,0.3107720955025404,152
1733303448391230500,0.3043110827948898,-0.0725789139986038,0.2183931600779294,0.8773770740959793,7.631222023671865,6.096313718584179,0.0342722386121749,0.0362168326973915,-0.0783152654767036,-0.4515450474387692,-0.2596603525771652,-0.348928386877116,-0.7790587332131155,0.1588072478771209,0.0426919497549533,0.0227444861084222,-0.0089400112628936,0.0093113183975219,-0.0236714929342269,-0.1402219235897064,-0.2116918265819549,-0.0382405910670757,0.6574664115905762,0.0798718657520599,0.112892511947453,153
1733303448431230500,0.1606390363760292,0.0155547120064496,-0.1676034685611724,0.8501629770211875,7.646638788512349,6.08083265633583,0.0647114589810371,-0.0539002195000648,-0.0819886103272438,-0.4525669514642738,-0.2594499818591509,-0.3502135231088858,-0.7779584883901506,0.2429748475551605,0.0291118510067462,-0.0004072388401255,0.0126072093844413,0.0320388674736022,-0.0042739957571029,-0.146469309926033,-0.1840467602014541,-0.2113034940779209,0.5630103349685669,0.040077889496833,0.2017029777681455,154
1733303448471230500,0.0301246507592499,-0.1532961262673139,-0.3532826920390129,0.8448064184240996,7.659716881272196,6.0650990806311365,0.023170318454504,-0.0551070533692836,-0.0110150296241045,-0.453749621785234,-0.2603241221598769,-0.3507097808260134,-0.7767530992324417,0.0745783895254135,0.0588971227407455,0.0097803510725498,-0.0057827159762382,-0.0257253646850585,-0.0044491440057754,-0.1464645266532898,-0.1463933289051056,-0.1063636947005987,0.5386469960212708,0.1000219244584441,0.2079663672781549,155
1733303448511230500,0.1395562085978687,0.0436643696814775,-0.1756552575916051,0.8932424594867974,7.666412579518556,6.049679393181204,0.0532340332865715,-0.2273159772157669,0.0518395565450191,-0.4537295551733651,-0.2631040778694077,-0.3497548264588767,-0.7762585588069512,-0.007991325110197,0.06534144282341,-0.0189982987940311,0.00657369941473,0.0039537549018859,-0.009546622633934,-0.1486172676086425,-0.1094697415828704,-0.1694482196450233,0.4602751433849334,0.0920527356775477,0.2151873863065615,156
1733303448551230700,0.2466813891902566,0.2347100886285305,-0.066511576783657,0.9565545826420188,7.670494880396127,6.034807402741909,-0.0322906374931335,-0.1960834711790084,-0.0214822366833686,-0.455111897162239,-0.2671613281949904,-0.347757513589989,-0.7749598160752147,0.0603866651654243,0.0397679582238197,-0.0180926248431205,0.0033666267991065,0.0091375112533569,-0.0080527365207672,-0.1468287259340286,-0.0836325362324714,0.0359276379495859,0.4368795454502105,0.1540440220251679,0.2426153453277423,157
1733303448591230700,0.2066148978702723,-0.0290571676582097,0.4309755880504846,0.9607080490596592,7.659077998846769,6.048631345432996,-0.0406996570527553,0.0634737461805343,-0.0388166941702365,-0.4564374607577696,-0.2674243565386854,-0.3465397986828073,-0.7746348473306016,-0.0406491383910179,0.0002434523194096,0.0054150302894413,0.0051160678267478,-0.0323325395584106,-0.0016548633575439,-0.1506188362836837,-0.0965509489178657,-0.1236082594901323,0.3833625614643097,0.0931251872146502,0.2108185418388806,158
1733303448631230700,-0.0470084194123744,-0.05501753834486,0.2804477574527263,0.9482756337922066,7.663940051925182,6.044434478265047,0.1015067547559738,-0.0865933820605278,-0.0079484302550554,-0.4565799662075385,-0.2670831817243893,-0.3471112111456375,-0.7744127699303964,0.0443752072751522,0.0304836984723806,-0.0056818290613591,-0.0020204707980155,0.0204248428344726,-0.0127745866775512,-0.1819144487380981,-0.0488524623215198,-0.0212894562661647,0.389369398355484,0.1337216937581077,0.1631063763376325,159
1733303448671230500,-0.0435449080202728,-0.2054641203999519,0.0941051016300916,0.9783310917727648,7.697669303047657,5.996594284203648,0.1152842566370964,-0.1019438728690147,0.0030499445274472,-0.4568885931387146,-0.2703804503905599,-0.3480706620915501,-0.7726539322099452,-0.020460246130824,0.0348347201943397,-0.01228560321033,0.0098251029849052,-0.0132035017013549,0.00389064848423,-0.195555031299591,-0.0720843076705932,-0.1014139633387327,0.3592883944511413,0.1206287687553092,0.1786681391393765,160
1733303448711230500,0.1637357602823525,-0.0150391636997461,0.1258165831893682,0.981291183687374,7.70566497797668,5.985832651692628,0.009785802103579,0.0829170942306518,-0.0061428947374224,-0.4566248747662285,-0.2707997744892016,-0.348532583961367,-0.7724547610413555,-0.0547401905059814,0.0561070926487445,0.003957615699619,-0.0131914913654327,-0.0159181952476501,-0.0031044334173202,-0.1958643198013305,-0.0847371593117713,-0.0700461806505918,0.3439159095287323,0.1035453493442386,0.1963647220127284,161
1733303448751230500,-0.0074276657827198,-0.1334188748866319,-0.0796586431264877,0.9767799898732452,7.723487050393223,5.963558860564231,0.0984942764043808,-0.0671221241354942,0.0243321489542722,-0.4559648090422371,-0.2711327155140605,-0.3499002412256233,-0.7721093870490777,0.055466741323471,0.0429178923368454,0.0214706286787986,0.0182990655303001,0.0069818496704101,-0.0171069949865341,-0.19617360830307,-0.0973900109529495,-0.0364922860950231,0.3285434246063232,0.087698157197237,0.2140760275311768,162
1733303448791230700,0.2008125682670622,-0.0126718500465154,0.0548719923943281,1.001375721143186,7.748636689218879,5.926740995776653,0.1134293749928474,-0.0291725248098373,0.023600909858942,-0.4553884244589684,-0.2733634434172114,-0.3508457265323885,-0.7712334663433922,0.0932404920458793,0.0334299020469188,0.0196520239114761,0.0066708028316497,-0.002980887889862,-0.0085340738296508,-0.1759405434131622,-0.0597539097070694,-0.1017705216914415,0.3008661270141601,0.0207837352337315,0.2988929302036762,163
1733303448831230700,0.2890443208843469,0.1073392617344856,-0.6008113457083701,0.9937987830828876,7.76105485676527,5.911749178349972,-0.0374271646142005,0.0170971918851137,-0.0503234155476093,-0.4551338291841983,-0.2734646389598762,-0.3518547682227435,-0.7708881288642856,-0.0262302514165639,0.0408491492271423,0.0263314303010702,0.0060870721936225,-0.0138415694236755,0.0023636817932128,-0.1417652517557144,-0.0720758438110351,-0.0371288304328918,0.287201464176178,0.0737898241583257,0.3359153045874088,164
1733303448871230700,0.1979242264144122,-0.0684516049355268,-0.0696925449073314,0.9761324126847089,7.748601033383608,5.93099748417735,-0.0376758091151714,-0.0127010960131883,-0.0658125579357147,-0.4563904301845907,-0.2725167363189026,-0.351194981467793,-0.770781767499606,-0.0177528765052557,0.0447085499763488,0.0451145060360431,-0.0111477226018905,-0.0036604404449462,-0.0007047802209854,-0.1124299764633178,-0.0588522627949714,-0.1107668980956077,0.2409278452396392,0.0797645877189934,0.2863625344544649,165
1733303448911230500,-0.001071282493323,-0.2059843448817729,-0.1142974103093147,0.9650366528484968,7.752956890505552,5.927119765961169,0.0438319183886051,-0.0456663817167282,-0.0544818826019763,-0.4574317760265783,-0.2726340596711165,-0.351385346371556,-0.7700358457476231,0.1324203759431839,0.0407590270042419,0.0114151323214173,0.0015779212117195,0.021705150604248,-0.0241381227970123,-0.0933260172605514,-0.0471815876662731,-0.0724801297992467,0.2128722071647644,0.1056049852877855,0.2579955410175025,166
1733303448951230500,0.1196251081380993,-0.0908165814787149,-0.0861737241089344,0.9522289014626294,7.763783989468217,5.915007303363084,-0.0013366225175559,-0.0148617969825863,-0.0805621743202209,-0.458769839515215,-0.2731200003987589,-0.3518863857932927,-0.7688379612870883,0.0622705854475498,0.0030282665975391,-0.0044174934737384,0.0136960744857788,0.0045514106750488,0.0009281784296035,-0.084350936114788,-0.0348172709345817,-0.1425841781169176,0.1739262640476226,0.0402571185212582,0.1903327483721077,167
1733303448991230500,-0.0283945390310138,-0.0918564459204673,0.1267711074352264,0.9325047217518092,7.758539074552059,5.925022501420974,-0.0210353173315525,0.0069670155644416,-0.0307580009102821,-0.4597796145908202,-0.27231115012932,-0.3517876540669925,-0.7685667731614153,-0.0470681563019752,0.0192869175225496,-0.0020739114843308,-0.0082596391439437,-0.0038056373596191,0.0058693885803222,-0.0801703780889511,-0.0191850941628217,-0.1325239718735218,0.147226482629776,0.0435324138648808,0.2166900094218552,168
1733303449031230700,0.0098773239571601,-0.0563227757245302,0.2639239081531763,0.9401718223135918,7.767148497465253,5.912517824634909,0.074518546462059,-0.0438926927745342,0.0160061474889516,-0.4597312423857417,-0.2731074931656539,-0.352076385709769,-0.7681808168199018,0.0524211525917053,0.0378655567765235,-0.0193467084318399,-0.0019426196813583,-0.0030175447463989,-0.0156902074813842,-0.0759898200631141,-0.0035529192537069,-0.1220288813441991,0.1205266863107681,0.0470466325309127,0.2431112756185233,169
1733303449071230700,0.0898784238457679,0.1652829166591167,-0.1130862809538841,0.9424712583623824,7.775685439664125,5.900919741299748,-0.0075727715156972,0.0344869568943977,-0.0125909568741917,-0.4595838875605091,-0.2735807137461044,-0.3525484800857483,-0.7678840363327943,-0.0278904661536216,0.0382595434784889,0.0053168265148997,0.0121428593993186,-0.0171673893928527,0.0083409547805786,-0.0644685551524162,0.019013537093997,-0.1070037461698055,0.0860293358564376,0.0663882426649332,0.2845714132539927,170
1733303449111230700,0.1978515995696187,0.0074579147905111,0.1329185241490602,0.9212879658844322,7.775044219151138,5.9051084251612425,0.0114829447120428,0.0729811862111091,-0.0472213961184024,-0.4598036418886969,-0.272562903673239,-0.3530336000212952,-0.767891540268847,0.0258923377841711,0.0208116322755813,0.0151631319895386,0.0052538588643074,0.0139905214309692,-0.0036523193120956,-0.040035031735897,0.0147674139589071,-0.0860194103300571,0.0745692700147628,0.0990358360305428,0.3309706147268414,171
1733303449151230500,0.2075591199178248,-0.1288543434500694,0.1764636513650417,0.8816529247842728,7.786558715856075,5.895979946810007,0.0920393094420433,0.0515001937747001,-0.0586556270718574,-0.459862262817156,-0.2711303947292886,-0.3547914974565086,-0.767553231955453,0.075594387948513,0.0223352778702974,-0.0004559081280604,-0.0047621354460716,-0.001577615737915,-0.0099981874227523,-0.0211491864174604,0.0211559105664491,-0.1102624557048082,0.0387863963842392,0.076286609410122,0.2744996627032756,172
1733303449191230500,-0.0236465407863259,-0.0842623375296592,-0.2566980485528707,0.882715877840668,7.815887101671099,5.856884784740209,0.1046562120318412,-0.0580328479409217,0.0163068417459726,-0.4596219619281628,-0.2725352329432212,-0.3565200112041012,-0.7663978257688884,-0.004306842572987,0.0215157177299261,0.0253866072744131,0.0004386380314826,-0.013706088066101,0.0095343589782714,-0.0188478305935859,0.0140976384282112,-0.1435883867233991,-0.0110318139195442,0.0788448425255715,0.237804109121114,173
1733303449231230500,0.3397472109004855,-0.017825579547882,-0.4031108450472355,0.8911716445621103,7.82696320695877,5.840791143551469,-0.0114623177796602,0.0137228891253471,-0.0298979934304952,-0.459512687137344,-0.2734736096105368,-0.3569519620697368,-0.7659278866353926,0.009348782710731,0.0328219011425972,0.012196104042232,0.0026144906878471,0.0018759369850158,-0.0060577243566513,-0.0312260556966066,0.0305515844374895,-0.1211515139877796,-0.0248590242117643,0.0832918850623071,0.2307008529871702,174
1733303449271230700,0.1371160489041358,-0.0874140795588493,-0.128489601790905,0.8717406025789678,7.81844087780714,5.855120697677135,-0.0466631837189197,0.0302192736417055,-0.0115422792732715,-0.4597630409069989,-0.2721662449473482,-0.3569278180181715,-0.766254533785299,0.0086350552737712,0.0399634353816509,0.0166315995156765,-0.0034530311822891,-0.0137289762496948,-0.0052903890609741,-0.0417734310030937,0.0135066900402307,-0.0778530550092458,-0.0545473545789718,0.0824262081436812,0.1929049369476735,175
1733303449311230700,0.239645791465044,-0.0768815796285867,0.0530032759130001,0.8708147199057042,7.817634237599372,5.856335334163904,0.026689950376749,-0.0308467205613851,-0.0209935531020164,-0.4600248030053953,-0.2722003111024271,-0.3568150593965127,-0.7661378825511816,0.0375439338386058,0.0248713009059429,0.0206505768001079,0.0072586089372634,0.0116310715675354,0.0040415525436401,-0.0163595359772443,0.0090772174298763,-0.0691062694519758,-0.0630925744771957,0.084223101497814,0.2762276555396616,176
1733303449351230700,0.1184146363697946,-0.0541851791739463,-0.2153179904162883,0.8624599293407053,7.818880438268184,5.855908048662543,-0.0397031866014003,0.016297722235322,-0.0275534782558679,-0.4604327440404431,-0.2720250454480953,-0.3569792213711058,-0.7658785316623946,0.0158610101789236,0.0240046009421348,0.0120379123836755,0.0027613565325737,-0.00575453042984,-0.0048611164093017,0.0090543571859598,0.0046477452851831,-0.060308630490303,-0.0716378018260002,0.0859923761926591,0.3595648410484194,177
1733303449391230500,0.1348597944099456,0.0703770200401544,-0.0998953754693269,0.8564890382375567,7.806097529062629,5.873811954143643,-0.0556938722729682,-0.0277120824903249,-0.0539462752640247,-0.4612724437918277,-0.2714703940399147,-0.3561218410284185,-0.7659692747730481,-0.0250704437494277,0.001483260304667,0.029041264206171,0.0074897333979606,-0.0113298892974853,-0.0048509836196899,0.0362502932548522,0.0450150519609451,-0.1208750351339578,-0.0831490606069564,0.0234460497781634,0.275968566212058,178
1733303449431230500,0.0150926474526524,-0.1036181953847408,0.2457183893769979,0.8381410422507674,7.799031243938207,5.885832062283158,-0.0175297986716032,0.0375680699944496,-0.0469691976904869,-0.4623335466813666,-0.2706737387647816,-0.3558676853377181,-0.7657295171023404,0.0130236791446805,-0.0136996340006589,0.0355680063366889,-0.0003851428627967,0.0009761452674865,-0.0098491758108139,0.0588156506419181,0.0548424087464809,-0.0566582912892103,-0.1483124345541,0.0710413657004013,0.2121944515682756,179
1733303449471230500,-0.0907571063764393,-0.0801443808168172,0.0184521870136261,0.8188936862714589,7.8023425604432814,5.884152730894089,0.0265413466840982,0.016707083210349,-0.0234914999455213,-0.4625794001548153,-0.2699725609773359,-0.3565200047073967,-0.7655250839260812,0.0588058121502399,0.0165760349482297,0.0161996353417634,-0.0108399912714958,0.0084471106529235,-0.0012757629156112,0.0642431899905204,0.0610519424080848,-0.1745510957419872,-0.172527015209198,0.0882792815534398,0.2420668811321258,180
1733303449511230500,-0.1547453752275556,0.0907458543300628,-0.1244698447555303,0.8147967723466455,7.801290421041846,5.886115555399656,-0.042025551199913,0.0053461161442101,-0.0146692879498004,-0.462896590717942,-0.2698590641454991,-0.3564655630051456,-0.7653986654596655,0.0806293562054634,0.0026439190842211,0.0012355321086943,-0.0033904314041137,0.0022262334823608,-0.0021387338638305,0.0449107736349105,0.082276701927185,0.0015215104788541,-0.0523031577467918,0.1279909680863842,0.2031134656205773,181
1733303449551230700,0.2055265181116759,-0.0642430473297834,0.1142635080397129,0.7913590520054101,7.791079992672801,5.902813592222333,-0.0280066728591918,0.1158891692757606,-0.0373718179762363,-0.4630364052493952,-0.2682225101541939,-0.3565065778044864,-0.7658701227393768,-0.035304706543684,0.006235830951482,0.0151618663221597,-0.0052639320492744,-0.0173562169075012,0.0013825893402099,0.0187224838882684,0.0389817431569099,0.0523503649622201,-0.016836903989315,0.0909986235147342,0.0451892411611974,182
1733303449591230700,-0.1367078334294259,-0.0884089358150959,-0.1016331590473651,0.7620433064762503,7.795044804650544,5.901437043172121,0.0410105660557746,0.0497267842292785,0.0092497393488883,-0.4625375704172161,-0.2666983903099515,-0.3577463030575529,-0.7661257398290309,0.0585155300796031,0.0197003483772277,-0.0007191615877673,0.0023844763636589,0.0222416520118713,-0.0038833767175674,-0.0030508264899253,0.0552174933254718,-0.0112970545619726,0.0556972399353981,0.0468053711209446,0.0620988749079406,183
1733303449631230700,-0.3510493069637566,-0.1584270594149827,-0.1805979746907949,0.7743739418696611,7.799521657803655,5.893911323842406,0.0084056630730628,0.139998197555542,0.1566832959651947,-0.4610110951820786,-0.2668345440094093,-0.3581807985880914,-0.7667950423131583,0.0583866313099861,0.0101127009838819,-0.0040790056809782,0.0020179003477096,-0.0124890208244323,-0.0052487850189208,-0.0022300821729004,0.0471866615116596,-0.0108089787840843,0.0757000297307968,0.054637343388237,0.0718733960777521,184
1733303449671230500,0.1272916972432285,-0.3856482535928487,0.1864823565542697,0.726390759140998,7.786125585135817,5.917684413617849,-0.0905388444662094,0.93499356508255,0.2874505817890167,-0.4540261042394432,-0.2604680709682775,-0.3611626435959831,-0.7717371608541492,-0.048821847885847,-0.007165728136897,0.0359211415052413,0.0056125670671463,-0.0316426753997802,0.0049328953027725,-0.0091018350794911,0.0303129348903894,-0.0692068072170019,0.0469835065305233,0.0273956641867756,0.0682527213625609,185
1733303449711230500,-0.050524245513603,-0.1590004753887653,-0.3448994790971278,0.6195959064815193,7.747571690335869,5.980101414564252,-0.1801097393035888,0.6855282187461853,0.2663296163082123,-0.4435661758164758,-0.2482934085658193,-0.365308180624181,-0.7798392777491119,0.0320338532328605,0.0013782251626253,0.0448239557445049,-0.0115150213241577,0.0071644783020019,0.0019794702529907,-0.012623343616724,0.0246141199022531,-0.0519213258951902,0.0356798395514488,0.0664556088127195,0.2064369109548628,186
1733303449751230500,-0.4920860364429652,-0.2942284455239772,0.0661912587881088,0.5468533994190394,7.686176433652639,6.065808105683327,-0.1932646036148071,0.3525719046592712,0.2700614035129547,-0.4373355226983855,-0.2388627121059423,-0.3656151881576645,-0.7861347272978336,0.0427522771060466,0.037139419466257,0.0386952906847,-0.0096216648817062,-0.009384274482727,0.0075583308935165,0.0134871173650026,0.0200127735733985,-0.0787561413288116,-0.0324313715100288,0.0343052974447607,0.2454248132579028,187
1733303449791230700,0.2980871302461251,-0.2226636770039796,0.4623708432674407,0.5876177368100732,7.661897147920727,6.092654027032852,0.031894389539957,0.203631117939949,0.3468031585216522,-0.4304046666765335,-0.2366401493315008,-0.365188370539277,-0.7908165497116819,-0.010639039799571,0.041478294879198,0.0471787862479686,-0.0082253813743591,-0.0027419328689575,0.0062217861413955,0.0272621810436248,0.0235464125871658,-0.0756803871452808,-0.0871816128492355,0.0073973802423104,0.2495847094163298,188
1733303449831230700,0.1865263418264686,0.010341361272335,0.1187684182435274,0.6571306143015623,7.671304443213343,6.073684538146853,0.1301392763853073,0.0661689490079879,0.3578377664089203,-0.4235592249525318,-0.237460054689914,-0.3659795092237558,-0.7938949404150502,0.0275437645614147,0.0306755006313323,0.0269701238721609,0.0041749775409698,0.0063058733940124,-0.004513144493103,0.048339195549488,0.0006684958934783,-0.0461000723958015,-0.1275732219219207,0.0050036535061895,0.2794112540118396,189
1733303449871230700,0.6236394097186625,0.3165209413528442,0.045224458605051,0.7781655892375856,7.714229392704367,6.004624445924162,0.275353193283081,-0.2463071644306183,0.2010115981101989,-0.4184193302665038,-0.2432415755692998,-0.3669916922057282,-0.7944029314635915,-0.0016436812002211,0.0424683503806591,0.013375618495047,-0.0028102248907089,-0.0056256651878356,-0.0016283690929412,0.048952393233776,0.0116495601832866,-0.0693190354198217,-0.1730174720287323,0.0061459188764914,0.1209811258569359,190
1733303449911230500,0.4808035949282347,0.1252273851245641,-0.3364946388453245,0.8609967979855835,7.766809474769234,5.925010226461291,0.1724921613931656,-0.1307957619428634,0.0813990086317062,-0.4170409969991305,-0.2492730350553156,-0.3684718649146984,-0.7925706560075639,-0.0087567176669836,0.0207742415368556,7.219670806080103e-05,0.0214630216360092,0.0049386024475097,-0.0090886354446411,0.0582686811685562,0.033503733575344,-0.115607908385992,-0.1951169371604919,0.0058263315333053,0.1575989380277693,191
1733303449951230500,0.3353943494532257,0.2027291424781084,-0.455012881720066,0.9202148567602038,7.795550416085123,5.878178917181492,0.1233760118484497,-0.1660075038671493,0.0553947649896144,-0.4158946546027937,-0.2531510334983535,-0.3690675391997614,-0.7916661948241281,-0.0658889785408973,-0.006840449757874,0.0323733426630497,0.0055501461029052,-0.0265223979949951,-0.0133872032165527,0.0675849616527557,0.0553579032421112,-0.1612830333679914,-0.2172164022922516,0.0056827948767691,0.194300044567883,192
1733303449991230500,0.4253646163009107,0.2156575976341962,-0.4123626575171947,0.9611772009413688,7.820929187491536,5.837772672513127,0.0618263669312,-0.1972123384475708,-0.0627493783831596,-0.4170587835372902,-0.2570166401024466,-0.369186757647288,-0.7897503454068424,0.0530611090362072,0.0197913218289613,0.0427124686539173,0.0100058913230896,0.0199334025382995,-0.0125435441732406,0.1370365768671035,0.0464442372322082,-0.0216758252352476,-0.2493434250354766,0.0727612482955679,0.2885495961699634,193
1733303450031230700,0.0647754006408155,-0.1522673677414655,-0.2982821048289537,0.9796950736023484,7.828376580888032,5.824697502362728,0.0018744366243481,-0.1296839565038681,-0.0234210342168808,-0.4188647136398328,-0.259183947342657,-0.368573950451237,-0.7883712453937701,-0.0156069016084074,0.0206318143755197,0.0496091209352016,4.0978193283081055e-06,-0.0154976844787597,-0.0064712613821029,0.3281583189964294,0.0779770612716674,-0.1472907483726739,-0.5050278902053833,-0.0071755541851744,0.4107204432681202,194
1733303450071230700,-0.0229739752870053,-0.2389525485038757,-0.3365805635631084,1.0316810622315853,7.827823623180389,5.816459250849485,0.0186011306941509,-0.306837797164917,0.0678924992680549,-0.420005967495615,-0.2624431875350066,-0.3668333187024971,-0.7874972151546021,0.0417125821113586,0.0321494005620479,0.0576231740415096,-0.0034837424755096,0.0102612972259521,-0.0167778730392456,0.5192800760269165,0.1095098778605461,-0.2696282572746277,-0.7607122659683228,-0.0847142460156232,0.5331690113291144,195
1733303450111230700,-0.0944412017166614,-1.1411498102754354,-0.7292845808863639,1.1920328791640695,7.8248630198091265,5.789729064834118,-0.0208460558205842,-0.597896158695221,0.3496832251548767,-0.420377329594007,-0.2710147599428382,-0.3624320155469543,-0.7864330504856598,0.153108075261116,0.0470281094312667,0.0767246931791305,-0.0033179223537445,0.0191459655761718,-0.0038954019546508,0.688965916633606,0.1655689775943756,-0.1933323685795068,-1.055342197418213,0.0534883194835856,0.5097941270910203,196
1733303450151230500,-0.6377490374833346,-2.058307909813524,-1.418655669057369,1.5551771861344574,7.763092500072717,5.786726960408688,-0.2151190340518951,-0.819534182548523,1.0036166906356812,-0.4162983916057202,-0.2858921683769342,-0.3510337750399707,-0.7885027601492464,0.2487089037895202,0.1057884097099304,0.0465006157755851,0.0066575706005096,0.0325903296470642,-0.0178259462118148,0.8093916177749634,0.1873760670423507,-0.3290320478796958,-1.3303284645080566,-0.0904779606414958,0.6051779799526557,197
1733303450191230500,-1.858925447414816,-3.0069261464983223,-2.0404799921780823,2.290629934261739,7.543488795161247,5.832595562136173,-0.4306314587593078,-1.483522653579712,2.213937997817993,-0.39947829659972,-0.3096573387086282,-0.3266997295188766,-0.7986217138823347,0.1341772675514221,0.0699123293161392,0.0013156266650184,0.0480994582176208,0.0059285759925842,-0.0204013288021087,0.7617896795272827,0.3432954549789428,-0.295552972126007,-1.4200462102890017,-0.0051363217088393,0.3048193611105904,198
1733303450231230500,-0.0443278020262718,-3.178579767233133,-0.6712497405469418,3.4411011151120063,7.173304652681947,5.733489875739813,-0.367689311504364,-1.753523826599121,2.907839059829712,-0.3719697151849619,-0.3507693904704286,-0.2909195638768824,-0.8086811752077618,0.1400338262319564,-0.0282252617180347,0.0807904750108718,0.082998126745224,-0.0342049598693847,-0.0179792493581771,0.4506040811538696,0.4004306495189667,-0.3275578836739063,-1.368785738945007,0.0430028552991338,-0.0397431776497513,199
1733303450271230700,-3.2964395461991427,-6.053768708321452,-2.3117671225756404,4.83381599496603,6.3994304039627306,5.643747060972452,-0.9087569117546082,-1.5490628480911257,4.882643699645996,-0.3236568539491628,-0.3926152848887312,-0.2410439904603746,-0.8264364189718504,0.2217087149620056,-0.0843239426612854,0.1609948426485061,0.099239096045494,-0.0307800769805908,-0.0469748973846435,0.1394185125827789,0.4575658440589905,-0.3245563637703657,-1.3175252676010132,0.1018173656410072,-0.3910770006433129,200
1733303450311230700,-0.4902683194965124,-8.230407814005018,-1.7032663914084434,6.6026651578754185,4.947658062723279,5.300554385793209,-0.3875095248222351,-3.112311601638794,6.087411880493164,-0.2456457437428655,-0.4486950684799304,-0.1685813914841887,-0.8425623020266653,0.1344536989927292,-0.0853224173188209,0.2835109829902649,0.0778469145298004,-0.0718312859535217,-0.0313770920038223,-0.1166534125804901,0.400965005159378,-0.0901993263632059,-1.1896687746047974,0.3543355986254289,0.0510039187893271,201
1733303450351230700,-1.1949269931703803,-7.323343238458037,0.6985746775850653,8.215773139452933,3.025152415801585,4.41813354537636,0.1634650230407714,-2.2535109519958496,7.295551776885986,-0.1435700503350988,-0.5153626735598685,-0.095599168037246,-0.8394341602746527,0.18351711332798,-0.0255725383758544,0.5033405423164368,0.0462512522935867,-0.0512666702270507,0.0011745616793632,-0.1755801290273666,0.3751028776168823,0.0137993927717208,-1.0986319780349731,0.462928550215438,0.1245291737273335,202
1733303450391230500,0.7475999897778034,-8.6485747738868,2.4951053358852864,9.024183279502392,0.2571969197194091,3.829926245175302,0.2849398851394653,-1.835389852523804,8.221172332763672,-0.0120233965807731,-0.5519671714751582,-0.0077684294141399,-0.8337428997436395,0.1688689291477203,0.0198011752218008,0.653451681137085,0.0416099280118942,-0.014225959777832,0.0010662153363227,-0.2678917646408081,0.4617451131343841,-0.2317395483851432,-0.9666994214057922,0.2688234071651473,0.0954389805823564,203
1733303450431230500,2.591587103518844,-7.705784220442175,4.359742731206119,8.896540065407752,-2.573271694627404,3.224937906043232,2.052371025085449,-1.611406326293945,8.538549423217773,0.1398188356832121,-0.5758384337159452,0.0631190734157001,-0.8030421594256716,0.3457126915454864,0.2410591542720794,0.75002521276474,0.0296611636877059,0.0486803650856018,0.027808666229248,-0.3500223159790039,0.5145577788352966,0.1778127278864383,-0.7298615574836731,0.3785651634640991,-0.0533309004321694,204
1733303450471230500,7.053524427047371,-5.689804463270306,5.730128874874115,7.715108513626456,-5.08320518181026,3.2876316781044004,2.5259244441986084,-0.219912439584732,7.920165538787842,0.2985151915399905,-0.5640263001021198,0.1193807558993991,-0.7605993189110111,0.6300323009490967,0.2514387667179107,0.8288278579711914,0.0617825090885162,0.0539960861206054,0.0039345026016235,-0.3929066359996795,0.3775184154510498,0.3451034772366285,-0.4689525067806244,0.3736300451494753,0.2269318558424711,205
1733303450511230500,15.345553707706928,-0.4832160628974437,3.809467102253437,6.0861436222255225,-6.597486293932795,3.949991425231099,2.901530742645264,0.389786422252655,5.396185874938965,0.4292875491504749,-0.5240208893113593,0.1549470435324831,-0.7191007328694514,1.1771974563598633,0.1596239507198333,0.876922607421875,0.0502719283103942,0.1294137835502624,-0.0453923903405666,-0.3393308222293854,0.3308780789375305,0.2546802789896726,-0.3185498118400574,0.2391582271438092,0.2850076127141714,206
1733303450551230700,20.87385185024738,6.017822365671396,-2.485368370246887,5.087824658304452,-6.831402017313241,4.859668229103088,2.0600266456604004,1.185332179069519,0.7091668248176575,0.4964820107973697,-0.4768684524686943,0.1575511410596607,-0.7080111130331019,2.07020115852356,0.1533543914556503,0.9542381167411804,0.0280622839927673,0.1230925321578979,-0.0465863980352878,-0.2857550382614136,0.2842377424240112,0.1660164916306734,-0.1681471019983291,0.1027615785554051,0.343269247546792,207
1733303450591230700,14.97679989029169,4.3581490322738885,-6.35010201717019,5.21664568400681,-6.340398369279503,5.362494416877627,0.4768195748329162,0.2499441355466842,-2.574524164199829,0.4897212716147922,-0.4559006675106686,0.1369067950445865,-0.730468496103115,4.329594612121582,0.0621006414294242,1.0794742107391355,-0.0010873079299926,0.2931926846504211,-0.0683748722076416,-0.3420131802558899,0.232153370976448,0.2198895361155271,-0.0893868207931518,0.2003184280745685,0.2844745287507772,208
1733303450631230700,6.595218933522701,1.876573624569177,-6.712089409190416,6.0823781322121615,-5.682605491676926,5.184888025218248,-1.1563303470611572,-1.1059502363204956,-3.6726279258728014,0.4389401955777892,-0.4731475489950871,0.1085157605597387,-0.7561001078864887,5.101367950439453,0.4894163906574249,0.7971407175064087,-0.1638262569904327,0.2998852729797363,0.0463360249996185,-0.3935154974460602,0.2108573913574218,0.2504793201684951,-0.1873740553855896,0.2264797281607985,-0.2658344179496169,209
1733303450671230500,-2.8427772023051974,-2.7374440196961163,-3.4073394230246543,7.173139817509055,-5.038623697283864,4.396443983876705,-2.225086212158203,-2.357213020324707,-2.6123976707458496,0.3728211703443659,-0.5185951677219408,0.0830830734741031,-0.7649579042602366,3.773784875869751,0.6538230776786804,0.4768958687782287,-0.3154904246330261,0.0975469350814819,0.0580967664718627,-0.5912600159645081,0.0903457626700401,0.2658709505677223,-0.2532393932342529,0.2801418698413297,-0.6401198582679033,210
1733303450711230500,-6.028108197364211,-2.3619173471450803,-3.2334675417184826,7.879274993476272,-4.875155721092224,3.2125185694530605,-2.055814504623413,-2.4404778480529785,-1.6617741584777832,0.321279401521202,-0.5734320832512945,0.0859231339597914,-0.7487138967057969,1.5173085927963257,1.086941838264465,-0.1215679496526718,-0.3800118267536163,0.0258978605270385,0.0743359327316284,-0.6279857754707336,0.1040379106998443,0.4136719865500927,-0.1418012976646423,0.2532924778930843,-0.2834060227364302,211
1733303450751230500,-5.941541674545407,0.1933402596250176,-2.8300670660749074,8.422083063027262,-4.546896411150693,2.136496480387449,-1.9658870697021484,-2.009617567062378,-1.4097412824630735,0.2815078666142592,-0.6204002099720335,0.0785657118043539,-0.7277940854340824,-0.8129027485847473,1.424658179283142,-0.4402576386928558,-0.2562344372272491,-0.0741893053054809,0.1378355622291565,-0.5602685809135437,0.1004596427083015,0.3121276748299598,0.0997932702302932,0.2986867035744711,-0.0879071237727999,212
1733303450791230700,-3.154324446898699,0.4181087999537587,-0.2011222918033599,8.831575133544206,-4.130617749233544,1.0543561276372522,-2.175132989883423,-2.0304276943206787,-1.8184101581573489,0.2306033070510381,-0.6630156738544292,0.0815660110159685,-0.7075163047310441,-1.686009168624878,1.384258270263672,-0.7360467910766602,-0.236440360546112,0.0533958673477172,0.1246771514415741,-0.4522646367549896,0.0100453943014144,0.4881219551175833,0.3255339860916137,0.5757892057199031,0.1594078871458768,213
1733303450831230700,-4.598088253727555,-1.444057236817479,2.893808885884285,9.11430077280104,-3.619379706944525,0.0001823626953664,-0.8931156396865845,-2.3706414699554443,-1.3844462633132937,0.1949223112954792,-0.70365624146808,0.0697036292684604,-0.6797165719260246,-1.821566700935364,1.1840898990631104,-0.8013262748718262,-0.2770747244358063,-0.0858033299446106,0.0667761862277984,-0.3442606925964355,-0.0803688541054725,0.6657061349451542,0.5512747168540955,0.8553916714549065,0.4050783457279205,214
1733303450871230700,-4.454921891808509,-3.810038472400605,1.0955484081167728,9.22312355109155,-3.246122732891142,-0.7530279331106692,-0.9427649974822998,-0.8362571001052856,-0.3077757060527801,0.1710540630386262,-0.7311715448715264,0.0614972524446727,-0.6575307544007065,-0.2374064177274704,0.8683614730834961,-0.3154904842376709,-0.2751364111900329,0.1332841515541076,0.002166748046875,-0.1633203327655792,-0.0633289366960525,0.1155196455806493,0.7820408940315247,0.7235331046875566,0.5534732559502125,215
1733303450911230500,0.8134814519643783,-5.122862069416046,-0.2354384029030799,9.123204210224747,-3.504194700145721,-0.8112761239398271,-1.1938624382019043,0.8490955233573914,1.4158748388290403,0.1659879060562133,-0.7305618900807459,0.0874236553960693,-0.6565702704161492,1.3401048183441162,0.7426119446754456,0.1619726121425628,-0.0299351811408996,-0.0087818503379821,0.007447600364685,0.0826403200626373,-0.0347683355212211,-0.0307055193871259,0.9724889397621156,1.0862800098381935,0.6501014463171363,216
1733303450951230500,6.247983704954385,-0.0980196447253227,-3.616706980603933,8.989462679255007,-3.867076995179057,-0.6368913977406918,-0.4174174666404724,1.0173022747039795,0.9706449508666992,0.1631707171285514,-0.7197620970667077,0.1200622722611581,-0.6640050949936371,-0.4425131976604461,0.6077136993408203,0.1956819146871566,-0.0178924798965454,-0.2936958074569702,0.2043778598308563,0.1054355427622795,-0.0109262447804212,-0.1571113006412982,0.8713197708129883,1.1344804155141115,0.4047179879829287,217
1733303450991230500,1.0491600933641194,-8.164692940557002,-0.0225613758981227,8.733996802845597,-4.432548731958866,-0.4900972737785428,0.0646509155631065,-0.3243153393268585,2.4935789108276367,0.1838673381159292,-0.7101774176635575,0.1436525049713644,-0.6642324727085787,-1.6486308574676514,0.6921674609184265,0.1658227443695068,-0.0803306698799133,0.1212304830551147,0.053128033876419,0.1282307654619217,0.0129158478230237,-0.2713432444989681,0.7701506018638611,1.1801911232661455,0.1555941740766167,218
1733303451031230700,1.233833939191699,-4.5627375388830895,-1.2331962258100508,8.10115833375752,-5.490066319301724,-0.6330835298903286,0.4548545181751251,-0.6383343935012817,3.48594617843628,0.2276284612719197,-0.7057452836215651,0.1849374853459603,-0.6449085278972339,-1.4043649435043335,1.070940017700195,0.1292754560708999,-0.0685322284698486,0.0986087918281555,0.1654551029205322,0.0332492291927337,0.0267915483564138,-0.5847077676475048,0.8154749870300293,0.7270194854985922,0.1685683680705726,219
1733303451071230700,-3.5563334681838747,-8.7706545086354,-0.2071837472667917,7.035556808680296,-6.809911485517024,-0.5444460825489834,0.9114879965782166,-0.507549524307251,4.9091620445251465,0.2988601410225646,-0.6897787760456572,0.2279567188769391,-0.618808156094266,-1.235539197921753,1.0194478034973145,0.2795234620571136,-0.1057544946670532,-0.0638871788978576,0.1283597946166992,-0.0576259642839431,0.0522778406739234,-0.2861836707562208,0.8287711143493652,0.1593010657705366,0.4106504467718302,220
1733303451111230700,4.743981994783878,-2.6292285596489906,3.646364452242851,5.6299441610693925,-8.027662304913997,-0.1753700657083652,1.685789942741394,0.4258748590946197,3.976744413375856,0.3696534776890683,-0.6561032637395174,0.2801247791083835,-0.5953275723705402,-1.2275384664535522,0.8378419280052185,0.0306552741676569,0.0382925868034362,0.2499932050704956,-0.1630206108093261,-0.1106439530849456,0.0039664693176746,-0.0795779791057109,0.8706833124160767,-0.4501736615279689,0.7446942583989351,221
1733303451151230500,10.85067857569456,4.474530847641826,6.420396619623899,4.810543840450048,-8.497987906578183,0.9018201720874756,4.498222351074219,0.9641982316970824,0.5757108926773071,0.4274379844372446,-0.6099652084871445,0.286290783347402,-0.6027246032601946,0.33846116065979,0.686581552028656,-0.0971769243478775,0.0579658150672912,0.2112318277359008,-0.0447750687599182,-0.009276233613491,-0.1572868376970291,0.5722410847842693,0.9228123426437378,-0.4632961048861965,1.816526859885454,222
1733303451191230500,11.639493203914164,4.185702215334773,-5.1789720791727305,4.992876676109433,-8.02465493979156,2.616577752390504,2.0266458988189697,2.643857479095459,-2.0087242126464844,0.4532125685498919,-0.5556788860360553,0.2404425883631171,-0.6542221905155845,0.2592979073524475,0.4115493893623352,-0.2270991802215576,0.0805598497390747,0.1287355422973632,-0.0278047360479831,0.1810767948627472,-0.1504230201244354,-0.4884072017997503,1.1493134498596191,-1.2020986383654175,2.3689339479088782,223
1733303451231230500,-0.3681540979564189,1.830929479247332,-12.627267392945289,5.347046087855101,-7.574768899565934,3.1941125596687194,-2.1214115619659424,2.1900649070739746,-0.7587025165557861,0.4188859651405157,-0.5311927720478674,0.2344777703699413,-0.69813245732266,0.1939897239208221,0.1720839738845825,-0.2610253691673279,0.1367959976196289,0.135373830795288,-0.0944318771362304,0.2954865097999573,-0.2053311765193939,0.1953986534595489,0.7791829109191895,-0.9081607002206146,1.555504518392682,224
1733303451271230700,1.838594314786792,5.125775326514244,-11.208501833772658,5.724988589376211,-7.486009835138916,2.711929346950352,-1.1911743879318235,-1.7830133438110352,-1.8796415328979488,0.3884692536396777,-0.5515619406660905,0.2398113960559626,-0.6981129409496204,1.2748196125030518,0.1084838584065437,-0.3206164240837097,0.0313169956207275,0.0176480412483215,-0.0835483744740486,0.1533129662275314,-0.133142203092575,-0.11048282045722,0.4494029283523559,-1.167488366624713,0.92961192291975,225
1733303451311230700,4.419376531174779,5.086947290948033,-7.27251496849656,6.606221389052272,-6.958464801171422,2.026818838833272,-2.086747646331787,-0.8225506544113159,-3.4482743740081787,0.3386881503174797,-0.5893987817184703,0.2219686331682678,-0.6990202682551334,1.1438781023025513,0.0206174328923225,-0.2833927273750305,0.0537366271018981,-0.0712387561798095,-0.1177564710378646,0.0126063674688339,-0.1976489424705505,-0.2008738700002431,0.3147028684616089,-1.0202071167327462,1.0997927676882595,226
1733303451351230700,-0.3971937299579381,-0.0220113407999277,3.121844319054484,7.555558587661385,-6.144554894661903,1.1525535400822755,-2.050293207168579,-0.8101460933685303,-3.185567855834961,0.2715915726032538,-0.6324051394336605,0.2032236741148282,-0.6964208364248805,0.3546414673328399,-0.1749870032072067,-0.2134798914194107,0.0814266204833984,-0.2187743186950683,-0.1429893374443054,-0.1281002461910247,-0.262155681848526,-0.2898164743006229,0.1800027787685394,-0.8730023661430925,1.2699873487211764,227
1733303451391230500,0.4974252055138349,2.8706653261840342,1.2536959930032492,8.340620000827313,-5.1176235842406745,0.6437088957358151,-2.519737243652344,0.7993592023849487,-3.971369743347168,0.1941910182752985,-0.6566850470556765,0.1895909513826816,-0.7036404263416731,1.001267910003662,-0.3014391660690307,-0.0580850504338741,-0.0355489253997802,-0.1594864726066589,-0.0465535968542099,-0.3723465204238891,-0.2232806533575058,-0.7264449735462665,0.2157838344573974,-1.0185334844321012,1.0868982148017734,228
1733303451431230500,-5.062432442894577,-0.4260051061615347,-2.3795856903046366,8.931013412895798,-3.904058233834802,1.0796839725740253,-2.927144765853882,3.659387826919556,-3.076911211013794,0.0965230436517259,-0.6406654904472255,0.1857395158804316,-0.7387366710476707,1.970202088356018,-0.2894524931907654,-0.0112968375906348,-0.0801880657672882,0.0451018214225769,-0.0847530663013458,-0.6165928244590759,-0.1844056248664856,-1.161387711662054,0.2515648901462555,-1.1625739988371728,0.9028578445721416,229
1733303451471230500,-4.274768738275766,-3.970276088368892,-4.347846249446272,9.119735072809457,-3.2703882823586463,1.518348946083337,-2.661125659942627,-0.2733539044857025,-1.2778434753417969,0.0169521997405428,-0.6166534271034615,0.2057287025520094,-0.7596886811263338,0.7095289826393127,-0.2248843163251876,0.0085580265149474,-0.1293323636054992,-0.1811950802803039,-0.0229306817054748,-0.7843274474143982,-0.1941698491573333,-0.6782026284247636,0.0749709457159042,-0.8467485654678195,1.3734126518823206,230
1733303451511230500,2.5149428397774694,-2.304286119170486,5.956726384195685,9.239689485967158,-3.2306589140385387,0.6011415275108069,0.3999384641647339,-1.3304259777069092,0.176834151148796,0.0036028454074171,-0.6478102493022327,0.2229174558500676,-0.7284481597736047,-0.0618103481829166,-0.4141887128353119,-0.0137158529832959,-0.0879788994789123,-0.108987808227539,-0.0955585837364196,-0.7871454358100891,-0.2492964714765548,-0.5081809928059577,0.0752987340092659,-1.0458156052418053,2.0960243308760225,231
1733303451551230700,3.323714798876643,-1.250214288367331,-1.7271008559823036,9.185240687420963,-3.412493444786965,0.3957749857338145,0.9754733443260192,-1.0949664115905762,1.0045781135559082,0.0260185980673704,-0.6576070237402266,0.217655907178013,-0.7207648659185478,0.8704842925071716,-0.1589139252901077,-0.0234261378645896,-0.226827323436737,0.1082690358161926,-0.1024534404277801,-0.8451108932495117,-0.2710119485855102,-0.3172603615432977,-0.0995130315423011,-1.2208959124896674,1.264633420472592,232
1733303451591230700,2.289092933952808,-2.3749855030328035,-2.801824429669976,8.997172522979975,-3.9014138568058607,0.0148239797292393,0.4903050065040588,-0.8265318870544434,1.9002834558486936,0.0609986797248593,-0.6700676623590351,0.2241729583572725,-0.705006989455202,0.5087921023368835,-0.0078912265598773,-0.2025362253189087,-0.1948228180408477,-0.003063142299652,-0.1007359325885772,-1.1325737237930298,-0.3739348649978637,0.5714385362297296,-0.1406803429126739,-1.2384995929151772,0.6375055110510438,233
1733303451631230700,-0.2719306889981031,-4.445422826579213,-3.3798283157646654,8.527736563631892,-4.842283963581919,-0.0196382367267273,-0.1001183316111564,-0.211370050907135,3.402805805206299,0.101022553736192,-0.6591633701995651,0.2578854839294422,-0.6991374573302627,0.2000755816698074,0.0146789038553833,-0.5776999592781067,-0.2332618832588195,0.1288197636604309,-0.2427103519439697,-1.420036554336548,-0.4768577814102173,1.4617612358123062,-0.1818476468324661,-1.2563453384682537,0.0051512270170263,234
1733303451671230500,3.129633073234558,-5.899380695164203,3.692262280064821,7.775356353840231,-5.97361439063251,0.173625340932887,1.9484000205993648,0.9749435782432556,3.9800713062286377,0.1578531072329445,-0.6364467004687892,0.29339933362267,-0.6956542445142845,0.1997735798358917,0.2551878690719604,-0.6752466559410095,-0.2691572308540344,-0.0527916550636291,-0.1741184890270233,-1.4960225820541382,-0.5872137546539307,2.372396071061492,-0.3355504274368286,-1.4103525356143711,0.8915009495817124,235
