time_imu,phone_acc_x,phone_acc_y,phone_acc_z,phone_gravity_x,phone_gravity_y,phone_gravity_z,phone_gyro_x,phone_gyro_y,phone_gyro_z,phone_ori_w,phone_ori_x,phone_ori_y,phone_ori_z,watch_gyro_x,watch_gyro_y,watch_gyro_z,watch_acc_x,watch_acc_y,watch_acc_z,headphone_gyro_x,headphone_gyro_y,headphone_gyro_z,headphone_acc_x,headphone_acc_y,headphone_acc_z,frame_imu
1734086986229205200,0.3202583377828821,11.436694503331184,-2.54067933858037,-0.505359980568476,9.768149881213905,-0.7058577472653239,-1.2244662046432495,0.3846182823181152,-0.0857158452272415,0.3256921349999222,0.3827969393512151,-0.6240634847881932,-0.5982773981490682,1.5226833820343018,0.6554275155067444,-0.6158255338668823,-0.8303716778755188,0.7810591459274292,-0.6051115989685059,0.1660812944173813,0.0312220733612775,0.1894073040902614,-0.0299963951110839,-0.0983248747495934,-0.1001205625273287,0
1734086986269205200,2.2796993749246,9.250362271150946,-4.668810141682624,-0.5988203545542433,9.788330499455332,-0.020234117977356,-2.2267539501190186,-0.2802880704402923,-0.460073322057724,0.3375985858554949,0.3756310589511103,-0.5999441310802544,-0.6204801905760472,2.2197160720825195,0.8298732042312622,-1.1481351852416992,-0.6408934593200684,0.6868097186088562,-0.45684415102005,0.2506269216537475,-0.1249337345361709,0.8917553627341985,0.1198430359363555,0.1634937316874042,0.3385677918575704,1
1734086986309205200,0.6496295179564505,0.8858341559916734,-2.5054478662014006,-0.8130339273925871,9.7294574547261,0.9203370949003844,-2.5000479221343994,-0.3960852324962616,-0.5116999745368958,0.342243903243226,0.3601068226085468,-0.5686817608657943,-0.6555861836935888,2.5688493251800537,0.4144480526447296,-1.3838942050933838,-0.1855712532997131,0.4578139781951904,0.0017918348312377,0.2474783062934875,-0.2613272070884704,0.871071471145749,0.1649525612592697,0.2246046550039201,0.3792714120373129,2
1734086986349205500,0.423319958730787,-7.606735232669115,-0.8544828860469162,-0.9510915679957715,9.591677462020517,1.807075725451112,-1.9146642684936523,0.3413465917110443,-0.237049862742424,0.3536041955218502,0.3480087391748003,-0.5354948128947362,-0.683446591727699,2.2168338298797607,0.1207928359508514,-1.508677363395691,0.3254381418228149,0.1011135578155517,0.5662872791290283,0.2590435445308685,-0.3310216963291168,-0.2888672107517719,0.3653880357742309,-0.1388506176117807,0.6061369246453047,3
1734086986389205500,0.8921491843573749,-12.637851915323733,-1.4772925669431685,-1.0615389518134295,9.45969943359196,2.3574610983885824,-1.069560170173645,0.0047788261435925,-0.2601353228092193,0.3639409159513411,0.3439738256504805,-0.5113559829009886,-0.6983868281921278,1.2825884819030762,-0.069842629134655,-0.8022232055664062,0.928192377090454,-0.4700888991355896,0.6755229830741882,0.2004386633634567,-0.2088633477687835,-0.7236380994319915,0.4097872376441955,-0.4182988791657611,0.3200327488660812,4
1734086986429205500,0.2224583636902272,-14.083472748196124,-0.0668871320977807,-1.1331527471069245,9.38724502275586,2.601149589373171,-0.1992814540863037,0.0348949134349823,-0.0961742848157882,0.3655803853191495,0.3410942416744644,-0.501031925542442,-0.7063800198345673,0.3369766771793365,-0.092068888247013,-0.0994396656751632,0.9918935298919678,-0.5895626544952393,0.802404522895813,0.1679072678089141,-0.075996845960617,-1.0394529383420943,0.3990640640258789,-0.563889655220136,-0.0572857024725526,5
1734086986469205500,-0.1090104098170995,-12.16168284832835,-0.3717345867916941,-1.133580544064939,9.408801021003722,2.521877607476711,0.5724372863769531,-0.1585194170475006,0.0316124632954597,0.3632379186819167,0.3420112851828831,-0.5044286915262908,-0.7047257256096039,-0.7448153495788574,-0.0055149793624877,0.5958001613616943,0.8543635010719299,-0.6560413241386414,0.70017009973526,0.1551913022994995,0.2017230540513992,-1.020033367601037,0.059164248406887,-0.6934817383602261,-0.6513227317404001,6
1734086986509205200,-0.4136762243337929,-8.173415176194906,0.2203603684976696,-1.0798569910533726,9.494267473626136,2.205265626839548,1.134735941886902,0.1685310006141662,0.2974997162818908,0.3586656143579122,0.3460202451612134,-0.5175255874978397,-0.6955547281688798,-1.3958886861801147,0.0715417191386222,1.047715187072754,0.607051432132721,-0.3638071417808532,0.5856207609176636,0.1937791258096695,0.280939519405365,-0.790415633675456,-0.0914525762200355,-0.651949266140908,-0.2435503246229141,7
1734086986549205200,0.2163449223112314,-2.085131034809351,0.0773059425204992,-0.9585476561553776,9.610106852680444,1.7021844413906335,1.5316401720046997,0.2616291344165802,0.3771667182445526,0.3576156663412513,0.3550371493029396,-0.5358743941162142,-0.6774204022329806,-1.7804148197174072,-0.0558425970375537,1.216823697090149,0.2569338083267212,-0.1534659266471862,0.2876116037368774,0.2448125481605529,0.293389618396759,-0.3970440923541784,-0.0682637467980384,-0.4790094049878418,0.2608350752923637,8
1734086986589008600,0.9700786656036972,2.725020006930828,0.1095598603934049,-0.8062255625519901,9.712857617580893,1.0866429248664526,1.5354893207550049,0.0009238968486897,0.4222166836261749,0.352180402974505,0.3626266288434179,-0.5595521054016812,-0.6567894683739572,-1.85451078414917,-0.4992833733558655,1.113075613975525,-0.1329752802848816,0.1054754853248596,-0.1412577033042907,0.3962078988552093,0.2097845822572708,0.5269421361709014,0.0569629445672035,0.2002821694510989,0.3249253432132303,9
1734086986629008600,-0.1884939155723899,5.073608501425385,-0.641755935037136,-0.6654880352150648,9.769394328317045,0.5352144360842183,1.232428789138794,0.4302728772163391,0.3923426866531372,0.349772090665911,0.3713593336502104,-0.5786224179093677,-0.6363551367576464,-1.195864200592041,-0.5420178174972534,0.8540341854095459,-0.3341913819313049,0.397674024105072,-0.1411174833774566,0.1042225360870361,0.108725294470787,0.1668459281921386,0.1196499243378639,-0.0162326843332499,0.3218158328905701,10
1734086986669008400,0.99940997402817,6.115166887614131,-0.3874742999762296,-0.5317927180072293,9.791759304860234,0.0950824678954202,0.9973863363265992,0.2073718607425689,0.212461769580841,0.350115531480629,0.3794327910551346,-0.59260686825239,-0.6182774836480333,-0.8576087355613708,-0.4617234766483307,0.5773307681083679,-0.3787739872932434,0.3864586949348449,-0.3384182751178741,-0.0278893858194351,0.0522258877754211,0.2443359951078891,0.1140864118933677,0.0133558867879211,0.0837230430211871,11
1734086986709008400,-0.141321756965667,4.864153265562654,-1.138625260233879,-0.487604799375683,9.79225088776946,-0.2108073445914313,0.5054899454116821,0.0393267981708049,0.0485996678471565,0.3467963748697513,0.3847612569579572,-0.6022515740557012,-0.6074405485336829,-0.3931630253791809,-0.2735211849212646,0.3704991638660431,-0.4147122502326965,0.2828227877616882,-0.2888594269752502,-0.0681096017360687,0.0658431574702262,0.1251321080565452,0.0199634805321693,-0.0729718953715637,0.0750938924942165,12
1734086986749008400,0.3548020470933988,3.454843516999483,0.6732827076792717,-0.4893263259386644,9.787785725054144,-0.3608392814310267,0.4072965681552887,-0.0366939306259155,-0.0461071357131004,0.3442692404865517,0.3879479130908271,-0.6065427437209177,-0.6025621007596047,-0.297443687915802,-0.2216570824384689,0.1555548757314682,-0.2329028248786926,0.1927018761634826,-0.1836656630039215,-0.1083298176527023,0.0794604271650314,0.0059627077966928,-0.0741594433784484,-0.1592638755653053,0.0664814739063382,13
1734086986789008400,0.0926002500250935,1.3148445814490315,-0.8126713046252727,-0.5139797422125936,9.77958663650751,-0.5156616674175486,0.2874604761600494,-0.1467105895280838,-0.0504135079681873,0.3388338675490096,0.3897939613200566,-0.6118431959426182,-0.5990828319343704,-0.085425965487957,-0.0990373119711875,0.0235119611024856,-0.119937002658844,0.1137869358062744,-0.1107182800769805,-0.0520335659384727,0.0346645712852478,0.1043155299991369,-0.0723459720611572,-0.0996560502881184,0.1676569523140788,14
1734086986829008600,0.1426425937732681,0.0647217707574367,-0.8064134132742882,-0.5348428262928501,9.776195240503547,-0.5570838476628065,-0.0150489518418908,-0.0399523042142391,-0.0474409982562065,0.336292842265072,0.3900617781329515,-0.6133964297530841,-0.5987518811682935,0.0556347519159317,-0.0300427451729774,-0.0114398319274187,0.0036486387252807,0.0359907150268554,0.0083057880401611,0.0238722898066043,0.03886379301548,-0.045763387787342,-0.0795197412371635,-0.1877561576160602,-0.0510782261345535,15
1734086986869008600,0.2366707211770117,-0.3090577658653259,-0.0330921222627162,-0.5429788595406339,9.776329680538176,-0.546753774969466,0.0012275036424398,-0.0104243978857994,-0.0147674763575196,0.3361495918713861,0.3900368744207674,-0.6129828066118977,-0.5992718990478181,-0.0067138448357582,-0.0336864814162254,-0.0333918705582618,0.0334281325340271,-0.0041473507881164,0.0340250730514526,0.01283676084131,0.0248281471431255,-0.0450239675968885,-0.0612758733332157,-0.1814721637094393,-0.0651730216562748,16
1734086986909008400,0.183028855099529,-0.1556692851394414,0.1249777212124317,-0.5542800788210704,9.774974174275991,-0.5595255782591179,0.044365108013153,0.0024926243349909,-0.0448119267821311,0.3354372527045757,0.3904969583818931,-0.6132209961223647,-0.599127802428082,-0.0770487263798713,-0.0409268736839294,-0.0252087730914354,0.0205973982810974,-0.0264070034027099,0.0215523838996887,-0.0244697704911232,-0.0117889046669006,-0.0736672937572002,-0.0393498875200748,-0.1079969219256192,-0.1139866638597101,17
1734086986949008400,0.0685952511899173,0.2889344307690858,0.1269102236449718,-0.570779122472927,9.772997321245072,-0.5771695176297799,0.046208668500185,0.0552036240696907,-0.0448188781738281,0.3349886776920511,0.3917368236944488,-0.6131636949558377,-0.5986277458529965,-0.0738952755928039,-0.0648108944296836,-0.0434029586613178,-0.0117251873016357,0.01312917470932,-0.0105668902397155,-0.0202954169362783,0.0005836123600602,-0.1162403610706329,-0.0713772177696228,-0.0764130488013848,-0.1695164625756442,18
1734086986989008400,0.2054008459053933,1.345944653111696,-0.065092357635498,-0.5779985888650641,9.77212930623889,-0.5846342274872586,-0.0272394530475139,0.0426019541919231,-0.0208158958703279,0.3352225548019414,0.3927107118718312,-0.6128509989029853,-0.5981787544515756,0.0786934643983841,0.0150214014574885,-0.0758787393569946,-0.0719907283782959,0.0652227401733398,-0.0621879994869232,-0.0047063957899808,-0.0077730501070618,-0.0549058946639299,-0.108791708946228,0.0153652173163369,-0.1818891835451126,19
1734086987029008400,-0.0937262949129566,4.47239675822258,0.0968822016606107,-0.6020884164394811,9.772803259977698,-0.5478903412513435,-0.2025743126869201,0.1527116596698761,-0.0717428252100944,0.3364013714127088,0.3940360476375628,-0.6104672190753686,-0.5990821838677691,0.4621218144893646,0.3585959076881408,-0.1033806800842285,-0.2213790416717529,0.2762139439582824,-0.1902969777584076,0.0129322502762079,0.0240185149013996,0.1150835922509431,-0.1203627064824104,-0.0311681319301947,-0.3061122139327228,20
1734086987069008600,-0.8027432003289461,9.065182813888788,-1.098585510790348,-0.6050472297124564,9.781074244716764,-0.3672647844338789,-0.7921273708343506,-0.0379821360111236,0.0604756996035575,0.340949004368913,0.3920173332629756,-0.6041917774497039,-0.6041758563290911,1.1179031133651731,0.751336395740509,-0.229092538356781,-0.5863119959831238,0.5415322780609131,-0.5373109579086304,-0.0172434709966182,-0.0259851068258285,0.2049199305206537,-0.1135296747088432,0.0339928704947233,-0.1044224975049495,21
1734086987109008600,-1.1412900955289602,11.285347757565974,-3.21083134701848,-0.5529070003695785,9.790361128500104,0.1163262309894897,-1.77068030834198,0.0101944673806428,0.2034282982349395,0.3513148805835385,0.3810809041766628,-0.5906321676720168,-0.6184730835316413,2.0178258419036865,1.190682291984558,-0.5929975509643555,-0.9050123691558838,0.8149439096450806,-0.5532836318016052,-0.0762489289045333,-0.028267091140151,0.8639525790512561,-0.0600680261850357,0.1842345410948619,0.211153125821799,22
1734086987149008600,1.048479271493107,5.5909010214477775,-3.926801688301563,-0.4542684200283139,9.742912564104795,1.0196426147177815,-2.69561767578125,0.1821008473634719,0.2548770308494568,0.3730922005018798,0.3627157162337007,-0.5625388905628366,-0.642486954048884,3.055040121078491,0.8022052049636841,-1.0984032154083252,-0.3666548132896423,0.623383104801178,-0.1420153975486755,-0.087414301931858,-0.1386514604091644,0.716024117296934,0.0378258004784584,0.5150262921234593,0.6316753435928374,23
1734086987189008400,2.5960019973516464,-2.3157839570015666,-3.881694134074449,-0.4232638811619952,9.58532780073285,2.027983498698473,-2.5445446968078613,0.0036981964949518,-0.0611959993839263,0.394154816668294,0.3431807569521815,-0.5280422159077496,-0.6693581445757621,2.781898260116577,0.1231153309345245,-1.5902621746063232,0.2245466709136963,0.1545693576335907,0.4957809448242187,-0.0681231841444969,-0.186947301030159,-0.0465647672981023,0.1569466590881347,0.1970181809527799,0.6783208479769528,24
1734086987229008400,1.688447007939219,-10.80884785118103,-1.6572911144360898,-0.499127260191366,9.367986195534469,2.8569351992562413,-1.6776477098464966,-0.4255279898643493,-0.4008165597915649,0.4034524454468303,0.3258462803628344,-0.4981576428426828,-0.6949022905497197,1.252631664276123,-0.200275257229805,-1.3534845113754272,0.7704116702079773,-0.3806351721286773,0.7678267955780029,-0.0232079774141311,-0.0221562385559082,-0.8521189333945512,0.1243429034948349,-0.2153870005318894,0.0518103398013859,25
1734086987269008400,0.0636889936435967,-15.533872632038593,-0.6982040907070041,-0.5905631060795858,9.223806272658706,3.277657104317844,-0.6789791584014893,-0.0326732546091079,-0.2519148886203766,0.4029039148024456,0.3160954883298206,-0.4826692855777904,-0.71048050718174,0.4755926132202148,-0.0277642533183097,-0.6656470894813538,1.088878154754639,-0.4838960468769073,0.9119535684585572,-0.0061737224459648,0.1533431857824325,-0.9835153625428676,-0.1060188263654708,-0.3220143146047368,-0.4477862184021621,26
1734086987309008600,-0.0236433259159326,-14.793250664579867,0.2822603598326444,-0.6397002446163446,9.197252612254022,3.3424113160401583,0.4260440766811371,-0.3401639461517334,-0.1522847115993499,0.4003489300798075,0.3147759840075725,-0.4801047125524039,-0.714238238297012,-0.8266979455947876,0.1106320768594741,0.2007879465818405,1.031414270401001,-0.7160491943359375,0.7441204786300659,-0.0165828429162502,0.1982579827308654,-0.942253377828002,-0.2337966561317443,-0.3056984637663699,-0.2767899655975401,27
1734086987349008600,-1.117272018016502,-11.043215409982205,1.0862900928407906,-0.630196064820513,9.305324864438177,3.030539661797881,1.2634572982788086,0.0334316082298755,0.0904133394360542,0.3916664327618815,0.3186596448296493,-0.4939043577316069,-0.7078926297342534,-1.5245484113693235,0.205207958817482,0.8328844904899597,0.7004832625389099,-0.47515869140625,0.7385856509208679,-0.0362562239170074,0.2149335294961929,-0.2221446215659379,-0.1560024321079254,-0.2643761819653213,0.1106035972926765,28
1734086987389008600,-0.1725080821396782,-5.033046189412475,-1.5537731645554302,-0.5851072152938693,9.487009465321895,2.413441052024812,1.7051641941070557,0.4607626795768738,0.2971718311309814,0.3876106091695727,0.3338429458787245,-0.5152646266668868,-0.6876113579677987,-1.777524709701538,-0.18717622756958,0.9731110334396362,0.3758262395858764,-0.2340096831321716,0.3794928193092346,-0.0322092212736606,0.1197129189968109,-0.0204214412599802,-0.0667777806520462,-0.1559014133948832,0.2219076710049062,29
1734086987429008400,1.250202890190482,1.845398149582744,-0.4689724334895611,-0.4852553501727059,9.63719301252663,1.7491222797848285,1.800202488899231,0.3118444383144378,0.2163184732198715,0.3847556266350931,0.3487663004132357,-0.5377561261589956,-0.6641863999500887,-2.194483518600464,-0.7219865918159485,0.6371667981147766,-0.0848118066787719,0.0889709591865539,0.1721093654632568,-0.0211803913116455,0.0752757489681243,0.1884650548040866,-0.073399506509304,-0.2634737532328814,0.2372218522537499,30
1734086987469008400,0.1399822885228321,5.249780476367473,-0.0723811994694173,-0.4617032462041824,9.740466924518346,1.0394894709601998,1.773135781288147,0.0229755938053131,0.0695425495505333,0.3745184989761758,0.3636872916918726,-0.5610101081065781,-0.6424447141150263,-1.8129551410675049,-0.9513465762138368,0.5496135950088501,-0.3176531195640564,0.3242905735969543,-0.338306725025177,-0.0107029965147376,0.0209787003695964,0.2622930920809507,-0.013635579496622,0.0964574551762081,0.5139920902375131,31
1734086987509008400,0.4864141648190095,6.836935686042905,-0.6275070449322462,-0.4335922733549028,9.789299636748432,0.3898828589553013,1.444304585456848,0.0874370336532592,-0.0352191179990768,0.3636948944654673,0.3756436905138633,-0.5822485076038127,-0.6225789735826932,-1.4512944221496582,-0.7484995722770691,0.3246411085128784,-0.5343784689903259,0.4441240429878235,-0.3505089879035949,0.0026304656639695,-0.021282359957695,0.3092728699207305,-0.0089459298178553,-0.0406034112082794,0.2215944403372705,32
1734086987549008400,-0.2443922188071534,5.879328087216615,-0.7331728204965591,-0.4500757906440645,9.79625778532326,-0.0337203896792954,0.7970355153083801,0.0702907741069793,0.0170698259025812,0.3559507504723302,0.3848733421328491,-0.5946358313711814,-0.6095733952178166,-0.5420204401016235,-0.372599720954895,0.3795584142208099,-0.4369899034500122,0.3973895311355591,-0.4138742685317993,-0.01602353900671,-0.0066444501280784,0.2655938871920109,-0.0735067799687385,-0.0050176454989239,0.0479208580821752,33
1734086987589008600,-0.2543796520752832,4.066892296037078,-0.7024281381428241,-0.4155479730224236,9.79508640345633,-0.232357753348723,0.233722373843193,-0.0152188399806618,0.1521854698657989,0.3527156034269968,0.3870261828803316,-0.6017122922064422,-0.6031125905151424,-0.2425426095724105,-0.1694560796022415,0.268908679485321,-0.3318933844566345,0.2739861011505127,-0.3370272219181061,0.0043855886906385,-0.0405662544071674,0.1963666217088699,-0.1701699346303939,0.0638432160909287,-0.1289843265052885,34
1734086987629008600,0.6613824265271425,2.2703671906948086,0.2626501984229311,-0.3615087781904265,9.79581179512143,-0.2859940664682537,0.1268338412046432,0.0368610434234142,0.0771252438426017,0.3536945470764341,0.3867092190953662,-0.6041834314169724,-0.600265500076478,-0.020590778440237,-0.0337667502462863,0.1360976248979568,-0.1915246844291687,0.1380754709243774,-0.1067979037761688,0.0236116964370012,-0.0458758771419525,-0.0722007283359766,-0.2601223289966583,0.0058837973415851,-0.1378290925443172,35
1734086987669008400,0.65973882403858,0.5030529822677373,-0.2067337019443511,-0.35328101153858,9.794258720460531,-0.3436336238797753,0.1318912953138351,0.0430539771914482,-0.0174604151397943,0.3532526448442475,0.3879455917914612,-0.6058206479535164,-0.598073726165261,0.0392824076116085,-0.0549210384488105,0.0183227248489856,-0.0073797106742858,0.0554041862487793,-0.054890900850296,0.0367245823144912,-0.0196696054190397,-0.1461035844147205,-0.2195071429014206,-0.0214449573551304,-0.0233681622363626,36
1734086987709008400,0.6739114340368658,-0.5378899023711681,-0.3258066195597872,-0.3825670195166021,9.792077284768224,-0.3731514313196763,0.0306706354022026,0.0016521818470209,-0.1309054493904113,0.3521537268717115,0.389769131555758,-0.6058922773390705,-0.5974632009365989,-0.044955238699913,-0.1189014017581939,-0.0238749310374259,0.0636560916900634,-0.0285771489143371,0.0471431612968444,0.037341933697462,0.0072814617305994,-0.1801952391088008,-0.1120842173695564,-0.0847578111627139,0.007199702245742,37
1734086987749008400,0.0562147122401744,-0.7228788054972887,0.1822551307806745,-0.431805061144568,9.789570270383358,-0.3850144857339561,0.0441076159477233,0.0493896082043647,-0.0978537499904632,0.3506185581785924,0.3917116263160607,-0.6051382293170212,-0.597859773996835,-0.0952125489711761,-0.1740012019872665,-0.054565530270338,0.0731187462806701,-0.0340651869773864,0.0266560316085815,0.037078708410263,0.0267396420240402,-0.0864601398348808,-0.0362314507365226,-0.0371862962411716,-0.0696985362567007,38
1734086987789008400,-0.0753921813210472,0.0935837081044912,0.5796820484399795,-0.4589635555746033,9.786837630549073,-0.4213653540642932,0.1445975750684738,0.1021143645048141,-0.0539774037897586,0.3498425905425758,0.393993928843247,-0.6051879362643151,-0.5967633712891806,-0.1605484038591385,-0.2288557589054107,-0.0454370118677616,0.0060511231422424,-0.0043623447418212,-0.0022928714752197,0.0512041635811328,0.000985387712717,-0.0091711484491825,-0.0104001332074403,-0.0821127948129549,-0.0487472259037196,39
1734086987829008600,0.3295496420130133,2.152242915573716,0.0335994872629642,-0.4693113100551068,9.784498373946548,-0.4623118796218186,0.0364167876541614,0.2503297924995422,-0.0482842735946178,0.351127266916861,0.3975128029033455,-0.6046113772892562,-0.594254462759431,0.0595173723995685,-0.0296709164977073,-0.0717503055930137,-0.0993943810462951,0.1014152765274047,-0.087620198726654,0.1022161543369293,-0.0329790823161602,0.0324812968879938,-0.0513351783156394,-0.0344431167465634,-0.0843682821221649,40
1734086987869008600,-0.5259175788961351,6.460415326279401,-0.5347018834521994,-0.4977529396308586,9.783942493629455,-0.4439284104628488,-0.2393847107887268,-0.0203407164663076,-0.0699070990085601,0.3520098082411857,0.3994531901249673,-0.6025538968894677,-0.594520769812525,0.4529549479484558,0.1672132760286331,-0.1215156093239784,-0.3044095635414123,0.2940804362297058,-0.3700809478759765,0.1770812571048736,-0.1014041155576706,0.2366214752078056,-0.2116316258907318,-0.056188262624666,-0.137149731978029,41
1734086987909008400,0.4695065768988802,11.947411152094602,-1.4909762243807314,-0.5356467265542596,9.788798701488972,-0.2508051911219954,-0.8083875179290771,0.0782514587044715,-0.1954485177993774,0.3555349724778483,0.3978724945440098,-0.5953864155808506,-0.6006725225178425,1.101986527442932,0.8214584589004517,-0.4818063974380493,-0.8040147423744202,0.6343945264816284,-0.5664571523666382,0.2370305061340332,-0.1484449356794357,0.1490951674461364,-0.3942555785179138,-0.1876972122367471,0.0382199866704642,42
1734086987949008400,-0.5386139788620173,10.644592524003984,-5.057296249049902,-0.6119495564468205,9.781837630304691,0.3339852133076638,-2.240179538726806,-0.1857314258813858,-0.1148533076047897,0.36364745604522,0.3882144664892308,-0.5764208707806153,-0.620313638102553,2.205444574356079,1.0437825918197632,-0.9451202750205994,-0.8911533951759338,0.765948474407196,-0.5763074159622192,0.251033067703247,-0.076929785311222,0.6060311261832714,-0.43528613448143,0.0846792843000963,0.3996886155135929,43
1734086987989008400,0.9987208227202296,3.4043402412086725,-2.986778846004605,-0.6535067977812141,9.68805109310448,1.3729374355860051,-2.9008865356445312,-0.0974069982767105,-0.1594901084899902,0.3800984231545804,0.3675190540694836,-0.5430740414473144,-0.6523230748354731,3.3009707927703857,0.6627050638198853,-1.0849549770355225,-0.3742132186889648,0.5427670478820801,-0.08994060754776,0.2117597013711929,-0.0928257703781127,0.5162462258398532,-0.2487322986125946,0.091930497537367,0.8906810115009546,44
1734086988029008400,1.635788453810662,-5.832989529889821,-1.1250602607399225,-0.7451455823630094,9.487439088910817,2.3672021556802094,-2.065999984741211,0.2938001155853271,-0.2603248059749603,0.3977546246600817,0.3516075308745983,-0.5056465414290536,-0.6800625102982193,2.5428199768066406,0.0989231765270233,-1.4251121282577517,0.3677993416786194,0.2643196880817413,0.6341357231140137,0.1881514936685562,-0.1085103079676628,0.0179255327910184,-0.0279667973518371,0.1200888897249475,0.6291079042576253,45
1734086988069008600,1.2728592508956789,-15.87761826492548,-2.933007216067612,-0.8980169073469937,9.267974500209093,3.0771079362273213,-1.205597758293152,-0.1737626791000366,-0.3431058824062347,0.4039897535890772,0.3395853617550162,-0.4772765892233059,-0.7026244363833354,1.2786874771118164,-0.1753372550010681,-0.8237340450286865,1.0551726818084717,-0.4986813366413116,0.9126904606819152,0.2197386473417282,-0.0576606951653957,-0.8870183973401784,-0.0931931138038635,-0.1280810757889412,-0.3283750452756881,46
1734086988109008600,0.3995046372488141,-16.891920395398138,-1.090312772485614,-0.9747115861013532,9.163886933746934,3.353132616540789,-0.1708530336618423,-0.1056411564350128,-0.1052376553416252,0.4055753070995795,0.3351359954564623,-0.4655337558145408,-0.7116676851046596,0.1926820874214172,-0.0345457755029201,-0.2392471581697464,1.3063195943832395,-0.5007737874984741,0.9995962381362916,0.207611083984375,-0.0137063115835189,-1.0813245793879032,-0.3225172758102417,-0.1604762835623696,-0.5851723164193332,47
1734086988149008600,-0.6633359717477113,-13.89478089889884,-1.002843747869134,-0.9451187041312455,9.204390209048986,3.2490535256460307,0.6197949647903442,-0.2830570638179779,0.1168404519557952,0.4011964368534491,0.3342753171716881,-0.4718096904434306,-0.7104204138709787,-0.9221259355545044,0.3404775559902191,0.4845819771289825,1.043229579925537,-0.6269322633743286,0.8408793210983276,0.2052812725305557,0.024188682436943,-0.9425555756449698,-0.2407229095697403,-0.1816378208662383,-0.0798132491663098,48
1734086988189008400,-0.1689061486575752,-7.681680875799059,0.2703928119063377,-0.8309723196651786,9.339964800664784,2.871398316633701,1.3143881559371948,0.2063670307397842,0.4026481211185455,0.3971907030945126,0.3384290670675965,-0.4889429423535312,-0.6990279791062206,-1.6169393062591553,0.3770760297775268,1.014869213104248,0.7015218138694763,-0.386037141084671,0.7393820285797119,0.1730835884809494,0.0296777449548244,-0.2754413274675607,-0.1628022342920303,-0.1814215842996724,-0.0138619366139173,49
1734086988229008400,-0.2068811475910246,-0.0510579870641231,1.997083625783026,-0.6554807282026857,9.50800607612133,2.3105343659102915,1.756232500076294,0.3960179388523102,0.6772381663322449,0.3985868608472376,0.3494061077824106,-0.5100106917158245,-0.677446016299882,-2.300219774246216,-0.4275565445423126,1.0580273866653442,0.2998135685920715,-0.0173519253730773,0.1573479175567627,0.1824469417333603,0.0751056522130966,0.1666185491770505,-0.0714228376746177,-0.0825464735224843,0.1837798195973038,50
1734086988269008400,1.4801561396807432,5.225494760894775,1.783592412402481,-0.4560363430162891,9.68514426574707,1.4698285146728156,2.509462833404541,-0.163774773478508,0.3864465951919555,0.3919276429427355,0.3628694788340867,-0.5416505749810888,-0.6491017548259175,-2.432835817337036,-0.8590105175971985,1.1454397439956665,-0.2485548257827758,0.122516244649887,-0.1880552172660827,0.176065981388092,-0.0423548221588134,0.4255231678634881,-0.1214081943035125,0.0360783349992707,0.0096282445669174,51
1734086988309008600,0.318233955815807,8.075036635029315,-0.8824392528563737,-0.3486103163138032,9.781218621623516,0.6136900434385985,1.7763965129852295,0.1315854787826538,0.2295958846807479,0.3784826155728168,0.3761087221919158,-0.5720600889423552,-0.6229288595456798,-1.804237008094788,-0.8551803827285767,0.9340296387672424,-0.5439287424087524,0.4245159029960632,-0.4628405570983886,0.1232249811291694,-0.0107929743826389,0.3156026574641466,-0.1053540855646133,0.0996588815660215,0.1627900769300758,52
1734086988349008600,-0.1263220667597837,7.374787594491243,-2.9584283653110264,-0.2965536553348414,9.801812496840954,0.0829922171291429,0.8468672633171082,0.3436475694179535,0.0832178145647049,0.3738974835906015,0.3886791877243963,-0.5871090727727306,-0.6036820108817936,-0.6618027687072754,-0.5172035098075867,0.5025755763053894,-0.6390398740768433,0.5152000784873962,-0.4368498921394348,0.097355879843235,-0.0529607087373733,0.0124485626846551,-0.1102601960301399,-0.1373166129775345,0.0010011398665606,53
1734086988389008600,0.8987531126670539,5.080204246428608,-1.394733526200056,-0.2927209635704755,9.80185399789512,-0.0914667342168279,0.2218061834573745,0.0843222215771675,-0.0529868714511394,0.3735936916510863,0.3948980230218479,-0.5905243917127755,-0.5964598181616914,-0.2854051291942596,-0.2514950633049011,0.2655947804450989,-0.3515546917915344,0.3535075783729553,-0.3345950841903686,0.0967395678162574,-0.0391840673983097,0.3131201929986477,-0.1312961876392364,0.200725474505499,-0.0387245751917362,54
1734086988429008400,-0.0063770242186263,1.4232219540596007,-1.6575006655335425,-0.2948433808182366,9.801094703960418,-0.1483259549056179,0.0323836430907249,-0.2771183848381042,0.0781483128666877,0.3704454900716736,0.3941155507999753,-0.5934942726434779,-0.5959929890222451,-0.0885221511125564,-0.1413019597530365,-0.0727065876126289,-0.2056336998939514,0.228468120098114,-0.144376665353775,0.1209346055984497,-0.0449644476175308,-0.1777390781283378,-0.0824002921581268,-0.0207803742328658,-0.0395060809582471,55
1734086988469008400,0.5678355433017015,-0.0556453148543834,-0.3055447893083095,-0.2577868119039572,9.802740717601775,-0.1011707748331595,-0.1900744438171386,-0.0757931619882583,0.0674851015210151,0.3707956437766191,0.3903892301638788,-0.5939314124972281,-0.5977896721244105,0.16553995013237,0.0211708527058362,-0.1186664178967475,0.0104500651359558,0.0527147054672241,0.0559823513031005,0.1171111613512039,0.0098391398787498,-0.2235802073270082,-0.0440945103764534,-0.0157397497171536,-0.065081251719594,56
1734086988509008400,0.1852183827667497,-0.4912859721064567,-0.4282084614247083,-0.2431280988891609,9.8035327447623,0.0448372128531336,-0.539467990398407,0.136788785457611,0.0052632973529398,0.3742511343034929,0.3872826439300211,-0.589683043725147,-0.6018488947620756,0.19174225628376,-0.0337973237037658,-0.148178294301033,0.0681301951408386,0.0027276277542114,-0.0132485628128051,0.0919836089015007,0.059179812669754,-0.21680676766932,0.0204930827021598,-0.0522646046412177,-0.0430021063804626,57
1734086988549008400,-0.0803873227272182,-0.5440957712739706,0.81482117613554,-0.2293624622565694,9.80187504068315,0.2025645812998525,-0.2032974660396576,-0.1081312596797943,0.0922184735536575,0.3782798416805168,0.3843302780111373,-0.584775442760245,-0.6059969930394552,0.0369958169758319,-0.0554747097194194,-0.1175154000520706,0.0354467630386352,-0.0544191002845764,0.0350315272808074,0.0460665337741375,0.0726634860038757,-0.1356271985858679,0.0081489821895957,-0.0790694998606108,-0.1846440352112054,58
1734086988589008600,0.0344564694184809,-0.0878776054173707,0.9063251553565264,-0.1692798590744845,9.802649532186985,0.2231394960884936,0.0698819309473037,-0.2344996482133865,0.1838435232639312,0.3779529782092669,0.3796395158550431,-0.5869385741807023,-0.6070655009555538,-0.1290368288755417,-0.1161639988422393,-0.1134998872876167,-0.0070259571075439,-0.038191795349121,0.0035692155361175,0.006710946559906,0.0764368176460266,-0.0807727418482303,-0.0518749542534351,-0.0725671322292648,-0.233190916237235,59
1734086988629008600,-0.2207839642046019,-0.1779652880996465,0.2764747804348357,-0.1115612816100008,9.804153507009149,0.1911429687764495,0.1057074815034866,-0.1269999146461486,0.0849027186632156,0.3766902170727523,0.3761620590353041,-0.5905561159001149,-0.6065065528950933,-0.1369655877351761,-0.0752689689397811,-0.0545095391571521,0.0016395449638366,-0.011529803276062,-0.0077871680259704,-0.0255493968725204,0.0755235254764556,-0.1315162561357021,-0.1135683357715606,-0.0959810150371864,-0.1692161644548177,60
1734086988669008400,-0.3357554743831977,-0.0918190365195274,0.322090265917778,-0.0990912560122087,9.804196761628983,0.1956560074877925,-0.14520825445652,0.4359340667724609,0.0420793294906616,0.3788669655936261,0.3773600211455247,-0.5895962466976497,-0.605339135293054,-0.0748191252350807,-0.0415172427892684,-0.0168701503425836,-0.0134783387184143,-0.012265920639038,0.0035918951034545,-0.0348802618682384,0.0617224760353565,-0.047758945518732,-0.1144034415483474,-0.0479853198868222,-0.0745627812922,61
1734086988709008400,-0.1048030486545991,-0.1313660340100526,0.5236766681015491,-0.0949632802288513,9.803491828230024,0.2300475949765182,0.0298870801925659,0.3579742014408111,0.0026758071035146,0.3848129091992269,0.3815772992247186,-0.5853798783280226,-0.6030325027793296,-0.1802118569612503,-0.0664543360471725,-0.0054266140796244,-0.0013510584831237,0.0011482238769531,-0.033065915107727,-0.0340198799967765,0.0581130720674991,-0.0782522834599018,-0.1121113747358322,-0.0306017941511701,-0.0819821176379919,62
1734086988749008400,0.6652762921605259,-0.1498275733739137,0.1968757037421688,-0.1081754294308368,9.805042564803362,0.1407063376142177,0.3286118507385254,-0.0358068645000457,-0.1542512774467468,0.3846143405629051,0.385629909130496,-0.5866136264103704,-0.5993711057438187,-0.5493736863136292,-0.0877336338162422,0.0515475198626518,0.0148329734802246,-0.0434093475341796,-0.0120743215084075,-0.0307037699967622,0.0631356388330459,-0.0868394945412874,-0.1195870265364646,-0.05304328826298,-0.125923258434236,63
1734086988789008400,-0.1480197385006584,-0.1618739849984646,0.2950993831396102,-0.189413057977613,9.804819861963392,0.0013329662076343,0.4180430769920349,0.0224352646619081,-0.1927167177200317,0.3790565315440476,0.3904632769289237,-0.5894662560359715,-0.5969790917709088,-0.5230928063392639,-0.0567854084074497,0.0806187838315963,0.0353266596794128,-0.0215885043144226,0.0456831455230712,-0.0491773821413517,0.0934008061885833,-0.0966699836820364,-0.1070542633533477,-0.0627263271904783,-0.0794502610728144,64
1734086988829008600,0.0027186843741685,-0.1769008737385272,-0.4856032502949237,-0.2526133182561956,9.801740600648522,-0.1801341200387105,0.4336916804313659,-0.0354944765567779,-0.1505838483572006,0.3732369536439071,0.3955888126683833,-0.5938802705704515,-0.5928826865871217,-0.7294875383377075,-0.0301256235688924,0.0901911854743957,0.000507652759552,-0.0137872099876403,-0.0034701526165008,-0.0627252459526062,0.0792797207832336,-0.0407663101524114,-0.0824132561683654,-0.057042367836507,-0.0660860448479652,65
1734086988869008600,-0.309648717495799,-0.2599702020913362,-0.519682045507431,-0.2862080928114243,9.797870481216908,-0.3003318952319212,0.2130732983350753,0.0493485629558563,0.0259895883500576,0.3699613641748595,0.3990638224028132,-0.5967082462955017,-0.5897591694668606,-0.436414361000061,-0.0237533189356327,0.0232928488403558,0.0070226788520812,0.0264830589294433,0.0314599275588989,-0.0832835137844085,0.1173348575830459,-0.0808802938759327,-0.0676871165633201,-0.109423337999545,-0.0269356454595923,66
1734086988909008400,0.498958479495719,-0.1306809743553399,-0.1227320611774921,-0.2098587386297062,9.79741981483996,-0.3700243853403255,0.19915272295475,-0.5335925817489624,0.3062819242477417,0.3682426852817626,0.3953941668839795,-0.6021041814005755,-0.587819188931442,-0.4550793766975403,-0.0857980474829673,0.0102109350264072,0.0261587500572204,0.051754891872406,-0.0899190604686737,-0.0876021534204483,0.1061139926314354,0.0764677381306886,-0.0213832333683967,0.0110767366169777,0.1018780737191438,67
1734086988949008400,0.5034034396732225,0.140817168444395,-0.1820364465286955,-0.1465178369045723,9.795119136682152,-0.4522773558089509,0.2399066835641861,-0.5492542386054993,0.1025822684168815,0.3614667573548601,0.387714888199707,-0.6105218202908632,-0.5884573445444947,-0.6070287227630615,-0.0183479525148868,0.0448635183274745,0.049934446811676,-0.0119275450706481,0.0385258197784423,-0.0626449882984161,0.0477409400045871,0.0103542207539081,-0.0075275236740708,0.0290219205316039,0.1350973294928669,68
1734086988989008400,0.0742201966659165,0.0101730189681053,-0.5432347705304622,-0.1074396168364211,9.7919878529191,-0.5251777568468824,0.0660960525274276,-0.1616844087839126,0.0657950937747955,0.3567881189899279,0.3832211219993618,-0.6163750366791081,-0.588154391602837,-0.3379620909690857,-0.0190387237817049,-0.0303549338132143,-0.0248889923095703,0.0506475567817688,0.0373402833938598,-0.039575669914484,0.0288342051208019,-0.0184445882290601,-0.0263749882578849,0.002411897147051,0.0613616466745734,69
1734086989029008400,0.4191011719919741,0.24256255569458,-0.4413841328075155,-0.0858582558184396,9.79348130634725,-0.5007341108661144,-0.0942522659897804,0.0938179120421409,-0.0146214365959167,0.3585244958063068,0.3827351593865585,-0.61566560113385,-0.5881580158383516,-0.327705442905426,0.0066011254675686,-0.0837678238749504,0.0148202776908874,0.0252392888069152,0.027466207742691,-0.0221958607435226,0.0245347321033477,0.0109498485594987,-0.0818383693695068,0.0222616211999906,-0.0203375623688101,70
1734086989069008600,0.3575634380981325,0.0306336231946945,-0.5124317090529948,-0.1272711567786987,9.794722246319054,-0.4664973851455375,-0.1078031063079834,0.0367997698485851,-0.1630095094442367,0.3586313465540991,0.3841189539734412,-0.6133819180259311,-0.5895751929276793,-0.3304876387119293,0.0132459783926606,-0.1437142342329025,0.02567720413208,0.0503752827644348,3.631412982940674e-05,-0.0032573323696851,-0.0177366882562637,0.0388204367816448,-0.0776760354638099,0.0220071852146182,0.079404376104474,71
1734086989109008600,0.3574832124687731,-0.1509580387085676,-0.2724234409511089,-0.1527790709901135,9.79584978904426,-0.4340153576051816,-0.1805051118135452,0.0202502198517322,-0.0155756473541259,0.359242382219524,0.3850909556720283,-0.611419316098054,-0.5906066943685002,-0.1684542745351791,0.0214144811034202,-0.1477546691894531,0.0160921216011047,0.1101014614105224,-0.0666787028312683,0.0277789533138275,-0.035371795296669,0.0323164617151021,-0.0692862346768379,0.064513050777046,0.0581765868976712,72
1734086989149008600,0.0159360212079249,-0.361611544445157,0.5326771361589432,-0.1829315687375143,9.797908475139735,-0.3713671051861718,-0.1216318011283874,0.1228402629494667,-0.0750835984945297,0.3595072479886042,0.3848240542524523,-0.6089703613327463,-0.5931442456861369,-0.2337424606084823,0.0660634413361549,-0.1520197242498397,0.0395665764808654,0.0728834271430969,-0.0089974105358123,0.0541397109627723,-0.050212562084198,-0.0803852038353681,-0.0754463970661163,0.0310711378291249,0.0128290864348411,73
1734086989189008400,0.5157208867914974,-0.4930412913411855,0.0734416683077812,-0.1820291034724563,9.79915350676477,-0.3374025840030983,-0.1443360894918441,0.6314475536346436,-0.0145086329430341,0.3649625873102652,0.3890438792635261,-0.604853374932268,-0.5912694342500858,-0.2195773720741272,0.0497716031968593,-0.1232698336243629,0.0451933145523071,0.0067666769027709,-0.0005039572715759,0.0610524863004684,-0.009850900620222,-0.1199509060263633,-0.1119160056114196,0.0309178286972455,-0.0647112493634223,74
1734086989229008400,0.4411385240159928,0.0161935944318771,-0.0969908861994743,-0.2090506371172145,9.801828863453864,-0.2254784786963835,-0.3785482347011566,0.4335635006427765,-0.1554781794548034,0.3729219685978098,0.3944082124409122,-0.5966057029699537,-0.5911286389218902,-0.2167328596115112,0.0007774312398396,-0.0679497122764587,-0.0072755813598632,-0.0431478023529052,0.0315567851066589,0.0557708367705345,0.0403524115681648,-0.1786930178523063,-0.1249876469373703,-0.0825437427092809,0.0321691621989011,75
1734086989269008400,0.1350181267768144,0.0760568192422389,0.2791489498138427,-0.2729839791770093,9.801970317751168,-0.1313069516334217,-0.1256998628377914,0.6307294368743896,-0.2172790169715881,0.3792107279119459,0.4008537484754184,-0.5882270509654463,-0.5911889783482188,0.106183685362339,0.1452435851097107,0.0127734951674938,0.0112128853797912,-0.0183907151222229,0.0758947134017944,0.0498672351241111,0.099885918200016,-0.099788992485404,-0.1505713909864425,-0.0382229366793762,0.0457110730782151,76
1734086989309008600,-0.0047627208897843,-0.0433989967435598,0.4786135375380516,-0.378159980196692,9.79842460796833,-0.1351950085805263,0.1080468297004699,0.5496963262557983,-0.2569603323936462,0.3827779160017982,0.4108222435172596,-0.5814792442235509,-0.5887174086737319,-0.0896896868944168,0.2244495600461959,-0.0203483719378709,0.0027508735656738,0.020126461982727,0.0456922799348831,0.0761947035789489,0.0655004829168319,0.070081251963973,-0.1616751998662948,0.03202776955039,0.1183671439662575,77
1734086989349008600,-0.1370632958035916,-0.2497141810148954,0.0239350023388862,-0.4364976028749719,9.794199099227786,-0.231333269139193,0.3038641512393951,1.5501668453216553,-0.1113372519612312,0.3889857446987331,0.4243367623085652,-0.57596269551076,-0.5804268799842789,0.0271045714616775,0.3170691728591919,-0.0348293744027614,-0.0067944526672363,0.0702428221702575,0.0439745336771011,0.0801375284790992,0.0554164201021194,0.0070060793697834,-0.2178732603788375,-0.0207561987728346,0.0006055646777153,78
1734086989389008600,-1.4858913223318757,0.1214940438151359,0.5654594983527437,-0.3064677493721247,9.791996036225555,-0.4396143101233988,0.5568761229515076,4.204825878143311,0.7477448582649231,0.4247108031152049,0.4618155882975069,-0.5560040051010979,-0.5451665552110833,-0.015160858631134,0.1816967278718948,0.1237707212567329,0.0434432625770568,-0.0507616400718688,-0.0504152774810791,0.078106090426445,0.0502499155700206,0.0326888021588325,-0.2447201758623123,0.0395271694120485,0.1012912137418985,79
1734086989429008400,-0.4659815811105072,-0.4066577238738537,0.7906595254339277,0.1737394870981574,9.778459093782304,-0.7224239744018763,0.7136557698249817,3.194251537322998,1.151566982269287,0.4688105680629137,0.4952028160099849,-0.5400069831454812,-0.4933387373677888,0.1197748556733131,0.0084561230614781,0.1985400915145874,0.0885352492332458,0.0114405751228332,-0.082581877708435,0.0784941613674163,0.0123266018927097,0.0155769238382577,-0.2598002552986145,0.0163471318926196,0.0015574585750699,80
1734086989469008400,-0.5348245234511793,-0.6711866121828556,0.2232230644524097,0.7193274696912616,9.73294120518863,-0.960637248845771,0.778299868106842,3.488199234008789,1.138620138168335,0.5064597287174546,0.5213746839019978,-0.526447820320689,-0.4410439069660158,-0.1922613382339477,0.0434433482587337,0.0919137150049209,-0.0037940740585327,0.0335267186164855,0.0821526795625686,0.063185766339302,0.0617894008755683,-0.1256838967204094,-0.2533846795558929,-0.0847652455504983,0.0369403221234679,81
1734086989509008400,-1.4565259655073284,-0.4454582869112491,-1.469533623379469,1.344147978953272,9.653857147079703,-1.0801410686917603,0.5092594027519226,3.4260904788970947,1.3391001224517822,0.5466108649439627,0.5458138789790979,-0.5071085471302307,-0.3822888569632968,-0.1103914976119995,-0.0199455823749303,0.0028925684746354,0.0361790657043457,0.0531714558601379,-0.0228350460529327,0.0561954826116561,0.1073989421129226,0.034523031848669,-0.2122257500886917,0.0091474935789592,0.1218301439017057,82
1734086989549008400,-1.837458004233241,-0.2303261744558811,-1.3020258702777323,2.069396143930405,9.530750991892814,-1.0260356036905198,0.3345146775245666,2.868715047836304,1.7624242305755615,0.583546975895567,0.556250410505315,-0.4928475816431378,-0.3273523474757125,-0.0819265693426132,-0.0337392687797546,0.0168577842414379,0.0593067407608032,0.0130631327629089,0.0155304968357086,0.0621944442391395,0.1141851991415023,0.0004483282893896,-0.1488897800445556,-0.0226918156110681,0.1704994822636246,83
1734086989589008600,-1.5022116118833422,-0.4173363542765378,-0.8089384747724979,2.8887536483213303,9.33573636931479,-0.8182203901197761,0.1437549293041229,3.2097690105438232,2.01363468170166,0.6214270227161945,0.5591355785882914,-0.4786282852206442,-0.2685343463208539,0.0653848499059677,-0.0499334707856178,0.0729792416095733,0.0451469421386718,0.0142101049423217,-0.0190150141716003,0.0689303949475288,0.1430168151855468,-0.0578033696711063,-0.1448540389537811,0.0369839968684129,0.032492110542953,84
1734086989629008600,-1.6998884394079443,-0.8102572292208671,0.2580489151725545,3.77820453350544,9.040024991756678,-0.416515393282473,0.1404841542243957,3.558440923690796,2.3610785007476807,0.6620810163833906,0.5565101332589378,-0.4599270017005444,-0.2010280068310189,-0.0243761949241161,-0.0709592327475547,0.1064910665154457,0.0342965722084045,0.0098423957824707,-0.0002766251564025,0.0885796025395393,0.1699267029762268,-0.1708925732344388,-0.2054648399353027,0.0583757992642,0.0460614939510822,85
1734086989669008400,-2.3363006753295656,-1.2260942848503589,1.6786971828192472,4.735439791887998,8.586168294334412,0.1539146234918385,0.2400887459516525,3.886107206344605,3.049688577651977,0.7018198235664331,0.5461812391563522,-0.4402710442031456,-0.123678185707682,-0.0941717848181724,0.0005444579292088,0.1936693787574768,-0.0003683567047119,-0.0129024386405944,0.0579090118408203,0.1453872323036193,0.2558647990226745,-0.1909106943905353,-0.231657326221466,0.0898190218087285,0.1785825432151556,86
1734086989709008400,-2.6456559628367424,-1.3742752600610255,1.8622312109619377,5.819020625770092,7.846101622670888,0.8649138252988458,0.8255331516265869,4.438437461853027,4.096916198730469,0.7372921282026538,0.529905950564094,-0.4184511313408655,-0.0223308456011102,-0.1579025536775589,0.0282392036169767,0.2887510061264038,0.0044028759002685,-0.0411703586578369,0.039235234260559,0.1936084032058715,0.2998086214065552,-0.1414402687788009,-0.2861632108688354,0.0642691316191107,0.0712745534017682,87
1734086989749008400,-2.2047826656281946,-2.2140110972225666,2.01373563150689,6.910286168935895,6.730073394170403,1.76760617711097,1.117708683013916,4.8716959953308105,4.965396404266357,0.7613894186609315,0.5036370053832712,-0.395255524958947,0.1020242345475209,-0.2375744879245758,0.0318932719528675,0.3966852724552154,-0.0158615112304687,-0.0469576716423034,-0.0191016048192977,0.1858379393815994,0.2693229913711548,-0.0554319643646478,-0.319418728351593,-0.0006865209594368,-0.0573182165026664,88
1734086989789008400,-1.5802572668552397,-2.1196341929137708,0.7928595196962356,7.7016323614597315,5.362879616802931,2.845130195172131,1.025087833404541,4.101742267608643,4.928085803985596,0.7688631516011818,0.4672494891257752,-0.3696168896251684,0.2321867917461444,-0.215837761759758,0.0763679072260856,0.4610671699047088,-0.043509304523468,-0.0404651165008544,0.0113736987113952,0.1342961341142654,0.2268001586198806,0.0048772506475448,-0.3875507712364197,0.0107063221272081,-0.2742906961277127,89
1734086989829008600,0.6605278555244207,-1.3764485124468802,0.5261398433446883,8.122749987840653,4.033263874940574,3.731498896431922,0.8254007697105408,2.2404232025146484,4.026286602020264,0.7588345303289843,0.4290266806829669,-0.3545174380262127,0.3382655188064782,-0.2567146122455597,0.0284836813807487,0.4876019358634949,-0.0262372493743896,-0.0473085045814514,-0.0462481975555419,0.0857712775468826,0.1630274951457977,-0.0205593884259462,-0.4357472956180572,0.0038416970547288,-0.2456079147398471,90
1734086989869008600,2.232721642911434,-1.215226853877306,0.2827957818835973,8.409205461275578,3.02554258416295,4.0375414061293,0.4052752554416656,0.5007765293121338,2.797131299972534,0.7368736379281736,0.4061780159401311,-0.359391290145979,0.4035771837099738,-0.4133489727973938,0.0442370772361755,0.4968572854995727,-0.0597319602966308,-0.0499777793884277,0.0121953040361404,0.0411199182271957,0.1391482502222061,0.0338444019347429,-0.3854070007801056,-0.0036266660645604,-0.0438470327720046,91
1734086989909008400,2.302534014806151,-0.6067195468388498,1.599943964099884,8.617569979292155,2.229539359613508,4.115464311504364,-0.1013000383973121,0.2472125142812729,2.096207618713379,0.7179220446098517,0.3878987358998057,-0.3737703735894754,0.4409289668434227,-0.5073087811470032,0.0539445132017135,0.5038595795631409,-0.0495770573616027,-0.0520276427268981,-0.0303383916616439,0.0399561896920204,0.0626116171479225,0.0840665226966142,-0.2731384932994842,0.067994216556847,0.0551709753409028,92
1734086989949008400,2.114585677352548,-0.2679343128383159,2.789126276138425,8.697030469498038,1.5420983627222478,4.260750149795412,0.2336376160383224,0.6528762578964233,1.8839143514633176,0.7028217960894424,0.3691783533730736,-0.3827134036949427,0.4725244907692905,-0.3974738717079162,0.0064039449207484,0.5280575156211853,-0.0262444615364074,-0.0218585133552551,-0.1068355590105056,0.0651991963386535,0.0440416485071182,-0.1345990245819091,-0.2434191852807998,-0.0015480331595987,-0.1813750965431332,93
1734086989989008400,1.3267922088742254,0.7141966826740652,1.4582231248140334,8.625155904376506,0.9990043158367276,4.558405354897678,0.1695716083049774,0.9932125806808472,1.5888829231262207,0.6909024239282161,0.3512888651853327,-0.3797132420814855,0.5050423887424933,-0.3182014226913452,-0.0754590108990669,0.5835672616958618,-0.0310402512550354,-0.0365364551544189,-0.0592529028654098,0.0222469419240951,0.07008558511734,-0.1448375100016594,-0.2615874111652374,0.0189999570894986,-0.2136862975612282,94
1734086990029008400,-0.1780693329960107,0.621991642511636,2.332883560362458,8.51662421798706,0.4803885478539392,4.83804910249114,0.4707232117652893,0.7690581679344177,1.754273533821106,0.6785137208483335,0.3334222888189728,-0.377038098103491,0.5350615722113121,-0.3966032862663269,-0.094844214618206,0.5811201930046082,-0.024784505367279,-0.020320177078247,-0.0358383655548095,0.0108536481857299,0.0100451186299324,-0.1163777237147092,-0.2689583003520965,0.0355615080509334,-0.2495125209629535,95
1734086990069008600,0.4753846386194229,0.4749538459867238,0.586350274157524,8.388698095297812,0.006729714109571,5.079378901520371,0.5360243916511536,0.6619386076927185,1.6295323371887207,0.6615115827586019,0.3197647679946301,-0.3725241685895705,0.5669027560566624,-0.460294634103775,-0.1299013793468475,0.5100808143615723,-0.0001866221427917,-0.021969199180603,-0.0190251469612121,-0.0204567946493625,0.0290747676044702,-0.171229842364788,-0.261431872844696,-0.0466449198622256,-0.2306745495021343,96
1734086990109008600,0.0905079539209604,0.0973268401555716,0.5539636698156595,8.242360702127218,-0.3955545844487845,5.298811926040053,0.681255042552948,0.6284364461898804,1.601475477218628,0.6441099210726748,0.3083755321283591,-0.3670698955933142,0.5960592636316437,-0.4398269355297088,-0.1418118923902511,0.1681521534919738,-0.0739009976387023,0.1496524214744568,0.0327991917729377,-0.0374811105430126,0.0415393412113189,-0.1159171204656362,-0.1775174140930175,-0.0569563974529504,0.0052010757744312,97
1734086990148862200,0.9752595753729344,-0.1480896436654031,0.1370762283504009,8.064348067754507,-0.7587142351187766,5.528203449994325,0.6810996532440186,0.6608837246894836,1.5470421314239502,0.6255470338628492,0.2976962033383667,-0.3598847557775579,0.6249407180551538,-0.1733978986740112,-0.1423677951097488,-0.041902732104063,-0.0371124744415283,0.0934513211250305,-0.0114161968231201,-0.0355389565229415,0.0906975716352462,-0.1696429384995252,-0.1115420460700988,-0.1147201292334124,-0.0081325666448188,98
1734086990188862200,2.027871270495653,0.1203616057191044,-0.049196869367361,7.857488109081983,-1.0921082776002584,5.765203110864758,0.6196396350860596,0.7876854538917542,1.416312575340271,0.6073201962056393,0.2864035107079491,-0.3521781751913218,0.6520013921627302,-0.0361500307917594,-0.0916525796055793,-0.1042496636509895,-0.0052029490470886,0.0238853096961975,-0.0170511156320571,-0.0383172035217285,0.0885050892829895,-0.1142798746526241,-0.1332382708787918,-0.0773901136726141,-0.0895318023651838,99
1734086990228862200,2.720978622585535,-0.4564049206003546,-0.5998498071998357,7.678085481655597,-1.3021360526539385,5.9600184114784,0.5763371586799622,0.6544367671012878,0.8789141178131104,0.5919493233639325,0.2790476396904111,-0.3438837730274854,0.6734034709423393,-0.124340608716011,0.0072336257435381,0.0009360106196254,-0.0009266734123229,-0.0164655447006225,0.0590777397155761,-0.0415334440767765,0.0831137523055076,-0.0920563524067401,-0.134590208530426,-0.0901545373734086,-0.09550678512156,100
1734086990268862200,2.0235008003264663,-0.0484423977382481,0.0060404492080211,7.400376209256052,-1.3816440352633594,6.284575359770655,0.7306727766990662,0.7391449213027954,0.6073542237281799,0.5835790491638615,0.2684744539119264,-0.3278678190962341,0.6927191192652038,-0.1677322834730148,0.0854461416602134,0.0844543352723121,-0.0144896507263183,0.0142074227333068,0.0404057577252388,-0.0397039130330085,0.0552461966872215,-0.0392015450537204,-0.1250740438699722,-0.0705946813788264,-0.1072895773738622,101
1734086990308862200,1.8921037866562604,-0.1142094397649168,-0.3925234000593424,7.333652451026439,-1.3353298817254602,6.372191099381446,0.366138219833374,-0.07940474152565,0.018969977274537,0.5778426494760819,0.2699281856833904,-0.3197615649289685,0.7007061541653521,-0.1872143745422363,0.0580572299659252,0.1535675674676895,0.0150168538093566,-0.0051885843276977,-0.012414276599884,-0.0514564663171768,0.0426979064941406,-0.0724193395227193,-0.1091927215456962,-0.0587663694843649,-0.0964350058823824,102
1734086990348862200,1.285559450253844,-0.4913192898541688,0.6280430515050888,7.308726684084534,-1.1772896296709776,6.431709456276893,0.6790769696235657,0.432312548160553,-0.1998305320739746,0.5776491017433051,0.2745458478531586,-0.310964058822333,0.7030273231866463,-0.0263898111879825,0.042745653539896,0.1889964640140533,0.0242191553115844,-0.0041877627372741,0.0046465992927551,-0.0677546188235282,0.0339257568120956,-0.1166027646422386,-0.1145593374967575,-0.0600677344065159,-0.088168112796545,103
1734086990388862200,0.5940419977039099,0.3601734744660556,-1.6307418379455805,7.272257194343209,-0.9168253604523836,6.51491322466433,0.4151867926120758,-0.0501570589840412,-0.4694656431674957,0.5798457692434918,0.2812084277588572,-0.2979155888202879,0.7042350533379971,0.0294521488249301,-0.0710183009505271,0.1315934211015701,0.0238059759140014,0.0415857434272766,-0.0342736914753913,-0.0751552730798721,0.01627704128623,-0.0817354494005441,-0.129827618598938,-0.0378758494079113,-0.0367851315617561,104
1734086990428862200,0.0518400773525238,-0.0903844006065279,-0.5878653548955917,7.234912675333023,-0.7365128516394644,6.579055734229088,0.0736470744013786,0.4754671156406402,-0.4157161712646484,0.5865426145782097,0.2831556240075983,-0.2904899426303711,0.701003770960445,0.1196901723742485,-0.1457511335611343,0.0676384717226028,0.0169349908828735,0.0224405527114868,-0.0287231802940368,-0.0618700683116912,0.0097012156620621,-0.1086480062454938,-0.1346521079540252,-0.053936903501302,-0.037311201262474,105
1734086990468862200,0.0080301617205142,0.2030275043701752,-0.4163426670640707,7.092125083598494,-0.5910375917235389,6.747060769328475,0.0540363416075706,0.5953854918479919,-0.3850801885128021,0.5949455345699768,0.2786732247469889,-0.2798872513637037,0.7000316056880015,0.1618309617042541,-0.1749811768531799,0.1062828004360199,0.0107876658439636,-0.0014212131500244,-0.0036636665463447,-0.0345449000597,-0.0121283521875739,-0.0681686963409185,-0.1393451243638992,-0.0493217378560453,-0.063507134270668,106
1734086990508862200,-0.3156102562487125,-0.0676925667291507,0.151175480851531,6.950242331749201,-0.4997331901952624,6.900346958723664,-0.0036659375764429,0.4349454343318939,-0.3101790249347687,0.6027316697098116,0.2727409897069002,-0.2716478630829641,0.6989524276868665,0.1511239856481552,-0.2190935164690017,0.2481241077184677,0.0267031192779541,-0.0523289442062377,-0.027656503021717,-0.0092912856489419,-0.0312317386269569,-0.0773918672382831,-0.1200255304574966,-0.0509860908716917,-0.0565951629251241,107
1734086990548862200,-0.7374275553315878,0.1094985951928421,-0.3774807292282581,6.919555517062545,-0.4152080004783347,6.936695452433824,0.0527100972831249,-0.04940752312541,-0.2361782342195511,0.6073583072244545,0.2726864955045101,-0.268270454165654,0.696267967544139,0.3030411005020141,-0.1787561029195785,0.2849295735359192,0.0024735033512115,0.0026370286941528,-0.0031144171953201,0.000975027680397,-0.0416329279541969,-0.0886748932749032,-0.0935994386672973,-0.0608249825146049,-0.057639703541994,108
1734086990588862200,-0.4376747934281825,0.456182217760384,-0.9322025239348412,6.891843918794393,-0.3916883374746888,6.965590707528591,-0.083500750362873,0.181778997182846,0.0275337379425764,0.6090529360899886,0.2717048347460314,-0.2665149144502953,0.6958453933396792,0.3736385703086853,-0.1364384740591049,0.242406353354454,0.0043848156929016,0.0330406427383422,0.003838762640953,0.0023382948711514,-0.0317708514630794,-0.1360211663395166,-0.0786242634057998,-0.0744643624190241,-0.0643254649162292,109
1734086990628862200,-0.2395037526458501,0.2101621054904535,-0.1423714121490716,6.8280474461883305,-0.4283338413700461,7.026000460305809,-0.1472391188144683,0.269002765417099,0.0426131151616573,0.6108492805494955,0.2669797131287847,-0.2655098995234701,0.6964836854463197,0.3398648798465729,-0.0548774674534797,0.2683617174625397,-0.0214144885540008,-0.0118974447250366,0.0336449816823005,0.0065403953194618,-0.0416642241179943,-0.0948474444299936,-0.0870331451296806,-0.0470939788039773,-0.0065922378718852,110
1734086990668862200,-0.017433949881792,0.1186678074132651,0.0023000936359167,6.762348354831338,-0.5087729673497379,7.083938270011544,-0.1757204979658126,0.2354399561882019,0.1924423426389694,0.6110524359714529,0.2612162021304557,-0.265679825375219,0.6984233710077117,0.3910553753376007,0.0248126201331615,0.323995977640152,0.0100913643836975,-0.0346609950065612,0.0229241847991943,0.0263059511780738,-0.0547504611313343,-0.0790454796642065,-0.0870638862252235,-0.0170993110999464,0.0323690686851739,111
1734086990708862200,0.1466974586546421,-0.0587370703246444,-0.4025952967405319,6.719423405340313,-0.6068508450683205,7.116984215044975,-0.2401661574840545,0.0091790668666362,0.1333124637603759,0.6104976740914381,0.2560840505614816,-0.2674990541768525,0.700112754626357,0.628000795841217,0.0994089841842651,0.3800980448722839,-0.0052182376384735,0.0185041427612304,0.0278015732765197,0.0517593771219253,-0.0627200454473495,-0.0882990456998348,-0.0927504673600196,-0.0166069244731217,0.0323439342439174,112
1734086990748862200,0.1937000328481197,-0.2809479620598256,-0.044970776104927,6.712075965186953,-0.719678694281727,7.113402264904975,-0.2701829969882965,0.2012407630681991,0.1514135152101516,0.610170677813019,0.2518384906515434,-0.2718359740404371,0.7002673804458961,0.495114654302597,-0.0481674224138259,0.3180617690086365,0.033966451883316,0.0116686224937438,-0.0213776230812072,0.0718716233968734,-0.0665744692087173,-0.0791810887426137,-0.1054021194577217,0.008118789852038,-0.0221954651951789,113
1734086990788862200,0.0669137278437614,-0.0093644059989601,-0.2352314821541309,6.646577364838123,-0.8262119003303349,7.163153261023759,-0.1782936453819275,0.0685324445366859,0.1662485599517822,0.6098215123534719,0.2454110780835407,-0.273046187997999,0.7023794707627796,0.5752520561218262,-0.1640942841768264,0.358928918838501,0.0495250523090362,0.0107117891311645,-0.0056513547897338,0.0787376835942268,-0.0720452219247818,-0.0913607713580131,-0.1121186539530754,0.0042206864349544,-0.0755827719897031,114
1734086990828862200,0.025503859090805,0.0509638790398836,-0.578931522333622,6.624989802408218,-0.9342747270990164,7.169868833014369,-0.2955213487148285,0.0485230907797813,0.1862111836671829,0.608905799956695,0.2409943130898089,-0.2763334071467351,0.7034169057886002,0.2477815598249435,-0.3114142119884491,0.4189729988574981,0.0681365430355072,-0.0551802515983581,0.0002829432487487,0.0667532384395599,-0.0746282413601875,-0.1297878249078989,-0.100933089852333,-0.0232013543020933,-0.0945195276498794,115
1734086990868862200,-0.1233715281248092,0.0494146037712693,-0.6175374395817518,6.624826136279106,-1.0810161710258572,7.14936848129928,-0.4021508991718292,-0.0715093612670898,0.1632980555295944,0.608092333352889,0.2360457834564991,-0.2824288227041124,0.7033776277366253,0.7430258989334106,-0.1908816546201706,0.54386967420578,0.02383354306221,0.0039196610450744,0.0275333821773529,0.0518182925879955,-0.0655050873756408,-0.1583838047951459,-0.0856981873512268,-0.0439297426193952,-0.1114326685279607,116
1734086990908862200,-0.7067407406449318,0.0729630910106003,-0.261518600577116,6.635981152021884,-1.307622813501954,7.101004555624723,-0.5576756000518799,0.0308375358581542,0.2468339502811432,0.6069446147365909,0.2288247218884132,-0.2925555766779598,0.7026156931007096,1.4441529512405396,-0.1900112181901931,0.7546418905258179,0.0268106460571289,0.0445706844329834,-0.0003083795309066,0.0467817187309265,-0.0577419772744178,-0.15880524507761,-0.0800013393163681,-0.0271342367716133,-0.0911322232991456,117
1734086990948862200,-0.6043529638379812,0.028198797263205,0.1543295609682798,6.6076634045541285,-1.5378925815954805,7.081247131231427,-0.4922987222671509,-0.0117055904120206,0.3113978505134582,0.6056377242482154,0.2199181887873304,-0.3009865100364807,0.7030263680964811,1.532508373260498,-0.0172554720193147,0.6483539342880249,-0.0131151378154754,0.0299795269966125,0.0385356843471527,0.0475525744259357,-0.0434963814914226,-0.2036836667239666,-0.077424481511116,-0.069194020800665,-0.0588105008870363,118
1734086990988862200,0.3143061879128218,0.1486351487189531,0.1846492959082126,6.623790948012471,-1.7445203389473258,7.018007707986235,-0.4170552790164947,-0.1986690014600753,0.2690685987472534,0.602556782060129,0.2144396044043793,-0.3101561828337775,0.7033805253158179,1.077257513999939,0.0904432907700538,0.5450778603553772,-0.0481713414192199,-0.0148616433143615,0.0613293349742889,0.0408002734184265,-0.0420649200677871,-0.1669324374318122,-0.0762860998511314,-0.0366951882559806,-0.1084153665333986,119
1734086991028862200,0.6225000304251909,0.240880301696062,-0.1497089154303073,6.661709467518329,-1.9207118953727185,6.935624023810028,-0.448603868484497,-0.1468994617462158,0.1780122816562652,0.5999699536030713,0.210735057265768,-0.319331041819212,0.7026055248732168,0.2932366728782654,0.0851005166769027,0.480961799621582,-0.054311454296112,-0.0712724924087524,0.1001774966716766,0.0374688804149627,-0.037497229874134,-0.174653971594572,-0.0706250667572021,-0.0339448666345328,-0.1424620130419731,120
1734086991068862200,0.2835264342457055,0.1201623568199574,-0.0036298809349536,6.676118516620993,-2.0819114882409573,6.87498864558339,-0.4346402287483215,-0.0452154912054538,0.1353644430637359,0.599477042722443,0.205658754734916,-0.3273799296460487,0.7008238028425923,-0.4251449108123779,-0.0829125642776489,0.2601866126060486,-0.0399503707885742,-0.0122405290603637,0.020340472459793,0.0290487818419933,-0.0304152723401784,-0.1396709210187196,-0.0542436316609382,0.0096854546468704,-0.1254664545774459,121
1734086991108862200,-0.4442477420777082,-0.0831260269761085,0.154493227097392,6.669321111565828,-2.2453847251296044,6.829991565993428,-0.3835889101028442,-0.0397045612335205,0.2780938744544983,0.5980210393628044,0.2000771404640229,-0.3342700912469104,0.7004308880998767,-0.2296475917100906,-0.1850207149982452,0.2264466285705566,0.0358353853225708,0.0064077973365783,-0.0716564059257507,0.0252693220973014,-0.0287053529173135,-0.1533411344528198,-0.0355676710605621,0.0070671619072556,-0.1053852050572633,122
1734086991148862200,-0.2255143902599811,0.0040540976963937,-0.1482832665413618,6.669957071381807,-2.4129202430211008,6.771991796967387,-0.4306976199150085,-0.0572594851255416,0.2369842082262039,0.5954140352852288,0.1951843502629249,-0.34150779364543,0.7005409618441777,-0.1874844282865524,-0.2217588126659393,0.1670659333467483,-0.0149842798709869,0.0702899694442749,-0.0412197113037109,0.0316945873200893,-0.02724733017385,-0.1306961719244718,-0.0282272212207317,0.0198954446244984,-0.0883078135281801,123
1734086991188862200,-0.0302583601415157,0.0965185925126075,0.5368360094040632,6.651722326511144,-2.603995918715,6.718941759303212,-0.2819117605686188,0.01404669880867,0.3676087558269501,0.5918928989117495,0.1891320310082267,-0.3487956163736854,0.7015935154432184,-0.0827545449137687,-0.1678108274936676,0.270354151725769,0.0114063918590545,-0.0634189844131469,-0.0059603154659271,0.0391026586294174,-0.0238221697509288,-0.12309037309587,-0.0154792526736855,0.0286737943638116,-0.022648469659686,124
1734086991228862200,0.0804120918422937,0.0681450232043862,0.1639011069118976,6.575468523392081,-2.7596766020312904,6.731849171671271,-0.2324281632900238,0.2583700120449066,0.3832890093326568,0.5888156175292953,0.1819047848451592,-0.3516843368305292,0.7046453360473743,-0.2170082181692123,-0.0681555122137069,0.2001422494649887,-0.0373974442481994,0.0182346105575561,0.018686294555664,0.0462978854775428,-0.0082297939807176,-0.1552250485032796,-0.000786680728197,0.0150648826628923,-0.0187216516047716,125
1734086991268862200,1.112684763291478,-0.0102732644721865,0.4377876061528921,6.4464084282368415,-2.918583261656761,6.789409380236267,-0.2035539895296096,0.4465356767177582,0.3315157890319824,0.5865222976448562,0.1721069922747508,-0.352442414021053,0.7086290325100859,-0.2011573612689972,-0.0270934011787176,0.2899779379367828,0.0093775987625122,0.0238606333732604,0.0060320496559143,0.0324433073401451,0.0081385429948568,-0.12169161221385,-0.0194160509854555,0.0320902517437934,-0.0929296281099319,126
1734086991308862200,0.824653418841958,-0.2505912561103701,0.5123913039773702,6.258741830334067,-3.030362551665306,6.914870574116707,-0.0177945811301469,0.4078139662742615,0.2392112463712692,0.5861270756380398,0.1608191637001655,-0.3486788024288471,0.7134530587176028,-0.0277693290263414,-0.2608619928359985,0.6626201272010803,0.1194369494915008,-0.0434451699256897,-0.1082938611507415,0.0126808509230613,-0.0029531717300415,-0.0875724849909544,-0.0327488146722316,0.0443611197739839,-0.0589636456221342,127
1734086991348862200,0.4985410578012466,-0.4765799858838319,0.2109118644118308,6.186069392833113,-3.046936669847369,6.972739994761348,0.0041240504942834,0.1464103758335113,-0.0138543331995606,0.5869721793812951,0.1569478280223752,-0.3462030716850987,0.7148248227864724,0.4040949940681457,-0.4379372596740722,1.1127290725708008,0.1179577112197876,0.0118942260742187,-0.0734137892723083,0.0073115779086947,-0.0033576514106243,-0.1314542968153953,-0.0232501681894063,-0.0115480336483567,-0.049655719050765,128
1734086991388862200,0.3197761437565088,-0.2458905310735106,0.0919090528905391,6.1548933333247895,-3.025786037530005,7.009442708736658,0.0954505428671836,0.0634233728051185,-0.0493332333862781,0.5878662903350138,0.1560674944898201,-0.3438906995784429,0.7153987282288998,2.7488341331481934,-0.2126685380935669,1.9802100658416748,0.0574809461832046,0.2370498776435852,-0.1355421543121338,0.021430779248476,0.0137764578685164,-0.1683575017988681,-0.0287022404372692,-0.0677066317871212,-0.0804606071591377,129
1734086991428862200,-0.1174842236518859,0.1943552818864584,0.0063157590180635,6.146832191944122,-2.984947246663272,7.033983860275149,0.09927299618721,0.0759707540273666,-0.0084209013730287,0.588555530303201,0.1569133576878991,-0.3416794332191277,0.715706452080934,1.2231541872024536,0.2993131577968597,1.1059949398040771,-0.1889330446720123,-0.117407739162445,0.1917727589607238,0.039365068078041,0.0198605526238679,-0.1517681860476732,-0.0231519658118486,-0.1122618128284811,-0.0888993496805429,130
1734086991468862200,-0.0577601150512695,0.3563312659546733,0.072986910277605,6.113743576812744,-2.976036502715945,7.066522440308332,0.0587085597217083,0.083558015525341,0.0807933062314987,0.588297795005797,0.156059775999162,-0.3396365407020982,0.7170761413589438,-0.4228071868419647,0.4293452501296997,0.1533576399087906,-0.1933040171861648,-0.0832265615463256,0.2784470915794372,0.038671601563692,0.0301228240132331,-0.1410059690147638,-0.0158829651772975,-0.1545304173026233,-0.1598737510919571,131
1734086991508862200,0.1527729791760444,0.2785112364321947,-0.0009264671951532,6.097738782951235,-2.988597585864365,7.075043600416183,0.0167618095874786,-0.0425347201526165,0.1201274245977401,0.5867614396960108,0.155698914292265,-0.3391622173217596,0.718636032684276,-0.799008309841156,0.0078386962413787,-0.3158880770206451,-0.0381663814187049,0.1797781586647033,-0.1822751462459564,0.0249848533421754,0.0115286782383918,-0.1118231291502714,-0.0084673874080181,-0.0909404270540922,-0.2194803707927465,132
1734086991548862200,0.5057300925225019,-0.230186473724246,0.5549836605131626,6.065306001380086,-3.007372428961098,7.094939556497335,0.0822324156761169,0.2669124901294708,0.1389006227254867,0.5854825096969178,0.1543392376041045,-0.3382871011148369,0.7203829222543806,-1.9077359437942505,-0.4467456340789795,-0.3674705028533935,0.1731280237436294,-0.2720158696174621,-0.2404126822948455,0.0128798428922891,-0.0131132770329713,-0.1091653081178665,0.0174662452191114,-0.0419463867824524,-0.1879512600630521,133
1734086991588862200,0.9701520231008528,-0.0207516961276531,-0.2669704362422228,6.0297448586553335,-2.976040302108228,7.13832920089066,0.1393728703260421,-0.1375602185726165,-0.1405116617679596,0.585068940701912,0.1542525465377131,-0.3350412817368274,0.7222518978641491,-1.5885931253433228,-0.6687712669372559,0.0110031589865684,0.1417821943759918,-0.0708670616149902,-0.0495761930942535,-0.000838222913444,-0.0263311713933944,-0.115647071352601,0.038212526589632,-0.0604136252347379,-0.1757160478681325,134
1734086991628862200,-0.6958592811465263,-0.2047325912550091,0.1344125620990991,6.098075467559695,-2.916558185569942,7.104755432590842,0.0936496406793594,-0.110093705356121,-0.0423985496163368,0.5858006403225815,0.1587667459377602,-0.3354868327785619,0.7204716148746133,-0.2900398373603821,-0.4886407852172851,0.2482220232486724,0.0309464409947395,0.2133752703666687,0.1035326719284057,-0.0054715108126401,-0.0279810484498739,-0.1312047059684991,0.0718873888254165,-0.1117271214298903,-0.0738631085902452,135
1734086991668862200,-0.2445961073487997,0.1258037237077951,-0.2608522456228733,6.106499597033858,-2.8773399816423653,7.11350572527945,0.1447740346193313,-0.026805754750967,0.0554827414453029,0.5844366871316186,0.1611441011013459,-0.333683554604135,0.7218876301660583,-0.0279301833361387,-0.5499627590179443,0.4226603507995605,-0.1320411413908004,-0.1761561632156372,0.1007624566555023,0.0155252907425165,-0.0580914467573165,-0.1360784494847059,0.0486373230814933,-0.128747814335674,-0.0679226126253604,136
1734086991708862200,-0.0273532863497734,0.2603296830534934,0.0938993499249219,6.0959057223051785,-2.8689617371365426,7.12596480935812,0.0768749192357063,0.0212864223867654,0.1037394851446151,0.5831654758214819,0.1616063938186441,-0.3325060595877139,0.723354059273146,0.0397551208734512,-0.6181732416152954,-0.0181986689567565,-0.1060594916343689,0.2304641604423523,0.0088553130626678,0.0374608933925628,-0.0453255251049995,-0.0932318259268999,0.0378939770162105,-0.1198470072604715,-0.0472749613940715,137
1734086991748862200,0.3373597312420606,0.1902954851016402,-0.3248269974052906,6.096907592824101,-2.88452054079622,7.118823120909929,-0.0978668108582496,0.0023928177542984,0.0265805535018444,0.5824993273493638,0.1613975126557271,-0.3331544230397078,0.7236390851418054,0.6489965915679932,0.0518478602170944,-0.1669709682464599,-0.1260198950767517,0.0972740054130554,0.1571579873561859,0.0350241959095001,-0.0319095253944397,-0.0889981338798999,0.0463981516659259,-0.1096504612863063,-0.0529565141618251,138
1734086991788862200,0.3731891695141792,-0.1164879060909152,0.2070329771518707,6.074395901286602,-2.9094837171390653,7.12790308394432,-0.0012564798817038,0.0683065205812454,0.0214325636625289,0.5823986541489906,0.1596514129338074,-0.3333009152968775,0.7240398717708028,0.1766618490219116,0.6836145520210266,-0.2675058543682098,-0.1268059015274047,-0.0606588125228881,0.2808122634887695,0.0171766150742769,-0.0353333875536918,-0.0340016383230686,0.0466719269752502,-0.0298140504401177,-0.0358428822755813,139
1734086991828862200,0.1345066701233387,-0.1177802839890122,0.2358902383238077,6.08473083281815,-2.8921798233777283,7.126129644531011,0.0843054205179214,-0.0994220599532127,-0.0301532484591007,0.5822489307785029,0.1607516123623748,-0.3329075185814479,0.7240977669286719,-0.0288039669394493,0.7307471036911011,-0.082341767847538,0.0291275456547737,-0.1081118583679199,0.0391305983066558,0.0083862151950597,-0.0484957508742809,-0.0102542675107717,0.036169346421957,0.037859482795,-0.0221533796191215,140
1734086991868862200,0.1228209085047244,-0.0142266782730817,-0.2078279269218444,6.122454122012853,-2.8586656763106584,7.107317976555228,0.0766453742980957,-0.1498729884624481,-0.0331314615905284,0.5816219001915185,0.1637477208472111,-0.3328878285943611,0.7239394779719663,0.008806524798274,0.3159633278846741,-0.1409508287906646,0.1597804576158523,-0.051006019115448,-0.1247620582580566,-0.0133168306201696,-0.0424557067453861,-0.0357844300866127,0.040707841515541,0.0694463150613009,0.004069441395998,141
1734086991908862200,0.2847059994190931,0.085626027098298,-0.5062228444755077,6.191759128907322,-2.835665616734326,7.056309673851728,-0.0251966286450624,-0.1300490200519561,-0.0486201010644435,0.5808668745039103,0.1677012986520342,-0.3348202417862664,0.7227485424390142,-0.3797827661037445,-0.5611701011657715,-0.4637893140316009,0.3235280513763428,0.0941081047058105,-0.373472511768341,-0.0371597185730934,-0.0189618486911058,-0.0596060351788997,0.0465634614229202,0.0538548512410372,-0.0407674791961908,142
1734086991948862200,0.284135506054759,0.0705079529434442,-0.164803024187684,6.162402101519704,-2.856161584535241,7.073720827379822,-0.0626958310604095,0.1085378304123878,0.0092720361426472,0.5812558176740205,0.165610316319297,-0.3345352536512307,0.7230498538105272,-0.2249921113252639,-0.356654942035675,-0.1442747116088867,0.035086765885353,-0.1900736093521118,0.0483686327934265,-0.0391720868647098,-0.0321886576712131,-0.0575520252585411,0.0289312247186899,0.0600957914572209,0.0060258361607789,143
1734086991988862200,-0.2941068649709225,-0.0357782926067709,0.3562298514068126,6.14344079594016,-2.863599917842448,7.087194056937098,0.0144418887794017,-0.0045809540897607,-0.0014003402320668,0.582365385367045,0.1640707088027172,-0.334267076021997,0.7226319481572102,-0.6401203870773315,-0.5213382840156555,0.1229528561234474,-0.0349639952182769,-0.3479220867156982,0.089868426322937,-0.0223780237138271,-0.0407748892903327,-0.0783832163631916,0.0205488372594118,0.0188650055982172,-0.0117827922523021,144
1734086992028862200,-0.1086269634574651,0.1181111233785748,-0.0191109431833028,6.165208975633979,-2.8488477543905377,7.0742246852487325,0.0454393438994884,-0.0631761252880096,0.0202385280281305,0.581848514047844,0.1657097273586229,-0.3344476183754578,0.7225908066045479,-0.0616625808179378,-0.1661447137594223,0.0075116883963346,-0.1179209202527999,0.2102085351943969,0.0829772055149078,-0.0146918706595897,-0.0220885090529918,-0.0245721311986446,0.031737744808197,0.0142982822045683,-0.0188449857234954,145
1734086992068862200,0.2610328628867864,0.1218976561799645,-0.2959995468497276,6.167697869840264,-2.856674502493441,7.068896768224239,-0.0459911525249481,-0.0129270935431122,0.00919627584517,0.5812374706375768,0.1658132076345053,-0.3348022429955762,0.7228945252301618,-0.003180096624419,0.2798118889331817,-0.1728895157575607,-0.1233551055192947,0.0400223731994628,0.1012742519378662,-0.0103649981319904,-0.0192342475056648,-0.0507440988093614,0.0387553945183754,0.001696136393398,0.0138180974721908,146
1734086992108862200,-0.12323942617774,0.0126429162129759,0.1140308683276176,6.172040282958745,-2.8647356438741087,7.061841004493832,0.0197558347135782,-0.0236446261405944,0.0138738015666604,0.5811513846489567,0.1657397899668735,-0.3353753796057772,0.7227148817239385,0.1541908830404281,0.6747283339500427,-0.0900868400931358,-0.0709330290555954,0.0041573643684387,0.0915738642215728,0.0060936510562896,-0.0385505482554435,-0.0048462709873914,0.0275037288665771,0.0591977466389536,-0.0017728548914194,147
1734086992148862200,-0.0214350022166967,-0.0078694182008504,-0.0922965909034013,6.175430509918928,-2.864124818499386,7.059123562228679,0.0115860253572463,-0.0136752249673008,0.0522992983460426,0.5803757838801006,0.1662575489749103,-0.3353256520191041,0.7232419753438725,0.0599445439875125,0.4713393747806549,0.0560509264469146,0.0707744359970092,-0.0746687054634094,-0.0986233949661254,0.0227113831788301,-0.0479505062103271,-0.0427267965704202,0.0147939547896385,0.0962788654725998,0.0290314486950635,148
1734086992188862200,0.4427256470769644,-0.0988487890258431,-0.1699690286487341,6.176044257903099,-2.8675670679077503,7.0571887947738166,0.0108987614512443,-0.0325290262699127,-0.0202337838709354,0.5799431964281067,0.1663601451381419,-0.3354218423634186,0.7235207366185687,0.0808247923851013,-0.0231846794486045,-0.003232302609831,0.1519462913274765,-0.0044519305229187,-0.169075459241867,0.0220952704548835,-0.0461645536124706,-0.0731038146555423,0.0092977751046419,0.0639262364655733,0.0111275432139635,149
1734086992228862200,-0.1214735855489969,0.0884071822494268,-0.1905938835263252,6.1972092110067605,-2.8598452414840456,7.041751571667194,-0.0560821518301963,-0.0282960049808025,-0.0430059023201465,0.5804337017587625,0.1672590189651887,-0.336147279868033,0.7225829590601336,-0.032361950725317,-0.6440427899360657,-0.1983547359704971,0.1682929545640945,0.0275833010673522,-0.212504357099533,-0.0025161877274513,-0.045171108096838,-0.0013841478347778,0.0064636622555553,0.0530037873696535,-0.0125169517457485,150
1734086992268862200,0.2568827574700117,0.033157880975306,0.0870054987579584,6.176037243640423,-2.8592133733212948,7.060584282431006,0.0473207682371139,0.0489325225353241,0.0045498716644942,0.5807248914683973,0.1662952249484479,-0.3351958966998702,0.7230132781066338,-0.5751826167106628,-0.8410515785217285,-0.2653591930866241,0.0371816754341125,-0.1367895603179931,-0.0113084018230438,-0.0126037579029798,-0.0648269578814506,-0.0015957447588443,-0.009722014889121,0.0784833157368004,0.0200976161330938,151
1734086992308862200,0.3240367238104343,0.01851940703094,-0.1989700822055339,6.17861556969583,-2.8387393250912427,7.066587906759977,0.0161587297916412,-0.0185980163514614,-0.0666751936078071,0.5814642975916033,0.1667866618690269,-0.3344944068071678,0.7226306735736442,-0.0218206271529197,-0.3183711171150207,-0.0162802599370479,-0.0129643976688385,0.0039244890213012,0.1648719012737274,0.0151467826217412,-0.0562322437763214,0.0018926818788051,-0.0068153822794556,0.0634563539315015,0.1189046118438243,152
1734086992348862200,0.344384515312314,0.1393225459724664,-0.232476630488038,6.193281808429956,-2.825766154010594,7.058944114008545,-0.0224494934082031,0.0071093505248427,-0.0693593323230743,0.582074257615925,0.1675562423154575,-0.3346922878180456,0.721869504542353,0.5551548004150391,0.1008226424455642,0.2704267501831054,-0.089987576007843,-0.0413196086883544,0.1727692186832428,0.0393544398248195,-0.0454517640173435,0.0068289692372083,0.0091336434707045,0.1107396447625011,0.0953542249083519,153
1734086992388862200,-0.0422691159307956,-0.068037178915739,-0.1868961980521679,6.196265208154917,-2.826552628213167,7.056010398644209,-0.0287861507385969,0.031624685972929,0.0141473459079861,0.5827431246756528,0.1673373520817076,-0.3350250688808346,0.7212259379354234,-0.0868227928876876,-0.0517758950591087,0.0794588476419448,0.0458119362592697,-0.0748145580291748,-0.1004180908203125,0.0264064706861972,-0.0476392172276973,0.0010714286237955,-0.0085574174299836,0.1144522355448454,0.0783843854069709,154
1734086992428862200,-0.0143985277086496,0.0679199822768568,-0.0924719474703073,6.163905491819977,-2.841153985017538,7.078453116598725,-0.0297132674604654,0.071125604212284,0.0472137629985809,0.5830444121391497,0.1653787284431196,-0.3342891073287082,0.7217754671695984,0.1587339788675308,0.0876233279705047,-0.1021527573466301,-0.0697922706604003,0.1020207405090332,0.0571576654911041,0.0072263218462467,-0.0193347558379173,0.0008212532550096,-0.0277024395763874,0.0873932559665292,0.1076344452887773,155
1734086992468862200,0.5425643239229917,0.1903127284973859,-0.2008370451211929,6.158357210043072,-2.85012113532722,7.079677105435729,-0.0378079004585742,0.0025577284395694,-0.0332504548132419,0.5831010948900207,0.1648094995553547,-0.3344768165863905,0.7217729951155571,0.2160806208848953,0.4281286597251892,-0.1713169813156128,-0.098859965801239,0.0818762183189392,0.1383934319019317,0.020420191809535,-0.014181412756443,0.0391360786020755,-0.0540484823286533,0.1187820814426988,0.1670452501565217,156
1734086992508862200,0.0467833784848451,-0.0030263620838522,0.2046791075021028,6.16212971431911,-2.860887736274302,7.072047925731539,0.0149014219641685,-0.0039015256334096,0.0397705063223838,0.5831389010005192,0.1645573854364287,-0.3351817011391274,0.7214728347997008,0.3297456800937652,0.4850638806819916,-0.1273984611034393,-0.0247929841279983,-0.0412406325340271,0.0486117005348205,0.0495429039001464,-0.0053615411743521,0.0274351194143295,-0.0543676540255546,0.1187744826581329,0.1615688645720481,157
1734086992548862200,0.1381377201020717,0.1653510134592652,-0.1601794560402631,6.159660109335184,-2.8531413599312305,7.077327327439188,-0.006930498406291,-0.0204128213226795,0.0016541278455406,0.5828393076927171,0.1648749070990102,-0.3346236522049802,0.7219014612738859,0.4827533364295959,0.383924126625061,-0.1826991289854049,0.0652019083499908,0.024413526058197,-0.1088859140872955,0.0363379642367363,-0.0046992199495434,0.007611059525609,-0.0497934222221374,0.0904321122057735,0.0519113890230655,158
1734086992588862200,0.4017378031283616,0.0590717821717262,-0.1718494355678558,6.168849377962947,-2.859988449347019,7.066551081880927,-0.0082579450681805,-0.0622635446488857,-0.0063678720034658,0.5823894378342799,0.1652067230803978,-0.3352803153648899,0.7218839350638254,-0.2808734774589538,-0.3606101274490356,-0.208991527557373,0.1521968692541122,-0.1682825088500976,-0.0920562744140625,0.0025599673390388,0.0143410107120871,-0.0126788643091917,-0.0374240837991237,0.0477361491650342,0.0070662851244211,159
1734086992628862200,0.0319517200559377,-0.0955360112160444,-0.1611573611617088,6.167085290899872,-2.8665400629475712,7.065436398637295,-0.0328769758343696,0.0173164065927267,0.0368562079966068,0.5825347496420953,0.1648340628450802,-0.3355483891993172,0.7217273361672257,0.3090196251869201,-0.2981318235397339,0.0887842401862144,0.0819053947925567,0.062830626964569,-0.0929597616195678,-0.0124659892171621,0.019638892263174,-0.0016425065100193,-0.0497339218854904,0.0489355880826711,0.0209235455632209,160
1734086992668862200,0.0186345578432083,0.0496960510611534,0.1023474447965621,6.165737967944144,-2.871262415294349,7.064695224881172,-0.013132257387042,0.0644878968596458,-0.019053915515542,0.5827823897731972,0.1644958279899636,-0.3357705988894906,0.7215012785997338,0.0413144007325172,-0.0432831831276416,0.2603388130664825,-0.0161590278148651,-0.1563979983329773,0.0861013531684875,0.004408873617649,0.0210555884987115,-0.0219791920959949,-0.0525770112872123,0.0089262337774038,0.1020277113229036,161
1734086992708862200,-0.2062707606077194,0.2242564991533756,-0.1759860969811678,6.1533180468320845,-2.8768823010027407,7.073232167080044,0.0308579765260219,-0.116359606385231,0.0641011297702789,0.5822228799578492,0.1640575702734635,-0.3353366087877335,0.7222541263548015,-0.6345874071121216,-0.3217599093914032,0.1789368987083435,0.0052348375320434,-0.1739519834518432,0.0146454274654388,0.0153140230104327,0.0221721492707729,-0.0136146838545799,-0.0342553630471229,-0.0209046947322785,0.1374468152284622,162
1734086992748862200,0.0496375988721847,0.1232534547030925,-0.1641319930583238,6.161369835862517,-2.883618331259489,7.063472989609837,0.0180098917335271,0.0386889912188053,0.0849315077066421,0.5810783050811168,0.1646711301843928,-0.3357775028871672,0.7228311575916949,0.0901258885860443,-0.0762117877602577,-0.0193771831691265,-0.0917415916919708,0.2378013134002685,0.0141327679157257,0.005979660898447,0.0220917128026485,0.0053828620821237,-0.034995213150978,-0.0233465349264442,0.0878647459357976,163
1734086992788862200,0.1616220560640096,0.181578802421689,-0.1399871473610401,6.145303667202591,-2.901840801170468,7.070003852683305,-0.0349972024559974,0.0290790740400552,0.0546028427779674,0.5803181582415481,0.1637286369503389,-0.3357425279710742,0.7236718059501284,0.0024138733278959,0.3276305794715881,-0.1675964742898941,-0.1116198599338531,0.027584969997406,0.1159077584743499,0.0014753728173673,0.020689832046628,-0.0130202250927686,-0.0570645853877067,-0.0060213791813701,0.0845657043904066,164
1734086992828862200,0.01971300072968,0.1166194235160946,0.0194973121523857,6.131439977023005,-2.9251676084831355,7.072427280437946,0.003114664228633,-0.0118297934532165,0.0752506256103515,0.5794871771024872,0.1627255001498437,-0.3360461029628124,0.7244225873974938,-0.111715093255043,0.6506184935569763,-0.0787183344364166,-0.0719203501939773,-0.0635371804237365,0.1032791137695312,0.0217272751033306,0.0067805694416165,0.017715689432621,-0.0750860124826431,0.0522264463216066,0.0853594851166009,165
1734086992868862200,-0.0133113169938325,0.0784448834225535,-0.1058738653570413,6.123613228920102,-2.9444536159723995,7.071205045166611,-0.0040957042947411,0.0164365023374557,0.1039020866155624,0.5781992178637285,0.1623214336381399,-0.3363341045802543,0.725408096435984,0.022531658411026,0.4326648116111755,-0.0168128926306962,0.071805715560913,-0.046143889427185,-0.0518395900726318,0.0391955450177192,-0.0027325404807925,-0.0246066179901361,-0.0693632960319519,0.0656760758075863,0.0742541537344455,166
1734086992908862200,0.1568266384810209,-0.1347358027040958,-0.4099707939445972,6.117926999977231,-2.9729379521787167,7.064204811015725,-0.0353962257504463,-0.0706520229578018,0.0962863638997078,0.5765836261545562,0.1618296027685781,-0.3371008119234763,0.7264472356453636,0.0022546164691448,-0.5560879111289978,-0.052682876586914,0.3413822650909424,-0.016940414905548,-0.3751921653747558,0.024106465280056,-0.0006509805098176,-0.0380190572708845,-0.0581390038132667,0.0750429660245776,0.0166354929804801,167
1734086992948862200,0.3598895429581403,-0.1849251902401447,-0.0549321981489658,6.095925596049428,-3.016272066992521,7.064855383878946,-0.1017739623785018,0.1438975930213928,0.0698803067207336,0.5758736684680071,0.1597336415983218,-0.3380499943279254,0.7270329164087815,0.2672402262687683,-0.533268392086029,0.2005504518747329,0.0677772313356399,0.1153778433799743,-0.0962595343589782,0.006953191012144,0.0027719447389245,-0.0712713385313749,-0.0699377730488777,0.040208530139178,-0.0377238737165927,168
1734086992988862200,0.2613274619191885,0.0638701223641634,0.0820078366011381,6.068192954993248,-3.0440523465827107,7.076804180347919,-0.041107140481472,0.0315258577466011,0.0091451425105333,0.5761718232911309,0.1574907526618923,-0.3382012192017956,0.7272156259330702,0.3232598006725311,0.14747254550457,0.4737569391727447,-0.0067068487405776,-0.0767019987106323,0.1364305019378662,0.0183504782617092,-0.0057007828727364,-0.0287637376695871,-0.0643676966428756,0.0286173149362206,0.0290682735741138,169
1734086993028862200,-0.1284545304775238,0.1875873951867222,0.2261900975644588,6.0635313929229975,-3.056289896865189,7.075525830975175,-0.0496694818139076,0.0878452360630035,0.0061724339611828,0.5765967791982882,0.1566701691888191,-0.3386783522702557,0.7268339734867628,-1.0294350385665894,-0.3345237970352173,0.3270474076271057,0.040532112121582,-0.354377806186676,-0.1899315416812896,0.0567200444638729,-0.0109741128981113,-0.07217559389472,-0.0432678833603858,-0.0373740373656153,0.0421586412936449,170
1734086993068862200,-0.0197124162077903,0.3503141976222396,0.1451613351285457,6.025118367898464,-3.062645403371751,7.105528755050897,0.0567802749574184,0.0113907605409622,0.072225846350193,0.5764135368481662,0.154984200239569,-0.3371924722065474,0.7280306316220188,0.2236202955245971,-0.1491947025060653,-0.0001853131689131,-0.0874442905187606,0.3563556671142578,-0.0849994421005249,0.0457383096218109,0.0212867632508277,-0.1076607487738132,-0.0348984785377979,-0.1229571021050214,-0.0841875187277793,171
1734086993108862200,0.3786065183877944,0.1919832920581102,-0.1522632760882377,6.014809739851951,-3.071908614018559,7.110262213313579,0.0040324735455214,0.0659009218215942,0.0730934739112854,0.5754602605854927,0.1546815217579421,-0.3369734899842788,0.7289499617926462,0.4123271107673645,0.4334569573402405,-0.1547430008649826,-0.1592470109462738,0.0511654615402221,0.2078223228454589,0.0282149519771337,0.0035896524786949,0.0022924948513507,-0.047268234193325,-0.0558631223235279,-0.0945581060945987,172
1734086993148862200,0.2820160296827554,0.1138803539410233,-0.0189525377511978,5.992887246379256,-3.084186788572371,7.12344610453546,-0.0101886661723256,0.0196197554469108,0.0271404776722192,0.5752187120302406,0.1534744263790619,-0.3365277293780231,0.7296014564379669,0.298462837934494,0.6335927844047546,-0.101356603205204,-0.0574827343225479,-0.0504336357116699,0.0497469902038574,0.032324694097042,-0.0357728227972984,0.0028688334345817,-0.0275126975029706,-0.013916589410603,0.0109556937783956,173
1734086993188862200,0.1175152033120393,0.0092608725592494,-0.1174947450459003,5.992188158199191,-3.0932918860480187,7.120085688191652,0.0235650930553674,-0.049184001982212,0.0606592483818531,0.5743715959139871,0.1535147710444497,-0.3367638341412833,0.7301511841595582,0.6934002637863159,0.7072834372520447,-0.1588625162839889,0.0032969117164611,0.0503381490707397,0.0072704255580902,0.0275892317295074,-0.0279113166034221,-0.0185644152164459,0.0174083542078733,0.0200317843552678,0.0519803626060485,174
1734086993228862200,0.352484235137701,-0.0843649211212992,-0.9682499888718128,6.016391456085443,-3.0984266185879705,7.097406238871812,-0.037579346448183,-0.1339585036039352,0.0107698356732726,0.5730733554633638,0.1549108816636578,-0.3378396342724703,0.73037936478153,0.0682927593588829,-0.2401892691850662,-0.3094603419303894,0.2625680565834045,-0.1691028475761413,-0.2548502683639526,0.0195273458957672,-0.0393233075737953,0.0608498977601528,0.0372479520738124,0.1020553299821913,0.0645680415004491,175
1734086993268862200,0.4017179293841123,0.1943105659618973,-0.815153184568882,6.009804478910565,-3.1258608612194654,7.090954286253452,-0.1288985311985016,0.094382144510746,-0.0013416374567896,0.5736529458953685,0.1534056324920046,-0.3390113140368152,0.7296987811830568,0.8117128014564514,-0.071991741657257,0.0460413694381713,0.0869652330875396,-0.0472207069396972,-0.0194095373153686,0.0233711972832679,-0.053230658173561,0.0904343041628599,0.0543835088610649,0.0960007061183452,0.1342769530206918,176
1734086993308862200,1.4409306292295454,0.6383484646812081,-1.5828098739475012,6.052171794518828,-3.146872961848974,7.045480236801505,-0.3050095736980438,-0.3369556069374084,-0.3791756331920624,0.5758333205905429,0.1533416732821643,-0.3424424369860182,0.7263852030080902,1.8275649547576904,0.2704321146011352,0.48816978931427,-0.0878455936908721,0.0358934998512268,0.1770466864109039,0.0416993126273155,-0.0534458123147487,0.1985720227986574,0.115203320980072,0.0963923357844352,0.2182312475144863,177
1734086993348862200,1.7257710686832666,0.6307809520363807,-1.160378826880455,6.32069179829061,-3.087979751114548,6.832541250476241,-0.4417538940906524,-0.80680251121521,-0.9623910784721376,0.5822476650684972,0.1630506873644997,-0.3536266479684557,0.7136878413003568,2.8906242847442627,0.5062462687492371,0.7628979682922363,-0.0068791136145591,-0.0924028158187866,0.017491728067398,0.0626071989536285,-0.0877658575773239,0.280125685891509,0.1551986932754516,0.0892222980245947,0.2664858675956726,178
1734086993388862200,0.5532645816355943,0.3633171793192625,-0.4392448192238807,6.608690409514308,-2.960726705381274,6.61284402206242,-0.5689477920532227,-0.3107827305793762,-0.936161994934082,0.5936489800980507,0.1731822081370091,-0.3644814362265825,0.696234334756159,3.810188055038452,0.2273083180189132,1.2466846704483032,-0.0326432213187217,0.1227675676345825,-0.0034410953521728,0.0602747648954391,-0.1020059287548065,0.3110983317822218,0.1812233924865722,0.0876432852048426,0.3275374254077672,179
1734086993428862200,-0.0604816489696502,0.5375970569044352,0.1575222195297479,6.701697779035568,-2.932247629871964,6.531428306135535,-0.6546997427940369,0.126528725028038,-0.566361129283905,0.605699604178939,0.1713467723398522,-0.3709853127012399,0.682743191021036,1.455625057220459,-0.2338937669992447,0.6258617043495178,-0.0476167723536491,-0.147232711315155,0.0741863250732421,0.055871732532978,-0.1267272531986236,0.3078027973681688,0.1753597557544708,0.0289995191868394,0.4482575622409582,180
1734086993468862200,0.6458230383455753,0.7779004354953766,0.7864104896873235,6.758694508498906,-2.9228058477878567,6.47669952160418,-0.4597750902175903,-0.1615595817565918,-0.7237440943717957,0.6160260084233121,0.1680876867386064,-0.3762004024421258,0.671365627336687,0.2453612834215164,-0.2897075712680816,0.2496742755174636,-0.0545504316687583,-0.1014339923858642,0.0262342691421508,0.067752219736576,-0.1695110499858856,0.3280418677985668,0.1551490277051925,0.0239133750289678,0.5955506487011909,181
1734086993508862200,-0.0065197571575641,0.809101044923067,0.9898246918201444,6.994744905820489,-2.784018431605398,6.284358502149582,-0.2254509627819061,-0.9546442031860352,-0.8307982087135315,0.6238240638350453,0.1775352263006964,-0.3847962116419506,0.6567013119586393,-0.0448697544634342,-0.4228024482727051,0.4554157555103302,-0.0064136087894439,-0.0405389070510864,-0.0027955770492553,0.1109537184238433,-0.2137503027915954,0.2179237890005111,0.2181471586227417,-0.0166170074757188,0.9304892902761696,182
1734086993548862200,0.1713116754293441,1.1870435464441775,1.075688619327545,7.3491750143289565,-2.592439628694952,5.953088904476165,0.0731180384755134,-1.1093858480453491,-0.7435410022735596,0.6252003674605687,0.1967128570035451,-0.3972165369773197,0.6423765586225931,-0.3626351952552795,-0.4828869700431824,0.7280713319778442,0.0683874487876892,-0.2271556258201599,0.0411155223846435,0.2207461148500442,-0.2445036023855209,0.5155331091344356,0.2766318917274475,-0.0171120244510471,1.0449000978320837,183
1734086993588862200,1.530114056548476,1.5669376204244791,1.3130278874158858,7.456671512451767,-2.210977720876038,5.973275367936492,0.8352891206741333,1.5034054517745972,-1.2113282680511477,0.6346449655311609,0.2106028608270216,-0.38870829083177,0.6338597484477384,-1.586639404296875,-0.4972395896911621,1.013971209526062,0.0914134755730629,-0.3521899580955505,0.1258802413940429,0.3296917676925659,-0.2386553585529327,0.4446516467034817,0.2821074426174164,-0.0977078022971749,1.0242232205063104,184
1734086993628862200,-0.3122761433899402,2.384910684719681,-4.237262306702137,6.81821987965703,-1.6454015008084475,6.853825446045399,-0.4754941463470459,1.3707510232925415,-0.855308473110199,0.6675376492178122,0.194142726325999,-0.3359475599003139,0.6354852232048204,-2.832238912582397,-0.4148810803890228,1.457911729812622,0.1318380385637283,-0.4194573760032654,0.1758418083190918,0.3819634914398193,-0.2351828515529632,0.6645721624791622,0.2380958199501037,-0.1342314333785325,0.828597772553563,185
1734086993668862200,-0.2757031932741403,2.4427288135685026,-0.0236158533871173,6.685429950323701,-1.8283169586613768,6.937770972710847,-0.5763165354728699,-0.2983952164649963,-0.1049090549349784,0.6800008517631394,0.1755144626256938,-0.3398040377221065,0.625561144169606,-1.5170947313308716,-0.0512531176209449,3.033181667327881,0.1313398778438568,-0.5248766541481018,0.1228407025337219,0.3446156978607178,-0.2532444298267364,0.5886930378913879,0.302190214395523,-0.0643090252380818,0.8707634281098842,186
1734086993708862200,0.5792758057266474,2.658152456316352,0.7143985619217157,6.87237817082405,-1.7338409778922794,6.77750734551847,0.4139343500137329,-0.9286450743675232,-0.7821134924888611,0.6819070081228041,0.1843456957447907,-0.3470734123383673,0.6168951590183542,-2.443629264831543,0.1814199090003967,3.832452297210693,0.1486473828554153,-0.5715169310569763,0.2628642320632934,0.2694668173789978,-0.3116460144519806,0.4190618628948926,0.4159503877162933,0.0194474085960537,1.043416873537004,187
1734086993748862200,-0.4881026658952236,2.4221591960094866,-1.280673431777954,7.263243866804242,-1.2928442004345355,6.46097763633728,0.5199093222618103,-1.4346429109573364,-1.1805124282836914,0.6831304678195094,0.2146216127420895,-0.3528730315202113,0.6022882298851414,-3.14660906791687,0.3077012598514557,4.600480556488037,0.0633884370326995,-0.5124965310096741,0.3081108927726745,0.2410839647054672,-0.3498646020889282,0.0882844326525926,0.5008003115653992,0.0802560975629836,1.2058093294516206,188
1734086993788862200,-1.7858926521688698,2.048884247907996,-2.1640730540990827,7.718724366036057,-0.8879956448744982,5.983572890067101,-0.0237909983843565,-1.6618120670318604,-0.9977553486824036,0.6836167479105718,0.2456428576020091,-0.3668545750614375,0.5811587623377277,-3.0740294456481934,0.408490926027298,5.028487205505371,0.1885800957679748,-0.0963031649589538,0.234377920627594,0.2407359480857849,-0.3346976935863495,-0.1594002883613109,0.5554863214492798,-0.0018147212717682,1.2765712571561336,189
1734086993828862200,-1.7056196765363216,2.014782656341791,-1.2011001288473606,8.080629924991726,-0.6586171265322714,5.517247756215929,-0.3222542703151703,-1.2007445096969604,-0.7740790843963623,0.6839981418265946,0.2658306782648277,-0.3847501975084727,0.5598640913167214,-2.9434828758239746,0.1764884740114212,5.080907821655273,0.2622087001800537,0.0699350237846374,0.1900535374879837,0.1709731221199035,-0.2449935376644134,-0.0374625924319028,0.6198407411575317,-0.1321168523773551,1.0933736213609575,190
1734086993868862200,-2.772397844177484,0.6646210431221872,-2.7883886095136403,8.257063765740394,-0.532191873392649,5.263842903989553,-0.8221622109413147,-0.4327861666679382,-0.6112629771232605,0.6888070687712189,0.272717398183609,-0.3965399372038575,0.5421494441647874,-3.683774471282959,0.3102211952209472,4.955685138702393,0.2866781949996948,0.0088549256324768,0.1114061474800109,0.0885304063558578,-0.2034827321767807,0.4109896155983209,0.6456963419914246,-0.144873786891438,1.063889168201387,191
1734086993908862200,-1.7002017431408163,0.0040106969460844,-2.517417120936513,8.370298515254259,-0.6487989854164421,5.068289352229237,-1.1352251768112185,-0.3943733870983124,-0.0232498794794082,0.6930421709487808,0.266520379643257,-0.4129843135723877,0.5273551520624824,-3.623300075531006,0.2143547981977462,5.205950736999512,0.4562748670578003,0.3456102907657623,0.0718780755996704,0.0492482185363769,-0.1959089040756225,0.7474509366959333,0.6796880960464478,-0.2877153738355263,0.9875891878530384,192
1734086993948862000,-2.8317922824323176,-0.4318902917426079,-3.202393481279909,8.472980306571722,-0.9961015070673078,4.835986617003381,-1.5104963779449463,-0.7383568286895752,0.4082706272602081,0.6929544813990038,0.2515140515275034,-0.4360894148489462,0.5161208287961897,-3.414946317672729,-0.007750968914479,5.199958324432373,0.5926046967506409,0.3946915864944458,0.1618438959121704,-0.0311556905508041,-0.1436060518026352,1.2957581881850957,0.6964138746261597,-0.3457431999122723,0.7826718876808881,193
1734086993988862200,-2.938388616845012,-3.023499095636606,-5.080720379257202,8.677738324528931,-1.475804520342499,4.323104606899619,-1.5369274616241455,-1.9705214500427248,0.9089614748954772,0.6826057808583014,0.2385082088450168,-0.471907669101636,0.5044465034514253,-2.9514496326446533,-0.2538721859455108,4.547253131866455,0.7509234547615051,0.7987528443336487,0.088874451816082,-0.1230523213744163,-0.0545437708497047,1.112899282824993,0.6947144865989685,-0.6184010706737637,0.4479658858180045,194
1734086994028862200,-3.392425347009301,-5.0087037753164765,-5.780910967606306,8.969569645783304,-2.1601343994759024,3.324311303465068,-1.8758964538574217,-2.875077962875366,1.557009220123291,0.6535127502154237,0.2288134810572113,-0.5274008820342799,0.4923555125672278,-2.6011064052581787,-0.2705110609531402,2.8891818523406982,0.6247759461402893,0.9473152160644532,0.0806906223297119,-0.2673728764057159,0.0760842338204383,1.312119540399313,0.5888212323188782,-0.5770098335560411,-0.0790545397534966,195
1734086994068862200,-3.326624548843503,-7.933640205392241,-5.776213165178895,9.06133607533276,-3.1389439224153755,2.051733499859273,-2.7667925357818604,-2.604083299636841,2.5067195892333984,0.6116470088168051,0.2049548907991626,-0.5944612652015945,0.4801013354365308,-1.9460428953170776,0.1974560320377349,0.8430410027503967,0.2969614863395691,1.1086136102676392,-0.1041492223739624,-0.3860175907611847,0.1096270680427551,1.3543962551146744,0.4806576371192932,-0.1423268058223649,-0.1793579115018248,196
1734086994108862200,-2.7161604086488484,-9.15911898869276,-4.337242437845468,8.756431337493657,-4.336397511453926,0.8312336740151047,-3.640015363693237,-1.4775158166885376,3.1502525806427,0.570878154921451,0.1502723051165668,-0.6595734327963554,0.4652733261057852,0.1563547104597091,0.6453236937522888,-0.3429164886474609,0.0800324082374572,1.1253219842910769,-0.3699095249176025,-0.4074295461177826,-0.059307113289833,0.385381127089262,0.5020897388458252,0.4122979947831481,0.1169359421193599,197
1734086994148862200,-2.169663421452045,-9.107175450965762,-3.113911772489548,8.080348185440897,-5.55012652798891,-0.2728354010191746,-3.670494079589844,-0.8666776418685913,3.860898971557617,0.5322033200391224,0.0719010330615944,-0.7132608047564989,0.4503874042311616,1.5172468423843384,0.417010486125946,-0.997345507144928,-0.0769059658050537,0.9988982677459716,-0.3527708053588867,-0.3560270071029663,-0.1917224675416946,-0.5113759894549846,0.4485189318656921,0.6252315012156963,0.1018880105912685,198
1734086994188862200,0.4494727832496166,-9.83872739226222,-3.0432676259458065,7.054853045302629,-6.6649535640060895,-1.4063570362374185,-3.657750606536865,-0.8440761566162109,4.165422439575195,0.4863014251293252,-0.0180292564918107,-0.7558962866553434,0.4379574587445445,2.425581455230713,0.0655094534158706,-1.594980239868164,-0.1055184006690979,0.8758962154388428,-0.2037132978439331,-0.2833555340766907,-0.1477390378713607,-0.6394055725187063,0.2804469466209411,0.5915191646954044,-0.0068225394964218,199
1734086994228862200,3.0439234595060345,-10.494454569506644,-2.44793266582191,5.8222530318200585,-7.41701637841165,-2.694363002860546,-3.5891823768615723,-1.2549090385437012,3.925352334976196,0.4309546150562511,-0.1051086066124249,-0.7914078953610676,0.4205992307188921,2.755274534225464,-0.3098447918891907,-2.028905153274536,0.1134940981864929,0.6172264218330383,-0.1667287349700927,-0.2176817059516906,-0.0155988633632659,-0.5677782601565122,0.0755366832017898,0.6137583594344556,-0.1241093408800661,200
1734086994268862200,4.198985767538845,-9.853668940806388,-0.8995043694257736,4.465331057620048,-7.71722740547657,-4.083578057900071,-3.5842607021331787,-1.6249096393585205,3.744633197784424,0.3656860064285327,-0.1829016390154548,-0.8214326041805343,0.3975792046695586,2.946919202804565,-0.6710219383239746,-2.357340335845948,0.3591628074645996,0.4567376375198364,-0.0266152620315551,-0.1864272803068161,0.1526372134685516,-0.8268646651506424,-0.0454850867390632,0.5862110848825425,0.0733745944209396,201
1734086994308862200,5.340954200720787,-7.49943045772612,2.1655583242207763,3.017652707695961,-7.624740260437131,-5.378427314546704,-3.227913618087769,-1.3040237426757812,3.770190715789795,0.2960642997468526,-0.2565156171564779,-0.8416788011245069,0.3716482590971188,2.8505029678344727,-0.9550695419311525,-2.670550346374512,0.3803176879882812,0.2236307263374328,0.1429964303970337,-0.1698251217603683,0.1572326868772506,-0.4563385773658752,-0.0305991061031818,0.7670940139945596,0.360376011300832,202
1734086994348862200,7.231283378919959,-4.859100073826313,4.217688422182202,1.7492174107223748,-7.285337625190615,-6.3272781909435984,-2.592569828033448,-0.3090615570545196,3.3431012630462646,0.2393521661820656,-0.3269383500995942,-0.8459980707934367,0.3465674976283096,2.4101996421813965,-1.0519198179244995,-2.6994376182556152,0.3407597541809082,0.0294436514377594,0.2590833306312561,-0.1535306423902511,0.0795573592185974,-0.7731570403605699,0.0929354727268219,0.7227511605296284,0.6111990303404629,203
1734086994388862200,7.732142650535702,-2.9104882180064915,4.983360659745335,0.961203577491641,-6.836306155967712,-6.965010277292132,-1.989856481552124,0.4849005341529846,2.502037525177002,0.2059139634783146,-0.3870941584734018,-0.8398064140961494,0.3201291460709528,2.175235748291016,-1.0456815958023071,-2.53472900390625,0.2585590481758117,-0.0893554389476776,0.3286646008491516,-0.154278427362442,0.0750293359160423,-1.0208733255565166,0.2152289748191833,0.6431468779388815,0.608245587362349,204
1734086994428862200,6.899305925238132,-2.213503147700429,4.967347098055481,0.5780852807678282,-6.373300521928072,-7.430830968752503,-1.7803616523742676,0.7163389921188354,1.826084852218628,0.1882201127571624,-0.433679946147872,-0.8311369522230692,0.2927563173196986,1.8833664655685425,-0.9845932722091676,-2.313774585723877,0.1435324549674987,-0.2221464216709137,0.4018923640251159,-0.2052599936723709,0.0811741277575492,-0.8621808932036161,0.299728661775589,0.6227382961604744,0.492744792612642,205
1734086994468862200,6.25662936822474,-2.320243859019876,5.845250461047887,0.4058356303686276,-5.853561193275452,-7.857578125452995,-1.8190900087356567,0.7754196524620056,1.5033634901046753,0.1751923895161627,-0.4715781237445812,-0.8235527126145462,0.2620738792825861,1.550539493560791,-0.8653898239135742,-1.982264399528504,0.0475778579711914,-0.3251712322235107,0.4571208655834198,-0.2806802988052368,0.112607941031456,-0.5287544097572565,0.3925792276859283,0.5566621881846339,0.3521444817893207,206
1734086994508862200,6.61579059690833,-2.99760536044538,6.90193861182928,0.3544783315643668,-5.335712208414077,-8.220394369512796,-1.4660093784332275,0.7382370233535767,1.1645587682724,0.1649206399076106,-0.5029722533417835,-0.8161754620216121,0.2316843811165074,1.23903489112854,-0.5562196969985962,-1.2131634950637815,0.0168438553810119,-0.4607176780700683,0.4942820370197296,-0.3165892660617828,0.1127853542566299,0.850302823883295,0.3788782656192779,0.7608857339389622,0.13607085070014,207
1734086994548862200,7.245090954998135,-4.081403051948547,7.375353996202349,0.4094711007941514,-5.006386730545759,-8.42251677826941,-0.5243608951568604,0.6964640021324158,0.6600787043571472,0.1621695395164145,-0.5243190519169336,-0.8090231007553714,0.2104094579598725,0.7810598015785217,-0.1551173031330108,-0.1312252879142761,0.1126348972320556,-0.5033317804336548,0.5020757913589478,-0.2320064902305603,-0.0108779966831207,1.6961814015835524,0.3479226231575012,1.0398990016091614,0.1942782711274921,208
1734086994588862200,7.574353889024257,-4.082361083325743,7.203039281210303,0.5539604549452662,-5.066331203898788,-8.378290683051944,0.8509768843650818,0.5838644504547119,0.0710160657763481,0.1727870446952268,-0.5324748395385578,-0.8022745746882055,0.2072934193546771,-0.114136703312397,0.2920103371143341,0.5323333740234375,0.1666245460510254,-0.4533751606941223,0.5472959280014038,-0.0495348870754241,-0.0481402873992919,1.8635089758127927,0.2735450267791748,0.7944221659030765,-0.099305885143578,209
1734086994628862200,7.565615871295332,-4.13227516105175,5.758936451685428,0.7729395982176065,-5.545536862111091,-8.051085850599408,2.063326835632324,0.447221428155899,-0.5540059804916382,0.1975865894204145,-0.5252334568538604,-0.7966310000001804,0.2246518142840957,-0.9404788613319396,0.7928138375282288,0.8753400444984436,0.2171466946601867,-0.4850914478302002,0.4561882019042969,0.068291500210762,-0.2262012064456939,1.763485005527735,0.2541108727455139,0.4855358841471374,0.2216869409263133,210
1734086994668862200,7.731702505552768,-4.41446888538897,3.73002940840125,1.105595316487178,-6.299135215520859,-7.434308873996138,2.985121250152588,0.2460871785879135,-1.2895067930221558,0.2340635234453213,-0.5016139207112266,-0.7921033704684457,0.2572353498192359,-1.5032265186309814,0.8798269033432007,1.071088194847107,0.3388146162033081,-0.4813952147960663,0.4451364278793335,0.1334977895021438,-0.2709442675113678,-0.1421247439116239,0.496574342250824,0.0296399633816909,0.5339011249959469,211
1734086994708862200,7.228887423694133,-2.5793127283573147,2.340859361547232,1.5629202014766632,-7.098499294805526,-6.583235065740347,3.286407709121704,-0.4970859289169311,-2.320178747177124,0.273491371975652,-0.4571776051701834,-0.7916060894795431,0.2992506172099135,-1.6558611392974854,1.0318783521652222,1.2718251943588257,0.0972638726234436,-0.4542188048362732,0.3341664671897888,0.2169398367404937,-0.0388039499521255,-0.8422159635394811,0.5262065529823303,-0.7340597593989223,-0.0691826956890523,212
1734086994748862200,7.087807804921269,-4.08678825211823,0.934562238803506,2.2290783179730176,-7.6552733458667985,-5.709498174777627,3.117478370666504,-1.34598970413208,-3.8183631896972656,0.3046416791879591,-0.3838335883499517,-0.8023560127742972,0.3407198338896696,-1.5030920505523682,1.1107702255249023,1.6501445770263672,0.1540448665618896,-0.3772784471511841,0.1633116602897644,0.2611706256866455,0.2238141745328903,-0.2110603329718113,0.2559740841388702,-0.6967394249819219,-0.5022875508531928,213
1734086994788862200,5.705812764263153,-8.678520999339222,-0.3716705816447734,3.3798838453441857,-7.807502719685435,-4.87746604386121,3.041656494140625,-0.81717449426651,-5.0022807121276855,0.338767337658792,-0.2832002107151796,-0.8176057689861719,0.369533685705654,-2.015514373779297,1.0248042345046997,1.7979061603546145,0.255659818649292,-0.3700887262821197,0.170974314212799,0.2395647168159485,0.1556819677352905,0.014147767817974,0.0054869055747985,-0.2870211079610511,-0.3887378901712596,214
1734086994828862200,1.922298726172745,-10.506803178948164,-1.329899527239799,4.901325350615382,-7.493852365332842,-3.998695542645454,3.11470890045166,-0.022091956809163,-5.17451286315918,0.3855222167849024,-0.17332837443785,-0.8208739287181294,0.3840518998698217,-2.946347236633301,0.6467881798744202,1.9095767736434937,0.3372928500175476,-0.2769736349582672,0.1729893684387207,0.1943236142396927,-0.0004606395959854,-0.4022907608360052,-0.0984648093581199,-0.1132643866003025,-0.1986198805283754,215
1734086994868862200,-1.0622796871781348,-8.220392615947127,-1.7002467513263224,6.34568420072794,-6.851555747547745,-2.9931361060768364,3.281845092773437,0.6529436111450195,-4.553064346313477,0.4365161779795452,-0.0701080466712465,-0.8047933463523923,0.3960381064125478,-3.1628401279449463,0.2338791340589523,2.069190740585327,0.2225163578987121,-0.0521419644355773,0.043206088244915,0.1665375828742981,-0.1737151890993118,-0.5759767641812562,-0.1779761761426925,-0.009401970663527,-0.0048196752414107,216
1734086994908862200,-3.0893793887794017,-6.3594397543579335,-3.024910423739254,7.521496743583679,-5.982520750665664,-1.951138305557519,2.717881202697754,1.1226710081100464,-3.9203615188598633,0.4864433293458128,0.0171624021995259,-0.7740709394352553,0.4048365468359262,-2.824791431427002,-0.0534630641341209,2.2554099559783936,0.101326048374176,0.139507845044136,-0.0100665092468261,0.1766192466020584,-0.2790591120719909,-1.238600715202093,-0.1264390647411346,-0.1696391573735512,0.4373100517690181,217
1734086994948862000,-4.855761284792423,-5.030259189042448,-3.583803074389696,8.38107417629063,-4.976307234102487,-1.0790542963683605,2.04446792602539,0.9541016221046448,-3.3214306831359863,0.529916558691744,0.0869458837219021,-0.7399032848202582,0.4051814893365766,-2.9563348293304443,-0.4390583336353302,2.251576662063598,0.1510440707206726,0.2792486846446991,-0.0367336273193359,0.2295642346143722,-0.2996101677417755,-1.3609592668920754,-0.014860913157463,-0.1305940906563308,0.5499248427536338,218
1734086994988862200,-6.191090435865521,-4.724891802127659,-3.840170868074894,8.945919890126586,-3.9763855111598967,-0.5738395329568535,1.2831119298934937,0.2080049514770507,-2.7609009742736816,0.5592202469803057,0.1443145016176031,-0.713043476103245,0.3975112837194869,-3.4461073875427246,-0.6483661532402039,2.2167348861694336,0.0779474973678588,0.4023313522338867,0.1193528175354003,0.264566570520401,-0.29887256026268,-1.3148808218061925,0.0768353939056396,-0.180247298089601,0.4984801213942468,219
1734086995028862200,-7.0325646411269895,-4.859660630318523,-2.9149790996849534,9.29164354508817,-3.1019574230626223,-0.4621912854494526,0.7884166836738586,-0.2980746924877167,-2.1652402877807617,0.5739508758840083,0.1907315949048101,-0.6979875759993007,0.3834257172709965,-2.068739652633667,-0.597212016582489,2.181593656539917,0.0406872630119323,0.8256862163543701,6.53248280286789e-05,0.2514210343360901,-0.1341906040906906,-0.7548299410313367,0.2032969892024994,-0.336745033409819,0.4732854013178497,220
1734086995068862200,-7.689632127064466,-5.627651666218042,-2.439403906929493,9.490521272835135,-2.4063914257742463,-0.5564904118143021,0.7235298752784729,-0.6583236455917358,-1.629047393798828,0.5787509645837903,0.2287414331209824,-0.6899641094520109,0.3696947983643756,-1.0974258184432983,-0.3539101481437683,1.6839898824691772,0.033232569694519,0.8696154356002808,-0.0245959758758544,0.201674610376358,0.022501453757286,0.9414467376202345,0.3802060484886169,-0.4797000541331246,0.4969526195660233,221
1734086995108862200,-8.284751983132958,-6.442021591454744,-2.483382164865732,9.58540203501284,-1.892942429437488,-0.840966548000276,0.9645933508872986,-1.231573462486267,-1.2100377082824707,0.5721469211141679,0.2643382561415936,-0.6877518780236321,0.360236784359035,-0.6853908896446228,-0.121909387409687,0.7322241067886353,0.1498578190803527,0.9519219398498536,0.0488093495368957,0.1590516865253448,0.0793423652648925,1.1684475670456886,0.6196022033691406,-0.4197277063924819,0.5581503809157758,222
1734086995148862200,-10.558887586450576,-6.205792330434918,-2.001644796218723,9.582502221918103,-1.6341704972200095,-1.2944227017976342,1.2743947505950928,-1.4839344024658203,-0.1317676901817321,0.552388822924417,0.2980730982556581,-0.6907601754362853,0.358983858216701,-0.213067814707756,0.1435405015945434,-0.5369436740875244,0.1196646094322204,1.0042774677276611,0.0680437088012695,0.1613308489322662,0.1429092586040496,2.5671260314792392,0.6079183220863342,0.1335058407840318,-0.3854262814052402,223
1734086995188862200,-10.233054042351243,-6.723376526880264,-2.964506808441877,9.434138291355968,-2.020248228271305,-1.7567089355215428,0.9332322478294371,-1.2430177927017212,1.767324686050415,0.5190765121217275,0.3097856606164934,-0.7025667770413871,0.3754895116029018,0.8215444087982178,0.417777806520462,-1.324544072151184,0.1598552465438842,0.9072216153144836,-0.0055338125675916,0.0499049201607704,-0.1238938271999359,1.02431732853055,0.5074533224105835,0.3131530723549425,-0.4663996238594874,224
1734086995228862200,-7.922074855282903,-6.541926319274306,-3.189989634519815,9.114238228958843,-2.9838538984686136,-2.048823311500996,-0.3557779788970947,-0.4786015152931213,3.2301857471466064,0.4851445090097185,0.2835943370038172,-0.7239027335287052,0.4002173612121685,1.8365670442581177,0.3991717994213104,-1.988711953163147,0.1479820609092712,0.8190215826034546,-0.0502833127975463,-0.0644232854247093,-0.2290976792573928,0.4621043012857437,0.4969146847724914,0.6887031988468021,-0.4564794471412897,225
1734086995268862200,-5.235168598169088,-6.986880163794756,-2.3536367177948354,8.559366796648503,-4.21708548785299,-2.2635811838164925,-1.2259680032730105,-0.1232390403747558,4.091947078704834,0.4554518587866533,0.2229755412064191,-0.7521252763423001,0.4208955027106081,2.908465385437012,0.3545468747615814,-2.50513219833374,0.1709629893302917,0.6525806188583374,0.0243107117712497,-0.1840924173593521,-0.3612022399902344,-0.0876180776983499,0.4424869120121002,0.6788046129059047,-0.558678606040962,226
1734086995308862200,-3.0976041962891814,-7.716893643477559,-2.2510241923213004,7.698062686279416,-5.491168727585673,-2.5994781490296126,-1.5529780387878418,-0.3377962112426758,4.603279113769531,0.4208093729047396,0.1454318889268312,-0.7819118057245741,0.4363289850211475,4.016504764556885,0.0746006295084953,-2.77844786643982,0.4042795896530151,0.4458512663841247,0.149480938911438,-0.293081670999527,-0.161985158920288,0.0153624043047428,0.2806608974933624,0.4803491656916215,-0.8728668301299214,227
1734086995348862200,-0.3943026846915483,-8.20609930217862,-2.179780034057796,6.491136627757549,-6.66877575264275,-3.092401366949081,-1.352872371673584,-0.6323710083961487,4.802733898162842,0.3742569117741723,0.0630699332004325,-0.8085114557470849,0.4497367140595634,4.737514495849609,-0.3487255573272705,-2.828871250152588,0.5694493055343628,0.2163577675819397,0.2389489412307739,-0.3888157606124878,0.0380690097808837,-0.5929255608946085,0.0225614011287689,0.3355650663776323,-0.8839682890545576,228
1734086995388862200,1.654687361678481,-7.356234285190701,-1.9387600316300988,5.005981656876206,-7.609771239364147,-3.633446226219833,-1.2589821815490725,-0.8485326766967773,4.915469646453857,0.3186033817369337,-0.0182810696402555,-0.8275989359234064,0.4617767634912741,4.028992652893066,-0.6340731382369995,-2.893762588500977,0.4561520218849182,-0.0784202814102172,0.3116253018379211,-0.4368817806243896,0.2023657858371734,-1.0936679281324146,-0.2207263708114624,0.3172083025624975,-0.6472965449642389,229
1734086995428862200,4.247507806384563,-5.911746255740523,-1.2272229966193438,3.2807606232911346,-8.253399398013949,-4.157935672008991,-1.059903621673584,-0.9475351572036744,4.980319023132324,0.2554192669044535,-0.0990707780100868,-0.8379622285509247,0.4719803102351452,2.6822290420532227,-0.8295040130615234,-2.830502986907959,0.2941048145294189,-0.1916828155517578,0.3298815488815307,-0.4265184700489044,0.283217191696167,-1.3521230494856833,-0.3767938017845154,0.4034950951244682,-0.2053235611517913,230
1734086995468862200,7.107969718462228,-4.412116184782982,-0.6786223151415586,1.5433283429086206,-8.533031747430563,-4.57994147940129,-1.0550522804260254,-0.4499935507774353,4.492903709411621,0.1946917024040957,-0.1766771603351898,-0.8380317435362075,0.4781035483948267,1.96768319606781,-0.9969123005867004,-2.4986884593963623,0.1988616585731506,-0.274082213640213,0.4184329509735107,-0.3466346263885498,0.3044031858444214,-1.6187427725940942,-0.3526111245155334,0.6064914371713995,0.2541514693425968,231
1734086995508862200,8.106486835303903,-3.4515666872859,0.1989782655119895,0.0899130750340409,-8.463478903254867,-4.952965521481633,-1.0974267721176147,0.2226389497518539,3.98068118095398,0.1480810652304804,-0.2494145438750673,-0.8308569955859588,0.4749117508790581,1.6590862274169922,-1.091236233711243,-2.140508890151977,0.1220314502716064,-0.3340421915054321,0.5004575252532959,-0.2806040048599243,0.2111307233572006,-1.6463725377976894,-0.2052372694015503,0.7968444976791739,0.4074151911776512,232
1734086995548862200,9.158650786659122,-1.697390192851424,1.3655664684265851,-1.0228542702406644,-8.159387235364317,-5.343082444921135,-1.1708309650421145,0.9766977429389954,3.4385740756988525,0.1166456108337104,-0.3192290265614145,-0.8188493305739253,0.4625714472567304,1.3001091480255127,-1.073173999786377,-1.872730731964112,0.0376278162002563,-0.4277609586715698,0.5531836152076721,-0.206877201795578,0.288708746433258,-0.5093874459862708,-0.0188209116458892,0.7571626948278397,0.2346443116496317,233
1734086995588862200,10.41381977482438,-2.523607207748294,1.389353002205491,-1.7417220865309238,-7.71370098491609,-5.799622682338953,-1.2980196475982666,1.1535993814468384,2.708963394165039,0.0990398926104766,-0.382349832280336,-0.805920010696979,0.4410132602154391,0.6433355212211609,-0.6836397647857666,-1.1708343029022217,0.0323904752731323,-0.5817090272903442,0.6430497765541077,-0.1928361654281616,0.1740717142820358,1.7196294971883297,0.0637708157300949,1.0996859463129192,0.071068637299817,234
1734086995628862200,12.207615747463702,-3.604693302205205,1.7111194429963823,-2.243697502695024,-7.235655018132925,-6.227483353239298,-1.1294432878494265,0.2700973451137543,1.742403864860535,0.0811958120791118,-0.4270559411401279,-0.7969545164942647,0.4193972988913506,0.0385662838816642,-0.1096787229180336,0.0372005403041839,0.2525953650474548,-0.6425851583480835,0.6816399097442627,-0.1387389004230499,-0.0263782441616058,1.7977175299972294,0.196500077843666,1.174635754161328,0.1371020477782469,235
1734086995668862200,12.788229523795842,-1.7826608306407927,3.670908526390791,-2.545086049106717,-6.89257807828784,-6.495019022148847,-0.6827779412269592,0.076343297958374,0.541475772857666,0.0649368059406141,-0.4469820041926773,-0.7945822133954531,0.4057454171234682,-0.5473874807357788,0.685408353805542,0.6880497336387634,0.1624903082847595,-0.5362571477890015,0.569154679775238,-0.016293965280056,-0.130719780921936,2.770488795685768,0.2230079472064972,0.6690413437824696,-0.1172407154859043,236
