time_imu,phone_acc_x,phone_acc_y,phone_acc_z,phone_gravity_x,phone_gravity_y,phone_gravity_z,phone_gyro_x,phone_gyro_y,phone_gyro_z,phone_ori_w,phone_ori_x,phone_ori_y,phone_ori_z,watch_gyro_x,watch_gyro_y,watch_gyro_z,watch_acc_x,watch_acc_y,watch_acc_z,headphone_gyro_x,headphone_gyro_y,headphone_gyro_z,headphone_acc_x,headphone_acc_y,headphone_acc_z,frame_imu
1734064265700627700,1.189777209191769,14.15662449364662,-7.057403898829222,-0.0812616852757986,9.764591311949491,-0.9036163347892464,-3.0617117881774902,-0.298029363155365,-0.0427119880914688,-0.278147940906379,-0.3106657166463443,0.6704911812119116,0.61364651564327,-0.2273690551519394,0.0090019544586539,0.3453536033630371,-0.573600172996521,0.3786125183105469,-0.4647611379623413,0.2731722295284271,0.0969312489032745,0.6020177988886832,-0.5265699028968811,0.3394558998037129,-0.2299054648257792,0
1734064265740627700,0.9770622408807276,6.328627267464995,-3.7242332893431183,-0.1100619920961093,9.793178524008392,0.5019365819910541,-3.687053442001343,-0.3332719504833221,-0.0828192830085754,-0.294360583683484,-0.2867167430128792,0.6262602214618587,0.662528187819842,0.7956379055976868,1.2930201292037964,-0.5446791052818298,-1.1749919652938845,0.8400318622589111,-0.7470982074737549,0.1660052090883255,0.1309495568275451,0.7707306899964809,-0.3860071301460266,0.1654369381770491,0.48104105694592,1
1734064265780627700,0.6090999026367441,-3.819790927869082,-2.2997991830147804,-0.1075146822334732,9.658200729241967,1.6964603646554053,-2.3519957065582275,-0.447073370218277,-0.0911684408783912,-0.3047869177733797,-0.2624707284141059,0.5870380852329927,0.7025669226316439,2.1846940517425537,1.6052011251449585,-1.4131019115447998,-1.0877574682235718,0.8286263942718506,-0.6580119132995605,0.0263891220092773,0.0800714120268821,0.3646744391471147,0.0361320078372955,0.0988406787846237,0.9234244664564728,2
1734064265820627700,0.3279140036351978,-11.82197859978676,-5.435751960790157,-0.1796231565755791,9.485687276807427,2.4819059548333287,-2.1323373317718506,0.6225672960281372,-0.1934493631124496,-0.3135980161013488,-0.2526934674299252,0.5564207254268752,0.7267725180153409,2.602048397064209,1.0465686321258545,-1.9949272871017456,-0.4359130263328552,0.6893197298049927,0.0799325108528137,0.012136111035943,0.0137463733553886,-0.3488298042833805,0.3668665289878845,0.0220182089321315,0.4509618527635932,3
1734064265860627700,0.9761534554727376,-14.905758268862964,-4.75550467479527,-0.332262846494466,9.216386936312912,3.334396351888776,-2.219134569168091,0.6167556047439575,-0.19939786195755,-0.3304929557412447,-0.2507233443784372,0.5168470798673116,0.7488533268475801,1.8507570028305047,0.5582358837127686,-2.179074287414551,0.4358012676239013,0.2713164091110229,0.8043893575668335,0.0842019990086555,0.0071605900302529,-1.047249291306734,0.4079326391220093,-0.3676406685415655,0.0001249415539205,4
1734064265900628000,-0.0186576464578509,-15.414550671565532,-0.4971262225672602,-0.4371384945943951,8.986119214046001,3.9024288790673016,-0.7665033340454102,0.0191475115716457,-0.1032917127013206,-0.3396524295436964,-0.2469972751120453,0.4899222862967948,0.7639402281224449,2.164274215698242,0.1370457261800766,-1.502269983291626,1.2416512966156006,-0.2009004652500152,0.9274614453315736,0.1584901064634323,0.1035313829779625,-1.0601268930584191,0.3237839937210083,-0.5851387794759124,-0.3366888462431728,5
1734064265940627700,-0.0136063178850337,-13.62603410063386,0.3167866065517067,-0.4725661471325904,8.981282295408844,3.9094282364353536,0.6136978268623352,0.0141217466443777,-0.1895756721496582,-0.3369338386764273,-0.2469940054602324,0.4895595984042405,0.765376318352999,1.4014649391174316,0.1659996658563614,-0.8408656716346741,1.2359039783477783,-0.4740368723869324,0.8209161758422852,0.2098676264286041,0.1592671275138855,-0.4211702333509922,0.1943767368793487,-0.344008156280592,-0.5332002832502126,6
1734064265980627700,0.1171867750752717,-10.415824684906005,2.1915698405727744,-0.5928845712970942,9.1676974319458,3.4310628284394737,2.040693521499634,0.8308355808258057,-0.1522438824176788,-0.3305692234391394,-0.2626185724299957,0.5060592443035333,0.7521033611550093,-0.0771260261535644,0.4055163264274597,0.0108511112630367,1.1665202379226685,-0.5492172241210938,0.837376058101654,0.1340627074241638,0.040561519563198,0.0474783750116825,0.0813326239585876,-0.0440600910007953,-0.2279752274155616,7
1734064266020627700,-0.7239774143889546,-1.8255968860477207,1.913843324777484,-0.5982204889649525,9.495870817169546,2.3750698203153906,3.356703758239746,0.2163934707641601,0.7113969326019287,-0.325895395230886,-0.2892791294980081,0.5433440239220076,0.7175563365366818,-1.5695141553878784,0.479256808757782,0.8773337602615356,0.9929184913635254,-0.5608464479446411,0.9001164436340332,-0.0455946624279022,-0.1151547208428382,-0.0608311930596828,0.566379189491272,-0.3318048005286604,1.3638760311216116,8
1734064266060627700,-0.8102234000165015,6.100529290452599,-0.6596142478108405,-0.250557591302786,9.744297296461465,1.0753071457292884,3.1855697631835938,-0.1097560301423072,0.7654695510864258,-0.3170116531910841,-0.2993892615571238,0.5962723068431405,0.6740393787594795,-1.950771450996399,0.0688517615199089,1.6757075786590576,0.7281534075737,-0.2008136212825775,0.70501708984375,-0.0478250980377197,0.0420743152499198,0.51791211322546,0.958159565925598,0.0087721391942352,0.763077033438161,9
1734064266100627700,1.2028460957318543,9.400701885700226,-2.2662603398978707,-0.0552755773596931,9.80648341126144,-0.0158626214699295,2.270425081253052,0.1713647097349167,0.3479431867599487,-0.3072746003593793,-0.311358965359343,0.63550323628387,0.6362183048101252,-2.648877143859864,-1.451912760734558,1.7838947772979736,-0.0462192296981811,0.2051339745521545,-0.1253252625465393,0.038773588836193,-0.2920637130737304,0.5149439110696316,0.7745839953422546,0.3652857029132544,-0.2589822139672935,10
1734064266140628000,0.3086968601310625,7.749120673343539,-2.506115390199423,0.0484881502758478,9.781223297798633,-0.7040599040631205,1.3187772035598757,0.1600461453199386,0.1749572455883026,-0.301491540163331,-0.3207147071402657,0.658057096693961,0.61090569161854,-2.4295599460601807,-1.6800636053085327,1.416110873222351,-0.8542615175247192,0.4439465403556824,-0.2664504945278168,0.0570984259247779,-0.1249188333749771,-0.2349070725053548,0.499557763338089,-0.5394943418931216,-0.2725855727102607,11
1734064266180627700,0.6070911200975999,5.10082793226242,-3.247370979386568,0.1231405323805287,9.760130240887404,-0.946072643855214,-0.040710587054491,-0.091467760503292,0.2231013774871826,-0.3003120426782805,-0.3224439389690573,0.6665329611927038,0.6013121403479965,-1.4456638097763062,-1.4856464862823486,0.8949783444404602,-0.6835821866989136,0.5503666996955872,-0.4322268664836883,0.0516110397875309,-0.0099970027804374,0.1509089388698339,0.3050017952919006,-0.0899029737651348,-0.4553517582856118,12
1734064266220627700,0.49976563116014,2.54530466029346,-0.3306628639519214,0.1997900568189099,9.768673028305171,-0.8387551555611192,-0.3165504932403564,-0.0959383100271225,0.1465385854244232,-0.3025586732291816,-0.3161029497639125,0.6654649018366907,0.6047261487745863,-0.5095392465591431,-0.610085129737854,0.5005843043327332,-0.5955137014389038,0.4589189291000366,-0.451866865158081,0.0221806801855564,0.0001733945682644,-0.1496352656722068,0.0928903520107269,-0.1690323323205113,-0.438005559752509,13
1734064266260627700,0.6360060662735253,0.5295195489108562,0.5476654464542865,0.1994205293867736,9.774525845986604,-0.7676320663940162,-0.0712817534804344,0.1812677085399627,-0.1751410514116287,-0.304397304040217,-0.3157789234518487,0.662889143459046,0.6067980991392296,0.0427700206637382,-0.1927476227283477,0.2840662896633148,-0.3106289505958557,0.2247096300125122,-0.3804879188537597,0.0123270535841584,-0.0030839152168482,-0.1660176606744527,0.0678298249840736,-0.044595439986512,-0.0754355455387383,14
1734064266300627700,0.3902917685497551,-0.5910322944939136,0.7821299628239125,0.0966287748888135,9.775340669500828,-0.7770418459046632,0.177540972828865,0.1206916868686676,-0.3181138038635254,-0.3030383154159885,-0.3215687853382284,0.6604631883570253,0.6070830393384892,0.1827279180288314,-0.0002470442268531,0.0435829609632492,-0.1460158824920654,0.0986503362655639,0.0321099758148193,0.0152196222916245,-0.0228391997516155,-0.1346814421683549,0.0787000358104705,-0.0359632937848567,-0.0678285776663571,15
1734064266340627700,0.198213199423626,-0.7261965517431497,0.7898117494981736,-0.0056297209741722,9.76595500151813,-0.8924637301992624,0.3712483644485473,0.1459794342517852,-0.2343158274888992,-0.2994769701007033,-0.3284740083683247,0.6615193200852892,0.6039955444545625,0.0239233616739511,-0.0142828626558184,-0.1147100031375885,0.0213623642921447,-0.0804143548011779,0.0966362655162811,0.0213889516890048,-0.0135134598240256,-0.0237736742973327,0.0868156850337982,-0.0363290583573281,-0.0828575852982699,16
1734064266380628000,0.0076427013394655,0.2569856333225965,0.4749942510623484,-0.0668990873970556,9.74928034557104,-1.0570844566226003,0.4407832324504852,0.0562223829329013,-0.0605427138507366,-0.2961287222696222,-0.3345415412462612,0.6648144584699787,0.5986747107574613,-0.2003728598356247,-0.1960976272821426,-0.1476761549711227,0.0682480335235595,-0.0584183931350708,0.0412702560424804,0.0387370809912681,-0.017086673527956,-0.0321481194108724,0.0471982955932617,-0.024203517081961,-0.1561245546262711,17
1734064266420627700,-0.012716661869199,3.685610420960188,0.1284953008793294,-0.0495326863261405,9.732693952429294,-1.2010983022164552,0.291968435049057,-0.0418578013777732,0.0881083086133003,-0.2944201027387001,-0.3363979922889428,0.6693843141260729,0.5933616349203116,-0.1465106904506683,-0.2558942139148712,-0.0413735434412956,0.0545924305915832,0.002626359462738,-0.0320425331592559,0.1135727539658546,-0.0352358035743236,0.1889461163192987,-0.0491085052490234,0.2617426185913384,-0.3239054255809634,18
1734064266460627700,-1.2652834088139235,12.820182997417447,-0.576027617585659,-0.0064865507201728,9.727959325122832,-1.2398245579086244,-0.2728111445903778,-0.3139092922210693,0.1825512945652008,-0.2930084887366169,-0.3331708915761878,0.6724660695488909,0.5923956557907969,0.0323900803923606,-0.1411034911870956,0.0920274555683136,-0.0873940587043762,0.0974278450012207,-0.1568542122840881,0.0518677979707717,0.0237700417637825,-0.6459323439389467,-0.20631904900074,-0.7989063255798071,-0.1711144723568111,19
1734064266500627700,0.2563189313084818,15.82213310906887,-4.519505715399981,0.0939825894952751,9.770535899567603,-0.8355754295464605,-1.87423038482666,-0.9803749322891236,0.5620680451393127,-0.2950134334229641,-0.3149281213416021,0.6658999691775552,0.6085758776384932,0.4126801490783691,0.4958098530769348,0.149521917104721,-0.3957220315933227,0.3148231506347656,-0.3753798604011535,-0.0283686816692352,0.1207037642598152,1.2224170576423403,-0.4229922890663147,0.7711283840771764,-0.6139124540176242,20
1734064266540627700,0.5476012221116572,7.195282091212272,-6.390020186060666,0.3542645426832139,9.799359258469938,0.1320258861582726,-2.919751167297364,-0.834516704082489,0.6787384748458862,-0.3053085761242135,-0.2781072245266024,0.6449224177288996,0.6430537018220145,0.9495989680290222,1.618538498878479,-0.128244861960411,-1.29829740524292,0.7011198997497559,-0.9921830892562866,-0.2420971542596817,0.0918101519346237,0.4087286849290132,-0.4582683444023132,0.1407259830296039,0.5336934005293995,21
1734064266580627700,0.7273273093387485,-4.690221763023734,-6.905407749244571,0.5149638944117352,9.706374685302375,1.300581516688317,-3.103857040405273,0.6264265775680542,0.0754875093698501,-0.3243825097256681,-0.2519889236764667,0.6084327262978044,0.6790341463726791,1.9658210277557373,1.686892032623291,-1.1234431266784668,-1.166240096092224,0.9029108881950378,-0.6871902942657471,-0.3111468553543091,0.0826440751552581,0.0853401958942413,0.1087484955787658,0.2193748645916581,1.454443314014375,22
1734064266620627700,0.1008862862028181,-13.737864828568696,-3.9317987659364935,0.3715195192689076,9.489503620225191,2.445747722998261,-2.583659410476685,0.8874799013137817,-0.3638024032115936,-0.3480385890436566,-0.2480391104021738,0.5601590571975076,0.7096249622894172,3.1010844707489014,1.0326108932495115,-1.88703191280365,-0.384825050830841,0.7509255409240723,0.5148613452911377,-0.1874805092811584,-0.0036866590380668,-0.7513029359489679,0.4315095543861389,0.0434828025694936,0.4260945380106568,23
1734064266660628000,-0.0820683894156478,-17.37172869567871,0.2534942840754985,0.1586826598775573,9.23114436046183,3.3062346717655657,-0.9021015167236328,-0.0994697213172912,-0.2694241404533386,-0.3568102850517421,-0.2422825953148643,0.5222337457532374,0.7357020723096939,2.876497268676758,0.5861313343048096,-2.205233097076416,0.7557170391082764,0.1537993252277374,1.1550722122192385,0.0019426643848419,0.0755245760083198,-1.023526470413804,0.2704228162765503,-0.2408908230900764,-0.5750413830272854,24
1734064266700627700,-0.4744138938911258,-16.26531292965412,0.7216895957127213,0.0890970642097294,9.201519037526843,3.390351171083748,0.4062985777854919,0.0430684424936771,-0.2048526406288147,-0.3541941551148648,-0.2419644044764325,0.5182600006673209,0.7398690630338266,1.848314881324768,-0.0463596247136592,-1.1983599662780762,1.4290173053741455,-0.518335223197937,1.0071223974227903,0.0784748941659927,0.0395575985312461,-0.4958645320683717,-0.0163442492485046,-0.1571466642156243,-0.5411660744976252,25
1734064266740627700,-0.9557825753562152,-12.279205650424956,-0.178399003341794,0.0009449769598562,9.324611748710272,3.036776218099892,1.4568787813186646,0.1128152981400489,-0.1005560606718063,-0.3475814093726463,-0.2522979918583829,0.5305781937874942,0.7307665614135357,0.2808020114898681,0.2237088233232498,-0.3074737191200256,1.3046331405639648,-0.5791381597518921,0.8644824624061584,0.0472282320261001,-0.0603112578392028,-0.1435948164641857,-0.0741763636469841,-0.0412005368512123,-0.0366604092035442,26
1734064266780627700,-1.1730870634146031,-5.287551696357131,0.7900764648489653,0.0413778479131869,9.536211595386266,2.2867719436593354,2.614203691482544,0.0825379565358161,0.2735804319381714,-0.3400859824801423,-0.2657516246552487,0.5592701995307536,0.7077671579580591,-0.8997466564178467,0.7390674352645874,0.7277516722679138,1.132339358329773,-0.6100950241088867,0.9710875749588012,-0.0782332271337509,-0.1135093569755554,-0.4032902932673692,0.0361413732171058,-0.3171126967009157,0.9786626618146896,27
1734064266820450300,0.995414693846926,2.5649790825784207,-0.4037294153369963,0.0867645661415532,9.73732570388317,1.1607461258228868,3.016608476638794,0.1406188756227493,0.0719652026891708,-0.3270714002278846,-0.285068148247777,0.5996286936143126,0.6724624820796782,-1.988499641418457,0.5352897047996521,1.4308699369430542,0.8825169801712036,-0.3706356287002563,0.7812390327453613,0.0194573327898979,-0.1625278741121292,0.6845617881931364,0.3292225897312164,0.5110060966966673,1.2586226357504724,28
1734064266860450600,1.4377157588362692,9.109166332522037,-0.3912175781577825,0.0770655396270565,9.806225052586198,0.0491461027279263,2.688467264175415,-0.0061146565712988,-0.1232627257704734,-0.3120604864619321,-0.3055139348777502,0.6357322405986584,0.6364935962655267,-2.784709453582764,-0.1780994981527328,1.7088922262191772,0.2588876485824585,-0.0380620658397674,0.4790359139442444,0.0558085441589355,-0.165681779384613,0.3722761463224888,0.2542257308959961,0.2065630215525627,0.5498700072938576,29
1734064266900450600,0.2016727287603542,8.12152015378475,-2.25637724378705,0.0555544217005372,9.768104288506509,-0.8668590410824865,1.843287825584412,-0.2440811842679977,-0.0100398324429988,-0.2948188522015072,-0.3183608758961458,0.6654651484992017,0.6073584997963,-2.8659937381744385,-0.9580408930778505,1.308577537536621,-0.3169950246810913,0.3336691856384277,-0.055684745311737,0.0921597629785537,-0.1688356697559356,0.0625274755835533,0.1792288571596145,-0.098459205186367,-0.1587565836302936,30
1734064266940450300,-0.294591579747945,6.032565176773071,-2.497109076923132,0.0324262330993544,9.717841251212358,-1.3164056932859125,0.5836354494094849,0.0072160027921199,-0.0621512308716774,-0.2850205831820147,-0.3239665574720088,0.679826215121928,0.5929969684732272,-2.4292919635772705,-1.3090556859970093,0.9589958786964417,-0.7239691615104675,0.5285959839820862,-0.4320921599864959,0.0233454331755638,0.0901437401771545,0.1009089364260435,0.0351274013519287,-0.3120397773507982,-0.3283561944447458,31
1734064266980450300,0.1781478415923193,3.453056633582711,-0.8243183416686951,0.0428669767926679,9.694102648228409,-1.4808483597286044,0.2455574870109558,0.086555615067482,0.0791777744889259,-0.2837849034205366,-0.3274038445752291,0.6843310426510079,0.586484289824608,-1.6961519718170166,-1.3040674924850464,0.3454615175724029,-0.5338709950447083,0.5830207467079163,-0.5675711631774902,-0.0211197584867477,-0.0192037150263786,0.1626584133744239,-0.146570935845375,0.1010828316882252,-0.4652076741285622,32
1734064267020450300,0.8424784869331866,1.8927298096001144,-0.5485960053026676,0.0406824951933231,9.689968909424543,-1.5077242378249764,-0.0108822006732225,-0.1335886418819427,-0.0866162702441215,-0.2829522940447845,-0.3275087067369395,0.6852813938939819,0.5857179013303493,-0.7671098113059998,-0.6745128631591797,0.3259378969669342,-0.5339574813842773,0.3674808144569397,-0.4131232798099518,-0.0548717230558395,-0.0361368134617805,-0.0782493608504533,-0.1830469667911529,-0.034471740052849,-0.051196591817215,33
1734064267060450300,0.1866389536217786,0.3278741100162267,0.583225566265732,-0.0096176706572645,9.687220487499236,-1.5257928323484955,0.1216940283775329,-0.0492643825709819,-0.1225180849432945,-0.279847048194427,-0.3280554429700381,0.6856919217478681,0.5864229023940504,-0.1585606932640075,-0.1918117851018905,0.1170318722724914,-0.2433443069458007,0.2981950044631958,-0.269915908575058,-0.0509568192064762,0.0095591805875301,-0.2399374678879976,-0.0747653320431709,-0.039390637885034,0.0941720293864607,34
1734064267100450600,0.1301313319827895,-0.2460498132884502,0.3893675663769245,-0.0379546456985874,9.681149643152953,-1.5634239132151009,0.0762156322598457,0.0841735899448394,-0.0504389479756355,-0.2787214890044197,-0.3300358211128725,0.6861405043103156,0.585322074339121,-0.237332209944725,-0.0208370611071586,0.0601469539105892,-0.1046080589294433,0.0289453864097595,-0.0923724174499511,-0.0096524655818939,0.0604094825685024,-0.1270873337775468,-0.0265047922730445,0.0037869711928069,-0.0128276251301169,35
1734064267140450600,0.5153085796635598,0.5613508574575186,0.7503894743658602,-0.0632534700368531,9.670867318591474,-1.6250212683416905,0.2552412152290344,0.0104267327114939,-0.0910005718469619,-0.2775801853805023,-0.3326146431558756,0.6871830369227139,0.5831776449507001,-0.2395162582397461,-0.0087871085852384,-0.0671394914388656,-0.0171120762825012,0.0250448584556579,0.0057309865951538,0.001945735886693,0.0575749576091766,0.0098906948953866,-0.0275994930416345,0.0680631901398301,-0.1750407789550721,36
1734064267180450600,-0.3495491680664941,3.6078339383184894,0.0690692984424531,-0.0689873694797744,9.652004212689398,-1.7333387274585663,0.2605893909931183,-0.0694794580340385,0.0835848748683929,-0.2754298539367938,-0.3342400777435271,0.6904051325754891,0.5794504448638357,-0.0849248245358467,-0.0447543784976005,-0.1009355410933494,0.0174086689949035,-0.0129023194313049,-0.0303155779838562,0.0057830903679132,0.0669133588671684,0.1299450612962245,-0.0687600374221801,-0.1422260853942483,-0.2643335118673742,37
1734064267220450300,-1.2201960936572402,11.366236234748364,-2.015685012008994,0.008131685295407,9.648568977543713,-1.7536862266995012,-0.2853067517280578,-0.3486002683639526,0.4461325407028198,-0.2748383161929478,-0.3287100550926443,0.693803152863776,0.5788356236621102,-0.0371114984154701,-0.0305358134210109,0.0180066246539354,-0.0070410370826721,0.0486319065093994,-0.0703781843185424,-0.0104187931865453,0.0456133857369422,0.0735620798170566,-0.3728617429733276,-0.7921125737864524,-0.6718578625079245,38
1734064267260450300,-0.5734881257032975,15.020148033630846,-5.873713169944286,0.1558494457456283,9.70926163891554,-1.3697940229937433,-1.9968241453170776,-0.5872235298156738,0.6256510019302368,-0.2791080733020142,-0.3102381342747304,0.6881804681028661,0.5935138008708636,0.2536071538925171,0.363417387008667,0.1483373343944549,-0.2450795769691467,0.2714970111846924,-0.2762667238712311,0.0152321271598339,-0.1216501519083976,1.039582117679715,-0.6015879511833191,0.2623109199985862,-0.3205778885934501,39
1734064267300450300,-0.6404640685956925,7.275841482570767,-6.687196959996223,0.4791545856121927,9.794217803928255,-0.118770025678724,-4.065948963165283,-0.3248864114284515,0.98956561088562,-0.3031023328346324,-0.2750675654427147,0.6560437640299454,0.6340926126503784,0.660912036895752,1.1659445762634275,-0.0079922182485461,-0.803271472454071,0.6514352560043335,-0.6966469287872314,-0.1337072253227234,-0.2567299902439117,0.6349579454600811,-0.5110911130905151,0.049750338531658,0.3562332124076783,40
1734064267340450600,1.7259519782081243,-4.254986179441214,-1.9257513508446515,0.797686355330795,9.687278939688206,1.300265874867886,-2.914569616317749,-0.3095702528953552,0.3645192086696625,-0.3275202882962262,-0.2369998204985398,0.6144395625815411,0.6775141752429577,2.071892261505127,1.8535399436950684,-0.6204043626785278,-1.2377746105194092,0.917439579963684,-0.8909642100334167,-0.2860137522220611,-0.0643071234226226,0.1581248615980148,-0.0061273574829101,0.2014584649551659,1.0663031705405563,41
1734064267380450600,1.0479449454206973,-12.716909669947624,-1.904256581264734,0.7234649348221719,9.542198853102326,2.143228272860497,-1.6039392948150637,0.3050436973571777,-0.6100601553916931,-0.3348593456093912,-0.224704445826176,0.5832955373653791,0.7050840201436468,3.5975468158721924,0.800101101398468,-1.3684483766555786,-0.652594804763794,0.7152367830276489,-0.2263286411762237,-0.2434286475181579,-0.0042763799428939,-0.4690238714158535,0.3459542393684387,0.3145451112352311,0.7356770584024489,42
1734064267420450600,0.5676795490223914,-16.713050851935147,-2.18347450466156,0.4317497872933745,9.43348070423007,2.6445082541063427,-1.0450905561447144,0.251423180103302,-0.6178159117698669,-0.3343975869227117,-0.2282754454093727,0.5595157906748681,0.7231948104156198,3.0436718463897705,0.2200046926736831,-1.7307624816894531,0.1659952998161316,0.1502558887004852,0.965959370136261,-0.1027494072914123,0.0685958564281463,-1.1145207465469835,0.2353575825691223,-0.0351790115393698,-0.144756992111355,43
1734064267460439600,-0.1448867194382473,-16.61649134289026,-0.0853194453671574,0.2431985885757952,9.388995081293585,2.8209941173031923,0.1517905741930008,0.0329069830477237,-0.3678485751152038,-0.3315319550445854,-0.2324303495608789,0.5496776016146491,0.7306963703191792,1.1252381801605225,-0.1303539723157882,-1.344778060913086,1.2778921127319336,-0.3937398195266723,1.1999328136444092,0.0242020133882761,0.1182411089539527,-0.9328510509714484,-0.0500406958162784,0.0390169366012793,-0.4548947717657312,44
1734064267500439300,-0.3576385126283392,-13.278190969300269,-0.2542427643552422,0.1101379434091504,9.450160620874168,2.6177681312188503,0.8411452770233154,0.2951294779777527,-0.2729737758636474,-0.3255233009495784,-0.2411585857816588,0.555313876472969,0.7262944139161096,0.7112045288085938,-0.1350256353616714,-0.6569316983222961,1.2673112154006958,-0.5340620279312134,0.8703157901763916,0.0350214466452598,0.0368873924016952,-0.4495166223913431,-0.1039846837520599,-0.0102288408085703,-0.0405708606455475,45
1734064267540439600,-0.4126404515452683,-6.669381901842355,0.6090504740044475,0.0330099375717109,9.563521627116202,2.169869173157215,1.6169029474258425,0.5643332004547119,0.0454546511173248,-0.3233417289197356,-0.2562349772169994,0.5689561441785529,0.711394778565561,-0.592627763748169,0.1349143981933593,0.0475790984928607,1.2307419776916504,-0.5919408798217773,0.8847865462303162,0.0444685816764831,-0.0694783106446266,0.0501303508251905,0.0225202739238739,-0.0649060412831604,0.529357965140976,46
1734064267580439600,-1.3565695075005293,2.6096774714827538,1.996087308222056,0.0291342765985871,9.71642086302042,1.3269148123405874,2.7341668605804443,0.4544542729854584,0.1701661944389343,-0.3189787215277078,-0.2765911191121878,0.5965262162231055,0.6825733799861224,-1.3193199634552002,0.2591916620731354,0.7312177419662476,0.9402456283569336,-0.5246255397796631,0.8090395331382751,0.0954453200101852,-0.1551343500614166,0.3725549632638693,0.0510414540767669,0.1952185476522892,0.5276088929839432,47
1734064267620439600,1.807587035974115,8.381436579862237,0.458670235183835,0.0102108290862001,9.80431951122582,0.2135018078397959,2.7358784675598145,0.1795977801084518,-0.2135444283485412,-0.3056119368626833,-0.2983707251386606,0.6325261635216836,0.6461322184900797,-1.9170979261398315,-0.1721389144659042,0.9548744559288024,0.4952341914176941,-0.2362048923969268,0.5780063271522522,0.1660422086715698,-0.1641533374786377,0.1166518644809722,-0.0823601484298706,-0.060130497444421,0.2015644826129078,48
1734064267660439600,-1.0367875185251236,8.038099527776241,-2.0797639548182487,-0.0536217320383293,9.78598364406824,-0.6340642845559865,1.4990904331207275,0.2956046760082245,-0.0810775160789489,-0.2933216348116469,-0.3165482720342344,0.6573625115252595,0.6177654764721202,-2.5086705684661865,-0.8320455551147461,0.9436811804771424,-0.3667285442352295,0.3855928778648376,-0.0140180587768554,0.176939383149147,-0.0426534712314605,0.04505845438838,-0.1481257081031799,0.0374215297691524,0.1395082778029143,49
1734064267700439600,0.94598942255117,5.95934738034904,-2.606806299960613,-0.106672075663181,9.756191732394695,-0.9877888751436024,0.3757682740688324,0.2789705693721771,-0.2004238814115524,-0.2895834523760601,-0.3276779808784551,0.665575206786798,0.6047959894879589,-2.269238948822021,-1.0650101900100708,0.511553943157196,-0.6997680068016052,0.3938729166984558,-0.4596446752548218,0.1271285414695739,-0.0037968344986438,0.0152162738323211,-0.1274015307426452,-0.0143659406132996,-0.0754461399979889,50
1734064267740439300,-0.0692431389057077,3.317890038245916,-1.2030454176962375,-0.1649396744457073,9.752505737358332,-1.0157814823102205,-0.0432573780417442,0.0833098590373992,-0.1751285940408706,-0.2893879070429809,-0.3323713373403795,0.6643190008033448,0.6037087009550451,-0.8946824073791504,-0.9734458923339844,0.3187705874443054,-0.6974106431007385,0.4700286984443664,-0.6078148484230042,0.0599553659558296,0.0223417896777391,-0.0083820438981056,-0.0893767103552818,-0.0106255119759589,-0.1380379129894077,51
1734064267780439600,-0.0674766589561477,1.076349129062891,-1.0299101801015436,-0.2482588676400482,9.752626148867607,-0.9975292748481036,-0.164908766746521,0.0183795187622308,-0.2095126956701278,-0.2875169927286936,-0.3353721297404909,0.6621067677695436,0.6053711931451842,-0.0722574964165687,-0.456762433052063,0.1814912259578704,-0.3429199457168579,0.317904531955719,-0.4201128482818603,0.0295948907732963,-0.0001476574689149,-0.0467915617913007,-0.0682094097137451,-0.0045587592829018,-0.1186577974759042,52
1734064267820439600,0.0111656467346474,-0.3794610893905162,-0.4150117107212543,-0.3288464256471022,9.763235221165418,-0.8610977010767906,-0.4301813244819641,0.2966219782829284,-0.2514680624008178,-0.2892217405427093,-0.3380930928748781,0.6554363630510532,0.6102844210361539,0.0549979209899902,-0.1846061795949936,-0.0042801708914339,-0.2562892436981201,0.1970486640930175,-0.1380829215049743,0.0404685288667678,-0.0065184826962649,-0.0547778843700885,-0.0471202135086059,0.0039372663836926,-0.0408940281853079,53
1734064267860439600,0.2444695948923006,-0.6846522429555654,0.7114029603023082,-0.4240346463387832,9.767953481858967,-0.7600356929808855,-0.1035987809300422,0.339699387550354,-0.2802197337150574,-0.2924132833417999,-0.3444608141863853,0.6481495071584196,0.6129790898595091,0.2297502905130386,-0.0784659460186958,-0.1579408943653106,-0.0489561557769775,0.034102439880371,-0.0345631837844848,0.0513421706855297,-0.0128893069922924,-0.0626969869315624,-0.0260310173034667,0.0124712129078805,0.0368586351893842,54
1734064267900439600,0.0263083804067224,-0.3833931681424379,0.7103671144485473,-0.5087401975912973,9.764024910238383,-0.7585508612506091,0.0494583509862422,0.2780928909778595,-0.1752302497625351,-0.2934234776220292,-0.3510821965197649,0.6445282155474449,0.612558093882584,0.4152010977268219,0.0166867189109325,-0.1409368813037872,0.0166860222816467,-0.0017033219337463,0.0599946081638336,0.0871625989675521,-0.0233214572072029,-0.0677735595434904,-0.0326381847262382,0.0570764436360448,0.008370061199367,55
1734064267940439600,-0.1429135196691378,-0.1550625514179468,0.5708114173073321,-0.5310541745996102,9.76074924956858,-0.7849429744180292,-0.0741965994238853,0.5009790658950806,0.0681069865822792,-0.2961623719405853,-0.3563386114678623,0.6426847966375253,0.6101367465404502,0.3503222465515136,0.0604005344212055,-0.0620611794292926,0.0514196157455444,0.012665569782257,0.0369712710380554,0.0931818783283233,-0.0206968374550342,-0.0951268458932638,-0.0800503566861152,0.0785868491765111,-0.1082778577588498,56
1734064267980439600,-0.0511102652406319,0.4301525812298059,-0.310245514345169,-0.4141131544463336,9.771839967903494,-0.7141738863203674,-0.3070375025272369,0.5779102444648743,0.2464805394411087,-0.3075837856014878,-0.3582310163583069,0.6388139578943078,0.6074368210999798,0.0410088673233985,-0.0370802134275436,0.0248735211789608,0.0419255495071411,-0.0159512758255004,-0.0304771959781646,0.0731821060180664,0.0245426818728446,-0.150099376052618,-0.1078573986887931,-0.0685497315477579,-0.106320147819817,57
1734064268020439300,0.3390301486723124,0.5900666643321514,-0.1095651210904121,-0.3590817337065935,9.781614927464725,-0.6012129122465849,-0.3099143505096435,0.607600748538971,0.0648323372006416,-0.3192479753056272,-0.3628747824938553,0.6316448534078893,0.6061578942400218,0.412130743265152,-0.0964703038334846,0.120575875043869,0.0033252835273742,0.0168664455413818,-0.0602157711982727,0.0648439675569534,0.0208517648279666,-0.0852162772536277,-0.1170680373907089,0.04720094630979,-0.064980421693623,58
1734064268060439600,0.0833650233637541,0.4326233552575111,0.0845066676795482,-0.321288996004872,9.78687679351568,-0.5331199845556169,-0.0279638059437274,0.2590532600879669,0.0377892442047596,-0.3265890334412368,-0.3656322014441949,0.6272915168821412,0.6051100233483249,0.4535010755062103,-0.0944240391254425,0.1491286903619766,-0.0338433384895324,-0.024864912033081,0.0251731872558593,0.0624016001820564,-0.012521956115961,-0.0144715929448604,-0.1002232879400253,0.0842087076462805,0.0217556124731898,59
1734064268100309000,-0.2182648940557613,-0.2914572272449731,-0.340517829946801,-0.2975358895715326,9.78671020477712,-0.5496757633633911,0.0210063625127077,0.3347768187522888,0.004047873429954,-0.3307700882007002,-0.3690523440257786,0.6259600880608606,0.6021340481168268,0.3438539505004883,-0.112436756491661,0.0551021322607994,-0.0156328082084655,0.0335258245468139,-0.0252054929733276,0.0615563169121742,0.0304827634245157,-0.2318511555334553,-0.1086770594120025,0.0019288309044204,-0.1078622444289736,60
1734064268140308700,-0.383711367246136,-0.7569646149724721,-0.7542272258978336,-0.3106068950034678,9.787293557623029,-0.5317580485526472,-0.1062807440757751,0.2565851509571075,-0.0174414068460464,-0.3340232293847094,-0.3726069086029148,0.6231181319854937,0.6010958719850895,0.0676266327500343,-0.0841617062687873,-0.046762716025114,-0.046666145324707,0.0159801840782165,0.0516688525676727,0.0358632057905197,0.055046334862709,-0.2441793432414531,-0.1308182775974273,-0.0365166898839175,-0.1405307527184486,61
1734064268180309000,-0.7984111624740063,-1.3952876529514788,-0.7936112148463725,-0.2512966096344404,9.79100410257876,-0.4934218881566077,-0.0827154442667961,0.1076905503869056,0.3517702221870422,-0.3389990665688081,-0.3725779240533079,0.6215651249876928,0.5999350590137588,0.0132558029145002,0.0457907021045684,-0.0611075647175312,-0.0242404341697692,-0.0518271923065185,0.0606694519519805,0.0058435201644897,0.0915843993425369,-0.1393564482420682,-0.1281613558530807,-0.0189843211289495,-0.1158963699385523,62
1734064268220309000,0.8607842512134463,-0.402755455738306,0.6533411588907242,-0.0970339124904479,9.792514507141709,-0.517321198127605,0.3011112809181213,-0.0921342000365257,0.2251563221216201,-0.3427338027276508,-0.3675329908090495,0.6255362029381945,0.5967892939613366,-0.0921350643038749,0.0974643379449844,-0.006876952946186,0.0318796038627624,-0.0152698159217834,0.0571073293685913,-0.0142073594033718,0.0885767042636871,-0.065562313234806,-0.1066952943801879,0.0213680013950914,-0.0546226938083767,63
1734064268260309000,1.0928153298910706,0.2327572009950876,0.9057038816530256,-0.0498412453852361,9.782935362413523,-0.6797510999757796,0.4066939055919647,-0.1142669767141342,0.1241375207901001,-0.3399406975997179,-0.3676052142962712,0.6320791625511862,0.5914242217947063,-0.1751575171947479,0.0454990342259407,0.0031645623967051,0.0878117084503173,0.0277358293533325,0.0075635910034179,-0.0199858862906694,0.0767770037055015,-0.0297720379292964,-0.0696942806243896,0.0240921656619757,-0.0094150402076542,64
1734064268300309000,0.4578795231975615,0.0800315680921077,-0.2219756216745823,-0.0221347913663717,9.770311443161964,-0.8431445496264844,0.36351478099823,-0.1072331666946411,0.0048024384304881,-0.3350715544065071,-0.3666813572650735,0.6391660118481006,0.5871444105198885,-0.4220384061336517,0.0159622319042682,0.1731590628623962,0.0613791346549987,-0.0838904380798339,-0.0526036620140075,-0.033131506294012,0.0786938145756721,-0.0368260480940341,-0.0604909993708133,-0.022771146191284,-0.0476869031958282,65
1734064268340309000,0.4627008058741688,0.2692635156154632,-1.1808487834572792,-0.048952954776003,9.766332018136978,-0.8869925322465598,-0.1410557180643081,0.4302597641944885,-0.2349303215742111,-0.3362888851646825,-0.3714182444360045,0.638179066685327,0.5845389562598821,-0.5384707450866699,-0.2072505056858062,0.1931554675102234,0.0370511412620544,0.0115103125572204,-0.0612132847309112,-0.0555735304951667,0.0736438706517219,-0.0218687174588441,-0.0623121596872806,-0.0242605079662054,-0.0180374687328934,66
1734064268380309000,0.5089103665264323,0.2660422154814005,0.3253904765069484,-0.1874888484493829,9.764615277346968,-0.8874293162286281,0.237265944480896,-0.0021568057127296,-0.4054118692874908,-0.3349301555758006,-0.3789793923939807,0.6337356881290005,0.5852995376002498,-0.57866370677948,-0.1645228564739227,0.1784375160932541,0.0026375651359558,-0.0382049083709716,0.0446431934833526,-0.0658150240778923,0.0697423741221427,-0.0127086749255657,-0.0647495314478874,-0.007988149209693,0.0308012348465621,67
1734064268420309000,-0.5159722677366808,-0.130417939504981,-0.0515055116359144,-0.2465807235610671,9.754507724830509,-0.97934699081704,0.2450033575296402,-0.1114654764533042,0.0699214711785316,-0.3299476688786382,-0.3809218219135061,0.6362635988754332,0.5841246059348214,-0.2769336998462677,-0.0133922472596168,0.1309444308280944,-0.047264277935028,-0.0597842931747436,0.0398526191711425,-0.067166157066822,0.0653260201215744,-0.0178425306826829,-0.0702540054917335,-0.0345208398915827,0.0349951794050633,68
1734064268460309000,0.355341378134489,0.0786082572907209,-0.934887744430825,-0.2256054478106088,9.745099845016002,-1.07354853855893,0.0792920142412185,0.0474037788808345,0.021215571090579,-0.3288160067207733,-0.38191940312187,0.6394320230075203,0.5806412546217321,-0.5911152958869934,-0.093894176185131,0.0297078881412744,0.0098976492881774,0.0307746529579162,-0.0595612227916717,-0.0722677409648895,0.0677952542901039,-0.0082259765535593,-0.0585448443889617,-0.0318284590024501,0.075253832296282,69
1734064268500309000,0.0212103996805846,0.1381324594050645,-1.1505693074624983,-0.19838126773322,9.75560604146123,-0.9793716868668794,-0.4986244142055511,0.2644845843315124,0.0413578450679779,-0.3333686415328429,-0.3815113401144816,0.6359112798494636,0.5821780011418036,-0.365529328584671,-0.1303798556327819,-0.0136024327948689,0.033035933971405,0.0577024221420288,-0.0337559282779693,-0.062170285731554,0.0474259369075298,0.0180564656943082,-0.0430321469902992,0.0005297960277646,0.0867864491797983,70
1734064268540309000,0.661054071355611,0.086739541298151,0.211429677740857,-0.2024147792993113,9.773481889891624,-0.7800528642889112,-0.4256057143211365,0.3316705524921417,-0.1308726668357849,-0.3409806070573153,-0.3823455929593371,0.6273623150246689,0.5864816237745112,-0.0881160870194435,-0.0484238937497139,0.0388476587831974,0.0096597671508789,0.0046477317810058,0.0056459307670593,-0.0413628779351711,0.033484973013401,-0.0129798930823802,-0.0500531308352947,-0.030888547803834,0.0498318062700331,71
1734064268580309000,0.0898659479566849,0.1983674401372671,0.83237086135149,-0.2172075670225545,9.778570152941343,-0.7090690374620259,-0.0522292591631412,0.4556639492511749,-0.0111716631799936,-0.3468972265558038,-0.3868570542959975,0.6216864789482666,0.586097155071069,0.0952334925532341,-0.0137882595881819,-0.0651604384183883,-0.0121626853942871,0.0679181218147277,-0.0024311244487762,-0.0198300089687109,0.0255568772554397,-0.0230915372520685,-0.0716149434447288,-0.0240796715065836,0.0072980480536818,72
1734064268620309000,0.259640878805425,0.023245266509056,0.7766190904479473,-0.1798841638656333,9.777570035988091,-0.7329252754762768,0.1989466398954391,0.4172190427780151,0.0665048360824585,-0.3528741809697487,-0.3917739257775623,0.6195821018007712,0.5814732729529724,0.0742283463478088,-0.0702904760837555,-0.1209184378385543,0.02260023355484,0.0789070725440979,-0.0536602735519409,-0.0013487879186868,0.0173418037593364,-0.0421878673881292,-0.0910471305251121,-0.0373123703062534,-0.0135243752226233,73
1734064268660309000,0.7515151904601604,-0.0494178186416625,0.0772632724225521,-0.1873815338836982,9.770026196479796,-0.8257510048203169,0.2227158695459365,0.1776652634143829,-0.1467978954315185,-0.35389440290204,-0.3970239994101447,0.620059294545997,0.5767644114442778,-0.0892801582813263,-0.1091405600309372,-0.1217266991734504,-0.0031233429908752,0.0053254961967468,-0.0034694075584411,0.014234934002161,0.0088426256552338,-0.0386456647366285,-0.10605438798666,-0.0294895677261054,0.0068055883616209,74
1734064268700309000,-0.1878695913952775,-0.1526858854144811,0.3751272979699075,-0.2514665959064848,9.758672443294524,-0.9356701269801706,0.4482831656932831,-0.1600657105445861,-0.0938052684068679,-0.3505991584808554,-0.4019512185813291,0.6214025421098675,0.5739115250422084,-0.2853333055973053,-0.0358390212059021,-0.0004700531717389,-0.004370093345642,-0.0688929557800293,0.0426320731639862,0.0278311818838119,0.0137650184333324,-0.0559931053787469,-0.0991522520780563,-0.0312078428860753,0.0403806718356907,75
1734064268740309000,-0.1925576396136544,-0.3088181118905544,0.1060028985641896,-0.2268768559859134,9.742572372364997,-1.0960053581040352,0.3507241308689117,0.0185414478182792,0.1994863748550415,-0.3459949449599614,-0.4018188424951685,0.6280305257392826,0.5695673359076753,-0.5949255228042603,-0.0329054445028305,0.0242891553789377,0.0165550708770751,-0.0763567686080932,0.0062885582447052,0.0406074784696102,0.0067668012343347,-0.0340291108518838,-0.0961002185940742,-0.0176578948307782,0.0252738497272133,76
1734064268780309000,0.6060514383189379,0.1982259858399629,-0.1785644230365753,-0.1339447984568774,9.727834821960329,-1.2335650591224432,0.3346295654773712,0.0231955889612436,0.1345252245664596,-0.3471689659334226,-0.4027216124967772,0.6330162878056167,0.5626539200786916,-0.1357869356870651,-0.1816784590482711,-0.1144538819789886,0.0175879597663879,0.0938946604728698,-0.0321429073810577,0.0526745468378067,-0.0001088795252144,-0.0345914209097623,-0.0997424274682998,-0.02942044801265,0.0211823426298797,77
1734064268820309000,0.3400056791735812,-0.0226806183636188,-0.3275239814043045,-0.1311117578548845,9.716503865128756,-1.32013538133353,0.1184573322534561,-0.0915662348270416,0.0027553958352655,-0.3443771720316183,-0.4029478004618493,0.6363499377284176,0.5604428929801838,-0.3904727697372436,-0.2517006993293762,-0.2040272355079651,-0.0070539116859436,0.0654932260513305,-0.0584543347358703,0.0610870048403739,-0.0156122297048568,-0.0385550638437271,-0.0992585495114326,-0.0363268664002418,0.0223198222272098,78
1734064268860309000,0.2747349327638745,0.1673556312799453,-0.3691078915499151,-0.130484136608988,9.714710551971196,-1.3333188341639934,-0.0212927963584661,-0.2298772037029266,-0.0366892293095588,-0.3429912496125401,-0.4018753372064825,0.6375551410465422,0.5606929645132114,-0.4368160367012024,-0.1530785113573074,-0.0977826192975044,0.0397616624832153,-0.0665765404701232,0.0166447460651397,0.067015916109085,-0.0171557385474443,-0.0257025965332984,-0.094905212521553,-0.0293727364134043,0.012689385703206,79
1734064268900308700,0.3179212366048246,0.1262117199867963,-0.1858861442267894,-0.1871378613209351,9.715004566481708,-1.32440589825958,-0.0207434315234422,-0.348459243774414,-0.1194953769445419,-0.3378812511723401,-0.3994343038097995,0.6387316707793531,0.5641899803272531,-0.3261899352073669,-0.0051403897814452,-0.0721212700009346,-0.0187382698059082,-0.0278866291046142,0.047519713640213,0.0663900524377822,-0.0209667067974805,-0.0195475810348987,-0.0903953611850738,-0.0260461492739617,0.0080804306030273,80
1734064268940309000,-0.5840163513172417,0.2063718828946351,-0.8721183498501777,-0.2030775357906706,9.716247260019182,-1.312890378641337,-0.0510881133377552,1.0448429584503174,0.0877614244818687,-0.338847400122593,-0.4011047746231337,0.6372234616402173,0.564130871605596,-0.4224706590175628,0.0943635106086731,-0.0961260050535202,-0.0137742757797241,-0.0318131446838378,0.0599343478679657,0.0515482909977436,-0.0234457571059465,-0.0085422028958797,-0.0915867984294891,-0.0111794195316731,-0.0112219434991478,81
1734064268980309000,-0.2802197939157486,-0.5965647941797971,-0.648075639577955,0.0373578716821037,9.723410575777292,-1.2744684396579862,-0.2514366209506988,2.7195818424224854,0.4360460340976715,-0.3742834405781285,-0.4241615736830012,0.620537482552089,0.5430764994142144,-0.4982088208198547,0.0639404654502868,-0.1248760297894477,0.0094325542449951,-0.0158641934394836,-0.0222404301166534,0.0305371806025505,-0.0376119166612625,0.0024614216774702,-0.0945268273353576,0.0056122869238257,0.007769464957714,82
1734064269020309000,1.5056282884590326,0.0479489151328802,1.673169359308481,0.2241823562049306,9.72593044964373,-1.2354792221806945,0.1185988113284111,0.8861246109008789,0.0052708447910845,-0.3964398849754848,-0.4360143568459091,0.6106417835293139,0.5290023947454735,-0.2916359305381775,-0.0033593741245567,-0.1745226830244064,-0.0056117177009582,0.0073581933975219,-0.0052544474601745,0.023589227348566,-0.0318088680505752,-0.0220697929888963,-0.1059428825974464,0.0095728611178696,0.0369496744737029,83
1734064269060309000,0.2028280180090106,-0.2370844165444374,-0.1870106912773102,0.2254348039514385,9.727549575278164,-1.22242516788356,-0.1385463923215866,1.4162895679473877,-0.178296223282814,-0.4082704346774727,-0.4489768260436971,0.6006214689239773,0.5205658695390804,-0.5408210158348083,-0.1342140138149261,-0.1829881370067596,0.0433125495910644,-0.0542044043540954,-0.0832986235618591,0.0396318435668945,-0.0223811976611614,-0.0301022927969694,-0.1400483250617981,0.0221627319693565,0.051787470382452,84
1734064269100309000,-1.6582397934630513,-0.2420055063337087,0.3245218769788742,0.3129977356627583,9.73426690083444,-1.1473791331190617,-0.1156359314918518,1.3804363012313845,0.327046275138855,-0.426773763501501,-0.4613467253025298,0.5879279334644161,0.5092780774892147,-0.4877204895019531,-0.0063493051566183,-0.2550122737884521,-0.0182188749313354,0.0430800914764404,0.0755857974290847,0.0575403198599815,-0.0075853765010833,-0.0371375982612371,-0.1901103854179382,0.0155883220151066,0.0491204431302845,85
1734064269140308700,-0.8831276735119521,-0.0477455015152692,-0.0078664225261658,0.5970204289928078,9.72585621536374,-1.1052880041036754,0.009870646521449,2.212768793106079,0.6780972480773926,-0.4524034756527597,-0.4721279732181397,0.5774505888174727,0.4888528007633538,-0.0697139129042625,0.1710613369941711,-0.2353975474834442,-0.0031195878982543,0.0041573047637939,0.0576893091201782,0.0728742852807045,-0.0059309503994882,-0.0047866497546434,-0.2099947780370712,0.021708193134889,0.1291547877013683,86
1734064269180309000,-0.97525117287077,-0.2039092921733856,1.5652350542902946,1.0080219542246311,9.696918290171029,-1.0602081416010856,0.3097744286060333,2.590550184249878,0.944831609725952,-0.4867159537048005,-0.4869129055942476,0.563002126748893,0.457222018158662,0.1574334800243377,0.1504049897193908,-0.1860753893852234,0.0335456728935241,-0.0088041424751281,-0.0140526890754699,0.0741976425051689,-0.0212818849831819,-0.0026741876453161,-0.2202381193637848,0.0193473822876811,0.0642655514225363,87
1734064269220309000,-0.3213705733411013,-0.2185585797727108,0.7627157258450985,1.4922848227612673,9.632409869903324,-1.0771044044096023,0.50058513879776,2.9372637271881104,0.9860991835594176,-0.520783058965278,-0.5033653201277537,0.5491269379365162,0.4169748051049627,0.0630292147397995,0.07630056142807,-0.1726636588573455,0.0100873112678527,0.0252742767333984,-0.0289575010538101,0.0709361359477043,-0.0248906500637531,-0.005664017111063,-0.2220683991909027,0.026181393026188,0.0413300815150141,88
1734064269260309000,-0.267166689466685,-0.1244821197152137,0.5356687922555953,2.004459269117564,9.53818318772018,-1.0842403207041322,0.6456436514854431,2.941081285476685,1.0316147804260254,-0.5551744742907384,-0.522193977523707,0.5315960140863003,0.3694595601718048,0.1392877697944641,0.020006563514471,-0.1799666434526443,0.0115342140197753,0.0081932544708251,-0.0169082134962081,0.0723122358322143,-0.0261186640709638,-0.0498322446614503,-0.2368861883878708,0.0213564570877701,0.0088701196759939,89
1734064269300309000,0.0039721185013651,-0.1257014323771,-0.0901496420025825,2.525202367985248,9.412809672123194,-1.0921377959556875,0.7022318243980408,2.8164303302764893,1.039141058921814,-0.5848303029370551,-0.5390163808423776,0.5149222007650923,0.3198281670801206,0.0783698260784149,0.0423339195549488,-0.1617359071969986,-0.010509967803955,-0.0133630633354187,0.0061718970537185,0.0689348578453064,-0.006209360435605,-0.0563993480920791,-0.2413739264011383,0.0131012544397264,0.0079588500499725,90
1734064269340309000,-0.3049406859353185,0.1340805536657571,-0.9334535469092428,3.021461744590104,9.278874079886078,-0.9714337334744632,0.3446727395057678,2.8486857414245605,1.0292187929153442,-0.6136973787847556,-0.5515820140357305,0.4952641896659097,0.2717468235673967,0.115450881421566,-0.0011099084513261,-0.0616268143057823,-0.0105082392692565,-0.0416443347930908,-0.0109252035617828,0.0675591006875038,-0.0002660802565515,-0.0673673168301582,-0.2396819144487381,0.0205782392568886,0.0202010765075683,91
1734064269380309000,-0.4195432166710495,-0.0135346043556928,-0.9465700719833372,3.5215307426109907,9.12511793489158,-0.7081219658702611,0.2921620607376098,2.8871970176696777,1.135602593421936,-0.6434490400649279,-0.558897033844774,0.4730098084221045,0.2233141307730409,0.1371401995420456,-0.0013298322446644,-0.0083317710086703,-0.0031753182411193,-0.0462929606437683,-0.0173580050468444,0.0653463527560234,0.0181838497519493,-0.0791454329073429,-0.2459269613027572,0.0348025794424116,0.014142214860022,92
1734064269420309000,-0.2287511802241206,-0.1319242524147033,-1.073951420271397,3.9895927832573648,8.952612665763496,-0.3229160126848146,0.0915621146559715,3.1493825912475586,1.1382646560668943,-0.6733538533627063,-0.5626218953476817,0.4471249694449273,0.1735814089325778,-0.055218331515789,0.0274185128509998,0.0066582965664565,-0.0017910003662109,-0.0321523547172546,0.0360309481620788,0.069561168551445,0.027224063873291,-0.0595978518724441,-0.2536225318908691,0.0557795356933027,0.0312906257987022,93
1734064269460309000,-0.5599541424021125,-0.640325609973073,-1.0979688401967287,4.405341576081514,8.759513521417976,0.1851795485937036,0.0536509603261947,3.186034202575684,1.111613631248474,-0.7034869593530291,-0.5635461130616763,0.4159017302872836,0.1206139688430989,-0.1262488216161728,0.0384945459663867,-0.007388346362859,0.0197063088417053,0.017322838306427,0.0169232189655303,0.0860639661550521,0.0410451032221317,-0.0869464620471,-0.2705472707748413,0.0445839687444269,0.019843641372025,94
1734064269500309000,-0.7460834477350116,-0.812954213219881,-0.3255518045485019,4.793032733678817,8.508666536980867,0.8943246287003159,-0.3348138928413391,2.693066120147705,1.0083760023117063,-0.735723653456345,-0.5555955605601295,0.3817272699451686,0.0656396986017089,0.055944412946701,0.0046407617628574,-0.0265314821153879,0.0400934815406799,0.0252434611320495,0.0217338800430297,0.1077277362346649,0.0628334358334541,-0.1156640224874019,-0.3271389603614807,0.0321676278289407,-0.0342266792505979,95
1734064269540309000,-1.560741250002384,-2.5523943262934683,0.9945733476519584,4.9913329537987705,8.285609476745128,1.6142089285567405,-0.0582784488797187,4.229545593261719,1.2798876762390137,-0.7629906566052216,-0.5482340232414462,0.3422538618497909,0.012128651036557,0.2375032901763916,0.0104044275358319,-0.06540197879076,0.0353290438652038,0.0551871061325073,0.0238840281963348,0.1364514678716659,0.1017621010541915,-0.1534013402074575,-0.3888919651508331,0.0307025967776775,-0.0170981420561671,96
1734064269580309000,0.1940267805844545,-2.1520511923938987,-0.1569526029482483,5.006178056231141,8.039840818485617,2.54352274531275,-0.0728678852319717,4.750753402709961,1.0294021368026731,-0.7916445367807947,-0.5374898068944913,0.2853438957984441,-0.0546114940480599,0.1416752934455871,0.0547891519963741,-0.0882399901747703,0.0371365547180175,0.0178446173667907,0.0340235978364944,0.1332646161317825,0.1341557502746582,-0.1658206767976283,-0.4377933144569397,0.0230856189679354,-0.0325590382993221,97
1734064269620309000,1.4754147903725503,-1.0560159506082534,-0.6673509795427321,4.660474859535694,7.887720750260352,3.497746254658699,-0.2369696348905563,4.359497547149658,0.3599373996257782,-0.815304520124321,-0.5242383137155741,0.216422630943828,-0.1166792678135347,-0.1214807033538818,0.0516750067472457,-0.0697991251945495,0.0464849472045898,-0.0162999629974365,0.0562517940998077,0.0801342651247978,0.1581679731607437,-0.0792389564096927,-0.4305112659931183,0.0183448541816323,-0.0064350014835596,98
1734064269660309000,-1.3249836981475351,0.2692997559726238,-2.06774121633023,4.395547035036981,7.647725999227165,4.285071228842437,-1.961081504821777,0.7831383943557739,0.4609178900718689,-0.8360848568625935,-0.4972427774941865,0.1851264204019551,-0.1394271312707225,-0.3044393658638,0.1602043658494949,0.0538698844611644,0.0515028834342956,-0.0471253395080566,0.0652218759059906,0.0346070565283298,0.1760517805814743,-0.0889133782058954,-0.4010986685752868,0.0084198916904628,-0.0050973231390118,99
1734064269700309000,-3.130490566846728,-0.703355189859867,-0.1245405719041824,4.695998885120451,7.030182714426517,4.969357268834114,-2.322699546813965,0.164096400141716,1.7626713514328003,-0.8548505320766008,-0.4544987276448528,0.2001604060759519,-0.1503240422676755,-0.3669139146804809,0.1395601779222488,0.0921933054924011,0.0006359219551086,-0.0321354866027832,0.0053979754447937,0.0204750336706638,0.166966512799263,-0.0742541537344455,-0.4137046635150909,0.0475760997651144,-0.0752539784267544,100
1734064269740309000,-2.4403145920336247,-0.6411176371335983,2.517295540383458,5.121221316471695,6.20120149551332,5.6114674241364,-0.9718456268310548,1.7314794063568115,3.103498935699463,-0.8649562019682182,-0.4125989400634489,0.2089423658348928,-0.1948226937538276,-0.4186269044876098,0.1541048735380172,0.1501583307981491,-0.0459958910942077,-0.0805003643035888,0.0244153887033462,0.0287617743015289,0.1521247923374176,-0.0768652130156755,-0.4034551084041595,0.0478204299150034,-0.0022889877200126,101
1734064269780309000,-0.8077689195364713,-1.2621622080534696,0.2098608940541744,5.488882077953219,5.323625464779139,6.140160459095239,-0.950083315372467,1.140952467918396,3.059628963470459,-0.8638561280246185,-0.3773564197182055,0.2110475917654871,-0.2584833143168455,-0.474690705537796,0.1913901418447494,0.1356793940067291,-0.060323417186737,-0.0426189303398132,-0.0381043702363967,0.0537378415465354,0.1403952240943908,-0.0428162284195423,-0.3806374371051788,0.0782054121108725,0.0161237440660595,102
1734064269820309000,0.7227560559004544,-1.694020131896436,0.1632908660590648,5.90783580429852,4.407099525664747,6.468797370177507,-1.1425389051437378,0.2413294017314911,2.520282745361328,-0.8580448697744844,-0.3433826748298512,0.2286295073320444,-0.3059019103142463,-0.6675227284431458,0.193521037697792,0.1602660417556762,-0.0446564555168151,-0.0373536944389343,-0.0358300656080246,0.0702162459492683,0.1205937638878822,-0.0482826771318912,-0.3543514013290405,0.0824926244433969,-0.0227349788993597,103
1734064269860309000,0.1666167956113815,-0.6069716219037771,2.214595619112253,6.210189104089141,3.632494332322478,6.66400137784779,-0.2772658467292785,0.4752375185489654,2.3686459064483643,-0.8490310629100571,-0.3172693189941025,0.2440710249106716,-0.3448415814804727,-0.4785046279430389,0.070405289530754,0.145437940955162,-0.0145992636680603,0.0245710015296936,-0.1746359914541244,0.0587018728256225,0.1137239411473274,-0.0923474443078041,-0.3173851668834686,0.0124663906022906,-0.0530845244556665,104
1734064269900308700,-0.5748854618132114,-0.213580499099195,1.9516823493063449,6.344761825186014,3.009559125350416,6.8452131005227566,0.3286148905754089,1.0884435176849363,2.8622350692749023,-0.8332370721906693,-0.300470433226867,0.2463915376556826,-0.393350733185679,-0.2606788277626037,-0.0913675278425216,0.2306867986917495,0.022522747516632,-0.0425081849098205,-0.1200311332941055,0.0312071219086647,0.1063000559806823,-0.0715022246778011,-0.2912043929100036,0.0352643152026459,-0.0910351926654577,105
1734064269940309000,0.2772153514027595,0.2606352418713271,1.2588450463294982,6.245188521277904,2.3309384176440537,7.192686229500174,0.0501765199005603,1.9209539890289309,2.962120771408081,-0.8141500605477134,-0.2775202600771597,0.2371867542933116,-0.4515359591060688,-0.2529705762863159,-0.1067769974470138,0.3351260125637054,0.0086485743522644,-0.0309658050537109,0.0003187209367752,0.0095333494246006,0.0909996852278709,-0.14921908608675,-0.3038343787193298,-0.0144152596477419,-0.1513587284639477,106
1734064269980309000,0.3185807964920997,0.8687924202978611,0.8921113365650176,5.884496429765224,1.5783808054588735,7.684516976007819,-0.2894764542579651,1.837704300880432,2.811207294464112,-0.7961193689623364,-0.24272282994333,0.2220006735653125,-0.5079323264886006,-0.2513095438480377,-0.1482481211423874,0.2861867547035217,-0.0082218050956726,0.0117221474647521,0.0014492124319076,-0.0093394964933395,0.0992105528712272,-0.1364694946289062,-0.3233853876590729,-0.0641990985902026,-0.1791182575270533,107
1734064270020309000,2.627292038628459,1.035885893510282,1.5925824954211711,5.525563164618611,0.9524985852494836,8.045575562745332,-0.0417543314397335,1.328986883163452,1.96292507648468,-0.7779988430783559,-0.2124258648561749,0.2113411254479028,-0.5522028178686172,-0.2096592932939529,-0.222044363617897,0.2996407747268677,-0.0048047304153442,-0.0376685857772827,-0.0368784070014953,-0.0214443802833557,0.1067264825105667,-0.1224976678997278,-0.2932248115539551,-0.0892709777382202,-0.1284814184844493,108
1734064270060309000,2.5348686064749955,0.8652302708368748,0.8599088566184043,5.199749494263529,0.6416204720892011,8.289832062876224,0.2880743741989136,1.0110737085342407,1.4964383840560913,-0.7629817036701354,-0.1947242242961416,0.1985413509607836,-0.5835433301622597,-0.2281275242567062,-0.2426728904247284,0.3712064325809479,-0.0232033729553222,-0.0673308968544006,-0.0423189997673034,-0.0397885367274284,0.1215463429689407,-0.123933253660798,-0.2488269060850143,-0.1383261279467958,-0.1158013851314783,109
1734064270100309000,3.113222913442552,1.2936264368534087,-0.1505588102579116,4.896428810745477,0.5268647600857541,8.480435298752784,0.3405752778053283,0.9822818040847778,0.7370662093162537,-0.7522916158252589,-0.1837565100314065,0.1839882775936988,-0.6053421270799522,-0.2427139282226562,-0.2469629347324371,0.3627037405967712,-0.0364516973495483,-0.0379192233085632,-0.0238772109150886,-0.0554597154259681,0.126615360379219,-0.0889654006540775,-0.2121627628803253,-0.0927459147066343,-0.1089338374495506,110
1734064270140308700,0.5546662651270627,0.8833509608738124,-1.3564894280016422,4.588527813699841,0.4758073575435206,8.653866450554132,-0.0959866791963577,0.8577637076377869,0.5917214751243591,-0.7473911831836805,-0.173015055407379,0.1698275340196549,-0.6185716780658037,-0.3201922178268432,-0.2672057151794433,0.32960906624794,-0.0219172239303588,-0.0288789868354797,-0.0111838579177856,-0.0588455274701118,0.1121793016791343,-0.0485305144131183,-0.1928914338350296,-0.0777811953494325,-0.0679419018477201,111
1734064270180309000,0.5756733973205089,0.1793949921092018,-0.7480652692019939,4.325257693280279,0.2358492852589115,8.798119438666104,-0.6434555053710938,0.5652531981468201,0.2856228649616241,-0.7454650909554504,-0.1551660999628715,0.1653609127457541,-0.6267862372124835,-0.2953843474388122,-0.2286688089370727,0.0896724909543991,-0.0264185667037963,-0.0062588453292846,-0.0424515008926391,-0.0698387622833252,0.1373419910669326,-0.0688005645036697,-0.1727346777915954,-0.1309917756038718,-0.0964344213604927,112
1734064270220309000,-0.5421569121658801,-0.530503043522872,-0.1546446182668209,4.214712621241808,-0.020911496649112,8.854724538463353,-0.6410062909126282,0.2751720547676086,0.3203949332237243,-0.7456429184908091,-0.1411969323437306,0.1691098050602244,-0.6288735435790869,-0.2530046701431274,-0.1842240691184997,0.1345591992139816,0.0024793148040771,-0.0677928924560546,0.0290365815162658,-0.081250250339508,0.139382854104042,-0.0504828175246715,-0.1568499356508255,-0.0957324745030608,-0.0856616829335689,113
1734064270260309000,-0.3501037697419524,-0.7352022804975509,0.5696691884696483,4.105109798489511,-0.3170493491411209,8.900445840674639,-0.4424056112766266,0.3250672519207001,0.7160273790359497,-0.7410269292705642,-0.1270366739760968,0.1733932877540615,-0.6361411977730849,-0.1598272919654846,-0.0269847027957439,0.1435003578662872,-0.0644813179969787,0.0116916894912719,0.0626595616340637,-0.0777841582894325,0.1221680715680122,-0.0491980384111404,-0.1420219987630844,-0.0545272432104218,-0.0305967983156442,114
1734064270300309000,0.516164685036242,-0.0190291831839829,0.1689192273348569,3.968175024436414,-0.5278963316231966,8.952390547445416,-0.2415769696235656,0.3703450858592987,0.5826148986816406,-0.7347127341174419,-0.1158651082761693,0.1735810817013902,-0.6454781373253146,-0.0537392124533653,0.103924848139286,0.178441435098648,-0.0557975172996521,0.0107340216636657,-0.0048980675637722,-0.0644430220127105,0.0872457474470138,-0.0645686260223388,-0.1496596485376358,0.0018009302084334,-0.0825958656221628,115
1734064270340309000,0.4524333866208792,0.4087549153488129,-0.376940046480298,3.815979260626435,-0.7307751117050647,9.004146453645825,-0.434039443731308,0.3622317910194397,0.5127139091491699,-0.7295111111085619,-0.1042035675877217,0.1733721855040124,-0.6533736705116524,-0.0071179121732711,-0.0074793905951082,0.0923896506428718,-0.0036109685897827,0.0626345872879028,-0.0668524503707885,-0.0565012097358703,0.0563884750008583,-0.0636269612580537,-0.1618654578924179,0.0134218544214207,-0.0914326675504446,116
1734064270380309000,0.8751108096644282,0.3957244611229747,-0.1784030949950218,3.699610012479126,-0.9561172141380608,9.031561699315905,-0.4818701148033142,0.2914067208766937,0.2496915012598037,-0.7263980580496193,-0.0923355922760687,0.1760472496598901,-0.6578961309590395,0.1278737187385559,-0.1633660793304443,-0.0178561676293611,0.0330948233604431,0.0510478019714355,-0.0627579092979431,-0.0320371016860008,0.031160207465291,-0.0497206009805202,-0.1432463526725769,0.0089107370974612,-0.0458101495385169,117
1734064270420309000,0.1789127980828285,0.2568199944321066,-0.5927782613784074,3.554246140515804,-1.1989384207688272,9.060919895747304,-0.6988089680671692,0.4144439995288849,0.2573863565921783,-0.7255973894628858,-0.0782056748270017,0.1786212070791569,-0.6599142457713605,0.2503058910369873,-0.2086770087480545,-0.0237673204392194,0.0192292928695678,-0.0119963884353637,0.0019883513450622,0.0042106285691261,-0.0089571420103311,-0.0722796387910842,-0.1168224811553955,0.0055163848055439,-0.0248743290156126,118
1734064270460309000,0.2026537391543388,-0.3713938105300068,0.2703589096367359,3.3959809936642644,-1.4909956597335636,9.078250385254622,-0.6668789982795715,0.4002983868122101,0.2333114147186279,-0.7249601306515518,-0.0616784353640091,0.1825755012915206,-0.6612827554849097,0.3823020160198211,-0.1596571505069732,0.042407639324665,0.0050042271614074,-0.0244300365447998,0.0468698106706142,0.0407924279570579,-0.0322995781898498,-0.0987923826634883,-0.1000040397047996,0.0098901195066515,-0.0721615653693675,119
1734064270500309000,0.3747369834780693,-0.5363838817223906,0.6547048484593629,3.2699861312985417,-1.69770554241091,9.088199532338976,-0.2859227061271667,0.0554343201220035,0.1863140612840652,-0.7235157847543235,-0.0497747137697421,0.1848059980359218,-0.6632451483235133,0.4951563775539398,-0.1331263780593872,0.197866603732109,0.0169797539710998,-0.0313273072242736,0.0326027870178222,0.0447641648352146,-0.0391069687902927,-0.1285001231849193,-0.0920026004314422,0.0042934987969492,-0.1178244153916835,120
1734064270540309000,0.462691161262989,-0.4910818278364837,0.1481651931196451,3.279894654111564,-1.7949316986709831,9.065919311469791,-0.2555607855319977,-0.0392645448446273,0.0635411515831947,-0.7222399507078835,-0.0466684928002577,0.1886499364384789,-0.6637791641180996,0.3566339313983917,-0.1296595633029937,0.3437975943088531,0.0067214965820312,-0.0323687195777893,-0.005069077014923,0.0334591940045356,-0.0331354662775993,-0.1674275274723768,-0.0941642895340919,0.0084888424405595,-0.1659720679670572,121
1734064270580309000,1.070731873703003,0.0893950242429971,0.0335913039565086,3.250053934860229,-1.919163643017411,9.05120689550638,-0.3463084995746612,0.0892785117030143,0.0163496565073728,-0.7219415367417333,-0.0408854828049833,0.1919511895399045,-0.6635387061919726,0.0629748925566673,-0.1877107322216034,0.3223022520542145,0.0105348229408264,-0.0086268782615661,-0.017668604850769,0.021512247622013,-0.0172561276704072,-0.2058709476351737,-0.1088843122124672,-0.0304700757965911,-0.2224965037435293,122
1734064270620309000,1.299510234194994,0.1589756332084536,-0.1061900916993617,3.2383997374236584,-2.020018511168659,9.033419894403218,-0.3321051299571991,0.0333357155323028,-0.2964890599250793,-0.7242427826561216,-0.0358523200386198,0.195290483216705,-0.6603397262028775,0.0842346400022506,-0.2235959321260452,0.1506269872188568,-0.0261251330375671,0.059415578842163,-0.0528459511697292,0.0071361074224114,-0.0341789461672306,-0.1056423946887254,-0.0981260240077972,0.0263266512823523,-0.1753285098552703,123
1734064270660309000,-0.0901210004299879,-0.1411861478872597,-0.7022410911381244,3.27485812124908,-2.1144512373179194,8.998598756390809,-0.4526061713695526,-0.1373642981052398,-0.349089652299881,-0.7290189977537248,-0.031869870349712,0.2004580951801694,-0.6537064405760692,0.3101463317871094,-0.1857205480337143,0.1135246977210044,-0.0265163779258728,0.0094988942146301,-0.0234480500221252,-0.0042935982346534,-0.0246259830892086,-0.135160750117898,-0.0649032294750213,0.0052037312391097,-0.0897369695484638,124
1734064270700309000,-0.4428574567630887,-0.0045512335635721,-0.7202987258762121,3.4233392484501004,-2.240162460436672,8.912508618912101,-0.4723365306854248,-0.4910798668861389,-0.2986310422420501,-0.7317431206700562,-0.0308034653940646,0.2112810439720693,-0.6472739674460267,0.3011285960674286,-0.2287575006484985,0.1987466365098953,0.0185767412185668,-0.0313538908958435,-0.005844235420227,-0.0124129531905055,-0.0168204642832279,-0.1216097791492939,-0.0588351897895336,0.0194193835113896,-0.0626058015167713,125
1734064270740309000,-0.7106479772165417,0.2503622696600854,-1.0431436095535755,3.601197861304879,-2.401253039972484,8.799758438044785,-0.6416434645652771,-0.3477449715137481,-0.0066303750500082,-0.731294023162186,-0.0301365063292003,0.224563992363982,-0.6433287927034342,0.678311288356781,-0.2835576236248016,0.2961970567703247,0.04915452003479,0.0077930688858032,-0.0789656117558479,-0.0194767508655786,-0.0066935252398252,-0.1176525659561157,-0.0857701301574707,0.0503350522175896,-0.0225917710363864,126
1734064270780309000,-0.1989469935908913,0.5604363729611039,-0.9926806657731532,3.645549920989573,-2.725542861761153,8.686297478559613,-1.086305856704712,0.008975408039987,0.2970470190048218,-0.7274919205194468,-0.0195642800422887,0.2382001385813605,-0.6431434735211023,1.1692783832550049,-0.2673211395740509,0.4101550281047821,0.0115160346031188,-0.002249002456665,-0.0222401022911071,-0.0181542113423347,-0.0026165028102695,-0.075978493309021,-0.1277215331792831,0.0574584241243777,0.0202647893935441,127
1734064270820309000,0.8245993505671619,0.0039066520497202,0.4086801696121692,3.5531983850285407,-3.1602126281544565,8.576609023350477,-1.1452789306640625,0.2885196208953857,0.1277075260877609,-0.7247301243986539,0.0005145411235096,0.2504283754288203,-0.6419124867933687,1.4985880851745603,-0.2955986559391022,0.5665708780288696,0.0038853287696838,-0.0235373973846435,0.0065827369689941,-0.0213122367858886,0.002320596948266,-0.0573415973782539,-0.165304958820343,0.0502684806542471,-0.0130167179614305,128
1734064270860309000,-0.031701252426207,-0.4754194176718592,1.201397650489211,3.491472288955748,-3.4883310683205724,8.474169808617233,-0.7010549306869507,-0.024653946980834,-0.0248006600886583,-0.7237871716241988,0.0160881161126158,0.260151417146062,-0.6389010753811981,1.527336597442627,-0.0665333345532417,0.5267223715782166,-0.060767114162445,0.0276764035224914,0.0996379405260086,-0.0179315321147441,4.31980006396e-05,-0.0248117851734161,-0.1541267037391662,0.0704521037035156,0.0544382771521806,129
1734064270900308700,-0.366331850965321,-0.2377656768068671,0.4943032741010189,3.609726620197296,-3.647574997076392,8.356760988289118,-0.4158291518688202,-0.5756896734237671,-0.2056953161954879,-0.7226009977956379,0.0188058747391764,0.2712380972666257,-0.635550167532574,0.4662440419197082,-0.2051446288824081,0.3474553525447845,-0.0259346365928649,-0.056005835533142,0.0136710405349731,-0.0118900369852781,-0.0071703661233186,-0.0279249487578868,-0.1204368770122528,0.0939368689237162,0.0589215600460767,130
1734064270940309000,-0.249716811363399,0.1407598852992057,0.074092825692892,3.842665315239131,-3.741040631759167,8.210293831259012,-0.3490222990512848,-0.5323121547698975,-0.1927101612091064,-0.7211408284698076,0.0150895260955511,0.2848926504155786,-0.6313195911019588,0.4052925407886505,-0.1995224505662918,0.4161099791526794,0.0024810433387756,-0.0371590256690979,-0.0214150547981262,-0.0230878889560699,0.0164479687809944,-0.1303437052249908,-0.135499820113182,0.0549492543150438,-0.0261047475934028,131
1734064270980309000,-0.2964642417520284,0.1217728607565164,-0.3956272112935781,4.0207945617288345,-3.839519126167893,8.078470701131224,-0.3842234909534454,-0.4850655794143677,0.0507411509752273,-0.7182377986329705,0.0127139793180031,0.296565300410913,-0.6293026638183111,0.0210050698369741,-0.151861697435379,0.4244388043880462,-0.0130669474601745,-0.0505791902542114,0.0887873917818069,-0.0152178788557648,0.0228131785988807,-0.1213040742009878,-0.1611945778131485,0.0609526457485742,-0.0002338087558746,132
1734064271020309000,0.6247203368231654,0.1624447706237435,-0.1028518871873617,4.1078681572869415,-4.002444958306849,7.954636231669783,-0.5400967001914978,-0.2064550369977951,0.0359416529536247,-0.7151075996105989,0.015936755067209,0.3068753101054287,-0.6278491618061045,-0.0700713098049163,-0.000519964902196,0.4346648156642914,-0.0374596118927001,-0.0592162609100341,0.0748775601387023,0.0223378539085388,0.0094383461400866,-0.1009229649513959,-0.1699495315551757,0.0993813341331202,-0.0710796153515577,133
1734064271060309000,0.1094262971416115,-0.1239472821861505,0.5586211402326822,4.196994301460683,-4.154491084513068,7.82916510091722,-0.4142277240753174,-0.3020954430103302,-0.1234716176986694,-0.713909678200536,0.0196508378951573,0.3169187730979332,-0.6241068195583264,-0.2822765111923218,-0.0223012659698724,0.3718865215778351,-0.0516958236694335,-0.0238339900970459,0.028668850660324,0.043305218219757,0.0070962933823466,-0.1341027654975652,-0.159511998295784,0.0713911426858743,-0.1373562143355607,134
1734064271100309000,-0.424359677042067,-0.1254743456229567,0.7488415142714977,4.325561644662916,-4.207282471241057,7.730373302775621,-0.1037733033299446,-0.3596247136592865,-0.1128283664584159,-0.7133670935375567,0.0180496304813857,0.3248612979576609,-0.6206824304266337,-0.1779234707355499,-0.1048185676336288,0.2475185096263885,-0.0346227884292602,0.0259587168693542,-0.0247721076011657,0.0537592768669128,-0.0081099718809127,-0.1157283198952674,-0.1195138841867446,0.0805446869797073,-0.1751420473724603,135
1734064271140308700,-0.7187626023501157,-0.0381181337311863,0.4157558070868253,4.403887870141864,-4.236579292874038,7.66991211207211,-0.1291628181934356,-0.0667600482702255,0.1706968694925308,-0.7118148137156256,0.0163266512521539,0.3296615927623504,-0.6199808660564629,-0.1162928640842437,-0.2034995555877685,0.2290531545877456,-0.0109493732452392,-0.0020788311958312,-0.0227462649345397,0.0631321966648101,-0.0174331478774547,-0.1797369739472866,-0.092127650976181,0.026572910811135,-0.1526326939225196,136
1734064271180309000,0.1013733390673995,-0.140255735169351,0.4181856645822525,4.30096467128396,-4.330766227568685,7.67571173826158,-0.0578742548823356,0.1947150975465774,0.4587564766407013,-0.7082411331887898,0.0218589885530545,0.3288917710952972,-0.6242971180298904,-0.2012756615877151,-0.2275915145874023,0.2278414815664291,-0.0078441202640533,0.0118890404701232,-0.0026962757110595,0.0901331529021263,-0.0166676957160234,-0.1722293747961521,-0.0862081572413444,0.0208800123821711,-0.1600052685171365,137
1734064271220309000,1.3735223958671092,-0.2162128934293985,0.2182072821170091,4.205116817639768,-4.389332982827723,7.695527030321955,-0.0020326937083154,0.1003983318805694,0.1584411710500717,-0.7050557022101609,0.0257672234328043,0.3270678516094167,-0.6286963688472046,-0.0713810548186302,-0.2156571894884109,0.2235379368066787,-0.016586035490036,-0.0050452351570129,-0.0174093693494796,0.1201956570148468,-0.0110265184193849,-0.1829062516331672,-0.0505375675857067,-0.0087108020700805,-0.0712619861811399,138
1734064271260309000,0.5637342454627156,-0.1189902443006634,0.1133937394678592,4.174839752797782,-4.401561765281856,7.705021419376134,-0.009613050147891,0.0086382655426859,-0.0086744502186775,-0.7048922707232675,0.027156097356732,0.3262143295801431,-0.6292644148102766,-0.0690630376338958,-0.2552127540111542,0.3432818055152893,0.0003971457481384,-0.0163535475730896,-0.0301086902618408,0.1127860993146896,-0.0160057470202446,-0.1414700793951749,-0.0403123944997787,-0.0315543593353824,-0.1612526382297277,139
1734064271300309000,-0.1818394991844892,-0.0190641814321279,0.0139279875874519,4.180904459664226,-4.399285344782472,7.703032875907421,0.0299292337149381,-0.0371872223913669,0.0544199533760547,-0.7045770027159027,0.0267053188568381,0.3264068783831158,-0.6295369107876772,0.0683456882834434,-0.1977377980947494,0.3548587560653686,-0.014552354812622,0.0070780515670776,0.0197766870260238,0.0953110605478286,-0.024665243923664,-0.0883323634475469,-0.0393525809049606,-0.0656525533681036,-0.0883779561549425,140
1734064271340309000,-0.0658516515702009,0.0545145572587847,-0.1530862829089164,4.17160822353065,-4.400738758461177,7.707241433513164,0.0534550659358501,-0.0039184382185339,0.1464750915765762,-0.70299392237499,0.0262323160542924,0.3261164036555937,-0.6314741266074821,0.2230620235204696,-0.2549748420715332,0.379007488489151,0.0117270350456237,0.0159160494804382,-0.0243666172027587,0.0801160261034965,-0.0263343509286642,-0.0347965880930423,-0.0259750410914421,-0.0665914279536809,0.0356833077996969,141
1734064271380309000,0.0727297206461429,0.1253539341136813,-0.3935626799792051,4.1394191875875,-4.428931418244541,7.708447302171588,-0.081630453467369,0.0480829551815986,0.1435734182596206,-0.7012574254367748,0.0276164166481245,0.3259078186872748,-0.6334503992379172,0.250811368227005,-0.3563102483749389,0.5039135217666626,0.0344449877738952,-0.0484645962715148,0.0028756409883499,0.0851457044482231,-0.0207793302834033,-0.0440489850848913,-0.0307211577892303,-0.0697431517165619,0.1154828207015991,142
1734064271420309000,-0.0229325472980737,0.1759972028970718,-0.0667535688459873,4.105644928279519,-4.472392082047462,7.701413750272989,-0.0417283102869987,0.0219168663024902,0.1277084350585937,-0.6997457521596825,0.0298787723548737,0.3262582262872608,-0.634837617250822,0.7466149926185608,-0.3041555285453796,0.7502541542053223,0.0201440155506134,0.0051099061965942,0.046228289604187,0.0914815887808799,-0.0221613887697458,-0.0178881233900785,-0.0559098683297634,-0.0458433028894476,0.0885533127218484,143
1734064271460309000,-0.0035261282995343,0.1871115943685173,-0.1600134518235921,4.068730617380142,-4.500564868086577,7.704591211265325,-0.0124596348032355,0.0658458769321441,0.1813792884349823,-0.6975997703681003,0.0312085983767305,0.3258852306546379,-0.6373220456498806,0.3257641494274139,-0.2732325494289398,0.6859440207481384,0.0258755981922149,-0.0514869689941406,0.045088306069374,0.0940573811531066,-0.0306174829602241,-0.0030517887860536,-0.0737522542476654,-0.039955349962553,0.0540624295771121,144
1734064271500309000,0.198046829880774,0.2032417681753635,-0.4406342277556657,4.005123822127282,-4.551859878776967,7.707784454348683,-0.1471650451421737,0.1152598708868026,0.1737779974937439,-0.6957723215839897,0.0346003544094218,0.3252924404060039,-0.6394440149653108,0.9455150365829468,-0.1075578406453132,0.8763421773910522,-0.0118392705917358,0.0028184652328491,0.0440549254417419,0.088925190269947,-0.0383743718266487,-0.0465817184329032,-0.0610507950186729,-0.0624827322595287,0.0334475115716457,145
1734064271540309000,0.2717570859968662,-0.0271735458686947,0.015839374166727,3.945479208503664,-4.627753031890094,7.693339749410748,-0.1714596152305603,0.1041414588689804,0.1158610582351684,-0.6945898751051109,0.0393531197391117,0.3258836557019406,-0.6401531995755533,0.59007728099823,-0.045341070741415,0.5756020545959473,-0.0321407318115234,-0.0457051396369934,0.0482577830553054,0.0934224128723144,-0.0378895886242389,-0.0774859752625227,-0.0480983704328537,-0.0671573547407519,-0.0122907417744398,146
1734064271580309000,-0.0026031682357192,-0.1252504737392067,0.1418389127075672,3.904553323875368,-4.686944933310151,7.678371897381544,-0.1087278500199318,0.0237948838621377,0.0892930924892425,-0.6937056391655895,0.042918539899783,0.3266037004698878,-0.6405158906737385,0.0960444286465644,-0.1512776315212249,0.3969290256500244,-0.0232913494110107,0.0743059515953064,-0.0372613072395324,0.1170420944690704,-0.0601215660572052,-0.089292732912302,-0.0672884136438369,-0.0413812637129798,-0.0895072524458169,147
1734064271620309000,-0.1234308570966124,0.0082484806463122,0.0199409642666578,3.8697579048261046,-4.735001108209788,7.666493828061222,-0.0819566175341606,0.054435160011053,0.2133758962154388,-0.6920018889972078,0.0453662910618467,0.3271994962414219,-0.6418845975007368,-0.2647409439086914,-0.0864693373441696,0.2285360991954803,-0.0435341298580169,0.0235398411750793,0.0554107129573822,0.1307347565889358,-0.0892414674162864,-0.0973556278586387,-0.0754657983779907,-0.015509101032745,-0.1230617315232753,148
1734064271660309000,0.2739744697853922,-0.0629787264823913,0.2104518456846475,3.783149588692188,-4.801889117090404,7.668117045348882,-0.0828787311911583,0.1648878753185272,0.2636114656925201,-0.6895909464959699,0.0499551712034648,0.3264036012901046,-0.6445381445128615,-0.5739735960960388,-0.160903662443161,0.1449038535356521,-0.0510134994983673,0.0670892000198364,-0.072843313217163,0.1337466686964035,-0.1036507710814476,-0.1326221715509891,-0.0747687369585037,-0.0100958803449757,-0.2069049668580293,149
1734064271700309000,0.8856354185491799,0.0441132824927568,0.1165413898438215,3.7269437173455953,-4.832217035336792,7.676585013964772,0.0027707873377949,0.0066892132163047,0.0248573869466781,-0.6880278789871301,0.0523404206272161,0.3253668315146916,-0.6465405145895158,-1.1075751781463623,-0.238894984126091,-0.0253716073930263,-0.0237894654273986,-0.0480810403823852,-0.0504502952098846,0.1318437904119491,-0.1033405214548111,-0.1940823101639747,-0.0467790476977825,-0.0449895173380151,-0.1544061333358287,150
1734064271740309000,0.3561401272967457,-0.1490600961327552,-0.0411702147781848,3.739591017472744,-4.828634792935848,7.672687422004341,0.004802378360182,-0.0130037767812609,-0.0010579440277069,-0.6878885441109683,0.0517059353071306,0.3257733849471923,-0.6465351240943495,0.2139401733875274,-0.1184347197413444,0.1626900434494018,0.0035965144634246,0.1032013893127441,-0.0421554595232009,0.1123121306300163,-0.0764590129256248,-0.1775859333932399,-0.0094818770885467,-0.0529870919631794,-0.1434948632210493,151
1734064271780309000,0.0338701208978891,0.0475391652882099,-0.0777034174054861,3.754804368695616,-4.820828795360028,7.670165794572234,0.0145551385357975,-0.1254450976848602,-0.1100374311208725,-0.6883497018105841,0.0510974615481087,0.3260666240026652,-0.6459445037510159,-0.8846225738525391,-0.1637366861104965,0.2641662657260895,0.0091933906078338,-0.0485931038856506,-0.0266569703817367,0.093264028429985,-0.0587858408689498,-0.1995785694926977,-0.0057222656905651,-0.055473976875469,-0.1413023216128349,152
1734064271820309000,-1.0291501555144786,-0.1608078170716762,0.2052092688560485,3.7512075132474303,-4.820926995037496,7.671863246139884,-0.0219251103699207,0.0623364262282848,0.1208660081028938,-0.6890934889599309,0.0515903607204099,0.3258561993987691,-0.6452180215489511,0.0331032797694206,-0.1786019802093505,0.4201641082763672,0.0160193741321563,0.0990263819694519,-0.0650765895843505,0.0795930325984954,-0.0350626148283481,-0.1913993546903133,-0.0024727024137973,-0.1159313681866973,-0.0858142431467771,153
1734064271860309000,0.4094420938953757,0.1408978324651718,0.5132867915123701,3.693770638801157,-4.827547582221031,7.695532875540852,0.1466136425733566,0.0738025680184364,0.1496548652648925,-0.6873585855277179,0.0528334730084537,0.3237987636664809,-0.6479978113053433,-0.6101372241973877,-0.6567649245262146,0.2726719379425049,0.0228687822818756,-0.1021892428398132,-0.0984770581126213,0.0828134939074516,-0.014409901574254,-0.1098679034292697,0.0079038199037313,-0.0994370372425764,-0.0682061057418584,154
1734064271900308700,0.4434530845686793,0.2585451377242803,-0.1717085657924413,3.6955227431654927,-4.798250468327105,7.712994297951459,0.0580010153353214,-0.1096416190266609,-0.0479203686118125,-0.6865931138376096,0.051041234103919,0.3227096501789608,-0.6494944710159761,0.5162057280540466,-0.3238914608955383,0.0501198880374431,-0.0886766612529754,0.0214378833770751,0.051500380039215,0.0595413222908973,-0.0169240366667509,-0.096306995588541,0.009971298277378,-0.1131300835629925,-0.1096820254683494,155
1734064271940309000,0.0886433290928602,0.0018248773396015,-0.2270440840452909,3.756444537118077,-4.7749651620686056,7.698000726959108,0.0411781594157218,-0.1572855859994888,-0.0649953037500381,-0.6866872277866914,0.0480845800547248,0.3243440709289098,-0.6488060765828692,0.5525464415550232,0.1328041702508926,-0.1086101680994033,-0.1242884695529937,0.04849374294281,0.1093689352273941,0.0266538262367248,-0.0086495131254196,-0.0622089111536741,0.014471928589046,-0.0578494738351553,-0.0913911664962768,156
1734064271980309000,0.0502694670349359,-0.1495648307844996,-0.4121732724249363,3.7737194970458745,-4.770220305629074,7.692491608148813,-0.0422032177448272,0.0469454415142536,0.0419905893504619,-0.686474606992583,0.0472132055289225,0.3249046125363931,-0.6488146803231813,0.7038978934288025,0.5100098252296448,-0.1251946091651916,-0.0400789976119995,0.0597621202468872,0.0928480625152587,-0.0008079297840595,-0.0116846365854144,-0.0893470934480428,0.0309215411543846,-0.0736984743467532,-0.0066086044847965,157
1734064272020309000,0.2301628005877137,0.0001069675058126,-0.3011491846978664,3.767854696665704,-4.800780571326613,7.676337761205434,-0.1254760771989822,0.0142591902986168,-0.0060995840467512,-0.6859110892248362,0.0485280566034702,0.3259765875579812,-0.6487759300580448,0.0328012742102146,0.4532814621925354,0.0333654731512069,0.0115700364112854,-0.1320093274116516,0.0223535895347595,-0.0222465973347425,0.0242030024528503,-0.0723269850641489,0.0437226518988609,-0.0644645993922837,0.0217249250739812,158
1734064272060309000,0.1813853256762027,-0.1082370873570442,0.085428458699584,3.769496034131944,-4.828906011092663,7.657868623057007,-0.0563163012266159,-0.0117711424827575,-0.0199226569384336,-0.6861471256580502,0.0498989089381044,0.3272116425960859,-0.6477999878854717,-0.1349504441022873,-0.0089783780276775,0.0622813440859317,0.090898722410202,-0.0050879120826721,-0.0469618439674377,-0.0295259989798069,0.0115421498194336,-0.0261544319540262,0.0203662309795618,-0.018143376792781,0.0287608150601387,159
1734064272100309000,0.3926096170380711,0.2478384502708912,-0.1056862338304519,3.795447636990249,-4.821810792134702,7.649516389775275,0.0037727309390902,-0.0758845508098602,-0.1279354691505432,-0.686672690546485,0.0490186720744357,0.3279944571401739,-0.6469138403202632,0.357699990272522,-0.3274753093719482,-0.0161067377775907,0.0370316505432128,0.0964036583900451,-0.2191170305013656,-0.0263302978128194,0.0018393425270915,-0.0241308171719312,0.0174889620393514,-0.0281751789255999,0.043130116674304,160
1734064272140308700,-0.2197849066972732,-0.0877151083320379,0.0860030437171459,3.781309513783455,-4.838354807439446,7.646071217757463,-0.1014489531517028,0.161729097366333,0.0442522354423999,-0.6874223097940649,0.0506132127013522,0.3280200742996156,-0.6459811809332706,-0.5045276880264282,-0.2154070287942886,-0.0140737453475594,0.0428903996944427,-0.1825401782989502,0.1226335614919662,-0.0244067348539829,-2.749171108e-05,-0.0462304207772016,0.013032054528594,-0.0846142927724868,-0.0353442851036787,161
1734064272180309000,-0.0485731845110654,0.0369558119535446,0.2507669049382209,3.7591368449419735,-4.861272157168388,7.642467055785655,-0.0045120986178517,-0.0071416185237467,0.0261868052184581,-0.6871964868373682,0.0522633404837219,0.3280413987919788,-0.6460791757982449,-0.2735549509525299,-0.4230656027793884,0.276709645986557,-0.0092077553272247,-0.1784966588020324,-0.0026262253522872,-0.051494114100933,0.0240612253546714,-0.0610673399031162,0.014136909507215,-0.1008701570519246,-0.0073024319678544,162
1734064272220309000,0.4227703620240092,0.1198494914785027,-0.3458990115284919,3.776659349890053,-4.867102470757067,7.630107340428233,-0.0712359994649887,-0.0840487405657768,-0.0563249364495277,-0.6868410572362675,0.0518054579412505,0.3290729063609301,-0.6459694699933128,0.3569758832454681,-0.2295853793621063,0.1765988618135452,-0.0093468129634857,0.0587159395217895,0.0185252055525779,-0.0644177347421646,0.0142171112820506,-0.0069604866623878,0.0082855969667434,-0.0263587406207807,-0.0032861820638179,163
1734064272260309000,0.1746358514159917,-0.0216641347974538,-0.2342529925107955,3.8025817266538735,-4.89183622225821,7.601361138415336,-0.1358977556228637,0.0285358950495719,-0.0199339427053928,-0.6871784848826232,0.0523263660551724,0.3312104889681432,-0.6444743929310025,-0.0412385985255241,0.1377922147512436,-0.0598538182675838,-0.0629855692386627,0.001169741153717,0.1331093311309814,-0.0457414910197258,-0.0082992697134613,-0.0474707762271165,-0.0032604709267616,0.0242350995303131,0.0013642740905284,164
1734064272300309000,-0.0876519799679517,-0.1522346345156431,0.0971563058942556,3.784598618456721,-4.930655489996076,7.585238271132111,-0.0943576991558075,0.0179953183978796,0.0145613308995962,-0.6872945622374579,0.0547737680690154,0.3320546931604513,-0.6437124529340691,0.3100898563861847,0.3619676828384399,-0.2524895071983337,-0.0439697802066803,0.0953645706176757,0.0505633205175399,-0.0286465287208557,-0.0285033136606216,-0.1152560262084007,-0.0027328680735081,0.0084911120294593,-0.0045814825713634,165
1734064272340309000,0.2010413355216384,0.0606985065907239,-0.0762070413678884,3.813137022937834,-4.942774966856837,7.563025270280241,-0.0248922724276781,-0.1759172230958938,-0.1038703620433807,-0.6870099016907675,0.0543111812168734,0.3338312653504587,-0.6431364757778671,0.1558313220739364,0.3044677376747131,-0.110438697040081,0.0295528471469879,-0.0424622297286987,-0.0571609735488891,-0.0449170693755149,-0.0045548807829618,-0.0664618924230337,0.0049501424655318,0.0365671779621392,-0.0627390725076198,166
1734064272380309000,-0.0665258975699543,-0.0597340454727411,-0.0071475336670875,3.837992062731087,-4.947439451536536,7.547386971643567,-0.0518286116421222,0.0040251738391816,0.0365361347794532,-0.6873793858306214,0.0539536110691018,0.3350811466927451,-0.6421208696040971,0.002272127661854,0.0298306979238986,0.0250823777168989,0.1165994107723236,-0.127652883529663,-0.0917713642120361,-0.0457898899912834,-0.0130008496344089,-0.0751420424848794,-0.0067962612956762,0.056527020459203,-0.0433919824808835,167
1734064272420309000,0.2694119841754436,0.0892605842083692,0.1414753400921821,3.819884743632376,-4.965351540324091,7.544809814631939,-0.0374387539923191,0.0217067431658506,-0.0576819293200969,-0.6877173913346151,0.0555402351181443,0.33501795104169,-0.6416565988994568,-1.8211804628372192,-0.3071834146976471,-0.2560429573059082,0.0743726789951324,-0.0797315835952758,0.0424963384866714,-0.014753708615899,-0.0231426507234573,-0.0874041426867246,-0.0010029235854744,0.035751121472055,0.0558189178556203,168
1734064272460309000,-0.2455500470727682,0.0848901140391826,0.0865501562058925,3.847027894362807,-4.956192666834593,7.537036842542887,0.0087362127378582,-0.0268847122788429,-0.0249678920954465,-0.688224708599256,0.0545320021856816,0.3357742349098593,-0.6408032557782152,0.2795186340808868,-0.1750726997852325,-0.1103572025895118,0.0303930044174194,0.2417960166931152,-0.0366672873497009,-0.0094269113615155,-0.0064355954527854,-0.0975309844255447,0.0093393335118889,-0.0273410022569354,0.0221440272688865,169
1734064272500309000,-0.054430093845725,0.1200906067579984,-0.2634463537693023,3.853130302891135,-4.961465638801455,7.53044694275856,-0.0331508629024028,-0.0335308462381362,0.0378652662038803,-0.6876986964131272,0.0543187423598609,0.3363086674523614,-0.6411057163157198,0.1424244493246078,-0.0317276306450367,0.2376206070184707,-0.029905080795288,-0.109562337398529,0.0657334998250007,-0.0280703678727149,0.0072300378233194,-0.053382046097517,-0.010367420502007,-0.0305769702371675,-0.008991115707159,170
1734064272540309000,0.1631561337634921,0.1157470245957374,-0.2625835994601249,3.843241069300472,-4.994381819975376,7.513722602450847,-0.1317258477210998,0.0336118713021278,0.0640229359269142,-0.6869433668574194,0.0557942730531975,0.3373332878846511,-0.6412503836280863,-0.0451113656163215,-0.0296816322952508,0.1688971370458603,-0.0556823015213012,0.1093033552169799,0.0037338212132453,-0.025727991014719,-0.0032021040096879,-0.0047603462696075,-0.0275080651044845,-0.0049028326133731,0.0355336701959371,171
1734064272580309000,0.228422094400227,-0.0610842910379171,0.0745592741608619,3.822417476980388,-5.040959446755052,7.493212898385524,-0.1095831245183944,0.0308964475989341,0.0252388529479503,-0.6864626140190949,0.0584081125760106,0.3384390137920965,-0.6409498222922546,0.0681046694517135,0.1142277643084526,-0.0798586159944534,-0.0606536269187927,0.0376184582710266,0.0925703197717666,-0.006412299349904,-0.0339316837489604,-0.0118891752362251,-0.0218538269400596,0.0308593856414314,0.0351876332372426,172
1734064272620309000,0.1082502390995621,-0.1457365046679973,0.2119908918201923,3.8162949024468658,-5.056563843122125,7.485815773871541,0.0098083838820457,-0.024159463122487,0.0054574464447796,-0.68626809087963,0.0592415727823746,0.3388510657086883,-0.6408638812928251,0.5474576950073242,0.2499919831752777,-0.2133633494377136,-0.0453475713729858,0.0697053670883178,0.0306825637817382,0.0011789631098508,-0.0355763100087642,-0.0433802920430898,-0.0117799257859587,0.0367171352263074,-0.0355500368088483,173
1734064272660309000,0.2366708673074841,-0.0719371089637279,-0.1047474916756153,3.848884335884452,-5.04342437556386,7.477990779334307,0.0071695251390337,-0.0581674166023731,-0.0884104445576667,-0.6864155162453908,0.0576859138402933,0.339707112636259,-0.6403944999479102,0.4657111465930938,0.2542868554592132,-0.1797516644001007,-0.0009320378303527,0.013051688671112,-0.0427731275558471,-0.0150659345090389,-0.0282255802303552,-0.0722667793095111,-0.0006126090884208,0.028725579349976,-0.0525549476236104,174
1734064272700309000,0.2879939350485802,-0.0185632461726665,0.035481647747755,3.8683401469826695,-5.026318926984072,7.479469035193324,0.0467734597623348,0.0007644642610102,-0.0562292858958244,-0.6868967573614481,0.0565231900044842,0.3397916250077785,-0.6399373380685562,-0.0469071343541145,-0.0233681295067071,-0.1061756461858749,0.0829231739044189,-0.0837588906288147,-0.0604492425918579,-0.0134014189243316,-0.025109764188528,-0.0798988816231489,-0.0078785307705402,0.0600136843980289,0.0142518127143383,175
1734064272740309000,-0.1577680109843611,0.0833399619877338,0.0216939454138278,3.884342895017564,-5.002975460797548,7.486822320565581,0.0269411653280258,-0.0360880941152572,-0.0677450597286224,-0.687966374468576,0.0554816501391294,0.3394113924510012,-0.6390806421262157,-0.8980087041854858,-0.428094208240509,-0.2542017996311188,0.046610951423645,0.0359618663787841,-0.1706704497337341,-0.002386556006968,-0.0011287704110145,-0.1437041220575571,0.0022992705926299,-0.0071842398151289,0.0231055657774209,176
1734064272780309000,-0.0383688936218619,0.1672358042925596,-0.0059077627390623,3.9050042825132607,-4.986763161665201,7.486889540582895,0.0279384572058916,-0.0255640652030706,-0.0320125557482242,-0.6884276642086892,0.0543175896119437,0.3395945447673446,-0.6385863291984757,0.1615936160087585,-0.3598112463951111,0.118878848850727,0.0754327178001403,-0.140909731388092,0.0611333847045898,-0.0069669783115386,0.0081298006698489,-0.1020347255855798,0.0013139243237674,-0.0031382340936455,0.0226478851377964,177
1734064272820309000,0.0633656799733638,0.1326899760901927,-0.0861637872368097,3.897092778736353,-4.977805948227644,7.496966113439202,0.0250102411955595,0.0325644500553607,0.0137131586670875,-0.6886121521375563,0.0542288600847558,0.3388515077846101,-0.6387896075678242,0.1163528934121131,-0.0590740330517292,0.1410300135612487,-0.0244796574115753,-0.0027143359184265,0.0992257520556449,-0.0082239955663681,0.0277425460517406,-0.0546750085175037,-0.0019476492889225,-0.000467197386641,0.0212830265253782,178
1734064272860309000,0.1894055505245923,0.0640595074564218,-0.1807832681298256,3.8954017569094894,-4.979056240549683,7.497014628756045,-0.0288853328675031,-0.010260172188282,-0.0239309649914503,-0.6887577298280287,0.0544176507704208,0.3388175641500745,-0.6386346337601126,0.4058081209659576,0.0453829206526279,0.1626945734024047,-0.0140615105628967,-0.0677492022514343,0.0483560040593147,-0.0095895063132047,0.0347448177635669,-0.0355740022063255,0.0071432865224778,-0.0326666999248787,0.0117038817971944,179
1734064272900308700,0.1613049529388547,0.0517652585506439,-0.0362573082953691,3.901056713931262,-4.982025027227402,7.49210055322945,-0.0074824541807174,0.0084335478022694,-0.0107937827706336,-0.6889818601541143,0.0545058687824965,0.3391729477175473,-0.6381966506420453,-0.0972262322902679,0.0740014091134071,-0.0629513412714004,-0.0596971213817596,0.0811468958854675,0.0212730839848518,-4.79593873023e-05,0.0151076447218656,0.0370189403176307,0.0059249391779303,0.0401975931866327,0.0279804783374071,180
1734064272940309000,0.1992921537667512,0.0538140077739954,-0.1170686285883188,3.897187179021537,-4.987964354148507,7.49016227864325,-0.0431771166622638,0.0282215196639299,0.0058394512161612,-0.6890251919493995,0.0549318370254414,0.3392499046000415,-0.6380723346671386,0.4642578661441803,0.2260880321264267,-0.3025339841842651,-0.0711188912391662,0.0983166694641113,0.0665077567100524,0.010971762239933,0.0045938966795802,0.0099894790947437,0.0277454666793346,0.0427332674104021,0.0218915138125419,181
1734064272980309000,0.2563353527203202,0.008315992924571,0.0765238522320985,3.898651990877092,-4.997532977482676,7.483018252107501,-0.0197499077767133,-0.0136599717661738,-0.0400651842355728,-0.6892553376507816,0.0554688032298166,0.33969907796377,-0.6375380976569965,0.6812207698822021,0.3298781216144562,-0.1862244755029678,0.0015186369419097,-0.0023800134658813,-0.0137610584497451,0.0040744105353951,0.0035630431957542,-0.0347311216413974,0.0298595447093248,0.0594674578252714,-0.0173106157630681,182
1734064273020309000,0.1002013726785779,-0.0357552039921283,0.024918168157339,3.922655966798961,-4.985933140581846,7.478210559564828,0.0284268260002136,-0.0470962412655353,-0.0426131971180439,-0.6896063425262905,0.0543673323143869,0.3402375164972362,-0.6369661556319195,0.33389613032341,0.2343498468399047,-0.2142357379198074,0.0278033018112182,-0.0073471069335937,0.0045691728591918,0.001029283972457,0.004801909904927,-0.0297159238278865,0.0266732666641473,0.1066460918385535,0.012864742270112,183
1734064273060309000,0.1716883997872471,-0.0239946235716342,-0.096541973388195,3.937809404528141,-4.979886846154928,7.474274389159679,-0.0021107790526002,-0.0311269611120224,-0.0169665869325399,-0.6896801300009682,0.0536552900364898,0.3406452484082499,-0.6367286042225311,0.2201021909713745,0.1863142102956771,-0.1919084638357162,0.0268687009811401,-0.010136067867279,-0.0325376391410827,0.0080404542386531,0.0099538248032331,-0.123317752110958,0.0454668588936328,0.0603164987029274,0.0489104536414146,184
1734064273100309000,0.6804705733567475,0.2646504688620567,-0.1668640483707189,3.964878905500471,-4.9685079585284,7.467532513684034,0.0088778845965862,-0.0453203581273555,-0.1082637533545494,-0.6898872200479801,0.0523972565979724,0.3413448878283985,-0.6362339956894371,0.138737291097641,0.0014732513809576,-0.1718432009220123,0.018252819776535,0.0517704486846923,-0.055543839931488,0.0071817659772932,0.0270000230520963,-0.0715220984220504,0.0514468103647232,0.0581100929661421,-0.0132943658590316,185
1734064273140308700,0.4763122748583555,0.1796995645463466,-0.332812150940299,4.000096641615033,-4.952390936464071,7.459452667602896,-0.0499657317996025,-0.0058873784728348,-0.1560375690460205,-0.6914712139952145,0.0514085009263342,0.342097817195679,-0.6341875147381266,0.2704037129878998,-0.0500366501510143,-0.0772109031677246,0.0149224698543548,-0.0609986782073974,0.0238970518112182,0.0022931797429919,0.0238034632056951,-0.0340583369463682,0.0533726215362548,0.0601113041201839,-0.0008007949888706,186
1734064273180309000,0.4119821337670087,-0.0444154803097248,-0.1876946549534797,4.031057597067952,-4.94480150424838,7.447811329647898,-0.0766377598047256,0.005835180170834,-0.196198508143425,-0.6937829714607295,0.0513643999088303,0.3429708277063208,-0.6311877120854829,-0.015117248520255,-0.1499809324741363,0.0677347034215927,0.0446643531322479,-0.1162325739860534,-0.0095160901546478,0.0050365990027785,0.0041533950716257,-0.0066676411956548,0.068601593375206,0.0829150419733952,0.0570043282479047,187
1734064273220309000,0.553586068674922,-0.1292559099882841,0.1435293500125408,4.073358277180791,-4.921911042526364,7.439954770928621,-0.0067683812230825,0.0235810242593288,-0.273721694946289,-0.6966954688167764,0.0505850560292163,0.3436699501631121,-0.6276523093821528,0.2915087044239044,-0.1600844860076904,0.0363542065024375,-0.0180820822715759,-0.0509229302406311,0.009289801120758,0.0209274664521217,0.0017752919811755,-0.0175146139025688,0.0748150795698165,0.0819386986213736,0.0355032750576734,188
1734064273260309000,0.0653024932548403,-0.0836485895454883,0.0017506430596113,4.120061283905804,-4.872498484581708,7.446760359290241,-0.0032340376637876,0.0335227698087692,-0.2752443850040436,-0.7004755699307555,0.0488799516642433,0.3434117559550291,-0.6237091952362354,0.8390205502510071,-0.1386303156614303,0.054546795785427,-0.01923269033432,0.0895056128501892,0.0104159116744995,0.0349407270550727,-0.0119731379672884,-0.040274727243185,0.0634676143527031,0.1052946041643619,0.0283130712926387,189
1734064273300309000,-0.2797156437858939,0.0422711617574095,0.0780383484482765,4.156676611858607,-4.834116146956384,7.45142601301372,0.0092733222991228,0.0223371796309947,-0.2006754726171493,-0.7036696906422962,0.0477025576852324,0.3432309087763059,-0.6202951896329246,1.4843183755874634,-0.0075940135866403,0.1637017875909805,-0.0033545494079589,0.0461587905883789,-0.0067536234855651,0.0389393158257007,-0.0011587524786591,-0.0465963314801454,0.0700201690196991,0.0706311135322321,0.0303431158155202,190
1734064273340309000,-0.3313271730795502,0.036298517088592,0.0156675247311592,4.188535685195029,-4.8003109079882496,7.455438755786418,0.0193467158824205,-0.013218599371612,-0.1407760828733444,-0.705839864658317,0.0463314236802187,0.3431206769168132,-0.6179900682899585,0.2378532290458679,-0.188292846083641,0.1391984224319458,-0.0310443341732025,-0.0822607278823852,-0.0267531275749206,0.025019247084856,0.0118817500770092,0.0016156185030937,0.0812566354870796,0.0704460575552191,0.0484819990962743,191
1734064273380309000,-0.2681497091546654,-0.0570551816523075,0.0397480730205774,4.208257746013999,-4.779980359882116,7.457395150551199,0.0218465477228164,0.0030825734138488,-0.0406419858336448,-0.7069419420399599,0.0453817990738141,0.343102250347304,-0.6168099183918148,0.2927673161029815,-0.1939643025398254,0.0428561829030513,-0.0421524941921234,0.0292280316352844,0.0009280145168304,0.0152074629440903,0.0171547085046768,0.0115068979203701,0.0943581312894821,0.0431416427153162,0.0965548328697681,192
1734064273420309000,0.2222159332364797,0.0685211630403995,0.1005249055445194,4.209152064505219,-4.763550618606805,7.467396904605627,0.0584829188883304,0.0168108027428388,-0.0338745266199111,-0.707352598309149,0.0447784208435858,0.342437757021842,-0.6167525284426093,1.1008244752883911,-0.0399708598852157,0.1834835410118103,-0.0406065583229064,0.0243885517120361,0.0402039587497711,0.0103385997936129,0.0236809067428112,0.0337812735706567,0.0839855819940567,0.0386563413942698,0.1218710604339838,193
1734064273460309000,0.3254775702685117,0.0554381018444895,-0.0153577281296253,4.2167715995982284,-4.732660682563483,7.482723068553208,0.0668728128075599,0.030886385589838,-0.100556768476963,-0.7084623277294039,0.0436631786154619,0.3414393555388572,-0.6161118178611712,0.166266918182373,0.2556144595146179,-0.0890087112784385,-0.0867191851139068,-0.0790629386901855,0.0605151653289794,0.0183926038444042,0.0070371013134717,0.0752870039135217,0.0702696591615676,0.0460987754878588,0.1281990944117307,194
1734064273500309000,0.2209182946413755,-0.0267643805459141,-0.0562216534376144,4.228406215551495,-4.694152380470931,7.500393165278434,0.0655064061284065,0.0221157390624284,-0.1111259162425994,-0.7099824599188379,0.0422894752410944,0.3402910057384012,-0.6150923190075148,-0.0340214297175407,0.4197743237018585,-0.2192175686359405,-0.0548664629459381,0.0180867314338684,0.075125902891159,0.0146295726299285,-0.0087359678000211,0.0854074159115552,0.0671643912792205,0.0787483964137732,0.1321837801337242,195
1734064273540309000,0.392399189157784,-0.0621507512256503,-0.034053076249361,4.249059712001681,-4.650685579188168,7.515783626633882,0.0925375521183013,0.0178812127560377,-0.1740472614765167,-0.711900649658886,0.0406398226067545,0.3393377129080386,-0.6135111094280755,0.036826379597187,0.3948243856430053,-0.216401070356369,0.0091994106769561,-0.0414357781410217,0.0153412222862243,0.0040891356766223,-0.0091046132147312,0.0418833314836025,0.0778115317225456,0.0688296079350635,0.1171282498210668,196
1734064273580309000,0.4299979751899838,0.1403311384931206,-0.0810311005234718,4.262786916320025,-4.590254199101031,7.54510441366434,0.100829504430294,0.1101757287979126,-0.1391400545835495,-0.714245561129865,0.0385974693968965,0.337367706746963,-0.612002153184099,-0.0991088226437568,0.03307980671525,-0.2058590948581695,0.0752499103546142,-0.1011675000190734,-0.1181011795997619,0.010155445896089,-0.0100887492299079,-0.0057668929636478,0.0825212150812149,0.0737516110397875,0.1319534785091876,197
1734064273620309000,0.6657888447925449,0.1061480061233043,-0.0564104540079832,4.248459700281918,-4.53601933556646,7.585875399991869,0.0965146049857139,0.1356440931558609,-0.1894710808992386,-0.7171895030649548,0.0379784750212545,0.3343435891123472,-0.610255058172866,0.6135112643241882,-0.1035736426711082,-0.0858407393097877,0.0238834917545318,-0.0058603882789611,-0.0330376625061035,0.0107554011046886,0.0062566064298152,-0.0371165554732084,0.0894321650266647,0.0724944231860805,0.1218038404166698,198
1734064273660309000,0.711746001586318,0.1411263805240392,0.0439437711447477,4.268642364349961,-4.456076322540641,7.621841031864285,0.1582881361246109,0.0252049826085567,-0.3040289580821991,-0.7208206577954216,0.0355135339617527,0.3318629868081707,-0.607472900950431,0.4646477401256561,-0.1211156696081161,0.1219260320067405,0.0312586724758148,-0.08737713098526,0.0934352874755859,0.0023099854588508,0.01018360350281,0.0132920277714729,0.092439517378807,0.0944254378919489,0.1266664780169725,199
1734064273700309000,0.4809387656152248,0.1038666171878576,-0.0363175140500068,4.318238169907033,-4.348935505987703,7.655714075371622,0.1741667091846466,0.039142906665802,-0.3098593950271606,-0.7248527014707801,0.031138158286887,0.3296932269625189,-0.604087104874365,1.8282232284545896,-0.1218151301145553,0.3529068529605865,0.0296364724636077,0.0445581674575805,-0.0047855377197265,0.0038027667906135,0.0288509987294673,0.0029237784922122,0.0902643278241157,0.0704294260808266,0.1368506029009819,200
1734064273740309000,0.2256990991771221,0.22305472214818,-0.2028910550415515,4.355306794585287,-4.255488868266344,7.687164860168099,0.0887858271598815,0.0398203134536743,-0.295427918434143,-0.7288830309225661,0.0277900284709335,0.3275536165186804,-0.6005546973840173,2.4826247692108154,-0.1011722758412361,0.3208487331867218,-0.0308862030506134,-0.0347167253494262,0.0533502697944641,0.007633551955223,0.0282231178134679,0.0881032308667898,0.0919657424092292,0.0589731258365325,0.1932902830034494,201
1734064273780309000,0.0715165454640984,0.1608890656143426,-0.0549386278897523,4.399355487409234,-4.182698649604618,7.702018145906925,0.0812211707234382,-0.0254376400262117,-0.2803165018558502,-0.7325169788559037,0.0250490263596533,0.3266173544007169,-0.5967516575110067,2.889954328536988,-0.1029553636908531,0.2651647329330444,-0.064301311969757,0.0296756625175476,0.0822406411170959,0.0130598284304142,0.0033643003553152,0.1516407602757215,0.1084639057517051,0.0711600327771622,0.2670750656604767,202
1734064273820309000,0.1390209326773882,0.161233349007368,0.1449620131641626,4.463382846161723,-4.099395804756879,7.709964720997214,0.1425408124923706,-0.083487793803215,-0.2826369106769562,-0.7354900031035576,0.020916225343092,0.3262877836205481,-0.5934250565697065,2.3638503551483154,0.0011086645536124,0.4385160207748413,-0.0343978703022003,0.0515286922454834,0.0593616366386413,0.0281022973358631,-0.0186812970787286,0.132892805185914,0.0943368002772331,0.0237302918133325,0.2823416083753108,203
1734064273860309000,0.0700540716961026,0.3381915058910846,0.1343225457280874,4.546714917103946,-3.999823669892549,7.71357122105658,0.1579948663711547,-0.1509846299886703,-0.3029933869838714,-0.7382479702679305,0.0153899093143393,0.326313454340444,-0.5901463204432055,2.935063600540161,-0.3397343158721924,0.3020831346511841,-0.0206522643566131,-0.0513241291046142,0.0365134477615356,0.0471734665334224,-0.0574863776564598,0.1859977879077196,0.0694894045591354,0.0442193458162713,0.3316214798510074,204
1734064273900308700,-0.1400628429457545,0.4038374057561159,0.5234358450829982,4.652235146717727,-3.886802270868421,7.708428012949228,0.2303684055805206,-0.219373270869255,-0.3019424974918365,-0.7405346517942262,0.008404892672727,0.3269692807902848,-0.5870510434646226,2.6304194927215576,0.036344788968563,0.413945585489273,-0.0857879817485809,-0.0294604301452636,0.0702722072601318,0.0765883475542068,-0.0996587127447128,0.2192173359423875,0.0575058236718177,0.0149187613236252,0.3650514557659626,205
1734064273940309000,-0.302203662186861,0.3408715387552976,0.8312117544442414,4.770532148057222,-3.7418349970072495,7.707858104106783,0.3708983659744262,-0.2538682520389557,-0.2748713493347168,-0.7421806493602244,-0.0007636985653945,0.3271208080161591,-0.5849438295595253,1.2991591691970823,-0.1302027553319931,0.207864448428154,-0.0140996575355529,-0.0480180382728576,0.0412603020668029,0.0967346131801605,-0.1714581251144409,0.2295230413794517,0.0391078479588031,0.0021377974799834,0.3505383617669343,206
1734064273980309000,-0.4970154556691646,0.1849056087568402,0.6680845545142888,4.913419693034888,-3.563423426444828,7.702642999807,0.4630099833011627,-0.4435578882694244,-0.2345464676618576,-0.7425860474436986,-0.0128091558285789,0.3272773006551689,-0.5842016397415775,1.5593464374542236,0.0393337085843086,0.2704504430294037,-0.0334133803844451,0.0091741979122161,0.043438971042633,0.1124995648860931,-0.2304219603538513,0.2643558698296547,0.0737609565258026,0.0229318257788661,0.5004559515118598,207
1734064274020309000,0.2784007617950439,0.1737304270088672,0.8633014216661453,5.104363120651245,-3.3470950899422167,7.6754685771554705,0.6545273661613464,-0.5628799796104431,-0.3075606226921081,-0.7417461078583079,-0.0285249506320419,0.3283996433754977,-0.5840829229072664,1.0556514263153076,-0.1182654052972793,0.3292184174060821,0.0348494350910186,0.0129497051239013,0.0010022521018981,0.1501275151968002,-0.2744521200656891,0.2310159102857112,0.1732870042324066,-0.0445716709518572,0.6861123786360025,208
1734064274060309000,1.0367881030470132,0.4525917920529842,0.8494786480188369,5.341065844401717,-3.018727058929205,7.650535795950889,0.9013080596923828,-0.6172940135002136,-0.5149534940719604,-0.7418396234726274,-0.0500516196752739,0.3277591727921472,-0.5828746589058175,0.6035302877426147,-0.0619635097682476,0.4904772937297821,0.0327270328998565,-0.0900803804397583,0.0338766574859619,0.1889644116163253,-0.25020432472229,0.2327314820319414,0.201610267162323,-0.1460694994820282,0.4189081336379051,209
1734064274100309000,1.6478344270437957,0.713017921218276,0.6298474705785513,5.578913646534085,-2.6189520803064106,7.628053330507874,0.8401197791099548,-0.5367891192436218,-0.689579963684082,-0.7435779196179054,-0.0737907692732478,0.3250114434828422,-0.579667528156566,-0.1764699220657348,0.0105865355581045,0.6110175848007202,0.0369653403759002,-0.0791127383708953,0.0619820356369018,0.1709613800048828,-0.2344724982976913,0.4528910672605037,0.2107099443674087,-0.0593150620088446,0.2952940289288759,210
1734064274140308700,2.480632573896646,0.5493577834554016,1.3795681057721376,5.791483799546957,-2.171129986873269,7.610210215303302,0.8521015644073486,-0.3099668323993683,-1.013763189315796,-0.7488642708709169,-0.0968603891787302,0.3203206836777006,-0.5720270884089274,-1.0237083435058594,0.2031852751970291,0.7416017651557922,0.0073549151420593,-0.0766479074954986,0.0925154685974121,0.1294102817773819,-0.2267172485589981,0.4015753060430288,0.3016438782215118,-0.061274881706573,0.4017255281686782,211
1734064274180309000,2.4994559323102234,0.375754782218486,1.7520850751131771,5.97063040638566,-1.594253643503785,7.614480147707462,1.052973985671997,-0.302048772573471,-1.47247314453125,-0.7587727539638945,-0.1221492299829807,0.31120591178189,-0.5590119337558951,-1.923681735992432,0.5016195178031921,1.0072792768478394,0.0084043741226196,-0.1950754821300506,0.1846512556076049,0.0780987441539764,-0.2098291367292404,0.2405705050945281,0.4216145873069763,-0.0130361076484899,0.543030187869072,212
1734064274220309000,2.394161912667751,-0.2273967699404805,1.9147078326523304,6.165408297598361,-0.8106393604062497,7.582940515583753,1.374146580696106,-0.4446597993373871,-1.993130564689636,-0.7718925223680448,-0.1552105566224567,0.2988098460778007,-0.5392625960430819,-1.0959731340408323,0.7197167277336121,1.585216999053955,0.1064632385969162,-0.3135392069816589,0.1158089637756347,0.0181386582553386,-0.2126660495996475,0.1895341453403234,0.5539201498031616,0.0165696338031906,0.6810176858454943,213
1734064274260309000,1.2031126377135517,-0.6864416836556047,1.844692047140002,6.330093248364329,0.2013165357338264,7.48730747373402,1.7049051523208618,-0.3989478349685669,-2.3147013187408447,-0.7865299129732469,-0.1969103429872735,0.2819217620455828,-0.5129493639687488,-1.2260326147079468,0.9622114896774292,2.446807146072388,0.1643892377614975,-0.3789598345756531,0.1630700230598449,-0.0171463638544082,-0.1987329721450805,0.0443517674237489,0.6348918676376343,-0.0151569996594451,0.6911091640099882,214
1734064274300309000,0.1376853001594543,-1.079662783655524,1.0868705230772495,6.31453853635788,1.333597651105374,7.383665312951803,1.854000210762024,-0.050184816122055,-2.3618385791778564,-0.8010728676315074,-0.2401195217223869,0.2566719073834795,-0.48450442982752,-1.3890327215194702,1.2760505676269531,3.027838945388794,0.0851746499538421,-0.3137963414192199,0.2043135166168213,-0.0638035014271736,-0.1662567257881164,-0.0097194299817085,0.7012104392051697,-0.1139989570857025,0.843767869156599,215
1734064274340309000,-0.0880646524220705,-1.0767083177641033,0.6449743125617504,6.064889821794629,2.49646990223676,7.2907567276298995,2.001296043395996,0.3443136811256408,-2.3185997009277344,-0.8137142541549428,-0.2812127286593325,0.2217977882031776,-0.4578146203499346,-1.53899884223938,1.556485295295715,3.601543426513672,0.0675377026200294,-0.346644639968872,0.2060056924819946,-0.1085059940814971,-0.1319292932748794,0.0799520731151103,0.8400953412055969,-0.1825832850228063,0.9851453018322588,216
1734064274380309000,0.1507154621243476,-0.4056207820415496,0.0492307716369628,5.679913768374919,3.58152957649976,7.147140868377685,1.7400423288345337,0.3398469090461731,-2.3549325466156006,-0.8244384794749807,-0.3181482254972662,0.1854155810735333,-0.4297721755277967,-1.0912340879440308,1.3290681838989258,3.9212818145751953,0.100815013051033,-0.1176464557647705,-0.1118754148483276,-0.0818348601460456,-0.077840968966484,0.2202706443876028,0.9795758724212646,-0.3105402229754254,1.1121019949674606,217
1734064274420309000,0.2495756493270397,-0.8230614734753966,0.7190273907661437,5.21548891518712,4.588242859278619,6.922216845226288,1.8306310176849363,0.2513589859008789,-2.4199936389923096,-0.8332733856418096,-0.3526984617780357,0.1505621687697328,-0.3982339182904779,-1.923053503036499,1.567872166633606,4.285094738006592,0.0043482184410095,-0.2697266936302185,0.0549360513687133,-0.0251732543110847,-0.0678805559873581,0.5887047283291816,1.0655258893966677,-0.2966751445563509,1.0024024338424204,218
1734064274460309000,0.6813885649845004,-0.7921990099608898,0.8134662543952464,4.586902550585568,5.592274647888541,6.622475189238786,1.8649342060089111,0.6377237439155579,-2.6650149822235107,-0.8395616946983592,-0.3875150532018818,0.1103621590950982,-0.3644015885350732,-1.759786605834961,1.6873332262039185,4.323821544647217,0.1168993115425109,-0.0150153040885925,-0.0078984498977661,-0.0098806973546743,0.0141861364245414,0.6989438031584024,1.0384440422058103,-0.3935272798722609,0.4746902266144752,219
1734064274500309000,-0.0942798736751079,-1.910374771884084,0.3435071479558944,3.7554628326043487,6.495719863894581,6.314468978253006,1.661082148551941,0.7152168154716492,-2.637372732162476,-0.8452714316955765,-0.4169533055243477,0.0648199957626675,-0.3278180749286057,-1.8520890474319456,2.05277156829834,4.355510711669922,0.166644275188446,-0.0422008037567138,-0.0361300110816955,-0.0991751700639724,0.1372653841972351,0.850500392282009,0.9161306023597716,-0.3376944796217605,0.0554234887972474,220
1734064274540309000,-0.723970984648168,-1.2647995708197357,0.5022545253664255,2.904789421842992,7.221274610602856,5.965382568860053,1.5930168628692627,0.6515188813209534,-2.220747232437134,-0.8474389892855112,-0.4420118917022944,0.0218090759111719,-0.293252709114829,-2.410198926925659,2.12851881980896,4.420568943023682,0.3002538681030273,0.0757175087928772,-0.1085578799247741,-0.2869141697883606,0.1273122727870941,0.4337579122453928,0.8373579978942871,-0.3040406135567464,0.2072054111093282,221
1734064274580309000,-1.192182662898302,-1.2461030536562203,-0.074521864759922,2.221689376765489,7.786014525976777,5.532852737104893,1.7441749572753906,0.7844440937042236,-1.4167132377624512,-0.8425756181603208,-0.4665811862125472,-0.0143181834439084,-0.2686323154828732,-2.606173038482666,1.723857879638672,4.578232288360596,0.4642947316169739,0.1753216981887817,-0.1642508208751678,-0.3739839196205139,0.3015839159488678,0.7897574620276689,0.8645925521850586,0.1259611427592113,0.4527987128019333,222
1734064274620309000,-0.612018383899331,-1.23174310439229,-1.671110673213005,1.630451915088296,8.239121866336465,5.062496740302443,1.5908328294754028,1.2073845863342283,-0.9801191091537476,-0.831623797068955,-0.4890905844208828,-0.0517195009000006,-0.2579094443264544,-2.293054580688477,1.0041357278823853,4.538127422332764,0.4583579897880554,0.48511403799057,-0.2361097186803817,-0.3702930510044098,0.2101339101791381,0.2912853778094053,0.8156810998916626,0.3410166463144123,0.5065982536591589,223
1734064274660309000,-1.5643898356378076,-1.5477473283946512,-2.5144655776545406,1.1591712777215988,8.567246736243368,4.629144193987548,1.3090037107467651,0.954956591129303,-0.5029032826423645,-0.8192504991976753,-0.5066511218504269,-0.0853462226241913,-0.2546549626965432,-2.7559797763824463,0.2757467627525329,3.28338885307312,0.4106164574623108,0.6446590423583984,-0.1357008814811706,-0.2642772197723388,0.0326100587844848,0.1998258222520351,0.5459036827087402,0.8045727538436651,0.270293443185091,224
1734064274700309000,-1.193331540672481,-1.6130074438124895,-2.832002710312605,0.9094690063402056,8.778254462245107,4.276154931937158,0.9484893083572388,0.6520236730575562,-0.0810242891311645,-0.8076853371386734,-0.5200047058368918,-0.1075726609490357,-0.256257053969958,-2.970447301864624,-0.3498687744140625,1.090581297874451,0.1815721988677978,0.814700722694397,-0.1112266778945922,-0.1916595101356506,0.0138685461133718,-0.6646019730955361,0.1794367432594299,0.5321718900505453,-0.0302957695424556,225
1734064274740309000,0.5480704470586031,-1.2406938880890608,-2.776090853476524,0.7880437169123441,8.90902369940579,4.022273109848797,0.5773678421974182,0.4955061376094818,-0.1460549682378769,-0.7988041492020569,-0.5293637140664061,-0.1212237593543363,-0.2588259935746265,-2.095106363296509,-0.2526710927486419,-0.5723119974136353,-0.0646834373474121,0.7933556437492371,-0.1588716357946396,-0.2251910865306854,0.1285757720470428,-0.4918073656320572,-0.0094956308603286,0.5138436216775327,0.3638485097169875,226
1734064274780309000,-0.0108094902407377,-0.7375584882348776,-1.809799597457051,0.6852261703860014,8.99037161079347,3.85669267154783,0.4641164541244507,0.2067590057849884,-0.0700665488839149,-0.793434932587533,-0.535064497462285,-0.1306498604718582,-0.2590322745735415,0.2510688900947571,0.1410200148820877,-1.3312031030654907,-0.1154460310935974,0.6007652282714844,-0.127609834074974,-0.2440928071737289,0.1506840586662292,0.1814063684642314,-0.0405867621302604,0.6753397863395512,0.2113362273037433,227
1734064274820309000,0.4908997492678463,-0.458338226750493,-1.8986030855476848,0.6506855298154056,9.041700816014409,3.74094126303792,0.122815653681755,0.2323371767997741,0.0017435135086998,-0.7893479821272368,-0.5393067402519873,-0.135695679557939,-0.2601243980901156,1.6615756750106812,0.3560410737991333,-1.587692141532898,-0.1460787057876587,0.4745768010616302,0.0103769153356552,-0.2813867330551147,0.1666494756937027,-0.2419090602219104,-0.1783549189567566,0.5960454464808106,0.0481741021908819,228
1734064274860309000,0.3167086459446698,-0.6284551394373178,-1.0835773267507554,0.6170300015162676,9.033599927145245,3.766130941613018,-0.1218554154038429,0.1728173047304153,0.0665507391095161,-0.789146348630089,-0.5371946805145823,-0.1392933577241217,-0.2631869311319715,2.1936941146850586,0.3056004345417022,-1.6769713163375854,-0.0305836796760559,0.365097165107727,0.0720478445291519,-0.3404329717159271,0.1630737483501434,-0.3008732903659343,-0.3295741677284241,0.5939932631913573,-0.0124960550881922,229
1734064274900308700,0.6760036570757627,-0.5723521439433098,-0.9315230172380804,0.6575666676312685,9.027624944388863,3.773589440925419,0.1166440993547439,-0.3353467881679535,-0.0125422785058617,-0.7893162728934419,-0.5374613783637759,-0.1368785804292867,-0.263399504376602,2.0361366271972656,0.1628199517726898,-1.6939005851745603,0.1002331972122192,0.2564066648483276,0.1561272889375686,-0.416568249464035,0.1688825637102127,-0.5472644644379615,-0.365134060382843,0.5736562853444367,0.367535819927603,230
1734064274940309000,1.4560554253861306,-0.1312690033763647,-1.1802432187795635,0.6306408859785646,9.05909735649526,3.702085754942894,0.1314942836761474,-0.2475837022066116,-0.3455710411071777,-0.7892751184557992,-0.5412709866902644,-0.1351735188804702,-0.2565126089715787,1.647779941558838,0.0314910188317298,-1.82062828540802,0.0817900896072387,0.1462713479995727,0.1994383633136749,-0.4638757705688476,0.1896203756332397,-0.3910650179445743,-0.3032696843147278,0.6045311699490994,0.5259942973941564,231
1734064274980309000,0.535245890668407,0.2832914564460516,-1.021964627924561,0.4991986814597621,9.073248631444573,3.6874592636972654,2.56716739386e-05,-0.2559188902378082,-0.4224223792552948,-0.7923866595293633,-0.5418610647805786,-0.1355673011255832,-0.2452174176769351,1.4917714595794678,0.1364146620035171,-1.9086016416549685,0.0565326809883117,0.0493337213993072,0.1887652277946472,-0.4757294952869415,0.2194163650274276,-0.409896559664607,-0.2575613260269165,0.6280106105402111,0.5929229305461049,232
1734064275020309000,-0.0528883808290585,0.1135743567317724,-0.6905342867314815,0.4254859776582568,9.086444797626138,3.664132748645544,0.09519574791193,-0.1007667481899261,-0.1420269757509231,-0.7936460457612462,-0.5428752725016708,-0.1358957532086107,-0.2386310109993334,1.6748783588409424,0.2229500859975814,-1.87125825881958,0.0343424677848815,-0.026908665895462,0.1839062720537185,-0.4706133306026459,0.211254671216011,-0.174780812844634,-0.2317176610231399,0.683236019482091,0.426120256973803,233
1734064275060309000,0.3825510912951081,0.4175064501464366,-1.00566757311821,0.3997543376935645,9.099145873767135,3.635399113853276,0.0366554632782936,-0.0848412215709686,-0.1491873115301132,-0.7936102329168928,-0.5442162940792797,-0.1359222553815099,-0.2356619853124466,1.5263330936431885,0.2371700406074524,-1.6524803638458252,0.054398238658905,-0.1360488831996917,0.2368902862071991,-0.4057390093803406,0.2030053883790969,0.5099906725764274,-0.2848834991455078,0.7503898396920412,0.1398503692388534,234
1734064275100309000,0.9305661549046635,1.3613859678715468,0.1271831953674554,0.3060389295008033,9.1171368730098,3.599242051061988,0.2083937376737594,0.1707791835069656,-0.3126111328601837,-0.7935165631266251,-0.5449552728120279,-0.1396906271617272,-0.2320382526062338,1.2378206253051758,0.1114605292677879,-1.3118371963500977,0.0474231243133544,-0.1611023843288421,0.2293555438518524,-0.2387096285820007,0.0152064561843872,0.7892775695562362,-0.2807589471340179,0.7461215877883136,0.2061106016099453,235
