time_imu,phone_acc_x,phone_acc_y,phone_acc_z,phone_gravity_x,phone_gravity_y,phone_gravity_z,phone_gyro_x,phone_gyro_y,phone_gyro_z,phone_ori_w,phone_ori_x,phone_ori_y,phone_ori_z,watch_gyro_x,watch_gyro_y,watch_gyro_z,watch_acc_x,watch_acc_y,watch_acc_z,headphone_gyro_x,headphone_gyro_y,headphone_gyro_z,headphone_acc_x,headphone_acc_y,headphone_acc_z,frame_imu
1724754370979070500,0.1555434850689954,16.188217999535798,5.892205104446411,0.0018751750486335,9.769715815356372,0.8503153911039233,0.1904065757989883,-0.3445599377155304,-0.5202862024307251,0.4275464678052585,0.392056562965965,0.5503977018512229,0.600464889181603,-2.825691699981689,-1.1691498756408691,-0.7023691534996033,2.290201187455654,-0.6336801806092262,0.6497018525402992,-0.5478851795196533,-0.1224168464541435,18.944983390295505,-0.7869775295257568,-1.6987383925899862,-0.1595450305942446,0
1724754371018840600,-1.7245633003287015,9.717460142940284,3.851724527746439,-0.1252566020858939,9.79872388317585,0.373742236819677,1.90557861328125,-0.0743426755070686,-0.0304654296487569,0.4240552798786196,0.4009911851285535,0.5658184502429372,0.5824367233580569,-2.825691699981689,-1.1691498756408691,-0.7023691534996033,2.290201187455654,-0.6336801806092262,0.6497018525402992,-0.6100525259971619,0.0711133629083633,13.401118260788916,-0.1622353494167328,-2.0125418916776776,1.9024277584023768,1
1724754371058609400,-1.3809908320516346,1.2128081022977828,2.18545135769248,0.0216827162003377,9.799322433590888,-0.3784268875045701,1.823266625404358,-0.0466440878808498,0.7039371728897095,0.4044081885136184,0.4216209939386665,0.5844057998822489,0.5631693042201081,-2.825691699981689,-1.1691498756408691,-0.7023691534996033,2.290201187455654,-0.6336801806092262,0.6497018525402992,-0.5415909290313721,-0.7134475111961365,3.150653649431467,-0.5174803733825684,0.0985139493145979,-0.2130958573874086,2
1724754371098375700,1.776183159059286,-4.346006174537539,0.651410044697672,0.2617314396101981,9.744031923523544,-1.0750344662677496,1.710124135017395,0.4315012991428375,0.3687876462936401,0.3816101315116151,0.442263388768521,0.599345141670836,0.5473226457147201,-2.825691699981689,-1.1691498756408691,-0.7023691534996033,2.290201187455654,-0.6336801806092262,0.6497018525402992,-0.4812197685241699,-0.8333604335784912,-9.225431243512034,-0.7324410676956177,0.4084550921520218,-0.95744714756757,3
1724754371138144500,0.8667337342023849,-6.72152008535862,-3.3039784172713755,0.3864812338182702,9.681799631494282,-1.511210618636012,0.287254273891449,0.8090163469314575,0.1732402592897415,0.359503157971006,0.4448336478232296,0.6157705101535699,0.5419475401052678,-2.825691699981689,-1.1691498756408691,-0.7023691534996033,2.290201187455654,-0.6336801806092262,0.6497018525402992,-0.2075572460889816,-0.1748914569616317,-9.33946678801477,-0.4390042424201965,0.202681887536589,1.0084016742572188,4
1724754371177914400,1.0294145055390893,-7.818927200019359,-1.9621403226956724,0.4316471671691164,9.722765263611077,-1.204939341684058,-1.7139971256256104,0.2897198796272278,-0.2299372404813766,0.3590327932824527,0.4337499833223072,0.6109793455750552,0.5564714933305783,-2.825691699981689,-1.1691498756408691,-0.7023691534996033,2.290201187455654,-0.6336801806092262,0.6497018525402992,-0.0937738418579101,-0.1698050796985626,-10.382481218230724,0.2855454683303833,0.2515798835552297,1.257295478799939,5
1724754371217684500,1.22129462948367,-8.10585730522871,0.4592775168946013,0.1984670097879134,9.798708101084827,-0.3410637733917683,-2.44461441040039,0.0920054614543914,-0.956003725528717,0.3820561606963041,0.4076671810651291,0.5926186653842325,0.5802100937735103,-2.825691699981689,-1.1691498756408691,-0.7023691534996033,2.290201187455654,-0.6336801806092262,0.6497018525402992,-0.017714150249958,0.195431962609291,-10.422372499114276,0.1008748039603233,0.3096211353691294,0.0414212395303417,6
1724754371257453600,0.322752236957848,-8.640029648381471,1.6873153735607862,-0.2075313185954466,9.791042096501588,0.5126567134479061,-1.7293531894683838,-0.4096810221672058,-1.0131744146347046,0.4129252280056115,0.3797936419060561,0.5741241776743403,0.5963480665286502,-2.825691699981689,-1.1691498756408691,-0.7023691534996033,2.290201187455654,-0.6336801806092262,0.6497018525402992,-0.2034116983413696,-0.1499315202236175,-9.3634333545357,-0.4650020599365234,0.7112091182306408,-0.748078128683567,7
1724754371297223700,-0.6429875957239419,-9.158051067200304,1.9681958233423529,-0.4903681631417945,9.750317871925237,0.9280401435583828,-0.3431730568408966,-0.8236177563667297,-0.4763696193695068,0.4371559964574624,0.3698047923449447,0.5620743154970649,0.5968347194898612,-2.825691699981689,-1.1691498756408691,-0.7023691534996033,2.290201187455654,-0.6336801806092262,0.6497018525402992,-0.3095675110816955,-0.1585341840982437,-9.733715696692466,-0.4887213408946991,0.3965013637796044,0.5098848741143942,8
1724754371336992500,-1.1295550879411398,-9.350347078469396,0.7783879267513751,-0.520049746308662,9.753470782998203,0.8773517204590141,0.5661763548851013,-0.7542703747749329,0.1238067597150802,0.4470492346781519,0.379527710401062,0.5578765342640496,0.5872644156190793,-2.825691699981689,-1.1691498756408691,-0.7023691534996033,2.290201187455654,-0.6336801806092262,0.6497018525402992,-0.2284628003835678,-0.0731365159153938,-9.790745743903518,0.0327479429543018,0.3544815829673782,1.096833552556485,9
1724754371376762600,-0.2751723378004506,-9.26292890725732,-1.2502338698506354,-0.3962513345412909,9.77857950529158,0.6266940480489284,0.5226536393165588,-0.3088724315166473,0.3600709736347198,0.4448499815159312,0.3949813123691698,0.5586029516149235,0.5779800454287995,-2.825691699981689,-1.1691498756408691,-0.7023691534996033,2.290201187455654,-0.6336801806092262,0.6497018525402992,-0.2547026872634887,0.0642872005701065,-10.04550084169507,0.6360576152801514,0.5023537479571998,0.9192214618086816,10
1724754371416531500,0.3409554176464676,-7.052099947202206,-3.538586214569211,-0.2619465801982208,9.78133961765468,0.6535727756895124,-0.6903584599494934,0.0627003833651542,0.2593771517276764,0.441944552276639,0.3987026315152891,0.5547190929515516,0.5813844809579878,-2.825691699981689,-1.1691498756408691,-0.7023691534996033,2.290201187455654,-0.6336801806092262,0.6497018525402992,-0.275571197271347,0.7442001700401306,-4.143754001921415,0.8698089718818665,0.3395098584806546,1.5214662013210356,11
1724754371456301600,1.694825895321369,-0.9868675955802202,1.3377550630457695,-0.27685996209383,9.752789230474828,0.9883617065954952,-0.5782329440116882,-0.2066325545310974,-0.4852759838104248,0.4494844402454233,0.3909508097857121,0.5447614548382221,0.5902171368336707,-2.825691699981689,-1.1691498756408691,-0.7023691534996033,2.290201187455654,-0.6336801806092262,0.6497018525402992,0.0103656044229865,0.1907137930393219,0.3517345127489417,1.0206815004348757,0.906820610723272,1.0389850285694002,12
1724754371496071700,1.2244181683316826,7.555019658479094,0.6855857244133949,-0.5745422743987292,9.747726686388251,0.9067082363899795,1.0176215171813965,-0.5029507875442505,-0.9697253704071044,0.4630165543876694,0.3903899831996912,0.548968492012397,0.576059853432479,-2.825691699981689,-1.1691498756408691,-0.7023691534996033,2.290201187455654,-0.6336801806092262,0.6497018525402992,0.0323292016983032,0.3796205222606659,10.40785297537446,0.6676316857337952,0.4376003399524837,-0.3548248069144785,13
1724754371535840500,-3.2749513524904845,13.14456225105524,-1.5521628067493438,-0.7664610498532652,9.771987851941583,0.3019406456028111,1.673391580581665,0.3956116735935211,0.1155505403876304,0.4571864095198922,0.3999939507667471,0.5697456895878813,0.5535117394092396,-2.825691699981689,-1.1691498756408691,-0.7023691534996033,2.290201187455654,-0.6336801806092262,0.6497018525402992,-0.0052311914041638,0.3827134668827057,14.472176297706364,0.3598507344722748,-0.3194689044382423,0.1899512565075419,14
1724754371575551700,-1.5330997943609952,16.748544190120697,-5.39253358131051,-0.5878638205256312,9.788787011051175,-0.0666944590698927,0.0031055128201842,0.3522555828094482,0.579582154750824,0.4375371811487692,0.4063893793800148,0.5815910447540413,0.5524135322242263,-2.825691699981689,-1.1691498756408691,-0.7023691534996033,2.290201187455654,-0.6336801806092262,0.6497018525402992,-0.1065488904714584,-0.1225110813975334,17.074980960810183,-0.1569133400917053,-0.403631252192147,0.2005610777240246,15
1724754371615318500,-0.5037420239778235,16.27676020634174,-0.4786673135519027,-0.4416684661742299,9.79564579090476,0.143629056660505,-0.7236391305923462,-0.1368565261363983,0.0657553821802139,0.4383916093656311,0.4066609535553591,0.5721047325894234,0.5613695842682411,-2.825691699981689,-1.1691498756408691,-0.7023691534996033,2.290201187455654,-0.6336801806092262,0.6497018525402992,-0.3922810554504394,0.1580701619386673,16.335023010218144,-0.261187195777893,-1.273005527498573,0.4048797909485176,16
1724754371655086300,-0.5683141936641186,12.82051500585079,4.0090842501908535,-0.4995000024938955,9.789279178482294,0.3015258725231513,0.0234273262321949,0.1010347306728363,-0.1884485334157943,0.4435246833181717,0.4016371200638842,0.5686071425334377,0.5644993446220252,-2.825691699981689,-1.1691498756408691,-0.7023691534996033,2.290201187455654,-0.6336801806092262,0.6497018525402992,-0.4122340381145477,0.1438196301460266,14.169239645069837,-0.2466499656438827,-1.2276662103421985,1.5357256128199397,17
1724754371694854100,-0.4364499278083443,6.019700434502959,5.043309809273481,-0.4887597415644675,9.794001530829073,0.0950956927031744,0.997192084789276,0.1765414774417877,0.2707706093788147,0.437073316908841,0.4046656919381359,0.5756710405094374,0.5601923862488849,-2.825691699981689,-1.1691498756408691,-0.7023691534996033,2.290201187455654,-0.6336801806092262,0.6497018525402992,-0.270610362291336,-0.0668274238705635,8.545932730057835,-0.6271796822547913,-0.7512092663161456,1.0879917821921408,18
1724754371734621000,0.564959841734916,-1.5999416260123251,3.14464242631793,-0.3197039553031325,9.79319956679642,-0.4017854781949892,1.3974686861038208,0.1037239879369735,0.553081214427948,0.4208179441979441,0.4194996523798711,0.586945823362526,0.5499336357131638,-2.825691699981689,-1.1691498756408691,-0.7023691534996033,2.290201187455654,-0.6336801806092262,0.6497018525402992,-0.1343517750501632,-0.8680356740951538,-2.462561787416041,-1.1534032821655271,1.354914872161299,-0.7876157007586211,19
1724754371774388700,0.1439365608402527,-4.964603352305293,0.1411187817394733,-0.0502634163200622,9.763032392069697,-0.9225262755077333,1.2622907161712646,0.0130095584318041,0.8262816071510315,0.4008085304891777,0.4374017297385021,0.5964188777486177,0.5406632776365662,-2.825691699981689,-1.1691498756408691,-0.7023691534996033,2.290201187455654,-0.6336801806092262,0.6497018525402992,-0.0998987182974815,-0.4389299154281616,-11.294956128388645,-1.2646079063415527,0.7798688129588961,-0.626289120509848,20
1724754371814155500,-0.0694125041232444,-6.894599354982375,-1.695267793869972,0.2956643966112285,9.706289929628372,-1.3678141012229024,0.8557701706886292,-0.0671499148011207,0.9116042256355286,0.3819076132395342,0.4579521432965223,0.6000157877807997,0.5332987088733336,-2.825691699981689,-1.1691498756408691,-0.7023691534996033,2.290201187455654,-0.6336801806092262,0.6497018525402992,-0.0007874888833612,0.3343187272548675,-8.997975071534514,-0.9783133864402772,0.5005443604476749,1.3893285984165966,21
1724754371853923600,-0.4342431384790688,-8.850995288807153,-2.419237901735306,0.6036328694025054,9.685224929767848,-1.4150764953963455,-0.726917564868927,0.3008158504962921,0.5585170984268188,0.3706446865209793,0.4665523444392555,0.5953803276522863,0.5389561741489025,-2.825691699981689,-1.1691498756408691,-0.7023691534996033,2.290201187455654,-0.6336801806092262,0.6497018525402992,-0.0607999972999095,-0.0813189297914505,-8.886763352280855,-0.2770510017871856,0.990517642520368,2.318848751399666,22
1724754371893690400,0.0374232102695852,-9.932644862365722,-1.1148550930678844,0.7166007481411099,9.744550978961586,-0.8370175181135535,-1.979369759559632,0.2152033746242523,-0.012070850469172,0.378188411888814,0.4556506218535492,0.578842402325729,0.5606224269367945,-2.825691699981689,-1.1691498756408691,-0.7023691534996033,2.290201187455654,-0.6336801806092262,0.6497018525402992,-0.2154366970062255,-0.0255464054644107,-10.845436583387851,0.0802217796444892,0.3474888380032032,2.107035846494884,23
1724754371933458200,0.1543388402532786,-9.81183237107396,0.6746446436822414,0.6641787792474031,9.783699917045237,-0.091955969905341,-1.6226911544799805,-0.0901543721556663,-0.2133221626281738,0.3959718646686875,0.4385629258887599,0.558883717649303,0.5818228274447332,-2.825691699981689,-1.1691498756408691,-0.7023691534996033,2.290201187455654,-0.6336801806092262,0.6497018525402992,-0.3913780152797699,0.1295468658208847,-10.266292295086384,0.2111925929784774,0.085325701578008,2.295327590558678,24
1724754371973226000,-0.2272924327831715,-9.902499899470806,1.4101777635693549,0.5795394616315142,9.783687057563665,0.3375893752794712,-0.6021906733512878,-0.1777839511632919,-0.2013296782970428,0.4100092281377535,0.4291917748414802,0.5464267130426322,0.5908507551255998,-2.825691699981689,-1.1691498756408691,-0.7023691534996033,2.290201187455654,-0.6336801806092262,0.6497018525402992,-0.3567090630531311,-0.048184085637331,-9.320326034215093,0.083501860499382,0.4402363144792616,1.7240208640150725,25
1724754372012992800,0.0078369041707366,-9.931782108056543,0.498321825559996,0.5019784118387848,9.784538121435046,0.4256899027325213,0.0170760694891214,0.0005675558932125,-0.2269094586372375,0.4156107281987282,0.4264026684836964,0.5444966661046802,0.5907384043133976,-2.825691699981689,-1.1691498756408691,-0.7023691534996033,2.290201187455654,-0.6336801806092262,0.6497018525402992,-0.3373523950576782,-0.0657283961772918,-10.03061657629609,0.187863290309906,0.2816783952262252,1.274418901427835,26
1724754372052760600,0.571629638355039,-7.994772427225112,-1.0009574957311154,0.3709373719993978,9.789227156034112,0.4514886165840551,-0.314940482378006,0.433630496263504,-0.4543874561786651,0.4179348272519423,0.4201726818036656,0.5481198817560821,0.5902119351516317,-2.825691699981689,-1.1691498756408691,-0.7023691534996033,2.290201187455654,-0.6336801806092262,0.6497018525402992,-0.2976906895637512,0.5513640642166138,-5.476544574427605,0.2667748630046844,0.380445606915839,2.6719927656203506,27
1724754372092522500,-0.0740614259076304,-1.9842443102151155,-0.5618985544681548,0.1518729067974723,9.781859257614611,0.680112334503606,-0.5291330814361572,-0.0400846786797046,-0.6577458381652832,0.4236166429469259,0.4037733798785541,0.5498099487608159,0.5960076121084456,-2.825691699981689,-1.1691498756408691,-0.7023691534996033,2.290201187455654,-0.6336801806092262,0.6497018525402992,-0.2875995337963104,0.0674217417836189,2.510658586587012,0.1444721817970276,1.7094579395249485,0.1225619835739024,28
1724754372132290300,1.5412622041590511,4.61040763707459,-1.5725439159989356,-0.2108340499352663,9.78083809787333,0.679057418623194,0.4600479006767273,-0.4289820194244385,-1.2500827312469482,0.4416938673842813,0.4002863948748207,0.552402487479279,0.5826909169462114,-2.825691699981689,-1.1691498756408691,-0.7023691534996033,2.290201187455654,-0.6336801806092262,0.6497018525402992,-1.1743639707565308,0.8124200701713562,3.486904250387848,0.1478351056575775,-0.7556015099257231,-1.979156485556811,29
1724754372172058000,-2.8170757748156783,7.558682857161759,-1.145369400731847,-0.5201424295607954,9.78072528514862,0.487113362596929,0.3996244966983795,0.059280339628458,-0.1683495491743087,0.447956411609154,0.3968605815399157,0.5636184966119957,0.5693602413823036,-2.825691699981689,-1.1691498756408691,-0.7023691534996033,2.290201187455654,-0.6336801806092262,0.6497018525402992,-1.509189248085022,0.1675149649381637,12.473580221533776,-0.0672056674957275,-0.507822023300454,-1.870001114311069,30
1724754372211825000,-1.267589639929682,10.624433533072471,-0.6865595378816127,-0.4346878135066479,9.787782217922809,0.4251427902437746,0.0100000370293855,-0.2079838961362838,0.5031906962394714,0.4448620493860223,0.4013832929909582,0.5632186095820779,0.5690114140769903,-2.825691699981689,-1.1691498756408691,-0.7023691534996033,2.290201187455654,-0.6336801806092262,0.6497018525402992,-1.1645749807357788,-0.0802489966154098,11.29399049822688,-0.3207046389579773,-0.0440043787581846,-1.0276138127926735,31
1724754372251593000,-1.1500655226588248,11.134779594957829,2.257694756126404,-0.2194177356190048,9.79997008384466,0.2877905031646601,0.7693489193916321,0.0538816004991531,0.4468304216861725,0.4372649974637336,0.4121467573625478,0.5616598776657316,0.5687464721971908,-2.825691699981689,-1.1691498756408691,-0.7023691534996033,2.290201187455654,-0.6336801806092262,0.6497018525402992,-0.7613951563835144,-0.2038675248622894,9.136107530939578,-0.6048792004585266,0.1112580700128804,-2.051987328489869,32
1724754372291359700,-0.8600327021937817,7.906215022850036,1.103227783638239,-0.1293712069310247,9.805788414734602,-0.0120707526230078,0.5319445133209229,1.6664562281e-06,0.1317816227674484,0.4264427242894821,0.4194878631823073,0.5697765963740609,0.5634989923007399,-2.825691699981689,-1.1691498756408691,-0.7023691534996033,2.290201187455654,-0.6336801806092262,0.6497018525402992,-0.6264446973800659,-0.0646172240376472,6.70415510905981,-0.4035955965518951,-0.1766233902377076,-1.855745502204448,33
1724754372331127300,-1.1911350535415113,5.584025290459394,1.2998948495984075,-0.0349956954282941,9.80605261862874,-0.102494168924028,0.0316423848271369,-0.5118593573570251,0.3261452317237854,0.4249742792256961,0.4274152381914916,0.5679277793936024,0.5605097653161384,-2.825691699981689,-1.1691498756408691,-0.7023691534996033,2.290201187455654,-0.6336801806092262,0.6497018525402992,-0.5191239714622498,0.0204575229436159,4.07081356113404,-0.1915274858474731,0.0450276939239352,-1.116317932162061,34
1724754372370895400,0.1322898525903932,3.3060300891041754,2.0859622249364853,0.0698705272561637,9.80536580540836,-0.1424691825682763,0.3058193325996399,-0.4329842329025268,0.2056031227111816,0.4269543768822543,0.4372201385580408,0.5622298971616297,0.5571768073721743,-2.825691699981689,-1.1691498756408691,-0.7023691534996033,2.290201187455654,-0.6336801806092262,0.6497018525402992,-0.2620245516300201,0.0673534795641899,0.8643374867156147,-0.0047027915716171,0.2193017445565201,0.2250002484590746,35
1724754372410662100,0.1804754442896693,0.3604325637936592,0.8162415643274784,0.1536652883732691,9.798612824016809,-0.3659815031576901,0.7559060454368591,0.0054976441897451,0.2721601724624634,0.4214795051563547,0.4464300098268081,0.5651195533056524,0.551085395830177,-2.825691699981689,-1.1691498756408691,-0.7023691534996033,2.290201187455654,-0.6336801806092262,0.6497018525402992,-0.0113522997125983,0.1993653774261474,-1.8862090295292435,0.3194532692432403,0.1010504546554293,0.5691571472942829,36
1724754372450430000,0.8322212968129664,-2.092880041500926,-1.508890651255846,0.2722538382715545,9.784403681400418,-0.6014487302964553,0.2919498682022095,0.1221880465745925,0.248644471168518,0.4120485273995908,0.4541623125968351,0.5695629420645492,0.547312375432602,-2.825691699981689,-1.1691498756408691,-0.7023691534996033,2.290201187455654,-0.6336801806092262,0.6497018525402992,0.0352762565016746,0.2393456846475601,-3.143012487028539,0.3730494976043701,0.3380086236048489,0.5046330545334146,37
1724754372490197000,2.45513222193718,-2.8542396765619515,-2.056184341788292,0.2530091309070587,9.787697462248802,-0.5543925262195989,-0.4617260694503784,-0.2851788699626922,-0.3930060863494873,0.4125640405305934,0.4514554811114722,0.5696087268458985,0.5491127343434552,-2.825691699981689,-1.1691498756408691,-0.7023691534996033,2.290201187455654,-0.6336801806092262,0.6497018525402992,0.0603356584906578,0.2078617960214615,-3.333018633794784,0.3639859855175018,0.2466263528010807,0.2311797042789868,38
1724754372529964800,0.8392953999176621,-3.2374960665822026,-1.113500171327591,0.0733442129824077,9.80239701873064,-0.2793263704736717,-0.8918452262878418,-0.3875043392181396,-0.4594608843326568,0.4283911058420691,0.4449918484585926,0.5623379198141771,0.5497630539321601,-2.825691699981689,-1.1691498756408691,-0.7023691534996033,2.290201187455654,-0.6336801806092262,0.6497018525402992,0.1866961568593979,0.3567267954349518,-3.277004193367064,0.3128292560577392,0.1210245996724814,0.5863980222893879,39
1724754372569732600,0.146507872632984,-3.28718510338068,0.0364712433069944,-0.1219674243473913,9.805698398363589,0.0616913855190155,-0.7200276851654053,0.0927216261625289,-0.4143789112567901,0.4414848906807633,0.4318204667201969,0.5571226966655207,0.5551905557661808,-2.825691699981689,-1.1691498756408691,-0.7023691534996033,2.290201187455654,-0.6336801806092262,0.6497018525402992,0.2384128421545028,0.3877397179603576,-2.038341518844664,0.1759468764066696,0.0771968561228364,0.3575018806366249,40
1724754372609499400,-0.2584069348299875,-2.3326105886399744,0.3665758888542652,-0.2548499730007723,9.800125566667315,0.2509784835959784,-0.2077311873435974,0.1874573528766632,-0.2997998595237732,0.4473953036399301,0.4217727291992182,0.5561577321452954,0.5591367318364487,-2.825691699981689,-1.1691498756408691,-0.7023691534996033,2.290201187455654,-0.6336801806092262,0.6497018525402992,0.1918869763612747,0.2374377399682998,-0.5613343447141349,0.132954403758049,0.1096610192129388,0.2494179562809877,41
1724754372649202700,-0.2871098456904292,-1.4462836806952952,0.8952198239743709,-0.3717446332616731,9.798156312420964,0.1682545711473561,0.6132830381393433,0.2968776226043701,-0.3105672597885132,0.4469053660305543,0.4182750156796602,0.5625543671383718,0.5557464712650491,-2.825691699981689,-1.1691498756408691,-0.7023691534996033,2.290201187455654,-0.6336801806092262,0.6497018525402992,0.1554759591817855,0.069349505007267,0.3267344749944284,-0.0088448040187358,0.1307504411286674,-0.2807838027403689,42
1724754372688967000,-0.3914357144204899,-0.416565954425931,-0.2924175967097282,-0.479903979207389,9.793456756427885,-0.1681662718093954,0.9966185092926024,0.2899826169013977,-0.2590105533599853,0.4386512891281124,0.4184778435077537,0.5774516329166377,0.5468189375814653,-2.825691699981689,-1.1691498756408691,-0.7023691534996033,2.290201187455654,-0.6336801806092262,0.6497018525402992,0.1397644728422165,-0.2053037583827972,0.4223452684797346,-0.130654826760292,0.3527134042510763,-0.1396603996247053,43
1724754372728732700,0.3571804301299154,-0.1535544849425554,-2.003454622119665,-0.6025858080349862,9.77315689572096,-0.5409829364830627,0.7977378368377686,-0.502179741859436,-0.366830050945282,0.4347768867368865,0.4239697333824113,0.5897729386513099,0.5323406320349866,-2.825691699981689,-1.1691498756408691,-0.7023691534996033,2.290201187455654,-0.6336801806092262,0.6497018525402992,0.2254083901643753,-0.1668559163808822,-0.5591122847504914,-0.0307835862040519,0.2794535405172966,0.2213186008042655,44
1724754372768498000,0.282257437223196,-0.1298655663192272,-1.1533879450798037,-0.749276544687897,9.756052616184949,-0.654533656610921,-0.2897132933139801,0.0602802075445652,-0.4132597148418426,0.4393427944863107,0.4255107891610611,0.593559178535253,0.5230736400847119,-2.825691699981689,-1.1691498756408691,-0.7023691534996033,2.290201187455654,-0.6336801806092262,0.6497018525402992,0.3151939511299133,-0.0145472483709454,-0.8604884831372648,0.1168491691350936,0.2216799083973281,0.4097857927665114,45
1724754372808262700,0.8199917106412351,0.2857809351742267,-0.8226689670264721,-0.9637930094629524,9.750860892760754,-0.4027131874991581,-0.8118618130683899,0.0562554150819778,-0.6731308102607727,0.4506501425913555,0.413395183565424,0.5913011763699275,0.5257201799874969,-2.825691699981689,-1.1691498756408691,-0.7023691534996033,2.290201187455654,-0.6336801806092262,0.6497018525402992,0.3375763893127441,0.0675320327281951,-0.4472746156182139,0.1726623028516769,0.2454974766353145,0.419919758365862,46
1724754372848028000,0.6903305077876896,0.5281482605576515,-0.6908569428145885,-1.2218433494076133,9.72995722094178,-0.0734917042948538,-0.9641227722167968,-0.0091139627620577,-0.5638490319252014,0.465394512328582,0.398855335805654,0.5870787469402866,0.5288297130155437,-2.825691699981689,-1.1691498756408691,-0.7023691534996033,2.290201187455654,-0.6336801806092262,0.6497018525402992,0.3388784527778625,0.0587504804134368,0.1614995804618112,0.0611400455236434,0.2773759122593328,0.1841502603448927,47
1724754372887792600,-0.282386032038927,-0.1089157172709703,1.1726812590926885,-1.3992412128828464,9.703678870347142,0.2261314444460906,-0.6042217016220093,0.3953460156917572,-0.1609974503517151,0.47291444052052,0.3825711156350517,0.5849015700766523,0.5365458669260911,-2.825691699981689,-1.1691498756408691,-0.7023691534996033,2.290201187455654,-0.6336801806092262,0.6497018525402992,0.273947924375534,-0.0041944803670048,0.2714674006015993,-0.0146345291286706,0.3484035051627084,0.4294624800737947,48
1724754372927558000,-0.1383915487326681,-0.1804389847368001,1.492597688102722,-1.331797908207029,9.711157243403791,0.3002100224179215,0.1488291621208191,0.4134238660335541,0.3717439770698547,0.4675703878649826,0.3774897407347536,0.5849743966288629,0.5446874066330131,-2.825691699981689,-1.1691498756408691,-0.7023691534996033,2.290201187455654,-0.6336801806092262,0.6497018525402992,0.2879829406738281,-0.0023586158640682,0.1695912813775241,0.0489389784634113,0.2477470273940824,0.5573649661591277,49
1724754372967323600,-0.6161820063848048,-0.959683236056566,0.2370394083589315,-1.221666896862164,9.73024188310206,0.0173446242055913,0.9798243641853333,0.0090621886774897,0.3065334856510162,0.4560676561393178,0.3844154096097317,0.5927397937998511,0.5411899905508061,-2.825691699981689,-1.1691498756408691,-0.7023691534996033,2.290201187455654,-0.6336801806092262,0.6497018525402992,0.2903219163417816,0.0922743827104568,0.0037523399833095,0.0945334881544113,0.0677010377299739,0.6019593466997146,50
1724754373007087900,0.3803365570507943,-0.392777667081356,0.1196703720519319,-1.1244841413524,9.7370463024199,-0.3095602354947477,0.6155216693878174,0.3677946031093597,0.2389104664325714,0.4453811766265769,0.3933300439129932,0.6008948796520907,0.5346515847536052,-2.825691699981689,-1.1691498756408691,-0.7023691534996033,2.290201187455654,-0.6336801806092262,0.6497018525402992,0.3286127150058746,0.100856564939022,0.0960421523735858,0.0956729874014854,0.1174775655822362,0.6587110153608023,51
1724754373046853600,-0.3422597051780671,-0.0350362420678138,-0.0101204119980335,-0.9669195439856498,9.746217450869082,-0.496701932740584,0.2851367890834808,0.5949570536613464,0.4766914844512939,0.4324080123363299,0.3969635493302444,0.6064195669064173,0.5363754532103614,-2.825691699981689,-1.1691498756408691,-0.7023691534996033,2.290201187455654,-0.6336801806092262,0.6497018525402992,0.4465409815311432,0.0598475076258182,0.1449124384013936,0.030499355867505,0.2207828134271316,0.6405410062894225,52
1724754373086607000,0.5566292357631027,-0.4280541476458311,-1.2773042476058003,-0.7664213023647666,9.759902861872314,-0.5720671529894694,-0.0747871547937393,0.1995443105697631,0.4700513780117035,0.4215202791245639,0.400562684255897,0.6072205883694931,0.5414363106216046,-2.825691699981689,-1.1691498756408691,-0.7023691534996033,2.290201187455654,-0.6336801806092262,0.6497018525402992,0.6051427721977234,0.0527093335986137,0.019840275804582,-0.1366787552833557,0.2604361391026527,0.569974418493919,53
1724754373126372400,0.6386296927753835,0.5632014537602663,-0.3082370971322059,-0.6583817834064364,9.76867653543651,-0.5566677776752039,0.0737474635243415,0.1273272484540939,0.1084296628832817,0.4159035741560113,0.4003287625823606,0.6067281428755963,0.5464815329236904,-2.825691699981689,-1.1691498756408691,-0.7023691534996033,2.290201187455654,-0.6336801806092262,0.6497018525402992,0.8520182371139526,0.0588393323123455,-0.1818257994526997,-0.2098395228385925,0.2145335437740199,0.6650682754330337,54
1724754373166137900,0.2305691894315183,0.0118663788825273,0.2989607347428799,-0.6781351892117411,9.760965522667766,-0.6588391717851162,0.3047928214073181,-0.124479167163372,-0.1521463990211486,0.4147582795415504,0.4023371679164271,0.6096853716171251,0.5425717574215977,-2.825691699981689,-1.1691498756408691,-0.7023691534996033,2.290201187455654,-0.6336801806092262,0.6497018525402992,1.0148295164108276,0.1211680918931961,-0.250271997560747,-0.204739823937416,0.1544573155337944,0.5381737608138472,55
1724754373205902300,-1.2324173503920437,0.454817066887021,0.1036485174577683,-0.6467318968188017,9.758099611842631,-0.7291333358474076,0.0627679079771041,0.3149299621582031,0.2891631424427032,0.410380978592531,0.4024914039569506,0.6125162227677868,0.5425975694893043,-2.825691699981689,-1.1691498756408691,-0.7023691534996033,2.290201187455654,-0.6336801806092262,0.6497018525402992,1.087369084358215,0.1163743957877159,0.0017864050678035,-0.1222084611654281,0.112040836154716,0.2430499008201062,56
1724754373245667800,-0.2186756302811205,0.3700876963675022,-0.4081551958899945,-0.5203843485578894,9.764867206281425,-0.7395652249474078,-0.1061503961682319,0.16832235455513,0.2973558902740478,0.404410877692768,0.4041639994764178,0.6118486679254643,0.5465752518534269,-2.825691699981689,-1.1691498756408691,-0.7023691534996033,2.290201187455654,-0.6336801806092262,0.6497018525402992,1.0663957595825195,0.0094762658700346,0.1725599584573879,-0.1455735564231872,0.1192588047095108,-0.0490744211646262,57
1724754373285433600,0.0820499587098136,-0.2408066519379615,0.1404361332375556,-0.4000297571014612,9.775264681655168,-0.6741932466529309,-0.1666706055402755,0.2401008754968643,0.3192740678787231,0.4000547348377514,0.4039994573266413,0.6092279753294699,0.5527945432832246,-2.825691699981689,-1.1691498756408691,-0.7023691534996033,2.290201187455654,-0.6336801806092262,0.6497018525402992,0.967822253704071,0.0194132272154092,-0.0283070799432694,-0.1218184158205986,0.0064821548187348,-0.109947882463457,58
1724754373325197800,0.8357251402154564,-0.7147697333216667,0.7058676110722124,-0.2679997975562699,9.77996365312636,-0.6714500123593956,0.1344739496707916,0.4091673493385315,0.2453229427337646,0.392106248299459,0.4033940030068846,0.609514314780923,0.5585858564348041,-2.825691699981689,-1.1691498756408691,-0.7023691534996033,2.290201187455654,-0.6336801806092262,0.6497018525402992,0.8524731993675232,0.0055746873840689,-0.017933542567538,-0.0984735265374183,0.0772532990178093,-0.1743456362977624,59
1724754373364963600,0.8353185321759432,-0.6021124914348125,0.2272013934988528,-0.1854423277157358,9.775345345675944,-0.7606594509024173,0.24250228703022,0.5199628472328186,0.1455214470624923,0.3825804499188757,0.4019241857197617,0.6141984927967213,0.561114301366502,-2.825691699981689,-1.1691498756408691,-0.7023691534996033,2.290201187455654,-0.6336801806092262,0.6497018525402992,0.6767761707305908,-0.0166517961770296,-0.0359231855367543,-0.0596433319151401,0.0734995040088193,-0.3551210864473134,60
1724754373404727800,0.68400020878762,-0.4678735323369503,0.0519054707389324,-0.1147790106806438,9.768001412653922,-0.8621935334894806,0.2653993368148803,0.5500494241714478,0.1437379568815231,0.3727994719885882,0.3998985287594163,0.6197102569484044,0.5630817310819294,-2.825691699981689,-1.1691498756408691,-0.7023691534996033,2.290201187455654,-0.6336801806092262,0.6497018525402992,0.4935546815395355,-0.0596612580120563,0.0117721863766084,-0.0801164358854293,0.1165345582442358,-0.3556876342888921,61
1724754373444493600,1.106753546611592,-0.2456616907536983,-0.49957916867733,-0.0706629151762928,9.759470900195836,-0.9581905863460152,0.1630624532699585,0.4698420464992523,-0.0736907869577407,0.3635790939089548,0.3965019566946976,0.6258117310369962,0.5647620454344989,-2.825691699981689,-1.1691498756408691,-0.7023691534996033,2.290201187455654,-0.6336801806092262,0.6497018525402992,0.3485229313373565,-0.0923626199364662,0.0850134116252884,-0.1023577973246574,0.1398001368889585,-0.1929918845787644,62
1724754373484258800,0.9539153201796112,-0.2478027944356202,-0.8779623997032642,-0.1174410512304399,9.758469614198804,-0.9637766428500414,-0.1484320759773254,0.2678616940975189,-0.3100805282592773,0.3615653038731293,0.3914876275681417,0.6291870724750074,0.5658017578796828,-2.825691699981689,-1.1691498756408691,-0.7023691534996033,2.290201187455654,-0.6336801806092262,0.6497018525402992,0.2451183199882507,-0.1299761086702346,0.0972730915411841,-0.1473282873630523,0.2328563870532438,-0.0246621384365018,63
1724754373524023300,0.0350321138819679,-0.0093558573663234,-0.0048163873057812,-0.2609848590265959,9.764230661943554,-0.8729577963490038,-0.2358547300100326,0.1429747939109802,-0.3924035727977752,0.3661253213354823,0.3836000484135312,0.6303645497210523,0.566960040603759,-2.825691699981689,-1.1691498756408691,-0.7023691534996033,2.290201187455654,-0.6336801806092262,0.6497018525402992,0.1759510934352874,-0.1822767704725265,-0.0107923495929804,-0.1274277716875076,0.3113826651489362,0.242191694821883,64
1724754373563788800,-0.4303062739541753,-0.4822247137725353,-0.0411256449840962,-0.3582838247945532,9.76783482391536,-0.7946003720141946,-0.1705015450716018,0.4481900334358215,-0.1843008249998092,0.3668269316022691,0.3749287361967749,0.6324095098404481,0.570021523603739,-2.825691699981689,-1.1691498756408691,-0.7023691534996033,2.290201187455654,-0.6336801806092262,0.6497018525402992,0.1510370075702667,-0.1147066280245781,-0.2486533103177323,0.0066910157911479,0.3361136036384851,0.3891403700249269,65
1724754373603553300,0.0102373529085889,-0.0560012886852025,-0.0325578692555427,-0.4233869595523923,9.770475109291077,-0.7273025402236729,-0.2130926996469497,0.2356989979743957,-0.2339355200529098,0.3660021759217592,0.3671167421639549,0.6342770753891863,0.5735506927703626,-2.825691699981689,-1.1691498756408691,-0.7023691534996033,2.290201187455654,-0.6336801806092262,0.6497018525402992,0.1118326112627983,-0.0799161717295646,-0.0867904312351718,-0.0159008335322141,0.462965302029252,0.0162730597261223,66
1724754373643318800,-0.2672115149891004,0.2708031462728977,0.6116426093894988,-0.5370905686870217,9.768382520925998,-0.6786795252215116,-0.0074441814795136,0.1175425797700882,-0.2619194388389587,0.3689220096182384,0.3610405171696736,0.6358087537288726,0.5738409838755912,-2.825691699981689,-1.1691498756408691,-0.7023691534996033,2.290201187455654,-0.6336801806092262,0.6497018525402992,0.0069952616468071,-0.0105046601966023,-0.1303739268333185,-0.0956880822777748,0.4616082979297265,-0.1944752002053894,67
1724754373683135200,-0.4728868669869377,0.0479606055706739,0.5405588293194771,-0.5660469793844968,9.76228069691956,-0.7401759772568941,0.3085283041000366,0.1272508800029754,0.0362266413867473,0.3671575315523214,0.3596084464028744,0.6390776447828168,0.5722385219535304,-2.825691699981689,-1.1691498756408691,-0.7023691534996033,2.290201187455654,-0.6336801806092262,0.6497018525402992,-0.1388675570487976,0.0901024341583252,-0.1427015026199631,-0.0361492000520229,0.3743101729007437,-0.0930110684488434,68
1724754373722901500,0.229536302719824,0.2556616912424564,-0.0920457579474896,-0.5633778332404792,9.748509361198543,-0.9052890172418206,0.478375643491745,-0.0162032861262559,-0.0471516698598861,0.363664306836288,0.3623826813707717,0.6440773917848773,0.5670902431119564,-2.825691699981689,-1.1691498756408691,-0.7023691534996033,2.290201187455654,-0.6336801806092262,0.6497018525402992,-0.3148758709430694,0.1287320852279663,0.0131671478663454,0.0033925026655197,0.3126975836724042,-0.2310345601872541,69
1724754373762669000,0.0268253900181502,-0.0597176788598299,-0.2386555383186787,-0.5605825764987618,9.73214157924354,-1.0684292227838188,0.3598080277442932,0.0635304376482963,0.0517608076333999,0.3604267857351722,0.3653821883637268,0.6488224600763756,0.561798697072862,-2.825691699981689,-1.1691498756408691,-0.7023691534996033,2.290201187455654,-0.6336801806092262,0.6497018525402992,-0.3699447512626648,0.2287371158599853,-0.1366960516600869,-0.0442222245037555,0.1633724981942214,-0.2312847172897309,70
1724754373802436400,-0.3124710449075326,-0.0737801064819097,-0.3961303385101258,-0.5397151085043326,9.718671272295714,-1.1943682633090764,0.2507871091365814,0.1298608034849167,0.0831956416368484,0.3562449169873811,0.3669951319500182,0.6528479194109368,0.5587429451054329,-2.825691699981689,-1.1691498756408691,-0.7023691534996033,2.290201187455654,-0.6336801806092262,0.6497018525402992,-0.2901496291160583,0.192776471376419,0.1345070811152924,0.0694097802042961,0.2340092468827962,0.4454673104679211,71
1724754373842203000,-0.4042831767622381,-0.0413894104868173,-0.553310904995352,-0.4499982684284448,9.716210435140132,-1.250271863773465,0.0292664319276809,0.2191615849733352,0.3141571581363678,0.350623448619482,0.3687126148742416,0.6540620232596965,0.5597474780554882,-2.825691699981689,-1.1691498756408691,-0.7023691534996033,2.290201187455654,-0.6336801806092262,0.6497018525402992,-0.3009009659290313,0.1131165027618408,0.0828400131089612,0.1602502316236496,0.3259154867617413,0.0012236349272658,72
1724754373881970200,0.2908034029787406,-0.020526070678234,-0.7365069333553314,-0.3095080669160932,9.723177936065197,-1.2387097285345197,-0.1173460409045219,0.3615259826183319,0.3158175945281982,0.343504438228158,0.3694220363723948,0.6532105177381675,0.5646663497856732,-2.825691699981689,-1.1691498756408691,-0.7023691534996033,2.290201187455654,-0.6336801806092262,0.6497018525402992,-0.405308187007904,-0.0239775944501161,0.2076765540187247,0.0077255363576114,0.3616356925057247,-0.0504991521715419,73
1724754373921736400,0.7246057754203676,-0.0899117415934801,-0.4536345791041851,-0.1532892033361829,9.738394794419408,-1.1447940850619227,-0.3757596313953399,0.5301100015640259,0.3154886364936828,0.3354938703373892,0.3670388101118744,0.6508846034862039,0.5736511083695853,-2.825691699981689,-1.1691498756408691,-0.7023691534996033,2.290201187455654,-0.6336801806092262,0.6497018525402992,-0.4361501336097717,-0.0027003805153071,-0.2503879703569225,0.1473700702190399,0.1169442989557515,0.2690575995135121,74
1724754373961504000,0.4913676225079223,-0.1824772125661373,0.3307050225932151,-0.0014540181793709,9.755542328575252,-0.9998836559545248,-0.2833640277385711,0.6389329433441162,0.3459716141223907,0.3263453133784723,0.3614067507982666,0.6483556424083252,0.5852510793998144,-2.825691699981689,-1.1691498756408691,-0.7023691534996033,2.290201187455654,-0.6336801806092262,0.6497018525402992,-0.526950478553772,-0.0338816754519939,0.0232527328628813,-0.0883829295635223,0.2533339972135611,-0.1678949440547265,75
1724754374001271300,0.1225258893472142,0.2836749028056859,-0.5468832100354135,0.1206352167624048,9.764189160889387,-0.9035542293384672,-0.2649331092834472,0.2069678157567978,0.1742114126682281,0.3200106701015605,0.358995321091265,0.6459030915217833,0.5928950962916422,-2.825691699981689,-1.1691498756408691,-0.7023691534996033,2.290201187455654,-0.6336801806092262,0.6497018525402992,-0.4936333894729614,0.0939439088106155,-0.214956043502409,-0.155353844165802,0.1914242882021702,-0.1560952554665506,76
1724754374041037600,0.2592245348231867,-0.000469955599308,-0.4224211101949214,0.1293843586735427,9.775396783602238,-0.7715378416609019,-0.3988646864891052,0.0586875490844249,-0.1073522046208381,0.3201963125159098,0.3550011455588427,0.6428932031901848,0.5984453911561471,-2.825691699981689,-1.1691498756408691,-0.7023691534996033,2.290201187455654,-0.6336801806092262,0.6497018525402992,-0.5208116173744202,0.0055428789928555,0.0249350622099242,-0.1229191198945045,0.2669950226942077,0.2020146192668937,77
1724754374080794000,0.4663793117238208,-0.1136444993585348,0.2695369987946003,0.0730639849686529,9.786370013037324,-0.6261236277498304,-0.297243982553482,-0.0712495297193527,-0.2118371874094009,0.3242613035030456,0.3504545006978793,0.639613212994542,0.6024378064189378,-2.825691699981689,-1.1691498756408691,-0.7023691534996033,2.290201187455654,-0.6336801806092262,0.6497018525402992,-0.5131924152374268,0.0327442400157451,-0.0926849417670164,0.0254646427929401,0.1847452853622846,0.2407945231087505,78
1724754374120561400,0.2243650010291487,0.0265963305026292,0.391164386665821,-0.0723331864760722,9.789331200930476,-0.5780622286858037,0.0524882450699806,-0.537011981010437,-0.4139159619808197,0.3337229908586466,0.3493032260743666,0.6383261143897461,0.5992963083022694,-2.825691699981689,-1.1691498756408691,-0.7023691534996033,2.290201187455654,-0.6336801806092262,0.6497018525402992,-0.4738436341285705,-0.079283483326435,0.0170391304614837,0.1294610202312469,0.2675120505719445,0.2240980571886524,79
1724754374160328000,-0.2417267076586373,-0.155606741297245,0.385960972803831,-0.2083832227170467,9.782691616785526,-0.6526154749646782,0.2938867807388305,-0.3657635152339935,-0.1755110621452331,0.3426605100949901,0.35273873108482,0.6394134149957794,0.5910242372090004,-2.825691699981689,-1.1691498756408691,-0.7023691534996033,2.290201187455654,-0.6336801806092262,0.6497018525402992,-0.3334376811981201,0.0354339182376861,-0.1157295163385104,0.0509876869618892,0.1281709094968624,0.154970105627831,80
1724754374200095200,-0.1149662129489704,-0.0799269386738538,-0.0635223318397998,-0.2452114993007853,9.772852359816431,-0.775645130849257,0.3050803244113922,-0.0887128934264183,-0.0141609488055109,0.3436192386822436,0.3559580210200115,0.6425268730469417,0.5851316045799465,-2.825691699981689,-1.1691498756408691,-0.7023691534996033,2.290201187455654,-0.6336801806092262,0.6497018525402992,-0.1717683225870132,0.0849749743938446,0.0223215598098584,-0.0301777813583612,0.1813246815301477,0.1117171571583021,81
1724754374239861500,0.5462802026409656,-0.2130798561006784,-0.2566483641922474,-0.2633156583280302,9.767441440683603,-0.8355566517807543,-0.0314955785870552,0.0560866966843605,-0.1211954578757286,0.343469329388269,0.3568580965116408,0.6444019176998859,0.5826039381234067,-2.825691699981689,-1.1691498756408691,-0.7023691534996033,2.290201187455654,-0.6336801806092262,0.6497018525402992,-0.0292059611529111,0.1063197404146194,0.0598752303419867,-0.0670678243041038,0.202716209931299,0.0415812158650252,82
1724754374279629000,0.2274029804855585,-0.2032645645290613,-0.808351760925725,-0.3203280420182273,9.772740131613611,-0.749225618218258,-0.4343555569648742,0.213925153017044,-0.1505272984504699,0.3446401777072969,0.3511448541571189,0.6441251165810314,0.5856819702989025,-2.825691699981689,-1.1691498756408691,-0.7023691534996033,2.290201187455654,-0.6336801806092262,0.6497018525402992,0.0412317961454391,0.1356656849384308,-0.0176255703136208,-0.0639042407274246,0.2101556392170488,0.2338121168754994,83
1724754374319396400,-0.2074149622067809,-0.024153613525629,-0.1979108554761856,-0.3351708794282749,9.786510298290848,-0.5312730049820616,-0.5402941107749939,0.2923969328403473,0.0093670319765806,0.3458063325211077,0.3433829891869976,0.639668279946874,0.5944161155673611,-2.825691699981689,-1.1691498756408691,-0.7023691534996033,2.290201187455654,-0.6336801806092262,0.6497018525402992,0.0319862887263298,0.0722670927643776,0.1093407560163177,-0.0657927468419075,0.230523340995796,0.004626008982968,84
1724754374359162600,0.1635653356188908,0.2083265240937471,0.2393967486074194,-0.3744046827837824,9.792104757297038,-0.3806551945459097,-0.3094702064990997,0.0635978430509567,-0.1993137300014495,0.3478897566378371,0.3375840638308193,0.6367456428276178,0.5996371956051527,-2.825691699981689,-1.1691498756408691,-0.7023691534996033,2.290201187455654,-0.6336801806092262,0.6497018525402992,0.0111424699425697,0.0429500676691532,0.0836708744425326,-0.1087081059813499,0.1750438294286839,0.1047277823281474,85
1724754374398930200,-0.1449147399563342,-0.1430821907669305,-0.0759995178307406,-0.4193686638217419,9.793958276209237,-0.2699628595238551,-0.2846282422542572,0.1913564652204513,-0.0247191581875085,0.3496941854434348,0.3325990385587103,0.6349347638600008,0.6032823933105983,-2.825691699981689,-1.1691498756408691,-0.7023691534996033,2.290201187455654,-0.6336801806092262,0.6497018525402992,0.0612800903618335,0.0104440795257687,0.0618610886632697,-0.0890759825706482,0.1352455605908297,0.2639863241312093,86
1724754374438696400,0.6730689187981188,0.2632639829397201,0.0009294080709107,-0.4333492583792656,9.795673847955465,-0.1653812624670565,-0.2034913003444671,0.2853977382183075,-0.1500257104635238,0.3483142942276936,0.3265431695153478,0.6338782658256744,0.6084775794238511,-2.825691699981689,-1.1691498756408691,-0.7023691534996033,2.290201187455654,-0.6336801806092262,0.6497018525402992,0.108813963830471,0.0016682696295902,0.0409824736537411,-0.0736346095800399,0.1674566257026978,0.1436327738543972,87
1724754374478464000,0.1764739900959655,0.0927455037146806,0.1194914718210697,-0.5213888128926977,9.791566412636636,-0.1542079073499888,0.1059713289141655,-0.1496957838535308,-0.2747313678264618,0.3507205989686626,0.3229573497642469,0.6352644845139097,0.6075629182804609,-2.825691699981689,-1.1691498756408691,-0.7023691534996033,2.290201187455654,-0.6336801806092262,0.6497018525402992,0.1165697798132896,0.0134777193889021,-0.0342127991390065,-0.0616468228399753,0.1276640833527315,0.0180033769503352,88
1724754374518231000,0.0723963970385491,-0.2088128463059663,-0.015046744218003,-0.6236609639633447,9.784720492264627,-0.2016282137651927,0.0878963321447372,-0.2611102163791656,-0.2684224843978882,0.3552696441502463,0.3227688747726795,0.6372600972575442,0.6029122494613592,-2.825691699981689,-1.1691498756408691,-0.7023691534996033,2.290201187455654,-0.6336801806092262,0.6497018525402992,0.1023996248841285,-0.005533174611628,0.049238027928234,-0.0448885224759578,0.1668150581298396,-0.0195253281038952,89
1724754374557997600,-0.4957352066002786,-0.2450216392844915,0.0727577594305388,-0.6807157802894711,9.780679107919337,-0.2129678836261853,0.0512351244688034,-0.1436361819505691,-0.0547150149941444,0.3591433629933195,0.323561490275689,0.6373117780302364,0.6001315229918658,-2.825691699981689,-1.1691498756408691,-0.7023691534996033,2.290201187455654,-0.6336801806092262,0.6497018525402992,0.0812755152583122,-0.0270497351884841,0.0019104110442072,-0.0634854286909103,0.1872898187459446,-0.0203141700767795,90
1724754374597764900,0.1035706299159675,-0.2355132217049598,0.2207879462599754,-0.7063109709255397,9.777753575861452,-0.2589457726807333,0.1241922825574874,0.1710900068283081,-0.0774652585387229,0.3587291816213749,0.3231030159035496,0.6393801696062984,0.5984236550660837,-2.825691699981689,-1.1691498756408691,-0.7023691534996033,2.290201187455654,-0.6336801806092262,0.6497018525402992,0.0602973438799381,-0.0212799925357103,-0.0143489209798397,-0.0514601543545722,0.2145697658648714,0.0355304758751415,91
1724754374637532200,0.1852244654476642,-0.2332739183455705,-0.1382651093414053,-0.7496573606990278,9.773567814609407,-0.292840370432753,0.02350989356637,0.088945485651493,-0.0733982026576995,0.3577867949883312,0.3204711346040197,0.6420505863979026,0.5975431571184171,-2.825691699981689,-1.1691498756408691,-0.7023691534996033,2.290201187455654,-0.6336801806092262,0.6497018525402992,0.0561102293431758,-0.0182625595480203,-0.0343125217699911,-0.0272211469709873,0.217419821533747,0.0283257709440076,92
1724754374677298700,-0.2846088226549327,-0.1049491517275571,-0.196987383955717,-0.7537265828993172,9.773334005853531,-0.2902325077556073,0.0209324844181537,0.0573020987212657,0.0317910946905612,0.3568895705014249,0.3191461733042441,0.6426067690438878,0.5981907590916025,-2.825691699981689,-1.1691498756408691,-0.7023691534996033,2.290201187455654,-0.6336801806092262,0.6497018525402992,0.0317181907594203,-0.0034498854074627,-0.0441145109020406,-0.0556264147162437,0.218782561254315,-0.0458139123981818,93
1724754374716999700,0.1379458507917821,0.1146621519684791,-0.0935141865322366,-0.7243759121872484,9.77473802743256,-0.3164925189759582,0.0553551837801933,0.037508025765419,0.0715900436043739,0.3548148301691815,0.319786409759477,0.643329837981929,0.5983058334813981,-2.825691699981689,-1.1691498756408691,-0.7023691534996033,2.290201187455654,-0.6336801806092262,0.6497018525402992,0.0302089266479015,-0.0006720612291246,-0.0505718566481489,-0.052613228559494,0.2446997503863647,0.0841704123293515,94
1724754374756763600,0.2011361011330038,-0.0200146140247583,0.1077051359048113,-0.7046667839150875,9.77459189696014,-0.362239174824208,0.1327477246522903,0.0371081531047821,0.0942853763699531,0.353143958142932,0.3209208310692397,0.6445765107869742,0.5973445037309401,-2.825691699981689,-1.1691498756408691,-0.7023691534996033,2.290201187455654,-0.6336801806092262,0.6497018525402992,0.0322251357138156,0.0164151974022388,-0.0592830822682706,-0.0281098783016204,0.184822022126615,-0.0172173868049518,95
1724754374796528600,0.3883019829720258,0.1056903254836797,-0.2995511018514633,-0.6848837136238813,9.775030288377405,-0.3874350639443844,-0.0177216958254575,-0.0116349561139941,0.0436439625918865,0.3518725992456468,0.3217546758115727,0.6451570496976505,0.5970192597512585,-2.825691699981689,-1.1691498756408691,-0.7023691534996033,2.290201187455654,-0.6336801806092262,0.6497018525402992,0.0196424219757318,-0.0097220940515398,0.0344372075955849,-0.0444987192749977,0.1963643384202383,0.00771582308707,96
1724754374836293400,0.5050043355312198,0.0628857875019311,-0.1189957972586154,-0.6845694600429385,9.775487384495138,-0.3763048538492992,0.0101655982434749,-0.1165672689676284,-0.0334077104926109,0.3529116855528352,0.322498981637684,0.6443451050254226,0.5968812225061795,-2.825691699981689,-1.1691498756408691,-0.7023691534996033,2.290201187455654,-0.6336801806092262,0.6497018525402992,0.0142320543527603,-0.0110716419294476,-0.0383564862314378,-0.0333045609295368,0.1699836782285943,-0.0301533060315763,97
1724754374876057000,0.1721429386217147,0.0261748902201652,-0.0760766564538702,-0.687045860093832,9.773889886170624,-0.4115922941992059,0.104901984333992,0.0233315583318471,-0.0473224185407161,0.3530616101637914,0.3237658775772326,0.6451054361231178,0.5952831600993467,-2.825691699981689,-1.1691498756408691,-0.7023691534996033,2.290201187455654,-0.6336801806092262,0.6497018525402992,0.0078380517661571,-0.0203782673925161,0.0260177017809008,-0.0228635482490062,0.1421201590680517,0.0350472269694204,98
1724754374917066800,-0.0424811512462794,0.1493073488920926,0.0550151271920651,-0.658122401817888,9.773163325461743,-0.4717556709999218,0.1678617447614669,0.1945166140794754,0.0023335416335612,0.3500411125656289,0.3245629923342834,0.6470793685033229,0.594490079996127,-2.825691699981689,-1.1691498756408691,-0.7023691534996033,2.290201187455654,-0.6336801806092262,0.6497018525402992,0.0046329125761985,-0.0378985628485679,-0.0221170798964565,-0.0108491936698555,0.1658345774588175,0.0505064221625449,99
1724754374956831700,-0.7589556426592171,0.3885615106910467,-0.8794318146687,-0.628184871128574,9.77153134034574,-0.5412273396981879,0.0236507728695869,0.7276352047920227,0.2295198887586593,0.3426103252249809,0.320927775826107,0.651613594639719,0.5958382072837447,-2.825691699981689,-1.1691498756408691,-0.7023691534996033,2.290201187455654,-0.6336801806092262,0.6497018525402992,0.016101561486721,-0.0735324844717979,0.0152608470513427,-0.0140322092920541,0.2191056009299121,0.1207674465736374,100
1724754374996595700,-0.8020657394587993,-0.000803717598319,-1.1576900261878966,-0.4092506995091214,9.785157130116223,-0.5035862854268401,-0.3697654902935028,0.6575793623924255,0.5404455065727234,0.3257836700734173,0.315972971621786,0.6525617496413413,0.6067860218571931,-2.825691699981689,-1.1691498756408691,-0.7023691534996033,2.290201187455654,-0.6336801806092262,0.6497018525402992,0.0329968519508838,-0.0820828974246978,0.0066057235453656,-0.0419970788061618,0.2402349529972299,0.0258094521579681,101
1724754375036360400,0.6546933041520416,-0.0710182405531406,-1.540453664255142,-0.2765591525163501,9.80060487461686,-0.2050694585265591,-1.0961707830429075,0.3999992609024048,0.1210478916764259,0.3211904381601845,0.309944004882636,0.6437315792208399,0.6215956184501767,-2.825691699981689,-1.1691498756408691,-0.7023691534996033,2.290201187455654,-0.6336801806092262,0.6497018525402992,0.068422295153141,-0.0725700482726097,-0.0919856252580881,-0.0520127639174461,0.2076269975222647,0.0951495874480344,102
1724754375076124400,-0.0553298556970432,-0.0657943684250116,0.495483423796296,-0.2753692120794206,9.801366506639122,0.1666632833679206,-0.5824790000915527,0.2346304655075073,-0.0167444329708814,0.3232757096756458,0.3001528373036466,0.633569894653133,0.6356023040385644,-2.825691699981689,-1.1691498756408691,-0.7023691534996033,2.290201187455654,-0.6336801806092262,0.6497018525402992,0.167666494846344,-0.0421886295080184,-0.0103529329791199,-0.087281048297882,0.2446331879561767,0.2272990269207395,103
1724754375115888400,-1.2219402339108287,-0.0983984149098396,1.5326643255531789,-0.2249060491032898,9.8013507245481,0.2309644358268007,0.1612022072076797,0.6395001411437988,0.3480221331119537,0.3173077530869684,0.2954728120830633,0.6331823660051171,0.6411644280792155,-2.825691699981689,-1.1691498756408691,-0.7023691534996033,2.290201187455654,-0.6336801806092262,0.6497018525402992,0.330643892288208,-0.0157404989004135,-0.0389317105698166,-0.1389062255620956,0.2482493874256499,0.5243270583016798,104
1724754375155653000,-1.2752809250846504,-0.3448018639415502,0.9808335761129856,0.0011166388089925,9.80638871871531,0.0717173835321329,0.6718010902404785,0.7973038554191589,0.7286262512207031,0.2980541129548057,0.295955088507373,0.6393387339323495,0.6440655334411408,-2.825691699981689,-1.1691498756408691,-0.7023691534996033,2.290201187455654,-0.6336801806092262,0.6497018525402992,0.4840850830078125,-0.0089070564135909,0.0333302806834341,-0.0772113502025604,0.1562344995404593,0.427724879158847,105
1724754375195418000,-0.5854624584723264,-0.1915308721154928,-0.0543746007988229,0.2793037202504463,9.799164028158785,-0.2622586052894592,0.9423469305038452,0.6778106093406677,0.6391085982322693,0.2740451553265302,0.3001330579918876,0.650608649826068,0.6415043923522897,-2.825691699981689,-1.1691498756408691,-0.7023691534996033,2.290201187455654,-0.6336801806092262,0.6497018525402992,0.522318959236145,-0.0218484755605459,-0.0088227488575765,-0.0258739907294511,0.1166432427830994,0.1851582500773481,106
1724754375235182000,-1.137249734096974,-0.107646135726571,-0.5688509308893234,0.5494731534633785,9.773338682028651,-0.5918885459970683,0.8002932071685791,0.6082178950309753,0.764946699142456,0.2528426063445851,0.3061591636990184,0.6606394504589759,0.6370971650256807,-2.825691699981689,-1.1691498756408691,-0.7023691534996033,2.290201187455654,-0.6336801806092262,0.6497018525402992,0.5048311352729797,-0.0579650327563285,0.0593797156097367,-0.0165299363434314,0.188458588530682,0.05004406991438,107
1724754375274946800,-0.7000186658482999,-0.133332950168848,-0.4390682936131954,0.9265700710058212,9.7270486400187,-0.8344974981166422,0.547963559627533,0.959689438343048,0.9589061737060548,0.2262160422782454,0.3110747351469725,0.6676676118934282,0.6374000432374002,-2.825691699981689,-1.1691498756408691,-0.7023691534996033,2.290201187455654,-0.6336801806092262,0.6497018525402992,0.4141632914543152,-0.0978332161903381,0.0310445854656281,-0.0239241663366556,0.1544371860612183,-0.0631187057752395,108
1724754375314711800,-0.4350689948439598,-0.083912208917737,-0.6012590894758701,1.2666051589369771,9.673587683466076,-0.9938782049946486,0.5143986344337463,0.3660210072994232,0.624005913734436,0.2037586891390042,0.3154433786946654,0.6716912681621302,0.6385989936414467,-2.825691699981689,-1.1691498756408691,-0.7023691534996033,2.290201187455654,-0.6336801806092262,0.6497018525402992,0.3333195745944977,-0.1117037311196327,0.0299257717528613,-0.0149165615439414,0.1751741230111569,-0.0390854900591541,109
1724754375354475500,-0.869846313264966,-0.4330775287657976,0.659646981036663,1.5586280572406948,9.609902854540945,-1.1793377213072032,0.439174622297287,1.1844868659973145,0.9498345255851746,0.1826579332845832,0.3186476640130878,0.6771950648408345,0.637578719685465,-2.825691699981689,-1.1691498756408691,-0.7023691534996033,2.290201187455654,-0.6336801806092262,0.6497018525402992,0.290971964597702,-0.1245161071419715,-0.0062971650570922,-0.0420403145253658,0.2053041257989592,0.0095544429701229,110
1724754375394240500,-0.4473367941342294,-0.8499106096953153,0.3761703772820532,2.158741922204196,9.501357139626144,-1.1110410146724432,0.0381136238574981,2.405552625656128,1.5561310052871704,0.138403459771459,0.3129187002055201,0.6772955133064739,0.6513041514556921,-2.825691699981689,-1.1691498756408691,-0.7023691534996033,2.290201187455654,-0.6336801806092262,0.6497018525402992,0.2782091200351715,-0.1208118870854377,-0.0180450629508821,-0.0695719271898269,0.2537742517943493,0.1122004106306005,111
1724754375434004200,0.1621925494283437,-1.2333218980163334,1.4155892672240733,2.774145856888592,9.362085447058082,-0.9087659726373852,0.3391967415809631,2.8960087299346924,1.4118682146072388,0.0852829163432564,0.2980377850123138,0.6763931177200702,0.6681262099652846,-2.825691699981689,-1.1691498756408691,-0.7023691534996033,2.290201187455654,-0.6336801806092262,0.6497018525402992,0.2540698051452636,-0.0797831937670707,-0.0858317970697768,-0.0561868399381637,0.262841483211331,0.1126697177759371,112
1724754375473769200,0.4671358657121658,-0.4586111984729766,1.923358756619692,3.3382977432414886,9.180387986692786,-0.8640740865390747,1.2421329021453855,2.455142974853516,1.081155776977539,0.0268583915256993,0.2794415718812331,0.6826184336067409,0.6747022288008157,-2.825691699981689,-1.1691498756408691,-0.7023691534996033,2.290201187455654,-0.6336801806092262,0.6497018525402992,0.2452887892723083,-0.0715723633766174,-0.0254174229163676,-0.0706866011023521,0.3090524686357006,0.1290358740294352,113
1724754375513534000,-1.6890493577465413,-2.1364304294139145,0.3246177385687828,3.842633751057088,8.968883417084813,-0.9816769681345672,1.2547764778137207,3.0863354206085205,1.456716775894165,-0.0325849575457829,0.2586155795191454,0.6951040042685441,0.6699900589370767,-2.825691699981689,-1.1691498756408691,-0.7023691534996033,2.290201187455654,-0.6336801806092262,0.6497018525402992,0.2330410331487655,-0.1036813557147979,0.0564471190568292,-0.0801364332437515,0.3951862991256639,0.1272181570829823,114
1724754375553298000,0.0381789240077137,-2.1319939082711934,-0.1821183161258697,4.711767532138526,8.574790575751662,-0.6652797262266278,0.1675344407558441,3.8098936080932617,2.200652599334717,-0.1116512798909812,0.2424177853889974,0.6893137478124306,0.6735088411038116,-2.825691699981689,-1.1691498756408691,-0.7023691534996033,2.290201187455654,-0.6336801806092262,0.6497018525402992,0.1746740937232971,-0.0751489549875259,-0.0840136599982157,-0.1280792951583862,0.2649862401550635,-0.0570084290342871,115
1724754375593063000,0.9879039528906344,0.3928139074385166,0.4457885783115402,5.33623067933023,8.22152483484745,0.3187101950254291,-0.0857666656374931,5.297516345977783,1.722480058670044,-0.2003746895712423,0.2009422256654952,0.6658622418512576,0.6899998599832325,-2.825691699981689,-1.1691498756408691,-0.7023691534996033,2.290201187455654,-0.6336801806092262,0.6497018525402992,0.1098944619297981,-0.0253232102841138,-0.0852602533926721,-0.1342982947826385,0.3349753568561747,-0.0258677239671349,116
1724754375632827600,-0.5240104301005601,-1.1616180132865903,-2.13981846441701,5.75908141311407,7.784277911442517,1.5518923192448912,-0.925115406513214,4.365494728088379,2.0011582374572754,-0.2893746692979569,0.1585487567230679,0.6290769463520117,0.7038371477106643,-2.825691699981689,-1.1691498756408691,-0.7023691534996033,2.290201187455654,-0.6336801806092262,0.6497018525402992,0.0570643693208694,0.0101832244545221,-0.0755143646623007,-0.106139101088047,0.2526055185422301,0.0418421546564204,117
1724754375672591600,0.5634340934723615,-0.6924567792266607,-1.0289794751226902,5.929491171267628,7.182239654287695,3.070335373352468,-2.295752048492432,4.867090225219727,1.5927584171295166,-0.3629510487765701,0.1311445131499974,0.5711896169796263,0.7244377924925584,-2.825691699981689,-1.1691498756408691,-0.7023691534996033,2.290201187455654,-0.6336801806092262,0.6497018525402992,0.0226038806140422,0.039227444678545,-0.0249219013342517,-0.0640873908996582,0.3233101265689358,0.1205730108469259,118
1724754375712356600,0.880969180303812,0.4131348109334707,2.9929642566412684,5.690366188806295,6.659636168375611,4.409009743200242,-0.5220812559127808,2.959653615951538,0.93599933385849,-0.4170368564209914,0.1017285673540889,0.5146400326312967,0.7422110233306685,-2.825691699981689,-1.1691498756408691,-0.7023691534996033,2.290201187455654,-0.6336801806092262,0.6497018525402992,0.0106568885967135,0.058274570852518,-0.0164026751718716,-0.0471187904477119,0.2877985220743343,0.0829192158250138,119
1724754375752201700,0.7063409276723861,-0.2142652664929628,0.8518599901974201,5.470399495801329,6.431407842981815,4.988195824816823,0.127418965101242,2.320068836212158,1.0180106163024902,-0.4594109149349685,0.0728223563698746,0.4902751182855012,0.7370676533550211,-2.825691699981689,-1.1691498756408691,-0.7023691534996033,2.290201187455654,-0.6336801806092262,0.6497018525402992,-0.0403747521340847,0.0797862261533737,-0.0639222909428179,-0.0811171755194664,0.2128840047350153,-0.0569112111709313,120
1724754375791968800,-0.6283341434061527,-1.5655787531614302,-0.9457061486303806,5.179112364426255,6.1706760088682175,5.591953160849213,-0.5418118834495544,2.9299113750457764,0.8620454668998718,-0.4958753876381515,0.0482648816070954,0.4610425390132427,0.7343146307217908,-2.825691699981689,-1.1691498756408691,-0.7023691534996033,2.290201187455654,-0.6336801806092262,0.6497018525402992,-0.0714150294661521,0.0916432067751884,0.021066847041028,-0.0848076343536377,0.1876794208517298,0.0031385765869403,121
1724754375831736800,2.523290396884084,-0.673800594073534,2.298468665063381,4.0523844627350565,6.165351014453172,6.460418833410739,1.544172763824463,7.856981754302978,0.0658115893602371,-0.546063037199508,-0.0253972413476671,0.4122684760094834,0.7288379741277936,-2.825691699981689,-1.1691498756408691,-0.7023691534996033,2.290201187455654,-0.6336801806092262,0.6497018525402992,-0.0685023888945579,0.0633908510208129,0.0133267383252503,-0.0636331960558891,0.1794477817423641,0.0213294298002379,122
1724754375871503600,2.261466675880551,-1.1563251675754784,-1.374514914035797,1.447600462382287,6.73556322375834,6.979041725254058,0.4890974164009094,6.5121660232543945,0.0776348635554313,-0.6154736184351326,-0.1874065030095035,0.3302221851271099,0.690669527107181,-2.825691699981689,-1.1691498756408691,-0.7023691534996033,2.290201187455654,-0.6336801806092262,0.6497018525402992,-0.0651904642581939,0.0798408612608909,-0.0461526976321823,-0.0644793808460235,0.0807449405258521,-0.0183922552536241,123
1724754375914997200,-3.1655414219617843,0.5669073225408792,0.4963204591423272,1.4981294571362436,6.3590691674798725,7.31356535628736,-0.5498939752578735,0.4801672399044037,2.2513444423675537,-0.6452073521974357,-0.1805236556884101,0.3074461875071216,0.6757186308062373,-2.825691699981689,-1.1691498756408691,-0.7023691534996033,2.290201187455654,-0.6336801806092262,0.6497018525402992,-0.0518009476363658,0.0636757984757423,0.0626601300864713,-0.037806361913681,0.068371530003217,0.1080190058932639,124
1724754375954765300,3.240802414651215,-1.2298311332911251,2.0373948856443165,1.5678021282993255,6.058636606618761,7.550185662451386,-0.703300416469574,1.986804366111756,1.27283775806427,-0.6787060903651377,-0.1780728609653834,0.2886827478630051,0.6513911127006257,-2.825691699981689,-1.1691498756408691,-0.7023691534996033,2.290201187455654,-0.6336801806092262,0.6497018525402992,0.0023803992662578,0.0055938828736543,0.0365988083595526,-0.0216886363923549,0.0970142122761346,0.0897239639364183,125
1724754375994532400,1.3423526199690996,1.1320569877594708,0.2254278810203075,1.2936634078629314,5.876818734744191,7.743372485080361,-0.2553718090057373,0.8419907689094543,0.6630201935768127,-0.7010019953857018,-0.1879204807389472,0.264355358916551,0.635136495710586,-2.825691699981689,-1.1691498756408691,-0.7023691534996033,2.290201187455654,-0.6336801806092262,0.6497018525402992,0.0078094475902616,-0.023656552657485,-0.0068487876117083,-0.06416567414999,0.110039378405502,0.0115875139920855,126
1724754376034300400,1.348424341098219,0.8899164568692445,-1.3970868113279342,1.2811574159026144,5.778084804269671,7.819383711615204,-0.3366434872150421,-0.0105936275795102,0.134156048297882,-0.7087941764428322,-0.1865970371112788,0.257883579314454,0.629514448225331,-2.825691699981689,-1.1691498756408691,-0.7023691534996033,2.290201187455654,-0.6336801806092262,0.6497018525402992,0.0326349511742591,-0.0508946813642978,0.0295661469435202,-0.0772604197263717,0.1752986809725873,0.1019891694108024,127
1724754376074073300,0.8740728449188172,0.6572311520665883,-0.9398702820837496,1.3504394803129136,5.630540373396873,7.914777684012055,-0.5220462083816528,-0.4028179049491882,-0.0316154919564724,-0.7096765317873549,-0.1772924757683044,0.255001982351752,0.6323769063442538,-2.825691699981689,-1.1691498756408691,-0.7023691534996033,2.290201187455654,-0.6336801806092262,0.6497018525402992,0.032474398612976,-0.0754201412200927,-0.0918379238830879,-0.081317089498043,0.1352439622887875,-0.0484622760490747,128
1724754376113840000,0.8152287340231239,0.1848486178725957,-0.3311462635546922,1.458963567917794,5.47459460940361,8.004412362229823,-0.4621119499206543,-0.2259689569473266,0.0060892589390277,-0.7092791031641922,-0.1658799008374079,0.2537171501573255,0.6364233102322758,-2.825691699981689,-1.1691498756408691,-0.7023691534996033,2.290201187455654,-0.6336801806092262,0.6497018525402992,-0.0059688026085495,-0.0271155443042516,-0.0761738332180306,-0.0906662121415138,0.1834621319502592,-0.0855216625415254,129
1724754376153608200,0.3230262315936386,-0.5505792880743742,-0.4725479538887739,1.4268359067730605,5.267455833789706,8.147909563538432,-0.7683340311050415,0.6278868913650513,0.3293671607971191,-0.7146632876249749,-0.1591115991508685,0.2434249791006836,0.6361479231799079,-2.825691699981689,-1.1691498756408691,-0.7023691534996033,2.290201187455654,-0.6336801806092262,0.6497018525402992,-0.0359129421412944,-0.0077161118388175,-0.0847211050146725,-0.0741749182343483,0.1784701506155543,-0.0510827744455076,130
1724754376193376000,0.7539879372492432,0.0148784201800823,-1.0491431422293185,1.2505572565861045,4.951444011002779,8.37195855742097,-0.9846178889274596,0.6796911358833313,0.3277140259742737,-0.725388391135481,-0.1540350799561265,0.2223108118577771,0.6329792329490922,-2.825691699981689,-1.1691498756408691,-0.7023691534996033,2.290201187455654,-0.6336801806092262,0.6497018525402992,-0.0597564689815044,-0.0010157104115933,-0.0124229373363428,-0.0733048245310783,0.1905931894065812,-0.0047507844276406,131
1724754376233143000,1.11878651423268,0.1170092996165156,-0.8943705136686563,1.1685738237738608,4.637126717174053,8.561651692715287,-0.7653496265411377,-0.0163644310086965,0.125024601817131,-0.7326498461424746,-0.1447359121942333,0.2062250582037718,0.6322554763911322,-2.825691699981689,-1.1691498756408691,-0.7023691534996033,2.290201187455654,-0.6336801806092262,0.6497018525402992,-0.0596611313521862,-0.0033973127137869,0.0168471321453864,-0.0786575004458427,0.1721227543502114,0.0850564653157256,132
1724754376272911000,1.0676724861323832,-0.5015159819588065,-1.275100600081682,1.3431386557802558,4.440426333466172,8.639963597407936,-0.3503366708755493,-0.9481986165046692,0.0184267573058605,-0.7329690468034241,-0.1302001852837983,0.2062337317484543,0.6350369359970134,-2.825691699981689,-1.1691498756408691,-0.7023691534996033,2.290201187455654,-0.6336801806092262,0.6497018525402992,-0.0445757322013378,0.0007357418071478,0.0247150125513435,-0.0609856508672237,0.1311021771757863,0.0597581341678043,133
1724754376312678000,0.82307374843508,-0.6553638968899845,-1.5036644410401585,1.7728392554588617,4.372362266543507,8.597085409668088,-0.1275874823331833,-1.354389786720276,0.0706298053264617,-0.728536934025757,-0.1115879214091385,0.2218530484160444,0.6384068465927796,-2.825691699981689,-1.1691498756408691,-0.7023691534996033,2.290201187455654,-0.6336801806092262,0.6497018525402992,-0.0863780155777931,-0.016116751357913,-0.0738844573389505,-0.015747683122754,0.0348598192051169,-0.0106210138973547,134
1724754376352446000,1.1179163803346457,-0.9318106020078064,-1.7193185315430164,2.1914690105468035,4.289079879961908,8.54234435017705,-0.3829288184642792,-1.0241883993148804,0.0375135838985443,-0.7245151282720919,-0.0928238473930871,0.2363162990506911,0.6407934220163604,-2.825691699981689,-1.1691498756408691,-0.7023691534996033,2.290201187455654,-0.6336801806092262,0.6497018525402992,-0.4256071448326111,0.0125269833952188,-0.0206748931479523,0.2006469815969467,0.0149367056889808,-0.9297351109080016,135
1724754376392213800,0.6551715891882777,-1.102634201659262,-1.7240584195464848,2.511159814107418,4.137135168303549,8.529277363333106,-0.4717503190040588,-0.9811939597129822,-0.2253591567277908,-0.7193775570525653,-0.0738359998585929,0.2442869602294286,0.6460403072814525,-2.825691699981689,-1.1691498756408691,-0.7023691534996033,2.290201187455654,-0.6336801806092262,0.6497018525402992,-1.006259560585022,-0.1225105449557304,0.1501990370348095,0.2482500225305557,0.2709340974424966,-0.9327762321695684,136
1724754376431980800,1.1686156170889734,-1.307456809285283,-1.0311024586260318,2.548681735511124,4.136355708363652,8.518518653431535,-0.1930290609598159,-0.5722088813781738,-0.5814378261566162,-0.7113653409414291,-0.0695501389537149,0.2466560049427275,0.6544332646860243,-2.825691699981689,-1.1691498756408691,-0.7023691534996033,2.290201187455654,-0.6336801806092262,0.6497018525402992,-1.3658528327941897,-0.1241969764232635,-0.13664807519936,0.219077467918396,0.1807452011417597,-0.3645741936430335,137
1724754376471748900,-1.3878364601626991,-1.68508892968297,-1.9314684133172035,2.9466113785281776,4.024223951655626,8.443547291338444,-0.2726162075996399,-1.4896796941757202,0.2754984498023987,-0.703513183487577,-0.0485691960410362,0.2591137574992381,0.6599774887103091,-2.825691699981689,-1.1691498756408691,-0.7023691534996033,2.290201187455654,-0.6336801806092262,0.6497018525402992,-1.4567254781723022,-0.0893122851848602,-0.1990046055296435,0.0907608121633529,0.05714045791612,0.0521018518275581,138
1724754376511517000,-1.797227700653672,-1.7648966258913277,-2.8507015655636785,3.7410201734930273,3.829596282568574,8.216406761181354,-0.3648313879966736,-2.569226026535034,0.9861898422241212,-0.70116277287501,-0.0133029275998571,0.2844342923361359,0.6536748934446763,-2.825691699981689,-1.1691498756408691,-0.7023691534996033,2.290201187455654,-0.6336801806092262,0.6497018525402992,-1.2346357107162476,-0.0363874956965446,-0.079166777089471,-0.044284351170063,0.1469456247294321,0.7739593697194009,139
1724754376551283700,-1.6625255079582333,-2.580662097139657,-2.511774146613478,4.726953703093528,3.518291030037403,7.838872255939245,-0.3776626586914062,-2.418922185897827,1.4511158466339111,-0.7012760817098468,0.0312606203646579,0.315200750903514,0.6386572638292708,-2.825691699981689,-1.1691498756408691,-0.7023691534996033,2.290201187455654,-0.6336801806092262,0.6497018525402992,-0.7736647725105286,-0.0242861527949571,-0.0875301802191883,-0.1055986359715461,0.1737085439706221,0.807720623415336,140
1724754376591051500,-3.4608459722846745,-3.0770176275953647,-2.812423565095663,5.727706031641364,2.956110443757474,7.390885327333211,-0.8740492463111877,-2.6960997581481934,2.219517469406128,-0.7068698816554887,0.0830360694518389,0.3409908223559665,0.6141378829325498,-2.825691699981689,-1.1691498756408691,-0.7023691534996033,2.290201187455654,-0.6336801806092262,0.6497018525402992,-0.4531787931919098,0.0383039116859436,0.0762025615555932,-0.0913928002119064,0.1955766038423404,0.3881421893004327,141
1724754376630819600,-3.853683845120668,-3.801786484622955,-2.714631883907318,6.755007344418764,1.964984898471832,6.832209826564789,-1.3985573053359983,-2.7323429584503174,3.1347789764404297,-0.7173364550836769,0.1498316588623443,0.3594505787597365,0.5777318862741536,-2.825691699981689,-1.1691498756408691,-0.7023691534996033,2.290201187455654,-0.6336801806092262,0.6497018525402992,-0.3738124668598175,-0.0218704063445329,0.0645424960672389,-0.0354113020002841,0.2151577948858961,0.0844899357404559,142
1724754376670586600,-2.968832270425558,-4.894538759215176,-2.8589538456022736,7.732245526388287,0.5445736909840255,6.007178806582093,-1.8097795248031616,-3.73882508277893,3.761887311935425,-0.7264472520467469,0.2330457940038648,0.3733748486331582,0.5277832927895008,-2.825691699981689,-1.1691498756408691,-0.7023691534996033,2.290201187455654,-0.6336801806092262,0.6497018525402992,-0.2409828454256057,-0.0770945474505424,0.0758029951782198,-0.0255783293396234,0.2160643883368,0.1300261271758005,143
1724754376710354700,-1.0724228955298662,-6.146671448424458,-0.9242565333664416,8.596201612570882,-1.1896113511055708,4.567333634501695,-1.834495425224304,-4.662968158721924,4.469172477722168,-0.7233507741368764,0.3336817503235898,0.3946989753353556,0.4578569111712933,-2.825691699981689,-1.1691498756408691,-0.7023691534996033,2.290201187455654,-0.6336801806092262,0.6497018525402992,-0.1061665192246437,-0.0947427228093147,0.0113047994770109,-0.0709131062030792,0.1686789340392686,0.3281896422388032,144
1724754376750122200,0.0190548290818929,-6.731338299539685,0.147107793021202,8.876002888813614,-3.152374774135649,2.7293761563137173,-1.6525473594665527,-5.0424418449401855,5.19492244720459,-0.710733881509027,0.437926192358391,0.4111705194801336,0.3660831449381577,-2.825691699981689,-1.1691498756408691,-0.7023691534996033,2.290201187455654,-0.6336801806092262,0.6497018525402992,0.0711260661482811,-0.1353209465742111,0.0459414569011423,-0.1523251831531524,0.1855317778311669,0.3152606756260618,145
1724754376789889300,6.141318981480598,-5.388776274603605,3.723587977176905,8.351082942652702,-5.075680631524324,0.8168660529013723,-1.1008340120315552,-3.9940810203552246,4.938611030578613,-0.6895589449975761,0.5316473370276493,0.4191688581856179,0.2572101599918877,-2.825691699981689,-1.1691498756408691,-0.7023691534996033,2.290201187455654,-0.6336801806092262,0.6497018525402992,0.1953367441892624,-0.190375730395317,0.0218940414130571,-0.2089994698762893,0.1872073828931897,0.5225856579944491,146
1724754376829658600,8.039831466135382,-3.094933515775204,4.418904822009802,7.488213482663035,-6.329691681826114,-0.1790727196185849,-0.1366275548934936,-1.7611253261566162,2.886951208114624,-0.6772415060283548,0.5848543074440351,0.4087488311025038,0.1794822320643944,-2.825691699981689,-1.1691498756408691,-0.7023691534996033,2.290201187455654,-0.6336801806092262,0.6497018525402992,0.3627139031887054,-0.2824091613292694,0.1161060671664774,-0.3061780929565429,0.3375084920629859,0.282799453411717,147
1724754376869426400,5.164725527155399,-1.8453028725147247,3.346623965299129,6.856860283696651,-6.997232046461105,-0.4388659759741276,1.3319283723831177,-1.195319890975952,1.952154397964477,-0.6795355422284953,0.5997443037066146,0.4033394457591652,0.1259188163912264,-2.825691699981689,-1.1691498756408691,-0.7023691534996033,2.290201187455654,-0.6336801806092262,0.6497018525402992,0.4262683391571045,-0.3501296639442444,0.0426130613971035,-0.458783894777298,0.2882461197113618,0.3905752251336351,148
1724754376909193500,4.421542184776068,-2.696634454923868,0.7436240718841552,6.2926604665488,-7.51912533827722,-0.1886181995391845,1.791894555091858,-0.6070941090583801,1.918840765953064,-0.6961355490425649,0.5939547909489327,0.3960234308838434,0.0760165602343028,-2.825691699981689,-1.1691498756408691,-0.7023691534996033,2.290201187455654,-0.6336801806092262,0.6497018525402992,0.4894670248031616,-0.3399115800857544,0.0152409219330991,-0.4365484714508056,0.242236429012753,0.2572718298528343,149
1724754376948961500,6.0556502842843525,-1.9874913293123244,-0.7589484822660684,5.6841679186880585,-7.987201115188002,0.2554176898861304,1.2770500183105469,0.355463445186615,1.908227801322937,-0.7154733932707174,0.5868478318080779,0.3776068650225738,0.0334741648651383,-2.825691699981689,-1.1691498756408691,-0.7023691534996033,2.290201187455654,-0.6336801806092262,0.6497018525402992,0.4624401330947876,-0.4065377116203308,-0.1664179303047247,-0.1379959136247635,0.0227209024249459,0.3428182158436626,150
1724754376988728600,7.150970071277022,-0.2646300105959177,-1.444064835602045,5.189343251061439,-8.293742514318227,0.6744785664003342,0.2835433185100555,1.05419659614563,0.9284512400627136,-0.7308377638898794,0.5863726021306218,0.3489675296361918,0.0162767352052364,-2.825691699981689,-1.1691498756408691,-0.7023691534996033,2.290201187455654,-0.6336801806092262,0.6497018525402992,0.3935920894145965,-0.4233151972293854,-0.023786935637705,-0.255761981010437,0.403943496479094,-0.296221153711155,151
1724754377028496400,5.578626061764359,-0.3155687551945447,0.6015173020206391,4.963791451400518,-8.400970716893672,0.9771591253839432,0.252800315618515,1.6558219194412231,0.3676077127456665,-0.7411932154422493,0.5872212721127604,0.3245765364065426,0.0213020184213466,-2.825691699981689,-1.1691498756408691,-0.7023691534996033,2.290201187455654,-0.6336801806092262,0.6497018525402992,0.3314835727214813,-0.4116794764995575,-0.3832445534519851,-0.3988781273365021,-0.0194063185338396,-0.0659716292546363,152
1724754377068259600,4.790952128012478,-0.4877583825021982,-0.8198036407232284,4.734978019595146,-8.442164897069334,1.5748751354254782,0.4029942750930786,2.597261905670166,0.1990358084440231,-0.7606498569006125,0.5814007474547611,0.2857916808787986,0.0413299926726532,-2.825691699981689,-1.1691498756408691,-0.7023691534996033,2.290201187455654,-0.6336801806092262,0.6497018525402992,0.2584738731384277,-0.2809985876083374,0.0061182311477226,-0.4027348756790161,0.2637132793434895,-0.4982079168567433,153
1724754377108026600,4.580386300559342,-0.7634820340424776,-1.1060668064564465,4.629359298042953,-8.371444762679934,2.1583181438341734,0.8679816126823425,1.612851619720459,-0.5930959582328796,-0.7782462757877534,0.5701057685656259,0.2548250563607058,0.0661543701312819,-2.825691699981689,-1.1691498756408691,-0.7023691534996033,2.290201187455654,-0.6336801806092262,0.6497018525402992,0.1541640609502792,-0.2087942063808441,-0.1560363648861646,-0.3405085504055023,0.1312279955125413,-0.2540597724711522,154
1724754377147794400,0.2820058005496859,-0.4268874419540167,-1.83287301453054,4.6726448975399135,-8.204658455720544,2.649594763590396,1.2872861623764038,-0.3706375062465668,0.2257403582334518,-0.7937196115329859,0.5495976074253702,0.2507004838083808,0.0714208069285666,-2.825691699981689,-1.1691498756408691,-0.7023691534996033,2.290201187455654,-0.6336801806092262,0.6497018525402992,0.160609945654869,-0.1474919319152832,-0.1215711002398747,-0.0747616589069366,0.368095901495777,-0.2431290670035406,155
1724754377187562800,2.5482328226998447,-1.496146905016899,-0.8289888176977634,4.699165240196884,-8.09382784473896,2.928853311258554,1.5309823751449585,-1.287465214729309,0.1258093565702438,-0.8042160179517301,0.5297986721102287,0.2645437652919221,0.0506615404964502,-2.825691699981689,-1.1691498756408691,-0.7023691534996033,2.290201187455654,-0.6336801806092262,0.6497018525402992,0.1194981783628463,-0.0562695004045963,-0.1335028816419653,0.1041331961750984,0.3848111451815814,-0.1398054158522747,156
1724754377227329500,1.3005799092531205,-0.6064636723816395,-0.0530488686203956,4.859252049517632,-7.905072282555698,3.172992907011509,1.87306547164917,-1.8273433446884155,0.1600994318723678,-0.813166977307936,0.5039243998437405,0.2903146173884101,0.0231753853479073,-2.825691699981689,-1.1691498756408691,-0.7023691534996033,2.290201187455654,-0.6336801806092262,0.6497018525402992,0.0037091702688485,0.0264904983341693,-0.1352811616271734,0.19139064848423,0.336404695539549,-0.2431360264672897,157
1724754377267097600,1.219984277537465,-1.2506681696146726,-1.117713405108452,4.927278122517467,-7.765296147596835,3.404774540972709,1.0154516696929932,-0.7427282333374023,0.8357623815536499,-0.8206707074246329,0.4787349084740516,0.3117975148014852,-0.009737769117258,-2.825691699981689,-1.1691498756408691,-0.7023691534996033,2.290201187455654,-0.6336801806092262,0.6497018525402992,-0.0402070693671703,0.0512662939727306,-0.0918971158575732,0.2351731210947036,0.5172732308000326,-0.0117429990980308,158
1724754377306865700,3.681685940992832,-0.3253840467661619,-0.1023453989699482,4.694278344938159,-7.882387572538852,3.4644027879834174,0.2580994963645935,-0.0691428259015083,0.4302869141101837,-0.8222626839885204,0.4803247366474507,0.3043891514888197,-0.0227892637363239,-2.825691699981689,-1.1691498756408691,-0.7023691534996033,2.290201187455654,-0.6336801806092262,0.6497018525402992,-0.0823105052113533,0.0742535069584846,-0.4238860681809485,0.0574304051697254,0.4873152418445795,-0.2875628866875544,159
1724754377346632400,1.5116998634576797,0.6695733317673206,1.0830240767821668,4.786247019061446,-7.734712208762764,3.6655753486692895,1.973085761070252,-1.7963645458221436,-0.0680624619126319,-0.8277147955180474,0.4602193734340759,0.3182857155343591,-0.0421953400126723,-2.825691699981689,-1.1691498756408691,-0.7023691534996033,2.290201187455654,-0.6336801806092262,0.6497018525402992,-0.1144690215587616,0.1282072067260742,-0.1821331849014386,-0.0248746741563081,0.39426794217173,-0.1158833460601977,160
1724754377386400800,-1.8896897112518547,-0.0220242002815008,-4.216592151378095,5.026692436471581,-7.514622766160964,3.799102944627404,1.0194242000579834,-1.8742674589157104,0.2663584351539612,-0.8299417310082655,0.43253323770383,0.3452747628472924,-0.0699783442588948,-2.825691699981689,-1.1691498756408691,-0.7023691534996033,2.290201187455654,-0.6336801806092262,0.6497018525402992,-0.1022277548909187,0.1073987409472465,-0.0986306070973631,0.0017058982048183,0.3262904210213571,-0.0304449619049322,161
1724754377426168600,-1.4256915590435266,0.4560211819797754,0.7617895509108901,5.336769023990631,-7.343839498519897,3.709082774223387,1.8613454103469849,-2.971026659011841,0.1322659403085708,-0.8238309987760607,0.4073399173498348,0.3807408642608645,-0.1020440844223277,-2.825691699981689,-1.1691498756408691,-0.7023691534996033,2.290201187455654,-0.6336801806092262,0.6497018525402992,-0.0779904052615165,0.1297780126333236,-0.1130960899618454,0.1033568829298019,0.1907104225780815,0.1087631935903802,162
1724754377465935600,-0.4516735081642866,-0.5817126774847508,1.6282821698337793,5.65906211900413,-7.2154539416253565,3.476006132015585,1.811413288116455,-2.8803322315216064,0.5972641706466675,-0.8086031700482854,0.3740963751450308,0.4275802921785344,-0.1529309560373081,-2.825691699981689,-1.1691498756408691,-0.7023691534996033,2.290201187455654,-0.6336801806092262,0.6497018525402992,0.0772013142704963,0.1587383449077606,0.0073169411254639,0.1873080730438232,0.2022498710611835,0.2761403608486987,163
1724754377505703700,0.8030348767518997,1.3962807556420564,1.4057009104162457,5.785208957061172,-7.125456275314092,3.4539299092859026,1.83347487449646,-1.6936317682266235,0.6883900761604309,-0.7984374111291886,0.343320364646804,0.4539049511506926,-0.1964669711171281,-2.825691699981689,-1.1691498756408691,-0.7023691534996033,2.290201187455654,-0.6336801806092262,0.6497018525402992,0.2610518932342529,0.1329530328512191,-0.0666154983824351,0.1892273873090744,0.2197369759023189,0.3988088370043784,164
1724754377545471700,2.596644386908412,4.073011071178317,-2.3232830805853006,5.98926087257564,-6.902957433483004,3.556446280908584,1.434659481048584,-1.7601779699325562,-0.552348792552948,-0.7943512407086862,0.3097832463785852,0.4719174119453542,-0.2243531692477663,-2.825691699981689,-1.1691498756408691,-0.7023691534996033,2.290201187455654,-0.6336801806092262,0.6497018525402992,0.3336929678916931,0.1326004564762115,-0.2004269299503415,0.0474312603473663,0.159009042287711,0.2236395180325023,165
1724754377585238800,-3.06172507365644,3.406394251129031,-4.359206724633276,6.294046367949247,-6.6818111753046505,3.450906177550554,-0.3084000051021576,-0.4692787826061249,-0.5611225962638855,-0.7899230840884903,0.2898940284595098,0.4899124438715795,-0.2279664043296606,-2.825691699981689,-1.1691498756408691,-0.7023691534996033,2.290201187455654,-0.6336801806092262,0.6497018525402992,0.4013359248638153,0.1443450599908828,-0.3191065373992547,-0.1447346359491348,-0.284533017472364,0.2497333606394007,166
1724754377625006600,-0.7721522472321987,5.10735645724833,-1.8114061558708547,6.596794804537296,-6.513949348068237,3.1970503666862844,-0.8871397972106934,-0.286257266998291,-1.1852537393569946,-0.7873840900967135,0.2891912397212525,0.5033529778958454,-0.2074377573414781,-2.825691699981689,-1.1691498756408691,-0.7023691534996033,2.290201187455654,-0.6336801806092262,0.6497018525402992,0.4095253050327301,0.0677002817392349,0.1058833273051306,-0.1104867160320282,-0.2686820624656975,0.1604362620792351,167
1724754377664774700,-1.079765659508109,2.1593810968905687,-0.8894505929231643,7.094299505028128,-6.229673556759953,2.6518825822666288,-1.7872238159179688,-0.7102147936820984,-1.8602964878082275,-0.7783188427391216,0.2915004124110752,0.5289793188302501,-0.1715467629611055,-2.825691699981689,-1.1691498756408691,-0.7023691534996033,2.290201187455654,-0.6336801806092262,0.6497018525402992,0.3673431575298309,-0.1092833206057548,0.3359605685012415,-0.1051840186119079,-0.1308817758907564,0.0484306114023318,168
1724754377704541700,-2.419817162927985,-0.965515595471859,3.779156427402794,7.507047946992516,-5.901504263189435,2.233133000191301,-1.4270490407943726,0.2966439723968506,-1.5410560369491575,-0.773408467824987,0.3009784282172938,0.5436486815766868,-0.1252899509977247,-2.825691699981689,-1.1691498756408691,-0.7023691534996033,2.290201187455654,-0.6336801806092262,0.6497018525402992,0.2428047657012939,-0.2172586619853973,0.0256854490356752,-0.1085343211889267,-0.1557869019034318,-0.1200688607170712,169
1724754377744309800,-3.244107593676448,-2.927447536113858,4.09177626966387,7.838579410472512,-5.5722670481264585,1.91751982133314,0.147852748632431,-1.2388111352920532,-0.7747016549110413,-0.7659739692888543,0.2937714051290904,0.562078337159555,-0.1051193574511164,-2.825691699981689,-1.1691498756408691,-0.7023691534996033,2.290201187455654,-0.6336801806092262,0.6497018525402992,0.0715890303254127,-0.16823510825634,-0.010152903195261,-0.1141541004180908,0.3777584501910954,-0.1661396065536886,170
1724754377784077600,-1.1604805336892603,-2.653114462149143,-2.2217209409475327,7.977221572965383,-5.502134942758083,1.50361022663489,-1.1224015951156616,-0.7249443531036377,0.0630827769637107,-0.7529501170974596,0.2967212556708746,0.5790455189062337,-0.0986356156746028,-2.825691699981689,-1.1691498756408691,-0.7023691534996033,2.290201187455654,-0.6336801806092262,0.6497018525402992,-0.0486750304698944,-0.0888406410813331,-0.1737055482959374,-0.1323795169591903,0.5121465354360639,-0.0034954797162325,171
1724754377823844600,2.464051441451907,-3.089870971688628,1.7681068201094865,8.013124660995603,-5.557386289858818,1.0371495567705482,-0.3702577948570251,-0.8033963441848755,-0.1736356168985366,-0.7373440781363835,0.3069923222112669,0.5940335030442521,-0.0959354396795874,-2.825691699981689,-1.1691498756408691,-0.7023691534996033,2.290201187455654,-0.6336801806092262,0.6497018525402992,-0.1060777679085731,0.0630775541067123,-0.1930221701191738,-0.1176133751869201,0.3323699966633692,0.0934816451026592,172
1724754377863612700,1.5218956787794828,-1.6698247250556946,-0.7685187861006707,8.109080943450332,-5.439757104778289,0.9067840050399304,-0.3452750742435455,0.2179269641637802,-0.5087408423423767,-0.7339214530071729,0.3066958261325896,0.5997537439795285,-0.0871354090001102,-2.825691699981689,-1.1691498756408691,-0.7023691534996033,2.290201187455654,-0.6336801806092262,0.6497018525402992,-0.1153973639011383,0.1132789254188537,0.0045320419518015,-0.0888034850358963,0.3365945555558428,0.2097025799536146,173
1724754377903231500,-0.5197761535316705,-0.3703057230323552,-0.4589963253330439,8.204865960991382,-5.30170823200345,0.8616713362462818,-0.1986651122570037,-0.2362866997718811,-0.4395314753055572,-0.7335084560504508,0.305455737012959,0.6022987480778834,-0.0768016068098794,-2.825691699981689,-1.1691498756408691,-0.7023691534996033,2.290201187455654,-0.6336801806092262,0.6497018525402992,-0.0482754707336425,0.0779852345585823,0.071375712221302,-0.016316195949912,0.3163848573504015,0.0928695136868394,174
1724754377942993000,-1.2159586752831937,0.4471674289166927,0.3293324921309948,8.300102696999907,-5.176763170951604,0.6926923415482044,-0.0550600290298461,-0.4994723796844482,-0.2552168667316437,-0.728070399724722,0.3018030246275813,0.611226188641396,-0.0723261154778942,-2.825691699981689,-1.1691498756408691,-0.7023691534996033,2.290201187455654,-0.6336801806092262,0.6497018525402992,-0.0341012552380561,0.0691569820046424,-0.0669471597559051,-0.0377918742597103,0.2344666717940941,-0.1291011121522169,175
1724754377982755600,-1.231267303574085,0.6495873593151569,0.5927688724955543,8.297603865921497,-5.194978626599908,0.5764992171527817,-0.0822784751653671,-0.0820365771651268,0.3462011516094208,-0.7237525383239942,0.302442183832417,0.6157397542415359,-0.0746693552390843,-2.825691699981689,-1.1691498756408691,-0.7023691534996033,2.290201187455654,-0.6336801806092262,0.6497018525402992,0.005774694494903,0.0509179309010505,0.0892774348784703,0.0116558130830526,0.3231291439788415,0.0077436883415299,176
1724754378022518300,-0.2089654065191745,0.9394973571181297,1.0266635263305155,8.192279451140761,-5.356050647565723,0.607977693673782,0.0040297973901033,0.3946895897388458,0.6285796761512756,-0.7242825438313581,0.3094928199403212,0.6109140354283062,-0.0800805396028339,-2.825691699981689,-1.1691498756408691,-0.7023691534996033,2.290201187455654,-0.6336801806092262,0.6497018525402992,0.0454379729926586,0.0110524594783782,-0.0114275376574019,0.0771361291408538,0.4072439993292093,-0.1382137992792762,177
1724754378062279700,0.9597387656360864,-0.4067570925951004,-0.0326104762256145,8.022408622169495,-5.579345608210564,0.8259888321641832,-0.1449627429246902,1.0458844900131226,0.6958622336387634,-0.7313312072632127,0.3194313198989694,0.596531577931119,-0.0852551286090324,-2.825691699981689,-1.1691498756408691,-0.7023691534996033,2.290201187455654,-0.6336801806092262,0.6497018525402992,0.0982338786125183,0.0326738394796848,-0.0805169678557198,0.0684563443064689,0.4052932305876165,-0.113033582652267,178
1724754378102036200,0.980049147737026,-1.3410849381208418,-0.9825106424797324,7.82627288660705,-5.803510921949147,1.1131447089534252,-0.360552966594696,0.99703449010849,0.6052690148353577,-0.7414351361578427,0.3339625820009154,0.5759465338063506,-0.0838361172779248,-2.825691699981689,-1.1691498756408691,-0.7023691534996033,2.290201187455654,-0.6336801806092262,0.6497018525402992,0.1324035376310348,0.1234423220157623,-0.1527353414462413,0.0778530314564704,0.3265452725652605,-0.0331835816721431,179
1724754378141798700,0.4945125329375266,-0.7703764697313308,0.1448392635673284,7.673605705893039,-5.985611702418327,1.2077350368171929,0.1144049167633056,-0.1408027559518814,0.5418151617050171,-0.7442007573490741,0.3431220132512545,0.5662949194596101,-0.0879922999882635,-2.825691699981689,-1.1691498756408691,-0.7023691534996033,2.290201187455654,-0.6336801806092262,0.6497018525402992,0.1318666040897369,0.1939276605844497,-0.0059294174484442,0.1341404765844345,0.268813945217058,0.0081990702803246,180
1724754378181560300,-0.1649193440437316,-0.6460246983975172,0.5238331738375127,7.538162047180533,-6.181938576638698,1.0630734679043292,0.0236117392778396,-0.5144566893577576,0.8329955339431763,-0.7372831541882564,0.3478638580589753,0.5699026893168049,-0.1030298451661535,-2.825691699981689,-1.1691498756408691,-0.7023691534996033,2.290201187455654,-0.6336801806092262,0.6497018525402992,0.0979471132159233,0.1246473938226699,0.0835829586970619,0.1151873618364334,0.1780343530141748,-0.1611734903126023,181
1724754378221322800,-1.4082821590811014,1.4655378317415713,-0.2067711478779092,7.198209376835822,-6.632673342648149,0.6031609410418197,-0.4272186458110809,-2.015270471572876,2.064642906188965,-0.7165786138828145,0.3657068595082236,0.5792286617938103,-0.1314066990174933,-2.825691699981689,-1.1691498756408691,-0.7023691534996033,2.290201187455654,-0.6336801806092262,0.6497018525402992,0.0416838303208351,0.0715061649680137,0.1961599201556295,0.2233502268791198,0.1465967564928345,0.2909734988486394,182
1724754378261084400,-0.6900333514720202,0.9300169965893028,0.4549520914435386,6.540864827522635,-7.306375152522325,-0.0661938800034578,-0.351323515176773,-1.7096586227416992,2.827089548110962,-0.6824015628808491,0.3937301394118023,0.5902131191232545,-0.1759354069608969,-2.825691699981689,-1.1691498756408691,-0.7023691534996033,2.290201187455654,-0.6336801806092262,0.6497018525402992,0.0283846762031316,-0.0001947892596945,-0.1139955321527551,0.1523911207914352,0.0088050322502618,-0.0243527436937671,183
1724754378300846800,0.2513157709926367,0.6628741263896226,0.0754254990687593,5.5667444853127,-8.062155526146292,-0.4282712975278496,-0.2767183780670166,-0.4755823612213135,3.3390443325042725,-0.6544146283469998,0.4299678977619552,0.5804854571798936,-0.2233962020961538,-2.825691699981689,-1.1691498756408691,-0.7023691534996033,2.290201187455654,-0.6336801806092262,0.6497018525402992,0.2294291704893112,0.0579925253987312,-0.2247984605429694,0.3032612800598144,-0.073588027109066,0.4155677006362006,184
1724754378340609500,3.1785879505395886,-0.8678700447559357,-0.1878582845499739,4.82178594995439,-8.530417765539884,-0.39078974466715,-0.0921723544597625,0.9839844107627868,0.6277469992637634,-0.6475200300414593,0.4603664977036291,0.5549661433403452,-0.2465623215516166,-2.825691699981689,-1.1691498756408691,-0.7023691534996033,2.290201187455654,-0.6336801806092262,0.6497018525402992,0.2853989005088806,0.0280663426965475,0.1284330584312323,0.1208762750029563,0.1121698784950189,0.554129162575677,185
1724754378380371200,-0.2717895269617438,-1.1546429135769605,0.5506336851427331,4.887360830409825,-8.491295715463162,-0.4265845134846865,-0.070397287607193,-0.629696249961853,-0.1766698509454727,-0.6474309516132171,0.4594375521318562,0.5573750014886534,-0.2430706331139656,-2.825691699981689,-1.1691498756408691,-0.7023691534996033,2.290201187455654,-0.6336801806092262,0.6497018525402992,0.6226323246955872,-0.0957986339926719,0.1834490350066684,-0.0745666772127151,0.2070551707173697,0.4137600666923448,186
1724754378420133600,0.1757572566613555,1.321052788439393,-0.4898538934767246,4.858350716763734,-8.507698568731547,-0.4311654115341603,0.2896020412445068,0.2380896359682083,0.0598817579448223,-0.6455525977386117,0.457523462942048,0.5591561481430561,-0.2475452271358934,-2.825691699981689,-1.1691498756408691,-0.7023691534996033,2.290201187455654,-0.6336801806092262,0.6497018525402992,0.8272398710250854,-0.1393965035676956,-0.1077818452696781,-0.2610493004322052,0.020525445057149,0.2558537432158366,187
1724754378459896000,0.0637710459038615,0.1445867501109838,-0.6081985333502292,4.900007253754139,-8.493317576679587,-0.1545040772849693,0.6577680706977844,0.0524640716612339,-0.0394014529883861,-0.6570805857572178,0.4534609019215989,0.5497733409728071,-0.2456982350845495,-2.825691699981689,-1.1691498756408691,-0.7023691534996033,2.290201187455654,-0.6336801806092262,0.6497018525402992,0.8562198281288147,-0.1450912356376648,-0.0953065681080333,-0.3349677920341491,0.0354405394192319,0.0107777707950677,188
1724754378499657700,-0.2344724804803729,-1.0635229652374982,-0.468922164607048,4.871292615923285,-8.511188748934865,-0.0236843063802924,0.1735478639602661,-0.0026438254863023,0.2368520647287368,-0.6590534405293782,0.4469748048278392,0.5490182942592237,-0.253852324589776,-2.825691699981689,-1.1691498756408691,-0.7023691534996033,2.290201187455654,-0.6336801806092262,0.6497018525402992,0.7661542296409607,-0.1674759089946746,0.0035203943909582,-0.3201981484889984,-0.0073250370961293,0.0637270377987762,189
1724754378539420200,0.0248962485864758,0.396653047209978,-0.3848585645198822,4.771137420473993,-8.56776286907196,-0.0073407837961771,-0.2252626419067382,0.1906518340110778,0.2480684667825698,-0.6593498279784734,0.4524644550866757,0.5437372460138886,-0.2547222227348714,-2.825691699981689,-1.1691498756408691,-0.7023691534996033,2.290201187455654,-0.6336801806092262,0.6497018525402992,0.6854817867279053,-0.2077714651823043,0.0226450081941206,-0.2652218639850616,0.0770621694930363,-0.1722916811763309,190
1724754378579182800,-0.0263116683423519,0.5536918671369552,0.6190928523302078,4.728373214502632,-8.591175308841466,-0.067528060349822,-0.3293693363666534,0.2473236918449401,0.0922541618347168,-0.6581438368393697,0.4583187536825094,0.5416520034513346,-0.2518007158167986,-2.825691699981689,-1.1691498756408691,-0.7023691534996033,2.290201187455654,-0.6336801806092262,0.6497018525402992,0.621472179889679,-0.1478480547666549,-0.075694566367683,-0.2930240631103515,0.0704509848920861,-0.3734230878679082,191
1724754378618944500,-0.4757783141121268,0.9399246426194906,0.4928045599758625,4.642587905189394,-8.637433786669373,-0.1073383392858784,-0.1798242032527923,0.2819450199604034,0.4104037880897522,-0.6574601606334439,0.4660356932331679,0.5369203524578152,-0.2495466286570339,-2.825691699981689,-1.1691498756408691,-0.7023691534996033,2.290201187455654,-0.6336801806092262,0.6497018525402992,0.4403086304664612,-0.1406859010457992,-0.2217295014264061,-0.2181930243968963,0.0208047369225649,-0.5739879649842158,192
1724754378658707000,-0.2487938512995839,0.147449153804779,0.438020830386877,4.480694923229516,-8.722730727943777,-0.0878690019858069,0.2472234219312667,-0.1686947047710418,0.489366739988327,-0.656025382114415,0.4711139037511824,0.5315371691203818,-0.2552461555905598,-2.825691699981689,-1.1691498756408691,-0.7023691534996033,2.290201187455654,-0.6336801806092262,0.6497018525402992,0.3013546168804168,-0.1887089014053344,-0.0651208987433929,-0.2890972793102264,0.3002458426499739,-0.159059987023659,193
1724754378698469400,-0.1460413328334689,2.8276363317966458,-0.0575695609152317,4.368365013600886,-8.779919765108824,0.0276423438406665,0.3179744482040405,0.1799518465995788,0.4201879501342773,-0.6581021248340084,0.4714475877870012,0.5256689116092759,-0.2613634942592969,-2.825691699981689,-1.1691498756408691,-0.7023691534996033,2.290201187455654,-0.6336801806092262,0.6497018525402992,0.1996485739946365,-0.1402346938848495,-0.2367976537586189,-0.2226801961660385,0.2356236415431834,-0.2563081724524498,194
1724754378738231000,-0.1521162688329815,2.0176444755136966,-0.5046826292961836,4.171831510892511,-8.87284237895608,0.1971776092981919,0.3103320896625519,0.4841518998146057,0.5793662667274475,-0.6613462366433314,0.4741555425278329,0.5149012145791901,-0.269581950588574,-2.825691699981689,-1.1691498756408691,-0.7023691534996033,2.290201187455654,-0.6336801806092262,0.6497018525402992,0.1058287397027015,-0.0261369049549102,-0.0704395045168465,-0.125456616282463,0.2822952484829351,-0.1896132567248307,195
1724754378777993500,-1.4190747712522744,1.8605220689564943,-0.7099795764356851,3.7981621566459536,-9.035644000193477,0.3185276780653744,-0.0788985192775726,0.5229082703590393,1.8669395446777344,-0.6619360337661777,0.4858878079953366,0.4976672036141734,-0.2794296939934743,-2.825691699981689,-1.1691498756408691,-0.7023691534996033,2.290201187455654,-0.6336801806092262,0.6497018525402992,0.0463246144354343,-0.0071036652661859,-0.2735079847848042,0.0702641531825065,0.3151304003098979,-0.0594861031602369,196
1724754378817756000,-2.615010941465199,5.936038400954008,-0.3059679831564426,2.7480387712076304,-9.40763080818057,0.3393375706536695,-0.1785544157028198,0.4603234529495239,3.4905989170074463,-0.649425732605394,0.5184430961939317,0.4625098433765792,-0.3091078009650989,-2.825691699981689,-1.1691498756408691,-0.7023691534996033,2.290201187455654,-0.6336801806092262,0.6497018525402992,0.0638816878199577,0.028080815449357,-0.2092572108062915,0.0656120777130127,0.524654646288231,-0.1037153721489012,197
1724754378857518600,4.925600544694066,-11.678042422538995,2.843718867069483,1.6032378910787404,-9.66776175379157,0.3666065762534737,0.8349566459655762,-1.1252692937850952,2.1891260147094727,-0.626075219812229,0.5388663628018502,0.4369568732427015,-0.3559797073386491,-2.825691699981689,-1.1691498756408691,-0.7023691534996033,2.290201187455654,-0.6336801806092262,0.6497018525402992,0.0119804479181766,0.1457443535327911,-0.3865330736033618,-0.0004932089941576,0.0370463489143643,-0.2636658417388797,198
1724754378897359400,0.1772418691959232,-10.84197270666957,-0.0320119258105754,1.141813388750702,-9.709405431300402,0.7707731408987194,0.6406210064888,-0.3811182379722595,0.7118861675262451,-0.6237530357026023,0.5307255770375684,0.423121577234296,-0.3875959524077089,-2.825691699981689,-1.1691498756408691,-0.7023691534996033,2.290201187455654,-0.6336801806092262,0.6497018525402992,-0.0683154985308647,0.2085903137922287,0.2750512504377402,0.0684627443552017,0.1212863376148976,-0.3322665362888947,199
1724754378937124900,-2.810821098335087,3.395127591705322,-3.1096821720957752,0.8656817409314215,-9.74963748844564,0.6045993763471021,-0.8370723724365234,-1.2264764308929443,0.8609732389450073,-0.6058942760634086,0.5337473727773245,0.4292874935074806,-0.4046209150338302,-2.825691699981689,-1.1691498756408691,-0.7023691534996033,2.290201187455654,-0.6336801806092262,0.6497018525402992,-0.0825539231300354,0.0907157137989997,0.1692514732302166,0.1826581954956054,0.1988423093737102,-0.1102642458030953,200
1724754378976890600,-0.7695885342240333,2.901981086423993,1.3599936367303131,0.5963081160049886,-9.784711724436283,0.2724026173587888,-0.6219998598098755,-0.3455500900745392,0.4154377579689026,-0.5836372432328262,0.5419671493048815,0.4386147972966673,-0.4162405031202161,-2.825691699981689,-1.1691498756408691,-0.7023691534996033,2.290201187455654,-0.6336801806092262,0.6497018525402992,-0.0357178077101707,0.0057762679643929,-0.0545958925664192,0.1122464165091514,0.1741327789983712,-0.1108130387922748,201
1724754379016655000,0.0658708311947062,-0.3372217840760946,2.7878806599915027,0.5917863642642274,-9.787107679662109,0.1807797244658693,0.1380722820758819,0.7729813456535339,-0.356506198644638,-0.5832849084738944,0.5472273831050339,0.4374071221408118,-0.41109102475378,-2.825691699981689,-1.1691498756408691,-0.7023691534996033,2.290201187455654,-0.6336801806092262,0.6497018525402992,-0.0158944930881261,0.0184744596481323,-0.157330934741348,0.053499300032854,0.1838444092661142,-0.0896295910506974,202
1724754379056420900,-0.1746091095395386,0.0305015212476253,0.2997720511257648,0.7375457018185406,-9.774153505542872,0.3038662251042202,0.223157063126564,0.6999918818473816,-0.3153783679008484,-0.596504011699804,0.5475093732048903,0.4298146347515264,-0.3995945964103502,-2.825691699981689,-1.1691498756408691,-0.7023691534996033,2.290201187455654,-0.6336801806092262,0.6497018525402992,0.0002623795298859,0.0750613212585449,-0.0989746621615253,-0.018426751717925,0.1151486111780162,0.0906625964934006,203
1724754379096183300,0.6575880757454783,-0.2692214300394058,-1.2744646402657032,0.7873126992240548,-9.766523156794904,0.4068654848730191,0.26519575715065,0.3108011484146118,0.0259826779365539,-0.6044142847571105,0.547571873828584,0.4235807795403131,-0.3942432191582744,-2.825691699981689,-1.1691498756408691,-0.7023691534996033,2.290201187455654,-0.6336801806092262,0.6497018525402992,0.0060664280317723,0.0444287844002246,0.048430857997504,0.0038582039996981,0.1700547159045003,-0.0032772875129536,204
1724754379135948000,0.3636052024804055,-0.1329448276340961,-0.813330572251603,0.7808234102699905,-9.764237091684342,0.4694633953442796,-0.0070313857868313,-0.100548006594181,-0.0132431127130985,-0.6065778381177944,0.5463513680189783,0.4213836857947318,-0.3949676033743965,-2.825691699981689,-1.1691498756408691,-0.7023691534996033,2.290201187455654,-0.6336801806092262,0.6497018525402992,0.0093489727005362,0.005338710732758,0.0217462418566457,-0.0128989331424236,0.2336919610945508,-0.0060019700863573,205
1724754379175713500,0.069570745158568,0.1200122808247804,0.3346399143567308,0.790695692725852,-9.765052499720454,0.434646970039606,-0.1067660897970199,0.2208380401134491,-0.0281073916703462,-0.6059793188455272,0.5474085958549183,0.4221172835987115,-0.3936366448789453,-2.825691699981689,-1.1691498756408691,-0.7023691534996033,2.290201187455654,-0.6336801806092262,0.6497018525402992,0.0176590178161859,0.0096915457397699,-0.1464537404261063,0.0366246402263641,0.3325075785031542,-0.0227709406953072,206
1724754379215479000,0.6246051860108971,0.0585258387267589,-0.1245604821810498,0.79695197664164,-9.765366972497104,0.4157552225649356,-0.0270098652690649,0.0692666321992874,-0.0339076034724712,-0.6071529564797146,0.549556383617585,0.420464225078824,-0.390592960250878,-2.825691699981689,-1.1691498756408691,-0.7023691534996033,2.290201187455654,-0.6336801806092262,0.6497018525402992,0.0194984208792448,0.1136099174618721,-0.2664235794818028,0.0759408324956893,0.1297174813517369,0.0512157851414522,207
1724754379255243800,0.2329671174187213,0.034679683715105,-0.1595387835165485,0.8080619111336768,-9.765015674841404,0.4024005413534119,-0.0661611333489418,-0.046803094446659,0.0143377082422375,-0.6069497503894383,0.5496787075875285,0.4211135252902396,-0.3900370448054315,-2.825691699981689,-1.1691498756408691,-0.7023691534996033,2.290201187455654,-0.6336801806092262,0.6497018525402992,-0.0370645672082901,0.3207884430885315,-0.5976015898816287,0.2756598591804504,-0.0279813140210462,0.0154044213821413,208
1724754379295009300,0.3415382590357214,0.0612432809919118,0.0535316837012767,0.8168064316686242,-9.765092247208951,0.3823627291161566,0.0162213537842035,-0.2206307500600814,0.0256479512900114,-0.6055436862759928,0.5490119323530023,0.4231912377368595,-0.3909118020880004,-2.825691699981689,-1.1691498756408691,-0.7023691534996033,2.290201187455654,-0.6336801806092262,0.6497018525402992,-0.1146828681230545,0.5753800272941589,0.4594713954988866,0.6249489784240723,0.3799876705478877,0.2010721873176284,209
1724754379334775000,0.4168040009655058,0.0445125109434127,0.0313911270311102,0.8335676699206233,-9.763473706096413,0.3874442336315289,0.074826568365097,-0.3189566135406494,0.0334074795246124,-0.6037511831964222,0.546030015689059,0.4267283263770994,-0.3940032649368513,-2.825691699981689,-1.1691498756408691,-0.7023691534996033,2.290201187455654,-0.6336801806092262,0.6497018525402992,-0.0461150743067264,0.2098204493522644,0.1326209477082826,0.3911507129669189,0.2117241671754047,0.2127398287576623,210
1724754379374539500,0.0089898735981434,0.1149257713407278,0.1683942901453003,0.8442435969095676,-9.761911863607168,0.4033711034186184,0.081451341509819,-0.2822332978248596,0.018136179074645,-0.6020205249309027,0.5427163666629984,0.4299915612778912,-0.3976649943660058,-2.825691699981689,-1.1691498756408691,-0.7023691534996033,2.290201187455654,-0.6336801806092262,0.6497018525402992,-0.0032428528647869,0.1746031641960144,0.0205233489981852,0.3070971667766571,0.1560490599709562,0.1448909206893295,211
1724754379414305300,-0.1871164897393435,-0.0775467655390501,0.0617021306753158,0.8618323720268904,-9.759329445898532,0.4279122549571096,0.0793228447437286,-0.305338054895401,0.0158346071839332,-0.6006803719769293,0.5389999874355459,0.4331992165017209,-0.4012487001266965,-2.825691699981689,-1.1691498756408691,-0.7023691534996033,2.290201187455654,-0.6336801806092262,0.6497018525402992,0.0554008111357688,0.0962477251887321,0.1910812834507785,0.1719638705253601,0.2414081614950671,0.2661723264007829,212
1724754379454070800,-0.1388859811861068,-0.0285328515231609,-0.0104612247923389,0.8568469117645173,-9.758963535195589,0.4459065421354025,0.06164475902915,-0.2558529078960418,0.0242458283901214,-0.5987876017161288,0.5360956083499303,0.4357368379800433,-0.4052015672945765,-2.825691699981689,-1.1691498756408691,-0.7023691534996033,2.290201187455654,-0.6336801806092262,0.6497018525402992,0.127069815993309,0.0132206063717603,0.0433840503361774,0.1096955835819244,0.1808685169941745,0.2313930182361044,213
1724754379493835500,-0.1882056732155382,-0.0394143110215663,0.0670505059659481,0.8484070001993328,-9.759005620771646,0.4608707774354145,0.0536636523902416,-0.2265341728925705,0.0310010481625795,-0.5970856809648181,0.5337480787654085,0.4377386423641472,-0.4086398938912728,-2.825691699981689,-1.1691498756408691,-0.7023691534996033,2.290201187455654,-0.6336801806092262,0.6497018525402992,0.168218582868576,-0.0082783224061131,-0.0005310158747161,0.1007520407438278,0.2201396201527677,0.1649343406834639,214
1724754379533601000,-0.1118758822508156,0.0203805247277021,0.1092944874554872,0.8388151421200484,-9.759394327828288,0.4701023143023252,0.0329522378742694,-0.1772096306085586,0.0234433878213167,-0.5954744197845177,0.5319044054154277,0.439441869552114,-0.4115565103034136,-2.825691699981689,-1.1691498756408691,-0.7023691534996033,2.290201187455654,-0.6336801806092262,0.6497018525402992,0.140415221452713,0.0203050915151834,-0.0587595059187384,0.0832630023360252,0.2395832110902294,-0.022465347628144,215
1724754379573366500,-0.1137020747646689,-0.0702899262785911,0.0780477007985115,0.828221705782786,-9.76000281511545,0.4762102757886052,0.0302924383431673,-0.1876350492238998,0.0167697072029113,-0.5939531217021279,0.530396868433859,0.4409072414960311,-0.4141251410847281,-2.825691699981689,-1.1691498756408691,-0.7023691534996033,2.290201187455654,-0.6336801806092262,0.6497018525402992,0.077540822327137,0.0550657734274864,-0.054771646425547,0.0260546077042818,0.2060122558020055,0.0295839269120944,216
1724754379613131300,-0.2446503217540681,-0.0122813894242048,0.0615846417754888,0.8207549500986934,-9.760251236918569,0.4839942807283252,0.0353253819048404,-0.1576852351427078,0.0171851944178342,-0.5929009405414929,0.5291543793235761,0.4419488685835464,-0.4161073797799528,-2.825691699981689,-1.1691498756408691,-0.7023691534996033,2.290201187455654,-0.6336801806092262,0.6497018525402992,0.0597890168428421,0.0524836406111717,0.0045157917866104,0.0461294241249561,0.2093257825304754,-0.0697359821902588,217
1724754379652896800,-0.1903156511068344,-0.0056996729463338,0.087798658429645,0.8120599677938968,-9.76024831430912,0.4984817288294434,0.0304017476737499,-0.0747087448835372,0.015837213024497,-0.5921821041746883,0.527930415154762,0.4425765254735685,-0.4180141128433448,-2.825691699981689,-1.1691498756408691,-0.7023691534996033,2.290201187455654,-0.6336801806092262,0.6497018525402992,0.00988529343158,0.0807438716292381,-0.0296054126581177,0.030528562143445,0.1835997320563532,-0.2017742711723782,218
1724754379692662500,-0.2242936893586069,-0.0461041640490293,0.0675157853901386,0.8002486070342362,-9.76069547355473,0.5087383344277739,0.0248226877301931,-0.0418754033744335,0.0121863149106502,-0.591710515899493,0.5273633083077349,0.4426618396797488,-0.4193055083918685,-2.825691699981689,-1.1691498756408691,-0.7023691534996033,2.290201187455654,-0.6336801806092262,0.6497018525402992,-0.0282246135175228,0.0945819690823555,-0.1082612080181483,0.0151406591758131,0.107638153349515,-0.1284443287439178,219
1724754379732427000,-0.0338190482977777,-0.0375678063720464,-0.0688601857364177,0.7878427875127643,-9.761301038232444,0.516426039386168,6.22074585407e-05,0.0140406563878059,0.0106073906645178,-0.5915816525523417,0.5273378019508373,0.4422492997538018,-0.4199542847193917,-2.825691699981689,-1.1691498756408691,-0.7023691534996033,2.290201187455654,-0.6336801806092262,0.6497018525402992,-0.073694996535778,0.0931233465671539,-0.0066449904016073,0.0342218950390815,0.118663450898556,-0.1255945562028326,220
1724754379772192800,0.0197867966182529,0.0131809686124324,0.0216477316519245,0.7758365617681294,-9.762070269039272,0.5200406131541356,0.0071625900454819,0.0094687230885028,0.0044454159215092,-0.5915540925250693,0.527640151458012,0.4416799496289295,-0.4202123814451662,-2.825691699981689,-1.1691498756408691,-0.7023691534996033,2.290201187455654,-0.6336801806092262,0.6497018525402992,-0.1013385728001594,0.0939704328775405,-0.021997431005584,0.0461807027459144,0.052947992928652,-0.096320339127304,221
1724754379811958300,-0.1119087616071105,-0.0081739541053771,0.0492043950866907,0.7724087062112986,-9.76226257674098,0.5215136083161458,-5.6970398873e-05,0.0268500782549381,-0.0045315991155803,-0.5916387333988127,0.5277977267877885,0.4414065765014974,-0.4201824532636265,-2.825691699981689,-1.1691498756408691,-0.7023691534996033,2.290201187455654,-0.6336801806092262,0.6497018525402992,-0.0939934775233268,0.0597662068903446,0.0110248842737986,0.063668243587017,0.0762801385701401,-0.0767532131417188,222
1724754379851723000,0.0407735436107963,-0.0279646962463855,-0.0522615541676059,0.7746013208847492,-9.76222399829626,0.5189813133595511,-0.0129047036170959,0.0411370620131492,-0.0048894677311182,-0.5919467991725861,0.5281710573239254,0.4411061669781687,-0.4195945673815188,-2.825691699981689,-1.1691498756408691,-0.7023691534996033,2.290201187455654,-0.6336801806092262,0.6497018525402992,-0.0644241943955421,0.1028106287121772,-0.0542325026141246,0.0514569096267223,0.0495070358616532,0.004368870154678,223
1724754379891488500,-0.0949437444113194,0.000296352598071,0.076067925158143,0.7714552779439836,-9.76265362188518,0.515599452368915,-0.0210113897919654,0.0631967857480049,0.0007305567269213,-0.5921942893039444,0.5287720508521055,0.4405812779609975,-0.4190396320349218,-2.825691699981689,-1.1691498756408691,-0.7023691534996033,2.290201187455654,-0.6336801806092262,0.6497018525402992,-0.0580366849899292,0.0591998025774955,0.0298977192687336,0.0581466555595397,0.1346705645813141,-0.0423003878518939,224
1724754379931237400,-0.015116758980602,0.0230500361979007,0.0782896928608417,0.7697394139368087,-9.762961664921043,0.5123297465158626,-0.0020117396488785,0.0652425661683082,-0.0002406194398645,-0.5926289249888024,0.529498830004961,0.4398970802708885,-0.4182255595399746,-2.825691699981689,-1.1691498756408691,-0.7023691534996033,2.290201187455654,-0.6336801806092262,0.6497018525402992,-0.0605785250663757,0.0528474450111389,-0.0538367036629933,0.0374096371233463,0.1535204182761721,0.0062283958284417,225
1724754379971002400,0.070528338144347,0.014606617501378,-0.0054348845303058,0.7681902847986668,-9.762897952035068,0.5158485317591578,-2.1979212760925293e-07,0.0457292348146438,-0.0040618050843477,-0.5931821988694147,0.5299432381139081,0.4391573858546088,-0.4176551837937352,-2.825691699981689,-1.1691498756408691,-0.7023691534996033,2.290201187455654,-0.6336801806092262,0.6497018525402992,-0.066323846578598,0.0574695989489555,-0.0544599957936443,0.0416647791862487,0.1885149766267277,0.0217987483620177,226
1724754380010766300,-0.0858976105812936,0.0029717092871665,0.0383938088674098,0.7674973340984433,-9.76278630835414,0.5190063747355714,-0.0029045660048723,0.0306485258042812,-0.0002709638210944,-0.5935314604461331,0.5301553993947076,0.4387177805027025,-0.4173518400371458,-2.825691699981689,-1.1691498756408691,-0.7023691534996033,2.290201187455654,-0.6336801806092262,0.6497018525402992,-0.057229109108448,0.0691592469811439,-0.0375212660998688,0.0430396571755409,0.2072475880169309,-0.0431864499714225,227
1724754380050531000,0.1037158105403184,-0.0227016611516475,0.0006149900931864,0.7697189556706696,-9.762551330554484,0.5201238344581798,-0.0077223530970513,0.0488406643271446,-0.0055952025577425,-0.5939885323845412,0.530470315624394,0.4382719573175586,-0.4167693551294044,-2.825691699981689,-1.1691498756408691,-0.7023691534996033,2.290201187455654,-0.6336801806092262,0.6497018525402992,-0.0015163639327511,0.0957508832216262,0.2700605294783599,0.1198588758707046,0.2131072555642575,-0.0911664360960014,228
1724754380090297300,0.0315546104971319,0.01932137106359,0.0179570969730615,0.7697549037668854,-9.762675249195098,0.517745743682608,-0.003802424762398,0.0342194139957428,0.0010792566463351,-0.5942557185774211,0.5308900878510093,0.4379018474527872,-0.4162426532838016,-2.825691699981689,-1.1691498756408691,-0.7023691534996033,2.290201187455654,-0.6336801806092262,0.6497018525402992,-0.1945735514163971,0.1014612168073654,-0.0886291727033443,0.0027029402554035,0.1454162049387581,0.0230499357332009,229
1724754380130061000,-0.0185676300868391,0.0187923787534236,0.0954892494648694,0.7700473839074373,-9.762444363048672,0.5216163015056401,0.0120420455932617,0.0272348076105117,0.0007219240069389,-0.5946554619202147,0.5310689947241501,0.4374593609898767,-0.415908499060414,-2.825691699981689,-1.1691498756408691,-0.7023691534996033,2.290201187455654,-0.6336801806092262,0.6497018525402992,-0.2337525188922882,0.006511565297842,-0.1032062718492932,0.0592177584767341,0.16045872963937,-0.2233953522793948,230
1724754380169826000,0.024632921475172,0.0267173265337944,0.0009569353986531,0.7712895659882575,-9.762140411666037,0.5254683738239109,0.004639646038413,0.0228903740644454,-0.003710264340043,-0.594955794423468,0.5311016147379538,0.4371952012834865,-0.4157151609420669,-2.825691699981689,-1.1691498756408691,-0.7023691534996033,2.290201187455654,-0.6336801806092262,0.6497018525402992,-0.2583930790424347,0.0283308364450931,-0.1362403894476127,0.0533467233180999,0.2238918122931383,0.033261176952999,231
1724754380209591000,0.0790259712461382,-0.0004933364748954,-0.05165715853367,0.771963154400885,-9.761863348290325,0.5295992996161804,-0.0036716759204864,0.0603864341974258,-0.0007962808012962,-0.5954418256143507,0.5313384889837104,0.4366661896662348,-0.4152722778560596,-2.825691699981689,-1.1691498756408691,-0.7023691534996033,2.290201187455654,-0.6336801806092262,0.6497018525402992,-0.2559531927108764,0.0601761192083358,-0.0574568212557584,0.0328070111572742,0.2506011929824948,-0.047176254826528,232
1724754380249355000,0.0836592570699751,-0.0295236161261796,0.0522428129345178,0.7724176932353526,-9.761863348290325,0.5289496035357937,0.001201813109219,0.0031753715593367,-0.002622245112434,-0.5957032046083992,0.5316314341821332,0.4363474466689338,-0.4148573931870731,-2.825691699981689,-1.1691498756408691,-0.7023691534996033,2.290201187455654,-0.6336801806092262,0.6497018525402992,-0.2673247158527374,0.0458944588899612,-0.1822017566256225,0.1073753014206886,0.0614908625448122,-0.1454951336601748,233
1724754380289120000,0.1139442129574716,0.0629337182968854,-0.0679735025623813,0.7750525717835873,-9.761544199338555,0.5309523581929505,0.002763888798654,0.0086342012509703,-0.0103206289932131,-0.5958536804172719,0.5315535418316426,0.4363253329513309,-0.4147641889078532,-2.825691699981689,-1.1691498756408691,-0.7023691534996033,2.290201187455654,-0.6336801806092262,0.6497018525402992,-0.5524325370788574,0.0201389398425817,0.0591198134313803,0.0731345489621162,0.0988274083110969,0.1807963468071073,234
1724754380328884700,0.1316917588330805,0.0032230536997318,-0.0752934336543083,0.7834918988268822,-9.761091779395937,0.526899758333899,-0.0129179134964942,-0.022691311314702,-0.0123359290882945,-0.5958743611843921,0.5314376883847369,0.4367030712336427,-0.4144854606176201,-2.825691699981689,-1.1691498756408691,-0.7023691534996033,2.290201187455654,-0.6336801806092262,0.6497018525402992,-0.27875816822052,-0.075395219027996,0.0994546185650397,0.1932080239057541,0.1103754328262992,-0.0791583745873067,235
1724754380368648700,-0.069870897148922,-0.0084352353900671,-0.0429927540302276,0.7896276981681585,-9.760805363669991,0.5230300407610833,-0.0034796791151165,-0.0701125189661979,-0.0034390131477266,-0.5955222281838624,0.5310208054334039,0.437435472850665,-0.4147535021534594,-2.825691699981689,-1.1691498756408691,-0.7023691534996033,2.290201187455654,-0.6336801806092262,0.6497018525402992,-0.5173068642616272,-0.1213001161813736,0.1261154565380886,0.1388295739889145,0.1684717575619928,-0.8683853738669306,236
