time_imu,phone_acc_x,phone_acc_y,phone_acc_z,phone_gravity_x,phone_gravity_y,phone_gravity_z,phone_gyro_x,phone_gyro_y,phone_gyro_z,phone_ori_w,phone_ori_x,phone_ori_y,phone_ori_z,watch_gyro_x,watch_gyro_y,watch_gyro_z,watch_acc_x,watch_acc_y,watch_acc_z,headphone_gyro_x,headphone_gyro_y,headphone_gyro_z,headphone_acc_x,headphone_acc_y,headphone_acc_z,frame_imu
1722330650303410200,-0.328483839412406,17.874211769104004,-1.8173942903697489,-0.1216261731616687,9.68589303828776,-1.5294005014516412,0.3199299573898315,-0.1238723993301391,0.1112024411559104,0.4674141041528494,0.553589225927031,-0.5210726373891102,-0.4511610725616199,-0.2559092044830322,0.0922654792666435,0.0422472357749938,15.866097338479756,-10.454788914072513,2.290409861770272,0.3445121943950653,0.2077941745519638,16.28343778440952,0.5101863741874695,0.0546197529326193,-0.0599583420481765,0
1722330650343176000,-0.0130506339307641,14.092981750297543,-5.895909804183244,-0.0673049647842068,9.660044311282038,-1.6880236679606138,0.0055064088664948,-0.409538984298706,0.2453779578208923,0.4601489610230878,0.5512413626182605,-0.531223319130401,-0.4496641098176228,0.0796165838837623,0.368037611246109,0.3232446014881134,11.65207211498022,-10.265801296699047,0.5984604352006688,0.2133865505456924,-0.183633491396904,15.205224030518533,0.4660720825195312,0.3649036447931081,-0.5648720538536086,1
1722330650382940400,0.17246813372178,6.317618966716528,-4.513614027012884,-0.0259730634881532,9.69450421476662,-1.478623523285985,-0.7347782254219055,0.1808612644672393,-0.0532434098422527,0.4664313409141609,0.5443831915162052,-0.5282383557919564,-0.4550309160500292,0.757179856300354,0.9792381525039672,0.3625289499759674,5.541407214960455,-5.427510202145577,-2.6569834125369787,0.0488137230277061,-0.8476967215538025,6.766460466325283,0.6666722297668457,0.1577035309134051,0.293409439024981,2
1722330650422705200,0.561112226396054,-1.918965490096808,-1.2620799365974962,-0.0551876616142224,9.733491240286826,-1.1943706744618714,-0.7702142000198364,0.414746880531311,-0.2091783434152603,0.477452253386555,0.5425549242751946,-0.5162655415977317,-0.4595035869795492,1.2196098566055298,1.674347758293152,-0.3127675652503967,-0.3617670272678137,1.751475418782234,-1.465054578269273,0.0744629800319671,-1.5246942043304443,-5.514223439958691,0.5984737277030945,-0.1842222844014875,-0.654910380968824,3
1722330650462470700,0.5246078845370561,-9.83014544187784,-0.5933025775134563,-0.1844815381258726,9.775227272254227,-0.7624141856152564,-1.5376722812652588,-0.2530965805053711,-0.4162612855434418,0.4867168903810593,0.53571433207857,-0.5018789295280768,-0.4735338918533132,1.0395644903182983,1.4004292488098145,-0.7494192719459534,-7.333072020789981,8.952313390555977,-0.268307237803936,-0.0418540053069591,0.0321412794291973,-12.15842472331524,0.2671713531017303,-2.391653436978161,-1.1431841656472532,4
1722330650502235100,-0.2923119443781674,-12.098417706120014,3.112105599850416,-0.3333229500066488,9.800582078263163,-0.0888273164907935,-1.4886339902877808,0.0280739720910787,-0.2630435824394226,0.5000684546191764,0.5213187268768764,-0.4824476323040317,-0.4953813670672382,0.5549258589744568,0.3642989695072174,-0.7156686186790466,-10.617384199082853,5.498101741719245,-3.5196459517776963,0.0299920532852411,-0.0555210970342159,-7.256980130234361,-0.1009051799774169,-0.5417287498816847,-0.015419907787285,5
1722330650542151700,0.1458145748728886,-12.541281884884834,2.45278185941875,-0.380296590366587,9.797376560220124,0.1928112490485422,-0.0953327342867851,0.0197648871690034,-0.0233996622264385,0.5067969130133951,0.5156838864149307,-0.473539324124704,-0.502978674439314,0.4038639068603515,0.2840219438076019,-0.4554271399974823,-9.712143331831694,5.6779538664788,-4.361560009761154,0.106614701449871,-0.1335629075765609,-9.080146574264765,0.0613259226083755,-1.1971338555648925,0.0416222922275075,6
1722330650581920300,0.9906545667730272,-12.508963669604062,-0.0889443578660488,-0.3781877449864521,9.797829564684628,0.1728907978469505,0.0180930197238922,-0.0115058049559593,0.0482071824371814,0.5065288822907394,0.5163388201786968,-0.4738979267986477,-0.5022384257395421,-0.0847723558545112,-0.0489915683865547,-0.0812483355402946,-10.671950486528871,6.903298794266581,-3.256827374517917,0.0710405111312866,-0.1601228415966034,-9.787651869541406,-0.1434294730424881,-1.1773995197862386,-0.7143358719490468,7
1722330650621690600,0.5406935616150498,-12.076764677238463,0.1741045392845757,-0.3118977385316044,9.80032898028493,0.1633284763894043,0.1033434942364692,0.0424283891916275,0.2803363800048828,0.5078168700398017,0.5148316473717456,-0.4760472041279687,-0.5004493436052797,-0.1090694367885589,-0.3436886072158813,0.100929394364357,-10.21582935130596,5.194443204548954,-3.1417966814979907,0.0833673402667045,-0.1561294049024582,-10.008810402679442,-0.1257446110248565,-1.3711992136165498,-0.3818679678691551,8
1722330650661461000,0.9808378138966858,-11.168929701840876,0.0978928034752607,-0.2155910717366263,9.804234171029924,0.0300470531951053,0.5102487206459045,0.0358383543789386,0.1582079529762268,0.507103291528287,0.5162643149254343,-0.4816006476106316,-0.4943463109052368,-0.0546871572732925,-0.3067703247070312,0.2979447245597839,-9.342099474605916,5.507966717651486,-3.515810026876628,0.1497898548841476,-0.0219004526734352,-9.939553911101818,-0.1415246725082397,-1.464762463454902,-0.6871643719069659,9
1722330650701232600,1.042280855244398,-9.531098197895288,-0.3195043410778045,-0.1891968214110471,9.802989723926782,-0.1897122601198963,0.580888569355011,0.142379879951477,0.0058252685703337,0.5029215618239571,0.5222366875663681,-0.4867663457171264,-0.4872343322060542,-0.3602862060070038,-0.3634698688983917,0.4102445542812347,-8.666610196793078,5.322122659000754,-3.078962916444242,0.0901505798101425,-0.0599699020385742,-10.20700891599059,-0.2945513725280761,-1.6558336091041563,-0.6454199374374002,10
1722330650741003000,1.004380163656175,-2.447923897993564,0.6928641909837723,-0.1985815212793648,9.797074946925044,-0.3850597496477886,0.4665814638137817,0.0194691754877567,-0.109619602560997,0.4983730205866952,0.5283870037886758,-0.4903465693605723,-0.4816551855824008,-0.7008352875709534,-1.144497632980347,0.2624048292636871,-5.833354271548986,3.08503697566092,-0.6419134636864066,0.4580543041229248,0.439536839723587,3.2146970825359222,-0.4910052418708801,0.475712190073356,0.9679993751116096,11
1722330650780773600,-1.0725527324546127,6.7215954886823885,1.0532769540984184,-0.2261518844459205,9.76966437743008,-0.8202915703706443,1.555625557899475,-0.3933697342872619,0.0519844442605972,0.4838093537035353,0.5378948135237532,-0.502486220278847,-0.4733975191292547,-1.4895527362823486,-1.4007591009140017,0.2558643817901611,6.538994357475638,-2.8526263961464164,0.2035223386824131,0.5847134590148926,1.61942458152771,8.650390883398055,0.0317637883126735,-0.1164512456086464,1.7625205444097518,12
1722330650820545000,-1.2910700303688645,12.811990338611604,1.2536017388485372,-0.2409198847877793,9.720290982452036,-1.2760478178039192,1.2915596961975098,-0.102247342467308,-0.0384591855108737,0.4688856244844699,0.5473747486537269,-0.5152098732231813,-0.4637736755959923,-0.9768239855766296,-1.487313747406006,0.7986075282096863,8.131849824619293,-6.931560427632928,1.1648550955116748,0.326290875673294,0.5354186296463013,11.909724687778947,0.4560243487358093,-0.4559322981199249,2.844473777090013,13
1722330650860315600,-0.3184384654119611,13.239399758613107,-1.9521461674258112,-0.2561697503624484,9.60577145382464,-1.9580337641596792,1.825674057006836,-0.2947854101657867,0.0845498740673065,0.4467549833120101,0.5613926131808243,-0.5335450032782193,-0.4478593152056561,-1.0224740505218506,-0.619551956653595,1.1822291612625122,12.484319057691096,-9.91515129125118,3.0548920127660035,0.0404717251658439,-0.1907635778188705,10.365369924432038,0.0834604874253273,1.1157077643744646,0.1457092148022726,14
1722330650900086300,0.7176213233605027,7.121914657184481,-4.554159095630049,-0.2091524169912561,9.523920269089936,-2.328421758648008,0.2705262899398803,0.3338983654975891,0.1007187888026237,0.4377378851922757,0.5696630345179255,-0.5424025235762119,-0.4355099843230374,0.3738932311534881,-0.1390355974435806,0.873406171798706,7.040588957628607,-6.696168786481023,1.7857623037874697,-0.0338164493441581,-0.5447788834571838,4.677411381289363,0.1776492595672607,0.7778547697227448,0.2296761495819315,15
1722330650939857400,0.5408425781643018,0.7759639144748449,-2.29364957434386,-0.1574709094676189,9.517306403908131,-2.359331714566052,-0.1255640238523483,0.0699379369616508,0.0671803578734397,0.4394938825606433,0.5707844354977484,-0.5426762996144134,-0.4319173407426081,0.2918764054775238,0.271476149559021,0.4498712420463562,1.4930126986443994,-0.6304401757746935,0.1062444522351026,-0.0305623188614845,-0.1148138344287872,-1.4197342580743133,0.2044773995876312,-0.314820238382183,0.1559379277466796,16
1722330651019398400,-0.2193726726345717,-4.579766999617219,0.7142997777223586,-0.1001037392566911,9.56479413127005,-2.162192793310433,-0.2475918680429458,0.2089014202356338,0.1373711228370666,0.4474907359158785,0.5656038930207966,-0.5388259344316217,-0.4353284820608519,0.2222379148006439,0.1380710005760193,-0.076233334839344,-2.770804437506199,2.615025846773386,-1.173805367751792,-0.300378680229187,-0.0916985496878624,-3.2711753410831093,0.1252464652061462,-0.4224671778263524,-0.3830838464649393,17
1722330651059170000,0.553021530127339,-6.056707684382796,1.1988847908854483,-0.0487426821593428,9.5772315880388,-2.108232216672599,-0.0605791434645652,-0.0137954503297805,0.023071564733982,0.4515068960254672,0.5644480784752844,-0.5374832961896931,-0.4343403925862441,0.1768110394477844,0.0758075714111328,-0.0184711720794439,-4.580051661777496,4.538040904521942,-0.6833253782659768,-0.3236386179924011,-0.3110957741737366,-5.434793344891071,0.1689996719360351,-0.6527761454191059,-0.2583721740438602,18
1722330651098940700,0.5204505091292784,-5.307824669057131,1.485240603338182,-0.0793190541748888,9.583870003139973,-2.0769075424738226,-0.0933823809027671,0.0219665858894586,-0.1312886178493499,0.4513250008132282,0.5640616463985386,-0.5364021599446708,-0.4363633888235263,-0.3475379347801208,-0.0405613295733928,-0.0554108135402202,-4.9475551868706935,5.081759074655175,-0.2773269950836897,-0.2039370089769363,0.1599451005458831,-6.009523323881626,0.1112093329429626,-1.081238435474411,-0.732094962131977,19
1722330651138711000,1.184334214420244,4.724501049244403,2.371679739485681,-0.1413603262772318,9.583548516100644,-2.0750984472252427,0.3212578594684601,-0.3918776214122772,-0.1975217759609222,0.4492041142648417,0.5648252874669916,-0.5355118790262449,-0.4386515893329095,-0.925450325012207,-0.7724494338035583,0.0635063201189041,0.0058458034187555,-0.9138426913797856,1.6443337254464625,-0.0854678973555564,0.7210313081741333,-1.2417162168741225,-0.1213621795177459,-0.3395267730828374,-0.8181138610053807,20
1722330651178482400,0.2900822673636488,24.942206035530567,-4.355624774493277,-0.235464761187043,9.50931014445722,-2.3849511628605424,0.9119279980659484,-0.9639361500740052,0.2430929541587829,0.4315167156885108,0.5668045448136902,-0.5480248897434121,-0.4384002642550674,-0.3741522431373596,0.8959183096885681,-0.5546344518661499,27.94331209757328,-18.964569549775124,3.0553859337627887,0.3085615336894989,0.3522738516330719,16.69383411028981,0.3020150065422058,1.514581702504307,2.2828249595992265,21
1722330651218252800,0.8335065143179148,22.30088488702774,-11.261879203695058,-0.0387811413842951,9.53211994215846,-2.3038174787454304,-1.3536685705184937,-0.0855600833892822,0.8444968461990356,0.4322512820706638,0.5514486372636483,-0.5597913926912371,-0.4423763496162151,1.4058040380477903,0.5774266719818115,-0.6675808429718018,17.763421490132806,-19.84353615808487,0.7626490903496742,0.2753576338291168,0.0593495592474937,26.61945185049772,-0.500417172908783,2.207393578778952,0.6282591054085642,22
1722330651258023400,-0.2504799046903848,9.73930431047976,-6.169993287301063,0.1699748190687038,9.62918973881304,-1.849385173392296,-1.027676701545715,-0.3949451148509979,0.3127372562885284,0.4483212155907259,0.5328543100002998,-0.557098450675367,-0.4524552883663139,0.8334962129592896,1.0875184535980225,-0.2969865798950195,9.261374079030752,-8.092246713027357,-3.936947234740853,-0.1718049198389053,-0.6029724478721619,13.557192619597911,-0.3847314119338989,1.0021937595278023,1.376818222542107,23
1722330651337565400,-0.3973898005193099,-11.830518464595078,1.7289830164670943,0.1343271579711232,9.774347566810247,-0.7838722033813595,-1.4769566059112549,0.6711964011192322,-0.2119366973638534,0.4813745194922086,0.5143580490920646,-0.5247877242222526,-0.4778201872778908,1.3905001878738403,1.2587186098098757,-0.5053965449333191,-9.020272828060389,10.660537112110852,-0.5385492430627346,-0.2315205782651901,0.0200189929455518,-15.002066433495282,0.3846395015716553,-3.983286668850481,-0.4364981873968616,24
1722330651417107500,0.9602399200912564,-12.569233721649644,2.046226426875591,0.0161454581409459,9.804678992187975,-0.1959578765111975,0.3631329238414764,-0.2670889496803283,-0.2109898328781128,0.4967815802599475,0.5059803366731243,-0.5039592941831249,-0.4931703609843492,-0.5258195400238037,-0.2494903206825256,-0.2609322667121887,-9.530728780061006,8.699945480161904,-4.340416976228356,0.1741921603679657,-0.3680117726325989,-9.248159208148715,0.1454642564058303,-1.2169629569549112,-0.3917672479297965,25
1722330651456877800,0.3767063107896596,-12.174990073668956,-0.359037894564867,-0.1076578352975193,9.798894563567638,-0.3747845124142244,0.4914347231388092,-0.1158665046095848,-0.3319547176361084,0.4875119709557772,0.5121121123402519,-0.506803587712869,-0.4931768490666758,-0.47327321767807,-0.5837843418121338,-0.0105509310960769,-10.88797808651924,6.490488977503776,-3.3512019407391547,0.0006265677511692,0.0635679438710212,-10.464468596565723,-0.0646187365055084,-1.4661401815488937,-1.4354872691318392,26
1722330651536419800,-0.0664023625218309,-10.199022008889912,-0.198434660154581,-0.1716709554621018,9.783478383249044,-0.6515063446789979,0.3906654417514801,-0.030103949829936,0.047036837786436,0.4767869780596918,0.5186855944221934,-0.5139871930251898,-0.4893430353224188,-0.1250798404216766,-0.3787501752376556,0.1965094357728958,-8.213295351162552,5.463114599490165,-2.890027029258013,0.0125104933977127,-0.0237531699240207,-9.849736277532577,-0.2414939850568771,-1.2981383613198996,-0.7046357311896979,27
1722330651615962400,1.0387309807430951,-3.690078506284952,-0.5850688560448587,-0.1838513139309361,9.754739780020714,-0.9907647491492332,0.3585751354694366,0.0405764654278755,-0.0422321557998657,0.4690103794886044,0.52894902967569,-0.5203151615706317,-0.4790764426434475,-0.1859016418457031,-0.1415461599826812,0.0511750169098377,-5.406935616150498,3.052412470909953,-0.2998060995258391,0.0692905336618423,1.1948227882385254,-10.582444987648724,-0.3401029109954834,-1.985403270991892,-0.626582331302762,28
1722330651655733800,-1.3296176415584982,7.868616821339726,1.2620659080721437,-0.2553434556061402,9.750760354995728,-1.01381697730422,0.2212072610855102,-0.434141457080841,-0.0187263116240501,0.4652600281809324,0.5299303004564102,-0.5204461152814185,-0.4815004292134752,-1.0981853008270264,-1.2687093019485474,0.2067226618528366,2.3569155933350325,-2.0751018082261083,1.6998527835726738,-0.219216838479042,-0.2566178441047668,2.934886746203899,-0.5631998181343079,2.469797291627526,-1.757820403894782,29
1722330651695504100,-0.16977493084874,11.555230866384504,-1.2336077292203902,-0.2560938538483344,9.73969594014585,-1.1149542425934225,0.0005505473818629,0.384736567735672,-0.0150352707132697,0.4608770359231277,0.5306006357216835,-0.5246997348249075,-0.4803597926284781,0.1568208336830139,-0.30133718252182,-0.0052168192341923,9.58092751994729,-9.024533992636202,0.3490974422436207,-0.5575447082519531,0.3182646632194519,12.558252893429994,0.4300013482570648,2.566255678385496,-0.1756909682258032,30
1722330651735274800,0.5756956822175532,13.046717962896825,3.9278397991776464,-0.2912347983996384,9.73007237175405,-1.1879751282058657,0.8111329078674316,0.0024798060767352,-0.1888525187969207,0.4611122779622147,0.5366663305678506,-0.5220719534794773,-0.4762412246071029,-0.4756919145584106,-0.7338519096374512,0.4367414116859436,10.40822356225252,-7.230551557514071,1.6103911238342523,-0.076756976544857,-0.8426787257194519,10.41555580483675,0.7776556611061096,1.7944376315437256,-0.2467833882600069,31
1722330651775046400,-1.3459922916457057,8.391291034400462,-0.6455693558454513,-0.3390770565539598,9.681639472496508,-1.5235779327780008,0.5621323585510254,-0.079559713602066,-0.0004847074742428,0.4485195073173487,0.5435011531230965,-0.531307208002339,-0.4702653598745296,-0.4343990683555603,-0.5925759673118591,0.4381722807884216,8.486293961653113,-5.594431533661484,2.7641777128428218,0.0568193234503269,-0.6262403130531311,11.02695985623002,0.0487437956035137,2.0651533917941154,0.5593825530592352,32
1722330651814817000,-0.6932623965211212,1.0342343269109726,-0.0805225664794445,-0.2938969668135978,9.640613050103187,-1.7727394483461976,0.7616976499557495,0.3246287107467651,0.1078104898333549,0.4441148475950003,0.5497919560212124,-0.5367619243823332,-0.46084434748592,-0.0487123541533947,-0.0015903358580544,0.4551629722118377,3.671327044063806,-1.8520511777311564,-1.0444120220541953,0.0028871656395494,-0.4069467782974243,-0.580954479528591,0.3500198125839233,0.0110161746693134,0.4938995156057179,33
1722330651854587600,-0.1050863865074701,-4.019916025328636,-1.0461898453816771,-0.2452150794973596,9.61695920279324,-1.903764998355508,-0.054957028478384,0.4423600733280182,0.037560861557722,0.4456165716929366,0.5562943411664083,-0.5362850026929004,-0.4520627942219985,0.4890749454498291,0.0457911379635334,0.2056991457939148,-2.419647067058086,3.1356431273043155,0.345268275876902,-0.0537599883973598,-0.3181988596916199,-3.1123402853891253,0.4335283935070038,0.2149019752276129,-0.1127924673727713,34
1722330651934129400,1.1684027780558914,-7.304401222100854,0.2663736393928527,-0.16448416749686,9.592958734002709,-2.029404179151356,0.2916229963302612,0.0894840061664581,-0.0419970788061618,0.4455114081660006,0.558934631531686,-0.5395024539639731,-0.4450267393647991,-0.2174632847309112,0.206063836812973,0.0998341664671897,-6.212261234188079,4.641249934583902,-1.50722301030457,-0.0044102678075432,0.5046749114990234,-7.642863946148752,0.0832470208406448,-1.5665758013747633,-2.5340572900921106,35
1722330651973900000,1.46051898066625,-3.075682287338376,-0.4330407038867473,-0.186205183580704,9.57279740498364,-2.120674934138357,0.1893974691629409,0.1010303646326065,-0.0377120226621627,0.4429919088686923,0.5624571071570532,-0.5401539927151119,-0.4423051415219494,0.0805066153407096,-0.6248564124107361,0.2948318123817444,-6.05584200746417,1.563013286587596,-0.9199725724369286,0.2208716422319412,0.566447913646698,-1.3590996105000377,-0.4533484876155853,0.1022249783275183,-2.0748317591130734,36
1722330652013671700,2.161342606221885,9.699621703910829,-1.400430130406469,-0.2184480503366328,9.51968190086782,-2.344849307966232,1.146722674369812,-0.382226824760437,-0.2337755262851715,0.4349042086182635,0.5676505824505402,-0.545276865177881,-0.4373834218483208,-1.0264232158660889,-0.6162011027336121,0.956329584121704,3.194598005098104,-6.929805692920088,-1.4435048636317251,-0.0021681045182049,0.3412818014621734,4.095572739337385,-0.609421968460083,0.2921053158901631,-2.1183052823975683,37
1722330652053442300,-3.847282161384821,20.31139449285269,-13.420896143448353,-0.2292954066360369,9.501506192708014,-2.416450170712918,-1.8073257207870483,-0.2813847959041595,0.8380865454673767,0.4282557514263224,0.5642484210085025,-0.5521126615992148,-0.4397641642713629,1.3812004327774048,0.1227162256836891,0.0153750758618116,16.21234238696694,-17.400676557743548,8.020244722133874,0.0929115042090416,1.172545313835144,10.307207658320666,0.0315539389848709,0.5041197712490335,0.4341034012148156,38
1722330652093212700,-0.0528156809190288,25.03013917052745,0.8939468814291059,0.1252404729350004,9.704937930497527,-1.4031636470235884,-2.066279411315918,-0.5467214584350586,0.5633749961853027,0.4637707209632716,0.5287109056075889,-0.5403759948778645,-0.4619255534585177,1.464680314064026,0.0715327113866806,-0.261765569448471,19.38399440076351,-15.2417589867115,-1.984033882334828,0.0969085395336151,-0.0072619635611772,26.23195592321157,-0.0549071878194808,2.2823269469492136,1.0569337230402975,39
1722330652132984000,-1.3112956567957996,14.850610966658593,3.243648743993044,0.0619712573397438,9.723625679832695,-1.2718740392506125,0.9733268022537231,-0.723696231842041,-0.4224834740161896,0.4572477730213694,0.5174874810412059,-0.5450268215881139,-0.4754755516181412,-1.8816041946411133,1.098658323287964,0.244662657380104,11.972121230459212,-8.82063931351006,-4.929558926931024,-0.0806868448853492,-0.8539109230041504,17.146339393103123,-0.1773843169212341,1.2641267861247063,0.9553577010076492,40
1722330652172754700,-0.5858985848672688,-5.354064442184567,-2.5512545086085794,-0.0234257559088058,9.672005967232584,-1.6192945612579583,0.2420625239610672,0.6507377624511719,0.0690129250288009,0.4457013819676431,0.5278608982495252,-0.5512929489142909,-0.4677490058897173,0.0037117034662514,2.313077926635742,0.0383417755365371,1.110823645594716,-1.590517964106798,0.8282909716267138,-0.3857901692390442,-1.6647158861160278,-4.83913105250895,-0.2689065039157867,-1.1393265403710304,0.7883160310477018,41
1722330652212525300,2.329822565356642,-14.979918899095058,-2.6044004078626632,0.1552090837491676,9.740357618924977,-1.127710629118234,-2.5999903678894043,0.6668142080307007,0.5276976227760315,0.4712028686993393,0.5204330566420555,-0.5353939443980292,-0.4695430058266896,3.800373315811157,1.428966999053955,-0.0931983366608619,-12.010793198680878,8.1765213255167,1.9717592149123548,-0.3606743216514587,0.993738889694214,-14.16955177975893,0.1628969758749008,-3.510245378486812,0.8426890609439462,42
1722330652252297000,2.6430159697219726,-14.430437927651404,5.672607244753837,0.2421462482449598,9.797058580312132,-0.3597239040676504,-0.5406400561332703,-0.8607542514801025,-0.1599118411540985,0.4920383075995164,0.4977291068497458,-0.5201985690964085,-0.489446160677203,-0.8289679884910583,-0.581138551235199,-0.4109432697296142,-16.442108589452506,13.637021943116189,-8.534947225663066,0.0983207076787948,-0.6244428157806396,-5.111951968345045,-0.5157521367073059,1.0508308030553162,0.755781396537274,43
1722330652292067300,-0.2249977459747344,-13.20765788191557,0.3988766050109639,0.0439364600545493,9.796218037834764,-0.4500521175075322,0.3230098485946655,0.1238702535629272,-0.6497854590415955,0.4792632181886581,0.4994460611102994,-0.5229721832970906,-0.4973533980873303,-1.8540449142456048,-0.7751089334487915,-0.2968156933784485,-10.409767869085073,10.19529860445261,-7.64529380364418,0.091244176030159,-0.1543181538581848,-9.177343212169408,0.0980810821056366,-1.0335786394812163,0.2356154765030369,44
1722330652331838000,-0.9938736749500036,-10.5124800555408,0.3014531360805034,-0.1373865455417428,9.792723181456326,-0.5040624881038442,0.0906326621770858,0.4451183080673218,-0.2915187478065491,0.4779624456650443,0.5104681939421439,-0.5149002398427908,-0.4958345010077733,0.0906077176332473,-0.8064568638801575,-0.1895495802164077,-7.541668009474873,4.974046303433179,-1.147347057480365,-0.0990733504295349,0.034189373254776,-9.88253496980667,-0.1153252720832824,-1.3359773858487605,-0.9978893403321504,45
1722330652371609300,-0.7492207228474319,-9.46044820613265,0.3253788226017728,-0.1631198020747862,9.788004336240888,-0.5820068381257355,0.2840757369995117,-0.2097838968038559,0.0565216355025768,0.4764078926240532,0.5142261755368766,-0.5150199321814996,-0.4933166912319356,0.1738549470901489,-0.4464884400367737,-0.1269028335809707,-4.778155482542514,6.914446211224794,-0.7186766776323318,-0.1267329454421997,0.0914983600378036,-10.026696772503852,-0.3807741403579712,-1.6151085077449678,-0.9889087460190056,46
1722330652411380000,-0.4999693370386958,-9.606728900679943,-0.044894861324504,-0.1587354312444105,9.784349905386566,-0.6416423916600644,0.023225974291563,-0.3006329238414764,-0.0088706696406006,0.4719665168809435,0.5124250746950557,-0.5197453223470252,-0.4945028199929152,-0.347970962524414,-0.038501214236021,-0.1236930638551712,-5.760897522625327,7.629853073406219,-1.526904446852207,-0.1279259324073791,0.1189044639468193,-10.173769494211673,-0.3395390808582306,-1.372107268372178,-0.7398527366518974,47
1722330652451150300,-0.3636017684143036,-9.567844751012323,1.1339164249558,-0.1692577020416036,9.784369779130817,-0.6386157373152673,0.0967287048697471,-0.0031493382994085,0.0013645750004798,0.4703151719538804,0.511094161239813,-0.5209060354176698,-0.4962290161948269,-0.372409462928772,-0.0237531624734401,-0.133436843752861,-6.88879096096456,6.499445606419444,-1.9752292291104792,-0.1013580411672592,0.0323809534311294,-9.914546895617246,-0.3262245655059814,-1.3280265729747711,-0.4986870421431958,48
1722330652530692600,0.3470895730199292,3.108968470868468,0.0511431811295449,-0.198200358208362,9.760914084741472,-0.9250272254779934,0.2251049131155014,-0.0717171505093574,-0.117606870830059,0.4632686392382356,0.5200245042317889,-0.5260587201198574,-0.488076833706356,-0.6760231852531433,-0.3470785319805145,0.1927396059036255,-4.3567941105335946,2.707238851046562,0.6799965261042118,0.720472514629364,1.7660014629364014,1.896551559845358,-0.1037279963493347,-1.608068087714165,1.899399058230966,49
1722330652570457300,-1.6101060232825577,9.537609187224506,1.5111726247131825,-0.1363144684639759,9.745889534088969,-1.0814130613889543,0.9323124289512634,-0.4640263319015503,0.5536569356918335,0.4579273494803106,0.519070484331292,-0.5345115112098718,-0.4849390413643726,-0.0268925447016954,1.4135777950286863,0.3465985655784607,19.828280136764047,-11.523930888235569,2.989347819709778,0.5841715931892395,0.9800345301628112,8.091237243723869,0.0917507261037826,-0.7545446212839335,2.7030300011798736,50
1722330652610228700,1.0017796257689595,12.33360125747919,-4.478301598352194,0.1246925201960373,9.729116093942524,-1.2243873348020016,-0.3345825374126434,0.4867218434810638,0.5314064621925354,0.4614206286863865,0.5161940290215771,-0.5440313452686738,-0.4739879237121274,0.5218906402587891,-0.8499042987823486,0.2943095862865448,4.541474970623851,-8.317466504254936,0.8270704899210483,0.2491008192300796,0.042748749256134,19.432143806904552,0.2056315690279007,1.7047813260160385,1.517297098942846,51
1722330652649999000,2.6837296729043123,14.228007475858924,3.598655775606632,0.131103282287484,9.720742817872765,-1.288550741024315,1.2881286144256592,0.2818323969841003,-0.438454657793045,0.4633956572751658,0.5216090265017561,-0.5418688292562822,-0.468579420201262,-1.093514919281006,-0.8262590169906616,0.61251300573349,8.206015131026506,-9.774786542749403,-2.467250529754162,0.1427407413721084,-0.5853537321090698,13.96900699558258,-0.0598523169755935,2.355296029309183,-0.0691897510509239,52
1722330652689742000,0.8942425764400511,8.889562043088674,-2.7101915633723137,-0.0360706585828913,9.614323009070754,-1.93231421649158,1.3993606567382812,0.3222381770610809,-0.3618648052215576,0.4450761570932753,0.5454904598940032,-0.5485989112354596,-0.4509838485494435,-0.6926167607307434,-0.4989528059959411,0.2640558183193207,7.744025396031141,-7.546389192777871,4.084166671442985,0.130193144083023,-0.4182047545909881,5.564237470927834,-0.0467879697680473,0.7444321733966469,-0.0131283570757834,53
1722330652729512400,0.4387932029988616,3.0323475880026813,-3.5989679102957246,-0.1127328096074052,9.573722118613125,-2.1216784120924768,-0.2308589071035385,0.0075602354481816,-0.1404819041490554,0.4389750440356288,0.5534087252393208,-0.5494672633389862,-0.4462347243714946,0.5356962084770203,-0.4981236755847931,0.0831323489546775,2.448793082043528,-2.4929747535973785,1.770453675496578,0.0046045463532209,-0.1932344287633896,0.7078528666052967,0.0753689780831337,0.0151096396866487,-0.453291793548502,54
1722330652769282000,-0.9392088225003332,-0.6898866364777088,-1.2135551212728022,-0.1266597651483956,9.597065000277755,-2.0126319080486894,-0.2653883695602417,0.0327164754271507,0.0139561155810952,0.4418207803858547,0.5513374740622494,-0.5464820726796816,-0.4496429110625918,0.463713675737381,0.0412205122411251,-0.1792376190423965,-0.0623696546733379,0.1398620596766471,-0.8924924448370933,-0.0992676988244056,0.1128864511847496,-3.878903042051196,0.1019415408372879,-0.7092569612495601,-1.1294153872095047,55
1722330652809051400,-0.0984661189843434,-3.428998297125101,-0.4781403670683503,-0.1191071212791372,9.630281041181089,-1.8476774926915764,-0.6174567341804504,0.492486834526062,-0.2020396143198013,0.4491083966072416,0.5501775256744939,-0.5399166801384621,-0.4517703393367556,0.7600440979003906,0.6179810762405396,-0.3024740815162658,-1.197528115579486,3.093237233251333,-1.1840192301869392,-0.1990256905555725,0.2378088533878326,-3.674899057331681,-0.0644564181566238,-0.4560487275738268,-0.9834924200586974,56
1722330652848822000,-0.7987234432935715,-4.815907997831702,0.7079239590801298,-0.2036985902984626,9.678380762961506,-1.5677410457618537,-0.7853699922561646,0.7939906716346741,-0.2860918939113617,0.4610076261073698,0.5528166956602705,-0.5237616330945136,-0.4555648322028984,0.4747292995452881,0.2494767904281616,-0.1576601564884185,-4.054112309440971,4.057885982760787,-1.129010971127078,-0.2229921668767929,0.0067262416705489,-2.868925789040327,-0.0026884649414569,-0.2057871235429309,-0.4063041611958294,57
1722330652888591600,-0.5463118398882448,-3.905376622956991,0.1208558920420706,-0.1922992626721039,9.713409406244754,-1.3353142457649112,-0.1989724487066269,-0.1698018014430999,0.1850826442241668,0.4725818530980343,0.5522395867550339,-0.5129459180438061,-0.4567102258042678,-0.1509526968002319,0.0350149720907211,-0.2101674377918243,-2.742812853252888,1.7459265524834393,-0.1352888334769755,-0.1592589616775512,0.002792942803353,-2.5530565895944832,-0.0190453492105007,-0.2845665909484028,-0.357970813322626,58
1722330652928361000,0.4497612448021769,-1.0455495016515255,0.7251157707691193,-0.2205163445106707,9.692657710117102,-1.474501474919915,0.6509870290756226,-0.6198875308036804,-0.2116833329200744,0.462534304914029,0.5502124458778695,-0.5219625610563711,-0.4592204283526997,-1.104274034500122,0.0805636048316955,-0.0582309663295745,-0.87524729552567,2.143585561865568,-1.643260543256998,-0.1137894168496131,0.4392901957035064,-0.2798064273418858,-0.0606501176953315,-0.1307374081171583,0.0234565529058687,59
1722330652968131600,-1.1143006009902805,-0.3783119193553924,0.4633810432232916,-0.2813691466139629,9.658835520014168,-1.6727517184183,0.3117735385894775,0.1056981310248375,0.0786270648241043,0.4523479373486311,0.553009564119408,-0.5286464050075371,-0.4583608706755904,-0.1348115503787994,-0.0467798113822937,0.0589828044176101,0.5263929413229227,-1.849970279803872,0.1015881325955502,-0.1581309139728546,0.0706032812595367,0.2371460653374902,0.0683941394090652,0.1636537628210149,0.0186633249966776,60
1722330653007901000,-0.3737333593934774,0.1366454357177019,-0.5420926147580146,-0.1526918036986142,9.652496380120516,-1.725216795801371,0.0204147789627313,0.219655767083168,0.4197889566421509,0.4570464115505898,0.5544140578729289,-0.5297042855887197,-0.4507182935636693,-0.2290349900722503,0.2021227329969406,0.130777969956398,0.7385346397906541,-0.088863693845272,1.0169085135787723,-0.1473137289285659,0.1683703362941742,-0.3564440421467647,-0.1074700951576232,-0.0714289722119225,-0.4663302849503233,61
1722330653047670500,3.110446142205596,2.446599371391535,-0.4356640381276607,-0.0095060880543052,9.640079381617904,-1.7997727089613675,0.0412030145525932,-0.3537794053554535,0.1300855427980423,0.4534704332831977,0.5465013210792014,-0.541386347014055,-0.4501130508932176,-0.3952700197696686,-0.0806107446551323,0.0411818362772464,-1.5883447117209433,-1.6279197662621736,-0.3706488373816013,-0.1767960637807846,0.1935896426439285,-0.204843102424778,-0.2239788025617599,-0.1659709354558959,-0.3891463979069143,62
1722330653087441000,-0.3532419216372072,0.0720464145570993,0.3581413841165602,0.0180539175441954,9.661130352953077,-1.68303243554458,-0.4279425740242004,0.981102466583252,0.0585018694400787,0.4618254404492238,0.548236600967504,-0.5340855734385654,-0.448225841039446,0.3967058658599853,0.1502131968736648,-0.2431429028511047,1.0459119052231312,-1.6508710182607174,-0.3983580610295757,-0.204464316368103,0.1022575423121452,-0.0083671699851372,-0.3270814716815948,0.1512641089830547,-0.222495371232368,63
1722330653127210500,0.3621746216880157,-0.6794616885751485,-0.4719441427767276,0.1144210275558289,9.676871527442335,-1.5860221139922737,0.004992339760065,-0.0062046810053288,0.11496002972126,0.4715343608169101,0.5488897198428729,-0.5287576924074072,-0.4436110982868758,-0.7463306188583374,-0.0092433020472526,-0.2449435889720916,-0.5714204160511493,2.4010148473024366,-0.4958277071893215,-0.2088351100683212,0.0930939018726348,0.0639029560546856,-0.4727429151535034,0.1228835802110843,-0.1793782784364186,64
1722330653166980000,0.5744716203153133,-0.122719201695919,0.4167325431644916,0.0951565925775561,9.653138185155392,-1.7257617163330317,0.6502130031585693,-0.3149340450763702,-0.1056076362729072,0.4642531912279711,0.5493605130612653,-0.5349695223983929,-0.443260238429398,-0.8438308238983154,0.0352010764181613,-0.1446335613727569,-0.2199380514323711,0.5923012915164232,-1.5947247681468724,-0.198296457529068,0.1511274427175521,0.1822622181085869,-0.5475507378578186,0.2076518031699583,0.035387653887947,65
1722330653206749400,-0.002344637172186,-0.1584557009875774,-1.1902407350502908,-0.005735658716812,9.627373044779896,-1.866556526815146,-0.0601291954517364,0.5738891363143921,-0.3878680169582367,0.4591542877397375,0.5570433479357337,-0.5337327105448199,-0.4404650027029558,-0.4397980868816376,-0.0407822653651237,-0.1258927136659622,-1.0237526803851127,-0.3906394860088825,0.1091442744629923,-0.1962671726942062,0.0609302744269371,0.0438079017714364,-0.4988305568695068,0.3253854350056499,0.2364674536898732,66
1722330653246520000,0.0692714699510484,-1.6489795054256915,-0.796919754872471,-0.0620889152029296,9.633343935883044,-1.83445765337348,-0.3767540752887726,1.580126166343689,-0.4164898097515106,0.4688007102035018,0.569848900848071,-0.518462672944148,-0.432081772086632,-1.070805549621582,0.0182387083768844,-0.192634180188179,0.7876543522685766,-0.6118517951607704,-1.6202841568171975,-0.1535150557756424,0.0518718473613262,-0.1847590764256194,-0.3272736966609955,0.0827260496067814,0.4428367062360048,67
1722330653286289400,-0.177553711624071,0.5925368538379668,0.617629355648905,-0.1211229363472666,9.66901029254794,-1.6327708595551549,-0.3270294070243835,0.2515985369682312,-0.1069299951195716,0.4822732476289965,0.5768478598622601,-0.5004944470936393,-0.4291437150917923,-0.0052168108522892,-0.1435481160879135,-0.1479243040084839,0.309902399995923,-2.711724472028017,1.215133330374956,-0.0845716819167137,0.0662677511572837,-0.2175495305943302,-0.2148603200912475,0.1085215303216129,0.2893023872986435,68
1722330653326058800,-0.1589245240757242,-0.1666734942346811,0.2877439058102667,-0.0477247920873807,9.66656523748338,-1.650942622192204,0.2815772891044616,-0.2740471661090851,0.3688047230243683,0.482586821947643,0.5744897067324113,-0.5041192572227104,-0.4277093124547949,-0.2867992222309112,-0.0105600748211145,-0.0447644926607608,0.1013204398363828,-0.027363223221898,-0.0726817715848796,-0.0341584607958793,0.0626004114747047,0.0701247668787138,-0.1203961372375488,0.1982383703975006,0.2405475078114308,69
1722330653365829400,-0.6574512976232916,-0.1556722077488899,-1.5709293204091488,0.0630906076253391,9.646287004086377,-1.765091856202483,0.0982937291264534,-0.1482135504484176,0.3035089075565338,0.4795660919827434,0.5719368621231936,-0.5127210404938947,-0.424289665340612,-0.2567742168903351,0.1460799127817154,0.0456998907029628,0.0693009152412414,0.4709557162612676,-1.1457763010323048,-0.075222447514534,0.0566394329071044,0.0904398662539664,-0.094957135617733,0.131629370254511,-0.0330417163828853,70
1722330653405599000,0.2573629422023892,0.2416904490351676,-0.8681552914381027,0.1755386454746127,9.659531101062893,-1.683165852665901,-0.4321252703666687,-0.0649699345231056,0.2289550155401229,0.4836004882779147,0.5658672577301888,-0.5153754163227809,-0.4246328431227165,-0.1329705119132995,0.1739985346794128,-0.0196540150791406,0.4080974012881517,-0.1880897917509079,-0.5801029042005539,-0.1689797490835189,0.1318547129631042,-0.1469617447471711,-0.1087129563093185,0.0664799897687276,-0.0374900695272954,71
1722330653445368300,0.3615361045887693,0.5066337633639574,0.6724643770337104,0.2696350340752862,9.675456984469294,-1.575826737061888,-0.0357409790158271,-0.1975307762622833,0.2811633050441742,0.4879168437697384,0.5595936371591714,-0.5169136913783429,-0.4261366108796255,-0.158978134393692,0.2017552852630615,-0.1040870025753974,0.1301198333412409,-0.0737502958655357,-0.2308358775436878,-0.2066381275653839,0.1114673465490341,0.0695774991263402,-0.1024506241083145,0.291109217524901,0.1260432772178668,72
1722330653485139000,0.859326161359623,-0.0218920983344316,-0.2163756827756762,0.3537857827229425,9.669774847179651,-1.5939401936404407,-0.0598825328052043,-0.5958731174468994,0.2642700672149658,0.48588421838556,0.5536776326020468,-0.5241272884494313,-0.4273734556061515,-0.2856045067310333,0.103080578148365,-0.1152150258421897,-0.0558458058625459,0.129705407321453,1.030147349858284,-0.1921884566545486,0.0704159811139106,-0.1290437742081005,-0.1181362122297287,0.2004930905217304,0.1568226564256474,73
1722330653524908300,1.2520835893705486,0.2127209596604108,0.3715279583036899,0.3605607932832091,9.679372112086416,-1.5330156232088803,-0.2356660366058349,-0.3395701944828033,-0.1341457664966583,0.4831718215271283,0.5463506078717171,-0.5288317824425456,-0.4340310557786062,-0.1069311872124672,0.0466259308159351,-0.0450656972825527,-0.4744628475993871,-0.0264805951684713,-0.0877343975543975,-0.1584638357162475,0.111236847937107,-0.1575826992790214,-0.1528023183345794,0.1578476155592128,0.1808419395145028,74
1722330653564675800,-0.8769909973878413,0.0056260231882333,0.6456371603846549,0.2624294866106473,9.691638888463377,-1.4743307945281263,0.0022628339938819,0.1512010544538498,-0.1107341721653938,0.4819672719877035,0.5467746466072843,-0.5255544099307174,-0.4387910930105461,-0.1340965032577514,0.0578610599040985,-0.0119102746248245,0.1116039334416389,-0.2157540437459945,-0.2638882523179054,-0.1244596913456916,0.0919954553246498,0.0047233609895309,-0.1863957196474075,0.0934486926811281,0.0493385245940648,75
1722330653604446500,0.0154073576913215,0.023625790259242,0.3539468550361693,0.2680063368949107,9.683663671800494,-1.5248605199344456,0.2092099785804748,0.4037821292877197,-0.0584809370338916,0.4829687161258798,0.5506533944934583,-0.5239533250191042,-0.4347354378264565,0.2104824483394622,0.0925926193594932,-0.0379817560315132,0.0164332484066486,0.2688783156901598,-0.3555389465332031,-0.1421660035848617,0.1096256077289581,-0.0379731677359668,-0.2330396175384521,0.0222271001591696,-0.0514757740847766,76
1722330653644215800,0.7483178557235747,0.1099772090226411,-0.4679897060625255,0.2422830263671465,9.678568979009984,-1.5610970777027309,0.0369468629360199,0.3751950562000274,-0.235327810049057,0.4848414596140428,0.5564533363327826,-0.5195704820703225,-0.4305056665329383,-0.2242506146430969,0.0760095939040184,-0.0168483741581439,0.2460971595615148,0.4420967015236616,0.0522784870360977,-0.126634806394577,0.0788775309920311,0.095031103034364,-0.20197793841362,0.0861946846985723,0.1399415820531081,77
1722330653723755800,0.1989833618122153,0.306810279199481,0.3681668113075196,0.0969997270930558,9.67117594614923,-1.621531672660261,0.1802559643983841,0.243493765592575,-0.3132658898830414,0.4837692051913661,0.5665265960179231,-0.5115884277881667,-0.4281266208698026,0.2633605897426605,0.1308422833681106,-0.1740786135196685,0.2112707608520984,-1.0363678318083285,-0.0521405581364408,-0.0142445228993892,-0.0275344364345073,-0.0193321847185492,-0.0906272381544113,0.0314898929641582,0.1169442258905153,78
1722330653763585800,-0.6866934664595872,-0.3878653451204299,-0.2618247439168393,0.0454964530800003,9.661954528817532,-1.6777775837562978,0.1022636145353317,0.8457008600234985,-0.1377458572387695,0.48649054228717,0.5758814336314964,-0.5038883073101401,-0.4216444708937124,0.2090225219726562,0.138324961066246,-0.2178225517272949,0.1178559795737266,-0.0692436320960521,0.1142249478613026,0.0244797393679618,-0.0313777029514312,-0.0295536642045713,-0.130987748503685,0.0764712772280676,-0.0788071773963049,79
1722330653803357700,0.3152378792723641,0.1528209099709987,-0.069369742693752,0.0872872657082509,9.655623572230338,-1.7122149831481277,0.0989074558019638,0.4778782427310943,0.0473474934697151,0.4917403410185544,0.5821254569125455,-0.4984261462530284,-0.4133916983272411,0.4281974732875824,0.2040609866380691,-0.1827435344457626,0.5960217733442783,0.0034101007044315,0.0047170916497707,0.0227283127605915,-0.0297375936061143,-0.039695351886074,-0.191613033413887,0.0548277513938024,-0.1483765799811575,80
1722330653843130400,0.2121983605584129,0.0678185677289962,-0.4663067214116453,0.083635328205116,9.653087916272876,-1.7266316310353576,-0.0129484226927161,0.7154482007026672,-0.18746317923069,0.4952376702628895,0.5874276474642242,-0.4929122368521346,-0.4082962282713637,-0.0422467328608036,0.1422772407531738,-0.1047619208693504,-0.3744038060009479,0.4198907149344682,-0.2411304770648479,0.0018959370208904,-0.0577432997524738,-0.0467560657862341,-0.2180075645446777,0.0926086616604123,-0.1393262814326677,81
1722330653882902300,-0.8995131372541189,0.0592956540554761,-0.9111946610890328,0.2230013479931279,9.652933017972112,-1.7150946302376686,0.1603637337684631,3.152944564819336,0.3433153033256531,0.5141196574616973,0.6027152250543298,-0.4734763461635847,-0.3850136555029972,-0.1661795973777771,-0.0062834117561578,-0.0910451710224151,-0.1802893471330404,0.6635287909060716,1.1361387041151525,-0.0013947545085102,-0.1000654846429824,-0.0165148794001608,-0.1970974653959274,0.1257843248875811,0.0700596200874773,82
1722330653922674000,-0.2841877476986497,-0.2505845341086387,0.3486930261611938,0.6603767566159368,9.632563014638423,-1.7169798594623804,0.0915396362543106,3.473119735717773,0.5281795859336853,0.5468867025189252,0.6237046765360883,-0.4455716369907906,-0.3367096088391274,-0.2326867282390594,-0.1976847946643829,-0.1324042528867721,-0.5621861392378806,-0.8530600136369466,0.3268120337426662,0.0315737724304199,-0.063303142786026,-0.0941796281710267,-0.1423127502202987,0.0783379981151316,0.1264638315843418,83
1722330653962446600,-0.4144157906547188,0.2998912935912609,0.2021408211961388,1.10888354437761,9.604769583305716,-1.639858625859022,0.1580821871757507,3.418820858001709,0.6134036183357239,0.578412293207612,0.6414162117706228,-0.4149635677846042,-0.2860587227022343,-0.0491541735827922,-0.036804623901844,-0.2727565169334411,-0.007737900775671,-0.2970949408710002,-0.4373147279441356,0.0594309046864509,-0.0662908032536506,-0.1011923656104598,-0.1319352090358734,0.1334916295955888,0.0022246554919955,84
1722330654041990400,-0.7737025454141199,-0.1638210274130105,-1.8895299906454976,1.962722798758745,9.545648701295256,-1.0948428171306848,-0.5534986853599548,3.493824481964112,0.5155353546142578,0.6433191970804744,0.6656649134212002,-0.3357255891524393,-0.1741231965116388,-0.2620746791362762,0.0033760864753276,-0.1915404796600341,-0.2155962228357791,-0.149707746386528,0.1145101580108515,0.0784865617752075,0.0170663259923458,-0.1906411932667717,-0.1815125048160553,0.0303775249751983,0.0183406460806843,85
1722330654081763000,0.0307024506472051,0.0246738380074501,-1.1281623184084892,2.217003849297762,9.537318679845333,-0.542991024902463,-0.8286781907081604,2.538746356964112,0.217095211148262,0.6741099351277892,0.6620127232220101,-0.2990384450556895,-0.1337573187444639,0.0057021500542759,-0.0190455988049507,-0.14578677713871,-0.1514671572744846,-0.0402191976636648,0.4049088343799114,0.093535229563713,0.0735993981361389,-0.1310900848791934,-0.1957080215215683,-0.0011789338440808,0.0445250461980002,86
1722330654121534700,0.0648475890941917,0.144601363158226,-1.0362579416930675,2.294338871782273,9.534406007269023,-0.0382895767413778,-0.8530102372169495,2.2537050247192383,0.0766130834817886,0.6976843116428091,0.6560247516563886,-0.2675513974504847,-0.1062272249816271,-0.0266115814447402,-0.0295244455337524,-0.0485659576952457,-0.1166974571883678,-0.0785164873540401,0.0219382390310987,0.0960183441638946,0.1059621348977088,-0.0285108771533705,-0.2015111297369003,-0.0021419205284299,0.0272341854481725,87
1722330654161306400,-0.851394856903702,-0.3356581880211829,-0.4478414191881194,2.315897938770056,9.5111361908406,0.5876030872302129,-1.3007415533065796,2.058893203735352,0.2490159273147583,0.7234102876657985,0.6437965681917248,-0.2357256010511975,-0.0814673352881551,-0.17618989944458,0.041795540601015,0.0353059060871601,0.019506079980731,0.1752361553966999,-0.2271276706755161,0.0717502534389495,0.1216714903712272,-0.0143052998921775,-0.1939669400453567,0.0438069153907475,0.0187782840127008,88
1722330654201078300,-0.483158633621782,-0.2913946834027767,1.0839192720562218,2.3916364858433603,9.427069668143988,1.2573109686300157,-1.0664602518081665,2.203481912612915,0.4865216016769409,0.7490382683703651,0.6262876696648673,-0.208946736236251,-0.0551975987474555,-0.2368164956569671,0.0413137227296829,0.0209960769861936,0.1900017628520727,0.3616109599232673,-0.03730183064593,0.0567170865833759,0.038610603660345,0.1003976807019673,-0.1679679453372955,0.1215179726799949,0.0372053731176885,89
1722330654240851000,-0.2065133371919393,-0.8524661393970251,1.308024818431586,2.418007629287988,9.32719124380946,1.824039573603124,-0.7855395078659058,2.6278152465820312,0.4385994970798492,0.7697892992450303,0.6130464266813563,-0.1765614404729051,-0.0206037121608584,-0.2012441158294677,-0.0045003718696534,0.001445943955332,0.1429337222069502,0.1592518198013305,-0.0043278366038575,0.0394696816802024,0.0511657409369945,-0.1001577070667874,-0.1717233806848526,-0.0087559603818139,-0.0314532644479302,90
1722330654280622800,0.4394778973273933,-0.5670230578750372,1.4246411732077595,2.3313616114921865,9.245255887922644,2.293554297275841,-0.3875899910926819,2.3360142707824707,0.1195708885788917,0.7853737972947742,0.6022406923607766,-0.1427144934964846,0.0112615023262946,-0.4566452503204345,0.0391116626560688,-0.009321816265583,0.2350888588130474,0.600602671393752,-0.2347077870735898,0.0622602924704551,0.0374403372406959,-0.0072165363620006,-0.1780385822057724,0.046529554420826,0.0129428855402395,91
1722330654320394500,0.1496362885855138,-0.0480599742919206,0.1393918118163943,2.06335423341766,9.231319132506847,2.5876032945796847,-0.5073065757751465,1.5664212703704834,-0.2965058386325836,0.7941646437071602,0.5973457775223464,-0.106051731114564,0.0351207797835443,-0.1474469304084777,0.0251537673175334,-0.043006807565689,0.2173053648412227,-0.1446960557043552,-0.0436964818527922,0.0546144321560859,0.0204884484410285,-0.0579087206085678,-0.2219445556402206,0.0655807165411766,-0.0554655789398821,92
1722330654360167200,-0.5446510670691729,0.0984182886540889,1.3804688540041443,1.9054554356604807,9.167741271087529,2.9141306661620736,-0.5647695064544678,0.5069422721862793,-0.0472423247992992,0.8043262820634401,0.5857334381909123,-0.0913073416999587,0.0404796642937271,0.1060969308018684,0.0240095127373933,-0.0541127882897853,0.0503173978298902,0.1462169816613197,0.3933013986945152,0.0710657015442848,-0.0007148184813559,0.0686861808763816,-0.1865612864494323,0.1728382091431878,0.1326466210056562,93
1722330654399939000,-0.6365519366532564,-0.625379385253787,1.890176617985964,1.8680694155961275,9.135120273467898,3.038137861841917,0.105232685804367,0.9569367170333862,0.3164602220058441,0.8077115420031226,0.5817161215085581,-0.0818805570271443,0.0500401534768535,0.0445033423602581,-0.0122941127046942,-0.0554256588220596,0.0705056148558855,-0.0230307469755411,0.146628485071659,0.0573014430701732,0.0018653168808668,-0.0735728112736251,-0.1451941877603531,0.0173625388881948,-0.0184061878808541,94
1722330654439711000,-0.3701613461256027,-0.353746802419424,1.0183645576059817,1.912176852869988,9.136875592702626,3.005240677629411,0.4613319337368011,1.0425612926483154,0.5719619393348694,0.8051291352515699,0.5847274371569489,-0.0697795625060609,0.0706522762674883,-0.0243758577853441,0.0297504886984825,-0.0210277400910854,0.0636205315172672,-0.1013490814089775,-0.0734592404970899,0.0296953693032264,0.0025741888675838,-0.0295536642045713,-0.1267591714859008,0.0764712772280676,-0.0788071773963049,95
1722330654479483600,0.329702348356694,-0.3447784830659627,0.8284545646905899,1.9757642127700148,9.159630445346236,2.8927333656072616,0.5710433721542358,0.8023329973220825,0.3325255811214447,0.7996432775269174,0.5907219937542184,-0.0596587551859938,0.0897718728412004,0.0413688011467456,0.0546316057443618,-0.0092949178069829,-0.0288069922894239,-0.0041904374271631,-0.064068238752149,0.0110683608800172,0.0194594971835613,-0.0458410515668569,-0.0832915306091308,0.0632476613505743,-0.0261774338037008,96
1722330654519255000,0.4153481030687689,-0.0345762233406305,0.4026306603148579,1.963889650581032,9.219780085882544,2.7035467185303568,0.6832093596458435,0.340515673160553,-0.0055037676356732,0.7923061909600155,0.5996862671735986,-0.0503375109493445,0.1004654998572269,0.0130085321143269,0.0308077111840248,-0.0169953815639019,-0.171983291080594,-0.0036363106757402,-0.2093558671414852,-0.004051991738379,0.0201924592256546,-0.0529017609004396,-0.0560928061604499,0.1010285807503387,-0.017127135255211,97
1722330654559016000,0.2885371020145714,-0.0266290637284517,0.1193856733590364,1.9072449494257568,9.300419556739923,2.4566259676262736,0.6916018724441528,-0.0154402572661638,-0.2199551165103912,0.7843620730483679,0.6104322401661312,-0.0460371633601742,0.1001464526428969,-0.0711787790060043,0.0263727474957704,-0.0261963363736867,-0.1159498536914587,0.159694887393713,-0.2324398056089878,-0.0086490614339709,0.0294580105692148,-0.0844655593510251,-0.0517452135682106,0.0799657728468999,-0.0652977531476411,98
1722330654638560500,0.1191756838701665,-0.0045230303823947,-0.5954181083627045,1.8080068688213824,9.415979534330964,2.059322639814019,0.3377783596515655,0.3187374770641327,-0.0057610981166362,0.7713551668462012,0.6273343963660863,-0.0381486819403525,0.1000367850558511,-0.1099064722657203,-0.0033161707688122,-0.0241150762885808,-0.1645277143776416,0.1642407141298055,-0.032872305499576,0.0185845550149679,0.0348590426146984,-0.0464923961816355,-0.0835954397916793,0.0577386704044416,-0.0138219824877975,99
1722330654678332400,-0.1400048291482031,0.0726519792348146,-0.7167280277825891,1.7857191952981053,9.433824403101204,1.9961293937981128,0.154942438006401,0.3756087124347687,0.0509261637926101,0.768586343215636,0.6302257967337781,-0.0322672152600459,0.1051150288372322,0.1620366275310516,-0.0164225436747074,-0.0499564632773399,0.0492512299031019,-0.339610140517354,0.1698947943687438,0.0600642189383506,0.0352275595068931,-0.0880619855409488,-0.0808825939893722,0.0294145388616714,0.0010497824767458,100
1722330654718105000,0.0326041926153004,0.1830640725433826,-0.7866169720448553,1.7884854451410472,9.440578553536534,1.9614215069018304,0.1801682412624359,0.0159118473529815,0.0272956546396017,0.7668092368222192,0.6318035354687916,-0.0286290648485974,0.1095820839967258,0.0468493215739727,-0.0601186268031597,0.0073784017004072,-0.2865191863209009,0.0382160411477088,0.0257517329046502,0.0904924198985099,0.0330705791711807,-0.0501966620936291,-0.1028990522027015,0.0333087926541222,-0.0768713322292082,101
1722330654757877000,-0.1266184010915458,0.1255968029588461,-0.5354799186199903,1.7826576157703995,9.455848603382709,1.8919447967022656,0.1305096298456192,0.0648654997348785,0.0112684052437543,0.7645413023103906,0.6346206149485498,-0.0281840045444714,0.1092659294474556,0.1165687441825866,-0.1209641396999359,0.0117366639897227,-0.1253495501995086,-0.3496457968413829,0.2378992765912786,0.1245626658201217,0.0169692616909742,-0.0386245123507454,-0.0887141302227974,0.0167181080713926,-0.0391203193439403,102
1722330654797623000,-0.3717996148519217,0.0017050503522157,-0.4185223491907119,1.8240325593404472,9.447011801454424,1.896642745260149,-0.0913023799657821,0.1342741847038269,0.2050049155950546,0.7642087000628877,0.634431786438202,-0.0281858766854224,0.1126360489959606,0.0613126829266548,-0.0853036046028137,0.0308311954140663,0.0628197365283966,0.068339376732707,-0.127428073506616,0.1626693904399871,0.0072033097967505,-0.0421928814899642,-0.0302398651838302,0.0066704308035405,0.0304421169272973,103
1722330654837395000,0.2859386099539697,-0.1811450871795416,0.0704769732832908,1.869591072205454,9.4323397175014,1.925090256587416,-0.0760050415992736,0.3102363646030426,0.1407077312469482,0.7643628544248028,0.6333387328317972,-0.0270141517980291,0.1179053163919777,0.0940043181180954,-0.0543441474437713,0.02746575884521,0.1694219161599874,-0.0501046318620443,-0.1023404305338859,0.1669340580701828,0.0086372755467891,-0.0764699118214659,0.0098203094676136,-0.0103069863619864,-0.0977035827797837,104
1722330654916936400,0.1581774685680866,0.0529307951986789,0.2616647310495376,1.8535504763782025,9.426162490171194,1.9703297666311264,-0.0683508068323135,0.1509027481079101,0.0185470040887594,0.7650094627247588,0.6317213918792418,-0.0216615914966887,0.1233668047532575,0.1777008175849914,-0.0373506769537925,-0.0158459600061178,0.0717769499659538,-0.2886094365984201,0.1954945515820756,0.1247999966144561,-0.0063156755641102,-0.0001358984852413,0.0050329016521573,-0.0143821976283565,-0.1326117871542926,105
1722330654956707300,0.1538691038496792,0.0029880759000778,0.3817103296220302,1.8804539731338616,9.4158018396765,1.9942355428755285,-0.0205655470490455,0.2289133071899414,-0.0186701081693172,0.7651706248881864,0.630798009303475,-0.0203999631503183,0.1272467828117017,0.0423376597464084,-0.0170199982821941,-0.0163817889988422,0.1487070449113845,-0.0901169087767601,-0.1827039705267175,0.1129368990659713,0.0090385349467396,-0.0562227128835394,0.0001279723364859,-0.0711578819192713,-0.1014989473416004,106
1722330654996479000,0.0202076523788273,-0.0242594119876623,0.4002651002272963,1.884828827217221,9.413720941749215,1.9999220640793445,0.1450854241847992,0.0468386635184288,-0.0675736144185066,0.7649544805837857,0.6306198070028608,-0.0187352193398384,0.1296628062983246,0.2588755786418915,0.0154375424608588,-0.0089365225285291,0.0619213263839483,-0.1560913099437952,0.1733972129991278,0.1056073084473609,0.0167149286717176,-0.0794149888300336,-0.0055560958571732,-0.0553492225512163,-0.0437114967588335,107
1722330655036249900,-0.0206314307488501,0.1292272684156894,0.0188506848119199,1.8726959063529969,9.423636771085858,1.964296185555309,0.2109591960906982,-0.1444046646356582,-0.1097003817558288,0.7639624827363264,0.6320603861936961,-0.0186664749867667,0.1285010660283045,0.287381500005722,0.0092813270166516,-0.0298104453831911,-0.0235053787499666,-0.2675795080512761,0.0422399629015475,0.1061907783150672,0.003736637532711,-0.0647419367626309,-0.0211513135582208,-0.0356463139572879,-0.0638451568862656,108
1722330655076020500,0.1529737624451518,0.0273626387000083,-0.3214455382734537,1.8464836067318915,9.438562537539005,1.9168815234296024,0.1822829395532608,-0.1719836592674255,-0.135028064250946,0.7629649235837802,0.6339431470661745,-0.0195531297610509,0.124973532438303,0.1176542490720748,0.0543967112898826,-0.0324380546808242,0.0339683205753564,-0.1395955176949501,-0.0176361944556236,0.0919936746358871,0.0099422587081789,-0.0584603403090732,-0.0327173359692096,-0.0296840262857032,-0.0534325159094296,109
1722330655115792400,0.0057286067798733,-0.0708855540841817,-0.3740736972637474,1.814014146412164,9.45121743645072,1.8852640037640929,0.0116937812417745,0.0826201364398002,-0.0688220262527465,0.7622564742194514,0.6352308176204242,-0.0189761811109215,0.1228282161795014,0.1735175251960754,0.0542323961853981,-0.014522636309266,0.0195738845199346,0.0032370822250843,0.0103308398783206,0.085419550538063,0.0304771438241004,-0.0805618481770623,-0.0334190987050533,-0.0751158440311206,-0.0228931788354879,110
1722330655195334000,-0.1332702601961791,-0.1494248377919197,0.0861205326169729,1.8165436648897824,9.441770393669604,1.9296476276308296,-0.0914594233036041,0.152972012758255,0.047767050564289,0.7629983173266909,0.6335381783541735,-0.0156438315868918,0.1273510175607119,0.1736101806163787,0.0521606691181659,0.0188527647405862,-0.0168453363388776,0.0657370852798223,-0.0422387116593774,0.0924199074506759,0.0294281058013439,-0.0459251998860854,-0.02641361951828,-0.058262995672645,-0.0358221340317861,111
1722330655235105800,-0.0822936678051948,-0.1608393812537193,0.0805073689103126,1.816892770588398,9.441962116849425,1.9283773154340684,-0.031261071562767,-0.0261805020272731,-0.0001249192864634,0.7628259220466622,0.6336045012284043,-0.0150150899708377,0.1281270142856637,0.1007951125502586,0.080279603600502,0.0846259891986846,-0.0117436292856931,0.2422767244905233,-0.1747802283227443,0.0710260570049285,0.0407903119921684,-0.0861921000158414,-0.0425401888787746,-0.0755691498897271,-0.0456612699865829,112
1722330655314647300,0.0134001643210649,-0.1273772566348314,-0.0419127037085592,1.827591274735332,9.432890337121488,1.962361856491864,-0.0850536972284317,0.039246566593647,0.0737568438053131,0.7640246991862953,0.6322049707856365,-0.0162562649035708,0.1277450124871282,-0.0098365955054759,0.0246816948056221,0.0581155493855476,-0.1691816776633262,0.0440787957012653,0.1260018766283989,0.0216625779867172,0.0555548071861267,-0.0918223518546205,-0.0884728878736496,-0.076022446615179,-0.0684293657042551,113
1722330655354419000,0.1303551034018397,-0.2097849062085151,0.0325653219096362,1.849948798624426,9.421325571534036,1.9966702226765447,-0.0798427611589431,0.0571998581290245,0.0492919161915779,0.7648540123173296,0.6308158097092866,-0.0164184644095334,0.1296153522147179,-0.1222265139222145,0.0485102199018001,0.1115353628993034,-0.2108078195154666,0.2187678386092185,-0.2649181798875332,0.0106094656512141,0.0245345123112201,-0.0521787484220927,-0.1261799931526184,-0.0237217340475413,-0.0430198749325936,114
1722330655394189800,-0.0207251003816723,-0.361260831311345,0.0820680423557758,1.8482491550996896,9.41702933564484,2.0183948554895816,-0.0535060800611972,-0.0864589363336563,-0.0470122992992401,0.7656059803145536,0.6299331316061758,-0.0165756530194018,0.1294487588676982,-0.1510725617408752,0.0174658596515655,0.1995784640312194,-0.4473158974766731,0.2882324199795723,0.3211784117698669,0.0291647873818874,0.064915232360363,-0.0707118871508631,-0.1566444337368011,-0.0591058808041503,-0.0820429718466009,115
1722330655433960700,-0.347971872279793,-0.7347703188210726,0.0577086771249771,1.864249711177498,9.415546988132595,2.010582135912031,0.0421784967184066,-0.2605273425579071,0.0426528193056583,0.7657555828448636,0.6301620427158299,-0.0196123231481442,0.1270023081604963,0.0201236996799707,0.0755901485681533,0.1413584351539611,-0.0309311448365449,-0.6276105053067207,-0.194831685492862,0.0352336205542087,0.0530100688338279,-0.0518671023567672,-0.1704814136028289,-0.0412190177893964,-0.0508050534826703,116
1722330655473732400,-0.1744036500953137,-0.5227320807278156,-0.0710758159592747,1.933393828421831,9.408363798630235,1.9786565732106565,0.0315296538174152,0.0681428238749504,0.2490995377302169,0.7645072571144402,0.6313325841961164,-0.0231464674678491,0.128109992594778,0.0138407703489065,0.0611756816506385,0.2131919413805008,-0.6044482409060001,0.1176163255989551,-0.0364835182666778,0.0148242972791194,0.0485623553395271,-0.0460529727179091,-0.1474858522415161,-0.0090108050758513,-0.0287146446807193,117
1722330655513503000,0.1313012982107698,-0.3010772885054349,-0.2300650393016636,2.030064104364812,9.38333164870441,2.0005773131176827,-0.0476615764200687,0.0421058200299739,0.3055145442485809,0.7643109194022872,0.6303642815280293,-0.0252946046713911,0.1335283784039649,-0.2452352643013,-0.02467642724514,0.3270073235034942,-0.7235773091554641,0.3245715613394975,0.235263046336174,0.0112418737262487,0.0127293234691023,-0.0003116469215587,-0.1187781691551208,0.0174972803169221,0.007785176266788,118
1722330655553272000,-0.1121276650547981,0.0967325275242328,0.3438312653437256,2.1455532086767257,9.353332231760024,2.020443166321516,0.0145654259249567,0.1097590625286102,0.3614023327827453,0.7639204837457462,0.6294315604302013,-0.0283192714690333,0.1394259559263332,-0.3085654973983764,0.0371637195348739,0.3372967839241028,0.1332756670236587,0.46942193082273,-0.4527636414885521,0.024786228314042,0.0204340666532516,0.0127470649989729,-0.0963088944554328,0.0436794896187959,0.0201475950379506,119
1722330655593043500,0.066593702109158,0.031647184151411,-0.01621609852463,2.270296901937574,9.326839361631867,2.0065458661332727,0.0377217642962932,0.007375800050795,0.3331914246082306,0.7624561607169891,0.6298072199778744,-0.0322101770108478,0.1447968140468619,-0.3506913781166076,-0.0288113038986921,0.2594704329967499,0.042007250124216,-0.3553367019593715,-0.0662672101011499,0.0112638678401708,0.0391189418733119,-0.0967451586769428,-0.1241054311394691,0.010040356473677,-0.0971231160107068,120
1722330655632814300,0.219768540084362,0.0716769967228174,-0.0823597187787294,2.385272503769398,9.290998232921956,2.0391708092756566,-0.1144924312829971,0.263015478849411,0.3304004669189453,0.7620886534654676,0.628390144291011,-0.0340154320732739,0.1522816313051001,-0.5123375654220581,0.0083436276763677,0.1867500990629196,0.3285252674013376,0.1063894136637449,-0.1281096260299906,-0.0073021277785301,0.0496887043118476,-0.1065951197031419,-0.1355530321598053,-0.0059696090365818,-0.0379733184330165,121
1722330655672585200,0.2433525370284915,0.0121732528746128,0.0701988869942724,2.473018299500644,9.255181069609522,2.096703106920421,-0.0417620651423931,0.1140734478831291,0.2399399280548095,0.7626126909636753,0.6260138042081255,-0.0347074904433359,0.1591346268929722,-0.555005669593811,0.0515397265553474,0.24001345038414,-0.0430810168355703,0.2211556105285883,-0.1216670622944831,-0.0220623575150966,0.066767431795597,-0.1436053013255819,-0.1498289108276367,0.004269200610154,-0.1095897166755516,122
1722330655752128000,0.3910042276680469,0.2888116811722517,-0.0282990427672863,2.6315257306754587,9.20958485508263,2.104520794934034,-0.0805836841464042,0.4632220566272735,0.2915297746658325,0.7607865475456527,0.6255317971830461,-0.0375402215436309,0.1688329482647575,-0.6288977265357971,0.0165407322347164,0.1913330554962158,0.2586339850515127,0.0451589921534061,0.6767371589820832,-0.0474764183163642,0.0975282341241836,-0.1460349304921459,-0.2238325029611587,-0.0496462434029439,-0.2005648771163076,123
1722330655831669200,-0.3500108307614922,0.0543716416567564,0.4627344158828258,2.7216172127500173,9.12888751655817,2.3295032702744005,-0.0153643572703003,0.1726044267416,0.2547112703323364,0.7646978377636022,0.6165666587439373,-0.0327710100439053,0.1844146775453992,-0.6502389907836914,0.0760614722967147,0.1016277372837066,0.0651262599050998,-0.4400584736943245,0.1427778740581124,-0.0583224594593048,0.011449915356934,0.0585644217380555,-0.2220725268125534,0.1280638506595045,-0.0734271602918161,124
1722330655871408000,-0.2896972318351268,-0.2980582329452038,0.3214440769687294,2.805105058775842,9.112460113370418,2.294520511959493,0.2205682396888733,0.169025108218193,0.291053295135498,0.7621761579628233,0.6179641406993344,-0.0336501691759657,0.1899352963812413,-0.1408707797527313,0.0235963501036167,0.0205782912671566,-0.410924149146676,-1.1918699436873197,-0.7556428648494183,-0.0700412765145301,0.0255956277251243,-0.1534552623517811,-0.2093330770730972,-0.0117407649001048,-0.0504399190978612,125
1722330655911178000,0.0214402629137039,-0.1891010146200656,-0.047132338052988,2.9081644512340423,9.09253902284801,2.244709894607961,0.1707482635974884,0.3015995323657989,0.3797041475772857,0.7584624731270964,0.6200139588468072,-0.0336799101433091,0.1979474455578521,-0.0155759751796722,0.2008704096078872,0.0870814248919487,0.0421785150378942,0.3197515938371419,-0.6803204973615705,-0.0515632480382919,0.046557929366827,-0.0669515162706142,-0.1712945848703384,0.0463311001061229,-0.0125638230947777,126
1722330655950947600,-0.1776747807204723,-0.4188192863106727,-0.1913444096326828,3.034106998890638,9.054555036890504,2.2315036454238,0.1371440440416336,0.4137836396694183,0.5188018083572388,0.7549793384020654,0.620598284804294,-0.032905107881821,0.2092395872884455,-0.1742599010467529,0.1009613871574401,0.254775732755661,-0.4882546415865421,0.6735206080883741,0.3343161257624626,-0.0273644253611564,0.0317806489765644,-0.1303627113195601,-0.1835307329893112,0.0622063264709431,-0.0979049871033988,127
1722330655990718000,-0.2356920854032039,-0.4050198935389518,-0.3294078954547643,3.208841634505987,8.990028496444225,2.247911613258719,0.1018961295485496,0.4669366478919983,0.6602150797843933,0.7512579341052277,0.6199269986464414,-0.0328469791415896,0.2241051550377246,0.0651883780956268,-0.0150112826377153,0.4223910570144653,-0.5189759430646896,0.2846937244594097,0.1297031422991305,-0.0036276811733841,0.0261505302041769,-0.0920778975182678,-0.1955689936876297,0.022481944853207,-0.0542143915686989,128
1722330656030487600,-0.2107096198379993,-0.297108384874463,-0.5925421145349741,3.4087644873917102,8.915785448625684,2.2493295172326264,0.1749058812856674,0.210241213440895,0.6412137150764465,0.7468701498482094,0.6197612207642059,-0.0348158068462216,0.2384720603261546,-0.369675725698471,-0.0581598170101642,0.5356845259666443,-0.1620890890538692,0.3043710693538188,-0.1313562432684004,0.0283017791807651,0.0008652321994304,-0.0608818455346859,-0.147403746843338,-0.0199650757946074,-0.0046883952782489,129
1722330656070257000,-0.2598994749426841,-0.254563959133625,-0.6521639318048954,3.628541210782528,8.846006979000569,2.1799640123225745,0.2974073886871338,-0.0660055726766586,0.6193556785583496,0.7409844608449054,0.6222693907888777,-0.0404174651062805,0.2491772856500719,-0.0430400893092155,-0.1164635568857193,0.5530422925949097,-0.1978179895609617,-0.0195803142607212,0.2091056917726993,0.0373859666287899,-0.0125234276056289,-0.0972967829440254,-0.1241807416081428,-0.0852243874948471,-0.0950900484136771,130
1722330656110027500,-0.1076525654673576,-0.1330342594832181,-1.033503236157447,3.8726840214058753,8.781787897068261,2.01318048184216,0.3486506640911102,-0.3882485628128052,0.6411877870559692,0.7332802787032549,0.6283024766477658,-0.0509152009904157,0.254840349052252,-0.2524676024913788,-0.0935608968138694,0.3973632454872131,0.3784510355651378,-0.5615145235866308,0.1987036863543093,0.0395350158214569,0.002044019754976,-0.0990669435548596,-0.098553866147995,-0.0699964460576186,-0.0587013779567554,131
1722330656149796900,-0.1562865402549505,-0.2398269932508468,-1.1307190171539785,4.138891656582057,8.685074074244499,1.8998561543487007,0.074254959821701,0.0676758885383606,0.8367670178413391,0.7264229293037626,0.6319234631626081,-0.0617011366204036,0.2630122637873422,-0.1978802680969238,-0.0928082913160324,0.2067277133464813,0.3721434598535299,-0.7522481078445911,0.2607565301634371,0.0302496012300252,-0.0048824260011315,-0.062787902918295,-0.0892233848571777,-0.0191193388356012,-0.1009115119756199,132
1722330656189566700,-0.3984475294113159,-0.3293827610135078,-0.8128244493603706,4.44390014705658,8.5063296184659,2.016060275062173,-0.3904383182525635,0.5590234398841858,1.0921770334243774,0.7239125394322729,0.6263229171524478,-0.0702077813192528,0.2806085491281744,-0.063459612429142,-0.128601536154747,0.0868861377239227,0.27547990591228,-0.6290601195931435,0.3562066166616976,0.0283573307096958,-0.0210729986429214,-0.0321870951478136,-0.0777772814035415,0.0139317572969826,-0.0326002676421427,133
1722330656229337000,-0.7180953706130385,-0.266723768004775,0.0878290901005268,4.782701601539552,8.249141740569472,2.29081040539518,-0.4295060038566589,0.7283522486686707,1.2853522300720217,0.7233634366616332,0.6141715679050338,-0.0774238794394281,0.3058499087276894,0.078123353421688,-0.0499729923903942,-0.0019942610524594,0.5679138692349195,-0.3334785058945417,-0.2653799521803855,0.0433025136590004,-0.043570589274168,-0.0236117685837554,-0.0824671909213066,0.0594272902116645,-0.0638242602287093,134
1722330656269106700,-1.8614052815318107,-0.5356079289138317,1.1895631280496717,5.205656672480703,7.910050070968269,2.550030519771576,-0.2000783830881118,0.8546583652496338,1.865253448486328,0.7187057740111353,0.6019898651376258,-0.0871368152410771,0.3368642763954066,-0.028431586921215,-0.0459340438246727,-0.0093421889469027,0.1799707827031612,-0.0810077196478843,-0.4627868767224252,0.0809575840830802,-0.0801728218793869,-0.0705996817809296,-0.1146851256489753,0.1029083300823345,-0.0691833761090645,135
1722330656308876300,-0.6985615258425474,-1.7464280722647905,0.9016273529291152,5.776812884637713,7.439839620116353,2.729029827094078,0.1543931066989898,0.8341965675354004,2.3750228881835938,0.7047001536644667,0.5922181695454783,-0.1006769164107489,0.377544067611021,-0.0113894855603575,0.0066927345469594,0.0056893583387136,0.0553618217378854,-0.0092997432649135,0.1076607487738132,0.085725761950016,-0.0398346036672592,-0.1452196411870419,-0.1368241757154464,0.0107484990348108,-0.0770936332103796,136
1722330656348646700,0.1198141279041767,-0.2613298000067472,-0.3154009974122047,6.312358269709348,6.893717311450839,2.966680060827732,-0.3323802649974823,0.8541041016578674,2.098684787750244,0.6910545045558891,0.578922930873034,-0.1165746800291864,0.4167761085192268,0.1735955476760864,0.0126083074137568,0.0747585073113441,-0.0725426736414432,-0.1897135935604572,-0.018779665402323,0.0305012892931699,-0.0159611739218235,-0.1163690654842183,-0.1548439711332321,0.0358966925387619,-0.108898099415889,137
1722330656428185600,0.9029530485749244,-0.2243804177939891,0.8005848532512784,7.129444468167423,5.762767992672324,3.483090829579532,0.6602364182472229,1.976773142814636,2.425912618637085,0.6530598402120126,0.5520044150395255,-0.1330523079238043,0.50109997331103,0.1227105259895324,-0.0218240767717361,0.1504179090261459,0.0725900199145078,0.0232335760712623,0.0516575603924691,-0.0031918080057948,-0.042608868330717,-0.1274456913616974,-0.254764199256897,0.0667450110801961,-0.1551119800502434,138
1722330656467955500,1.6726719311803575,0.4752051903992891,-1.4239119821503758,7.349128252577781,5.187380426555872,3.9053517807766793,-0.0203481782227754,1.689444899559021,1.817193865776062,0.6290081710867812,0.5332099648001146,-0.1287229833250395,0.5508776757799269,-0.029733870178461,-0.0430031307041645,0.1933649033308029,-0.0194628253608942,0.2038718827724456,0.2496516371726989,-0.0224610064178705,0.0132651142776012,-0.1363806381685193,-0.2222414463758468,0.0213740406935219,0.0171866742895683,139
1722330656507726000,-0.3180909671485424,-0.4681239999666809,1.1292132887661457,7.300031920975446,4.709452533194423,4.549833049124479,0.0621853806078434,2.372756242752075,1.6403353214263916,0.6175104460986156,0.5036713648639991,-0.1197423664203547,0.5921636437552068,-0.1163723617792129,-0.0740236788988113,0.2660474479198456,0.2962035449892282,0.0101572368770837,-0.1003087785758078,-0.0143155809491872,0.0209316238760948,-0.0795147046111524,-0.1720571517944336,0.034406522479665,-0.0333891073317383,140
1722330656587256000,1.2605565264225005,1.1127005453824996,1.5194459475398063,6.861174055242538,3.926046486020088,5.803519689777493,0.9509809613227844,2.031707286834717,1.554450273513794,0.5690219582013545,0.4451164260102534,-0.0772931017188427,0.6871034614601952,0.2704720199108124,-0.0793226808309555,0.3205464780330658,-0.0269786078184843,0.1824316198587417,0.6206019417189061,-0.0456857159733772,0.0482159294188022,-0.0718743230929365,-0.0799930691719055,0.1323938974867574,-0.0412575688346521,141
1722330656627026400,1.872933806762099,1.771720042170584,0.8093728476017713,6.696062988018989,3.836846984349191,6.050762512242794,0.7054305672645569,1.4795758724212646,0.8323987722396851,0.5530399895240711,0.4331911830816855,-0.0619868309508276,0.708977967672669,0.1857813596725464,-0.1274675726890564,0.3074469268321991,0.2575193018078804,0.0522977579921484,0.4855110419668257,-0.045825932174921,0.0215852800756692,-0.02225297895252,-0.1023548245429992,0.1514523798304609,-0.0821053604251705,142
1722330656666796000,0.9595552257627248,1.1466638975217938,0.4804045126080513,6.424312331762909,3.826392225830257,6.344865285560489,0.7189815044403076,1.6171451807022097,0.6594879627227783,0.5391827649692652,0.4180626210388114,-0.041539539361023,0.729917852732973,0.0984920114278793,-0.1261003464460373,0.2015291005373001,0.1349322020590305,0.2324368829995393,0.4155274051584303,-0.036651361733675,0.0574211552739143,-0.1653390672931447,-0.1181361004710197,0.0223472034244798,-0.0804057534330524,143
1722330656746336000,1.6503537163883446,0.3310144538685679,-0.2158908218681812,6.045508244976401,3.93814667365849,6.641779024645686,0.1673044562339782,0.5426203012466431,-0.3295083940029144,0.5296303708322542,0.4013902009291484,-0.0157932858200993,0.7470798664378481,0.1711158752441406,-0.0796092376112937,0.1037966832518577,0.0192021285980939,-0.0439759198486804,-0.1294857732214033,-0.0472193844616413,0.0809380784630775,-0.0983875464559532,-0.053957425057888,-0.0239838989649317,-0.0678419303382746,144
1722330656786105600,0.3331599414646625,0.0901645473107695,-0.360084188747406,5.781182185763121,4.021876804007589,6.82442867116928,0.2402105927467346,1.1327598094940186,0.0596209838986396,0.5257938243493734,0.389937126685683,4.24928893305e-05,0.7559695850721094,0.0719219148159027,-0.1089129522442817,0.1102847456932067,-0.0694984836399555,-0.1744008736163377,-0.0456172573149204,-0.0272989533841609,0.0437206849455833,-0.0122234932160179,-0.0413192734122276,0.0110816947782412,-0.0253955581444315,145
1722330656825875000,0.4786240589320659,0.2771042922437191,-1.0070786089599133,5.5104713939487935,4.095456419481337,7.002309203594923,0.0188091099262237,0.6010878086090088,-0.3208685517311096,0.5207212596252281,0.3777994766224522,0.0157847172612579,0.7654200389184749,0.1217331513762474,-0.1190766468644142,0.0599185079336166,0.0006844751328229,-0.099956750267744,0.0917770970739424,0.0017479920061305,0.0173990707844495,-0.0065651917472219,-0.0290904697030782,0.0520385453669587,0.0005874342243361,146
1722330656865645600,-0.3176432233810424,-0.6165630415916442,-1.9325187991529704,5.4213329748153685,4.1378351332664485,7.04683282045424,-0.2201762348413467,-0.5387081503868103,-0.4678458571434021,0.5226851678449859,0.3745910639660418,0.0198254885278159,0.7655643299985478,-0.0785117968916893,-0.183659628033638,-0.0497545264661312,-0.0742810417413711,-0.71364452868402,0.1216401742875575,0.0342869758605957,-0.0223140455782413,-0.0278875827394309,-0.0065650786273181,-0.0371364817330963,0.0116638317729521,147
1722330656905415200,-0.9787450794011354,-0.6438531995773316,-0.812221222770214,5.498249625757336,4.122328936576843,6.996144835746288,-0.5799908638000488,-0.2440094500780105,-0.2071138471364975,0.5276989227123732,0.3782897648964426,0.0138833643328043,0.7604195685106572,0.0162799581885337,-0.2002200782299041,-0.0634797289967536,-0.1869464669346809,-0.4327133716285228,0.123563105174154,0.0316832363605499,0.0014161331346258,-0.0337815041828085,-0.0107558378949761,-0.0027197849192889,-0.136608565172879,148
1722330656945180700,-0.5155751947104931,-0.4108335482537746,0.9121569302499294,5.466784227913617,3.972208517736196,7.10677261763215,-0.3391204476356506,0.3588723242282867,0.1232955604791641,0.5272498340083179,0.3709075721290218,0.0091117844931811,0.7644292877725257,-0.0253332629799842,-0.1823865920305252,-0.0089398520067334,-0.0297287833094596,0.1229641163676977,-0.4928630121648311,0.0112894158810377,-0.0295594055205583,-0.0450619341202545,0.0240431949496269,0.0195044588458025,-0.0456403733290266,149
1722330657024720400,2.262371515765786,0.4462313171103596,0.2684568754076957,5.368847000774741,3.8842809356972574,7.2289856233716,0.1697920560836792,0.0497073084115982,-0.307370513677597,0.5161009935808316,0.3622431500005039,0.0142896954922114,0.7760255259923562,0.2207491993904113,-0.0623313933610916,0.0218126680701971,0.0864496184408664,0.4722124383240937,-0.2756722136139869,0.0191795844584703,-0.0528367236256599,-0.156919559195172,-0.0189096592366695,0.0765913782100891,-0.1077371567445807,150
1722330657064489700,0.2133405528634786,-0.2317056461155414,-0.3001274404346942,5.287038486137986,4.012000722159445,7.219519875890016,0.1374449431896209,0.0838092342019081,-0.2329703718423843,0.5173637409517264,0.3625269455714348,0.0219349678758587,0.7748728476890979,0.2852016985416412,-0.1393000483512878,-0.0738462135195732,-0.1718576188743114,-0.6362824720621109,0.1193441723048686,0.0467555336654186,-0.0242569278925657,-0.2162630892466753,-0.0225826390087604,-0.007729260811489,-0.0148470569274388,151
1722330657104259300,-0.0052326399564743,-0.1908709469020366,-0.3514624908745288,5.240752535781264,4.061097346022724,7.225813423076271,-0.1274508535861969,-0.0358340553939342,-0.238051176071167,0.5173322292759742,0.3618413063175629,0.0256304403388435,0.7751007894601072,0.1619372963905334,-0.1610826253890991,-0.0840043127536773,-0.1041840125739574,-0.0351601607084274,0.0107752226449549,0.0479730628430843,-0.020545607432723,-0.1412835164476651,-0.0177982188761234,0.0843060031414497,-0.148011454729503,152
1722330657144029700,-0.4604688090384006,-0.3634522038757801,0.1093500170350074,5.216400769335031,4.056059351855517,7.246236033380031,-0.1220194175839424,0.0476626642048358,-0.0685134977102279,0.5180588855372575,0.3603780513772426,0.0259315736490306,0.7752872033525791,0.258019357919693,-0.1978583186864853,-0.079191580414772,-0.121389414396882,-0.084949150750041,-0.0317499138735234,0.0349038802087307,-0.0075914026238024,-0.1145708478226792,-0.0109667181968688,0.0611723072480875,-0.1420718629469163,153
1722330657184040000,0.0893599529296159,-0.2318903550326824,0.2656803964316844,5.20556665610969,4.033433678549528,7.266627664023638,-0.032666515558958,-0.0035269614309072,0.0270617008209228,0.5163563867106963,0.3589170197031803,0.0261472325821719,0.7770913919846919,0.2355545163154602,-0.1623472571372985,0.0067538237199187,-0.1477957752853632,0.3335626770466566,-0.0327985461436212,0.0240138638764619,-0.0093584228307008,-0.1176717547137755,0.0067296284250915,0.0248787083632079,-0.0841871899342164,154
1722330657223568100,0.5068728328168391,-0.0524424271598458,0.1189297462850809,5.217812974220514,4.052105938054621,7.247430211600661,0.1602496802806854,-0.1843939423561096,-0.0885208174586296,0.5133692350531393,0.3601471720731088,0.0278909636415497,0.7784394776327043,0.2777667045593261,-0.049123391509056,0.082985408604145,0.2629448339879512,-0.0026700959920883,-0.3239278566084801,0.0100506581366062,-0.007398554123938,-0.1241091673501301,-0.0008051252225413,0.0276650602792622,-0.0907072484858799,155
1722330657263338800,-0.0402303035795688,0.1591945366561412,-0.3089560590565204,5.266024339681864,4.092309061366319,7.189741992741823,0.0969522297382354,-0.2293663620948791,0.0016331276856362,0.510341147131433,0.3640944006694792,0.02933348531937,0.7785414945414353,-0.1754932105541229,-0.0489773452281951,0.0969642102718353,-0.0769353556424379,0.2708300342798233,0.1806895984970033,-0.0006340645486488,-0.0166896134614944,-0.0698205643343273,-0.0203796382993459,0.0591651275775628,-0.0886463156343903,156
1722330657342877400,0.1821954730153083,0.2031155114471912,-0.6584224076777696,5.380432224628329,4.020854475222528,7.145211946141719,-0.2789351344108581,0.0339676849544048,0.0275482609868049,0.505098777706926,0.3675321617690187,0.024812936598379,0.7804995699721343,0.1299735009670257,-0.0421529412269592,0.0203829500824213,-0.0820025759041309,-0.434859736007452,0.070826736569032,0.0147242462262511,-0.0495074801146984,-0.0474553868617396,-0.0482644774019718,0.0697269540670095,0.0063186479490046,157
1722330657382647800,1.2306933030784128,0.2952373303055763,-0.3157838592499494,5.351116698294878,3.9601568454146383,7.200909283444285,-0.1881856024265289,-0.2331358790397644,-0.154560700058937,0.5043690448631679,0.3637304309446026,0.0235791111797304,0.7827874215065977,0.0355857461690902,0.0238474868237972,-0.0038108031731098,0.1353425364255905,-0.1121592292368412,0.1949696143925189,0.0321819186210632,0.015897748991847,-0.1289802257189061,-0.0428465008735656,0.0065993999775004,0.0035660955545637,158
1722330657422417200,-0.5261901122272015,-0.208828336136043,-0.235977332085371,5.362477465742826,3.952761182205379,7.196520108574628,-0.5007109642028809,0.1948548108339309,-0.2080397456884384,0.5103089921147821,0.3642463945990832,0.0201037905426631,0.7787843876688544,0.2543162405490875,0.0098896995186805,0.0642067342996597,-0.0624000498116016,0.3615104221582412,0.3238578601121902,0.0307997688651084,0.0155001049861311,-0.0849891357005573,-0.0469702184200286,0.0252045838832855,-0.0600497877578716,159
1722330657462186500,-0.3539186518549919,-0.2416626842454075,0.5561339995920658,5.215794035613537,3.843739081950485,7.361490890544652,-0.2148247957229614,0.3922753930091858,-0.0058839293196797,0.5114185189295061,0.3525155000223582,0.0200310764836449,0.7834428676174297,0.2213904857635498,-0.0555340498685836,0.0768584161996841,-0.0656242725551128,-0.3151350399523973,0.1217126550018787,0.0121278837323188,0.0033731597941368,-0.0249144555300241,-0.0312170032411813,0.0484093083193991,-0.039113355313614,160
1722330657501956900,-0.5988713175565004,-0.1973351744800806,0.1456108324617147,5.190052276113629,3.806444831822812,7.398967511501908,-0.1371147781610489,-0.1939902156591415,-0.0544837079942226,0.5117640878100382,0.3498430436064975,0.0191699103666747,0.7844360353691653,0.1417358815670013,-0.0774773731827735,0.0353680253028869,0.0143406600415706,-0.2058563345879316,-0.0321231311000883,0.003508313326165,0.0123424623161554,-0.0680983801842201,-0.0032911114394664,0.0265644763429299,0.0082544931161013,161
1722330657541721300,0.750355425965786,0.0465434322491288,-0.045478141105175,5.265525157988071,3.780438283906877,7.35886638725996,-0.0755004212260246,-0.2222842574119568,-0.0013209683820605,0.5107641708450773,0.3529138407401261,0.0159392960957738,0.7837841830700879,0.2295996844768524,-0.0003438699932303,0.0190099570900201,-0.0820288793891668,0.2558978380858898,-0.2554476101003587,-0.010177775286138,0.0105740223079919,-0.0394316822814755,0.007942029275,0.0199577555712545,-0.0228722798946429,162
1722330657621261000,0.6860825680196285,0.2358425997897982,-0.4428384598016738,5.251238273960352,3.7121962300688014,7.403679926976561,-0.2148980796337127,0.0355157181620597,-0.0969093441963195,0.5098819094322737,0.3497478693238467,0.0139208840346721,0.7858136080517685,0.3117619454860687,-0.1534974724054336,-0.0349360965192317,-0.2517079851806164,-0.6320107860922813,0.352293607936427,-0.0170982964336872,0.0357692912220954,-0.0465204440991859,-0.0162195991724729,0.0172351165411761,-0.0170368814221816,163
1722330657661030700,-0.0285685073584318,-0.0980021090686321,-0.0659358227223157,5.210668363162875,3.664464757078886,7.455938522002101,-0.2128257006406784,0.1662468314170837,-0.0602098070085048,0.5110452057511409,0.345962873914293,0.0127524739444903,0.786752750878167,0.5635174512863159,-0.2178084850311279,-0.004801832139492,-0.3038508448719978,-0.2425526188224553,0.6431202091276645,-0.0202032644301652,0.0402900464832782,-0.0608537930505583,-0.039666473865509,0.0205384757853695,-0.0014734946313983,164
1722330657700800000,-0.2783107454240321,0.0704664518892765,-0.4400087893337011,5.190464364045858,3.617800913320482,7.492728329738974,-0.2662223279476166,0.0539943687617778,-0.0436635836958885,0.5117885156825696,0.3432978440414242,0.0111251436652059,0.7874612571312002,0.834964394569397,-0.2615996599197387,0.0464935787022113,-0.2701794614166021,0.2254565225929021,0.353144817938283,-0.0281065329909324,0.0337612442672252,-0.0149566445069562,-0.026212278753519,0.0382979221613262,0.0311337364702485,165
1722330657740570400,-0.1980816089332103,0.0546647793844342,-0.357491834166646,5.173382296341657,3.5379844492837784,7.542491016295552,-0.2869664430618286,0.0536529719829559,0.0200514625757932,0.5127621118975999,0.3396731379774591,0.0078832935215279,0.7884383541757111,0.7638678550720215,-0.2614672183990478,0.1396158635616302,-0.17077859146595,-0.155890234413743,-0.406188937318325,-0.0275897998362779,0.0264428406953811,-0.0365626319344737,0.004847312811762,0.0071237286706367,0.0532102103616809,166
1722330657780339700,-0.1696387737810611,0.0675920654967427,-0.1980307555288076,5.172023867470026,3.439613799163699,7.588781642827391,-0.3062050640583038,0.0313206799328327,0.0468107797205448,0.5126600557754319,0.3362521308593194,0.0037828674864318,0.7899999433202747,0.3405193090438843,-0.1857979297637939,0.1459816247224807,-0.0189402627915143,0.7235545128017663,-0.1928349039187654,-0.0278179738670587,0.031344249844551,-0.0286667001860332,0.0090764695778489,0.0066067196300311,0.0311267724399222,167
1722330657820108800,0.205096456131339,0.2312754380047321,-0.2869301052093506,5.173627211013436,3.351647346419096,7.626953844833373,-0.2625089883804321,-0.0386229567229747,-0.0246284902095794,0.5130920405224568,0.3333669707950857,-0.0002041606161694,0.790950630495927,0.2509419918060303,-0.1614927053451538,0.2116792798042297,0.0485024573624134,0.0521066193342208,-0.230579838689696,-0.0309824366122484,0.0096135940402746,0.0198358279583277,-0.0155193330720067,0.0464021332154516,0.0143121942822006,168
1722330657859879200,0.0020107553005218,0.0747714556068182,-0.1961047559022903,5.150760130167007,3.2672344945028424,7.67888218499124,-0.3314621746540069,0.1676482111215591,0.0135542973875999,0.514319728071684,0.3293529402613498,-0.0035488950785187,0.7918265785212786,0.0349401980638504,-0.121697299182415,0.2880290448665619,-0.0835474672585725,0.2659790871173143,-0.1496025324463844,-0.0289776660501956,0.0253895372152328,-0.0441469153343001,-0.0075368294492363,-0.009856543747324,0.0675084788665175,169
1722330657899648800,-0.2390548398345708,-0.1666968751102686,-0.0023223054677248,5.113649419912695,3.1609453263431786,7.747863951280713,-0.2374298870563507,0.0584897994995117,0.1120483428239822,0.5140311121201014,0.3239191991978848,-0.0067249851628789,0.7942311278465465,0.3995613157749176,-0.1040053889155387,0.3464483916759491,-0.0722422293901443,-0.2276625082045793,0.1033633255745284,-0.0153135722503066,0.0007683568401262,0.0064654696870595,-0.0134426960721611,0.0377172019472112,0.0097349540611146,170
1722330657979187500,-0.3242325386434793,-0.0681821403443813,-0.157505268394947,5.301478514900803,3.061083853143453,7.661232546532154,0.049917921423912,-0.5003804564476013,0.1760529279708862,0.5080819456446923,0.3304023500040867,-0.0148371036957489,0.7952779426813256,0.5717900395393372,-0.132572054862976,0.4713219702243805,-0.1943020903944969,-0.1960714381545782,0.2573299167156219,0.0015247695846483,-0.0293056555092334,-0.0007791173038967,0.0087902853265404,0.0437432025047717,0.0194629395253257,171
1722330658018978600,-0.1198386778235435,0.1585498090118169,-0.3182078715264797,5.459058017575741,3.0314246279388666,7.561715356725454,0.0194818787276744,-0.3427295684814453,0.2286693751811981,0.503356082156295,0.3377603210795755,-0.019436805401999,0.7950929716826997,0.0619529038667678,-0.0189385935664176,0.3861680626869201,0.5035650234431028,0.6749030023574829,-0.5227028546333312,0.0033844909630715,-0.0645830109715461,0.0531697915863245,0.0245195869356393,0.0522369951150845,0.0260941462842864,172
1722330658098518800,0.4488181187331676,0.4226762539997696,-0.3468360001176595,5.528904876261949,2.815481199100613,7.594383700618147,-0.4000734686851501,0.172672688961029,0.0892819762229919,0.4970744717965608,0.3346382809414088,-0.0284854530321056,0.8000767293745134,0.7247148752212524,-0.072705790400505,0.2044360041618347,-0.1626136974498629,-0.5201712903290987,-0.0364110010197386,-0.0015784242423251,-0.0723188892006874,-0.0265287931081955,0.0620813630521297,0.0548886056024115,-0.0066172741317306,173
1722330658138290000,-0.2057084505498409,-0.0686103026285767,-0.0991325744032859,5.498390495532751,2.669610838919878,7.668850035798549,-0.3709832429885864,0.0751894637942314,0.1607036143541336,0.4966912134002321,0.3284276975560655,-0.0336557176794692,0.8026831855914921,0.6237717270851135,-0.0911925509572029,0.273005336523056,-0.1708078175604343,0.1174053131967782,0.1069312654554843,-0.0029906937852501,-0.043427862226963,-0.1075581195164006,0.0727196782827377,0.0060186809050297,-0.0178326897086808,174
1722330658217830100,-0.0484282230824232,0.0019900047734379,0.1171300033867359,5.655348651438951,2.486782620958984,7.615991136792302,-0.103817842900753,-0.3514734506607055,0.222556322813034,0.4905989394634296,0.3312440713584846,-0.0443832702297709,0.8047484504659432,0.3137020468711853,-0.0390539281070232,0.401362657546997,0.3077241791740059,-0.46703474342525,0.3082348321098834,-3.16589139401e-05,-0.0752349197864532,-0.1007529512798879,0.0655443742871284,0.0667421569694066,-0.0126680084133928,175
1722330658257601500,0.1591822616964578,0.0539922869503498,0.1643412518948316,5.741776642569899,2.383305295349657,7.584342783597111,-0.1457427591085434,-0.1101254299283027,0.2987892627716064,0.4860286859191336,0.3328847084032324,-0.0499391250733875,0.8065173011024647,0.1246146857738494,-0.0148879783228039,0.3923142552375793,0.0445177716404199,-0.0761778152734041,0.2002257082898169,0.0220964234322309,-0.0478664636611938,-0.1397171621800866,0.06658935546875,0.0604539892111672,-0.0472180527082178,176
1722330658297371600,0.6272790813952684,0.4033136741429567,-0.0408253468632698,5.787834629389644,2.258589659139514,7.587498617279529,-0.3179441690444946,-0.0112330876290798,0.202208325266838,0.4821796708013686,0.3317760614211921,-0.0554065164428819,0.8089237624906009,0.2323848307132721,-0.0691230371594429,0.2798218429088592,0.2577817521363497,-0.6162567521214485,0.4687602520436048,0.0302857011556625,-0.0484824664890766,-0.0437031399224419,0.0370771251618862,0.1115295438980217,-0.063921478092065,177
1722330658337141800,0.4873901337116956,0.0545608806185424,0.4260954147934913,5.779881624558568,2.130297771877795,7.630542809236049,-0.2056111544370651,0.1165958642959594,0.1659755557775497,0.4804545458625823,0.3276185337222815,-0.0601388686044864,0.8113031467527922,0.6362622380256653,-0.0206303931772708,0.1882435232400894,0.2337313067242503,-0.3699959264308214,0.1123679035514593,0.0488361939787864,-0.0325243957340717,-0.1692471258486621,0.0367212407290935,-0.0107067445356049,-0.0062730409710551,178
1722330658376913000,0.0677057550042867,0.0142133804000914,0.1765244416415691,5.786117304077744,2.04689497378692,7.648624409371614,-0.117999717593193,-0.0673926174640655,0.1646867543458938,0.4776962336269684,0.325677135635725,-0.0629530627708307,0.8134972161297743,0.4489797353744507,0.0068948147818446,0.2261628061532974,-0.0446755925506353,-0.0009264671951532,-0.5651801334220916,0.050068337470293,-0.0315739139914512,-0.0971845821406692,0.0149401556700468,0.076789827958215,-0.0822304481095634,179
1722330658416683000,-0.0972685340970754,-0.0953138928979635,-0.0511556022197008,5.841257592019439,1.987930305251479,7.622219802048802,-0.0680271536111831,-0.2398537695407867,0.1383703649044037,0.4749790122365134,0.3270739699612057,-0.0663142065464722,0.8142604418000126,0.4094001054763794,0.0291695464402437,0.2000586986541748,-0.0943932709217071,0.1091477724611759,-0.2237031030543148,0.0444933548569679,-0.0296097844839096,-0.1326283912292216,0.026795020326972,0.0631766282412456,-0.0530534534639678,180
1722330658456453000,-0.1044072999358177,-0.0654644058182835,-0.2416460253715515,5.930547402322292,1.9214196052506565,7.570148254027962,-0.1027748361229896,-0.2333006411790847,0.2173074781894683,0.4713631996595928,0.33018097686734,-0.0707841127005901,0.814731233129255,0.5436239242553711,0.0494887754321098,0.1576519906520843,0.1306377197355032,-0.290209857532382,-0.1518202084958553,0.0385630801320076,-0.0195687711238861,-0.1522803459540475,0.0500159449875354,0.0485294138679979,-0.068043339228467,181
1722330658535994600,0.560115178182721,0.1263962827734649,-0.0675683923602104,5.923831830331682,1.656386274550855,7.637734182044864,-0.3792387545108795,0.3048185408115387,0.2280566990375518,0.4654383218986939,0.3227326120413169,-0.0801721905165383,0.8202336873289832,-0.1240603700280189,-0.0788554549217224,0.0782383233308792,0.1169029166325926,0.3455377770006656,0.1968894765391945,0.0171766094863414,0.0209438949823379,-0.125567686462216,0.0551276057958602,0.0253957179746357,-0.0621037520124576,182
1722330658575765500,0.3418775009274482,0.0417370548807084,0.2607043615847826,5.853417985412478,1.4971359160542488,7.7244065033257,-0.3262257575988769,0.2244201600551605,0.1701333820819854,0.4642488556321504,0.3146352117433632,-0.0846731519016822,0.8235945953264092,0.1724849939346313,-0.1120091527700424,0.0772473663091659,-0.1000605029031634,-0.4443389274924993,0.2459102586872875,-0.0020005675032734,0.017446668818593,-0.04537358018558,0.0563420802354812,0.037001740304369,-0.0378551970622385,183
1722330658615536600,0.3503858015537262,-0.0038686581268906,0.2382587210208177,5.806004492330551,1.3854726536408066,7.780820464465021,-0.1744602918624878,0.1211775839328765,0.1171889752149581,0.4625804351508347,0.3092116142087355,-0.0876170391969987,0.8262752748121432,-0.0444076210260391,-0.159137025475502,0.0753543898463249,-0.2241813880905508,0.189814715847373,-0.0639367578595876,-0.0202519465237855,0.0241499133408069,-0.0734169859576737,0.0701385885477066,0.0086138987297337,-0.0222987771558924,184
1722330658655306800,0.1445738906294107,0.0588581394210457,0.3805424548864364,5.7755386269181965,1.331424983241409,7.81286395445764,-0.1265852451324463,0.1574944406747818,0.0385236628353595,0.4619629694038694,0.3061918896107751,-0.0888893127030172,0.827608321095077,-0.0035728411749005,-0.201792299747467,0.1725003123283386,-0.3564069615393876,0.1331459031641483,0.0937764541976153,-0.0241644941270351,0.0187112223356962,-0.1015881691281683,0.0617987103760242,0.0294782517476473,0.0003651298182317,185
1722330658695077000,-0.0594523059219121,0.0314826412394642,0.2073310833156108,5.7196443057388064,1.278744071150571,7.862624887448549,-0.125312328338623,0.1471740156412124,0.0807805061340332,0.4613966557866082,0.3018910085309759,-0.08932818205958,0.8294549003260513,-0.0877223387360572,-0.1503698527812957,0.1636042147874832,-0.0815004716008901,-0.0407610494554042,-0.2949849629797041,-0.0243144929409027,0.0192640647292137,-0.0896763162692543,0.0358939059078693,0.0358938384279725,0.0335458642294514,186
1722330658734848300,0.3828974935799837,0.0765263364501297,0.2965244475066662,5.701966025707125,1.2449233423523605,7.880871322757005,-0.0163935236632823,0.0372619852423667,0.0234392415732145,0.4602240672535382,0.3001762746205487,-0.0898976264495726,0.8306662454357014,-0.2182587683200836,-0.1185815632343292,0.121780939400196,0.1385024617612361,0.0991261446624994,-0.0367297481127083,-0.0116536021232604,0.0410527847707271,-0.0512356817185878,0.0221487935632467,-0.0125791839190467,0.0733438750556902,187
1722330658774618400,0.1890109982490539,0.1601345939852297,-0.1237625732690095,5.689651903057098,1.2389771472990512,7.890702396419644,-0.0388127341866493,0.0385381318628788,0.0306024961173534,0.45939872465276,0.2994628802193286,-0.0894881049354909,0.831424552407493,-0.1798341572284698,-0.0999763533473014,0.0997378230094909,0.0766924867972731,-0.0093172789216041,-0.038634412690252,-0.0058822236023843,0.0349811054766178,0.0043556122392386,0.0078490003943443,0.0299388686964521,0.0506938984255073,188
1722330658814388500,-0.2086322290420532,-0.0176684892900288,-0.0890057326644659,5.688061418995261,1.2177619253128766,7.895150023478269,0.0140165034681558,-0.0640382319688797,0.0728849396109581,0.4580120340783055,0.2989564813803698,-0.0899132518074502,0.8323254396791108,-0.1519050598144531,-0.0651421993970871,0.0812516286969184,0.1698956711515784,0.1419552325636148,-0.067645549249649,-0.0032507667783647,0.0382962077856063,-0.0457893031133105,0.0149729112163186,-0.0438807980442885,0.0967896554057951,189
1722330658854159600,0.0393956063210964,0.1140272150658071,-0.0790139154821634,5.736465676680207,1.2169990511815991,7.860168726468085,-0.0111757889389991,-0.1122113242745399,0.0689151063561439,0.4557209828388603,0.3017117076764614,-0.0906253817591097,0.8325115168832675,-0.1238840743899345,-0.0531012490391731,0.1034833639860153,-0.0786661249577999,0.0410299295246601,-0.0162223090697079,-0.0083808414638042,0.0291461981832981,0.0199636007901513,0.0018486109329387,-0.0028500625187414,0.0072047077852446,190
1722330658893929700,-0.0366325713485479,0.0469739326208829,0.0470534275978803,5.758175404185057,1.201751724623889,7.846628861415386,-0.0097166653722524,-0.0176110174506902,0.1110794097185134,0.4537994765812534,0.3026495740037728,-0.0913044188673328,0.8331462421815655,-0.1620133519172668,-0.0650909096002578,0.0971584841609001,-0.0487993944823741,0.0892974090874195,-0.05955415886119,-0.0120382672175765,-0.0064104180783033,0.0494175446470268,0.017603900283575,0.0104344087090052,0.0963342671879567,191
1722330658933700000,-0.033515900632739,0.0528921436887234,-0.0096171386510133,5.727226723691821,1.1834138116396964,7.872025753000378,-0.0047484370879828,0.1731141209602356,0.1827278435230255,0.4512052075012475,0.300819156459667,-0.0902564222976788,0.8353295518949946,-0.1256375014781952,-0.040142573416233,0.0937562957406044,0.0067488897383213,-0.0155903678417205,-0.0978682535558938,-0.0009721935493871,-0.0066457628272473,0.0229884741698158,0.0157677009701728,-0.0244327318611089,0.0793946127622853,192
1722330658973471200,0.1648082848846912,0.1348014152862131,-0.1532405966877937,5.71460280444026,1.1546260355073958,7.885463911244273,-0.0098736863583326,-0.0401080660521984,0.1185321509838104,0.4480859841190652,0.2997308101633151,-0.0900814103819047,0.8374161778264204,-0.0980607271194458,-0.0531824752688407,0.1149220392107963,-0.1236003684446215,-0.1363987674802541,0.0788210232585668,0.0132925286889076,-0.0422782637178897,0.095654395165015,0.0190478935837745,0.0512001263480167,0.1243712249529547,193
1722330659013241300,0.1683773755431175,0.0215628663800656,-0.1519856281906366,5.73243189111948,1.140073632411286,7.87463272062838,0.0014391837175935,-0.0007824522908776,0.0995478183031082,0.4457107023191693,0.3005408235502853,-0.0904471612950317,0.838353379129725,-0.1537423729896545,-0.1492812633514404,0.1100866049528122,-0.3100868166521191,-0.0470329693317413,0.2477091978680342,0.0256829094141721,-0.0398725755512714,0.0020899317587551,0.0331642888486385,0.0309091750333318,0.0955454366315156,194
1722330659132595500,0.1960790369391441,-0.0926247999444603,0.0296358443289995,5.734806803557277,1.0419254659354686,7.886492669770121,-0.1139914914965629,0.1470646411180496,0.0839044675230979,0.4412044372444494,0.298602109815581,-0.0934749681821853,0.8410931959173094,0.3746985793113708,-0.3331553339958191,0.261049747467041,-0.3512520629942417,0.2274129173576831,0.2563630444448441,-0.004562116228044,0.0043995305895805,-0.1133441921045537,-0.0405229926109313,0.0143140231963945,-0.0367081915847375,195
1722330659172367000,0.0151315181583166,-0.0694089787255972,0.0414162984937429,5.717036169067025,1.0059908137232063,7.904041185942292,-0.0699597746133804,-0.0103625850751996,0.0336257368326187,0.440586697935129,0.2968080800437226,-0.094398206931537,0.8419485590362896,0.7796473503112793,-0.3194779753684997,0.3113727867603302,-0.2153814110413193,-0.1204880816429853,-0.0497924971729516,-0.0039077131077647,0.0189839620143175,-0.1102912708073388,-0.0384484305977821,0.0332349100005812,0.0386966140391537,196
1722330659213385000,0.0770557671517133,-0.0324726021248847,0.1667763700872659,5.747587959197163,0.9804269680734724,7.885073450621962,-0.0408042483031749,-0.0801973864436149,0.0331020578742027,0.4396463782059391,0.297864622232688,-0.0961759513426846,0.8418657601238445,0.4942159056663513,-0.3024159967899322,0.3344649970531463,-0.1169081773295998,0.2467746204316616,-0.3521703468829393,-0.0001915625762194,0.0285301953554153,-0.0131864850377663,-0.0276636201888322,0.0230699830073863,-0.0052549305617401,197
1722330659253156400,0.1630576418250799,-0.0545011132553219,0.1784597936183214,5.76827711148262,0.9598085429366676,7.872491616946458,-0.029984213411808,-0.044855885207653,0.0349850505590438,0.4388171658778368,0.2985209097461873,-0.0974673868941148,0.8419173433773456,0.5357060432434082,-0.2632190585136413,0.2559686005115509,0.2066542069673538,-0.5860884083509444,-0.5584656574100255,-0.0303932502865791,-0.0027090413495898,0.04642072375149,-0.0228541232645511,0.0725206262064166,0.0273592685659881,198
1722330659292928300,0.059564534124732,-0.0489683213084936,0.0920931772857904,5.785280268731713,0.9491879993967712,7.861295100149512,0.0494902282953262,-0.092304915189743,0.0621265210211277,0.4373887290938824,0.2993121287821377,-0.0979680831029827,0.8423215811950248,0.8103941082954407,-0.1341761350631714,0.1603873819112777,0.3113315560162067,-0.3010544921517372,-0.2950445842124521,-0.0374440625309944,0.0297338496893644,0.0032087460423441,0.0032075075432658,0.0101722426499705,0.0715122163488529,199
1722330659332701000,0.0732183809459209,0.0831835293170064,-0.1472761353254318,5.814871689397096,0.9544036151532084,7.838798606181144,0.0186851769685745,-0.0531670972704887,0.0388654060661792,0.4358601515889939,0.3011896520564938,-0.0980677594231067,0.8424330857492253,-0.0465634502470493,-0.0849758237600326,0.1064769551157951,0.0316451383247971,0.3528045531332492,-0.351762350603938,-0.0242265332490205,-0.0122679965570569,0.0481709558191476,0.0093030016869306,0.0804235356849152,0.1274749722551088,200
1722330659372472600,-0.099193949201703,-0.0278447961937636,-0.2090940013349056,5.8160986008435485,0.919086437252164,7.84210816912055,-0.0834382623434066,0.0010953386081382,0.0936234593391418,0.4345637115047663,0.3005056312591173,-0.0992981741521278,0.8432025604388735,-0.2919215261936188,-0.0598993450403213,0.123781643807888,0.1835042175263166,-0.0572568417042493,-0.3263771494567394,-0.0044805062934756,-0.0189882256090641,-0.0683021819608984,0.0190588124096393,0.0179404015665873,0.1454365536070428,201
1722330659412244200,0.1093050088495016,-0.034218057552725,-0.0127513450235128,5.818439026489854,0.8859553712185472,7.844184975394606,-0.0227309055626392,0.0311342608183622,0.1023945733904838,0.4327450002823507,0.3000039190090121,-0.1002772194324492,0.8442001483219115,-0.0354282408952713,-0.0055396445095539,0.0703184157609939,0.0711398211061954,-0.1618476815134286,0.0073977090358734,0.0004302909364923,-0.0083533003926277,-0.0413576636416837,0.0015863387379795,0.043934336596122,0.0174089775540283,202
1722330659452017000,0.2502759065508842,0.0585769113268703,-0.1397971777468919,5.818426167008281,0.8631907278332859,7.84673173726797,-0.0685428604483604,0.0188244916498661,0.0530532784759998,0.4313566416818151,0.2995935258710065,-0.1008549864070628,0.8449872412766452,0.1871488988399505,-0.0186793077737092,0.0805231854319572,0.0103474987521767,0.0496329226970672,0.0891204450853168,0.0062750140205025,-0.0431961975991725,-0.0621284343625651,-0.0127388602122664,0.0500240500396583,0.0264523120721918,203
1722330659491788500,0.1264157181262969,0.0201258923795074,0.0321978037714958,5.817040265607834,0.8331077242586761,7.851010437500476,-0.0611210502684116,0.0309840347617864,0.0364516340196132,0.4306560859257473,0.2988468541885719,-0.1019825492973458,0.8454734954680508,0.7353944182395935,-0.3063198328018188,0.1013668179512023,-0.3563315582156181,-0.0819768569409847,-0.2442459787368774,0.0069872541353106,-0.0308551546186208,-0.0239234146490809,-0.022493178024888,0.0769245785200968,-0.0560390816786326,204
1722330659531560200,0.0423871893525123,-0.0734614689867943,0.063244099420309,5.815027172219753,0.8050399329639971,7.855428253942727,-0.0936629474163055,0.0569291524589061,0.0422384031116962,0.4302043432327974,0.2980903130225236,-0.1030862550196904,0.8458366787059461,2.478013753890991,-0.097094751894474,0.1456921398639679,0.2971837881982326,-1.594863884356618,0.2302022558152675,0.0082944016903638,-0.0301810931414365,-0.099294432167802,-0.0313218645751476,0.0690114947074558,-0.0412715014618821,205
1722330659571335000,0.0273573780030012,-0.1213952596157789,0.1406833129316568,5.810903370288014,0.7781547755826265,7.861187548121809,-0.0592098906636238,0.0149450274184346,0.0156606715172529,0.429803040916214,0.2972475545224513,-0.1040907315141358,0.846214175793992,1.856468081474304,-0.0027158411685377,0.217241421341896,-0.1497059928208589,0.8285650393277406,0.0983992916926741,0.0072634816169738,-0.0108164716511964,-0.1227784302030224,-0.0420942604541778,0.0791865960347931,-0.1122032510416582,206
1722330659611106600,-0.0266980373114347,-0.0576190991453826,0.1408668528050184,5.811089248248934,0.7618137355040758,7.862650021889805,-0.0290242061018943,-0.0049721044488251,0.0226818695664405,0.4294789480384218,0.2968890104359702,-0.1047536742907897,0.8464227038134573,0.6904287934303284,0.0347507856786251,0.1629030704498291,-0.1514447993122041,0.1406453190088272,-0.866368115760386,-0.0058635426685214,0.0043811239302158,-0.0909310290380846,-0.0234338827431201,0.0422485663331113,-0.0750327049254672,207
1722330659650878200,0.1041273139506578,0.0532405918002128,-0.1145639522910118,5.82810584950149,0.7395395059842615,7.852175389626621,-0.088475801050663,-0.0969854965806007,-0.0080327847972512,0.4291087849447991,0.2972813349838674,-0.1061804746627233,0.8462950485596535,-0.6427757143974304,0.0753369331359863,0.0118015119805932,0.0491470388762652,0.1923632312864065,-0.1902101449057459,-0.0285416543483734,0.017691895365715,-0.0770932039521168,0.0023099356330931,0.0246875765551463,-0.0821332256796304,208
1722330659730422500,0.085176529765129,-0.1053631393559277,0.2647843243747949,5.825658456349372,0.7007711647160351,7.857544807705283,0.0167713556438684,0.0547155439853668,0.0036921699065715,0.4294312594600576,0.2961441291169631,-0.108052579852552,0.8462931640404523,-0.2847797274589538,-0.0352851264178752,0.0495672672986984,-0.0652769204221665,-0.3468126192420721,0.2140942938402295,-0.0476022697985172,-0.0140591049566864,-0.0648896381376311,0.0182356312870979,0.0367367212761891,0.0797667066108435,209
1722330659770194200,0.2729407428234815,0.0538455719560384,-0.0386398195177316,5.814765890935063,0.7027222257185727,7.865434684172272,0.0065544042736291,-0.0127718858420848,-0.0206760205328464,0.4291174129739594,0.2956557723283216,-0.1075271801133214,0.8466898966980445,-0.0565218105912208,-0.0764069408178329,0.0266483034938573,-0.4178131780080497,-0.2597948455244303,-0.4341910429656505,-0.0107514569535851,-0.0036311736330389,-0.0081514768412656,0.0270802937448024,0.0990213965132366,0.0362984166238922,210
1722330659809967000,0.0268722248345613,-0.1860308133944869,-0.02032850227952,5.82635228383243,0.7127551786288618,7.855951985555887,0.0435751117765903,-0.0836212858557701,-0.0379872098565101,0.4293555880819731,0.2964892437303825,-0.1074804190935986,0.8462835563860682,-0.1000181511044502,-0.1031016781926155,0.1520785838365554,-0.0020021336026489,0.1177712238997221,0.1579550579890608,-0.0052718101069331,-0.0032137020025402,-0.1022395091763697,0.0205781087279319,0.0239692585182259,0.012720584559068,211
1722330659849738500,-0.3385299440652132,-0.1562660819888114,-0.1955927147269248,5.86315027487576,0.7265351360477507,7.827260144078731,0.015418579801917,-0.0892471373081207,0.0392314940690994,0.4286969273079762,0.2988696327734262,-0.107692802537034,0.8457530040534291,-0.5248791575431824,-0.1055155098438263,0.2535580694675445,-0.3994678123697638,0.5401081629425287,-0.1564744640424847,-0.0182081591337919,0.007220690138638,-0.0299132890139124,0.0285331308841705,0.0765958443226525,0.062267472940497,212
1722330659889510400,-0.0968073463261127,-0.0124134183060377,-0.274970787346363,5.88912935026288,0.695359441865608,7.81057029056251,-0.0774121731519699,-0.0254629328846931,0.0861487165093422,0.4271487804364838,0.2996738949068247,-0.1093950848968329,0.8460332122513461,-1.1362011432647705,-0.1995257884263992,0.2355414628982544,-0.3333654009088874,0.1838666210979223,-0.1851481853410601,-0.0313368402421474,-0.006076518446207,0.0040720163747522,0.0342157036066055,0.0879397017349954,0.061693979334901,213
1722330659929282800,0.1685275976687669,-0.0211967364814132,-0.0850444278180599,5.878627245470881,0.6466819201972335,7.82265528063178,-0.1082150936126709,0.0653063803911209,0.042865689843893,0.4265143160741556,0.2979898169170443,-0.1111650018025271,0.8467172044136183,-0.5071121454238892,-0.2425090372562408,0.2125040590763092,0.1235591596513986,-0.0105348380178213,0.7479828516155481,-0.0350888334214687,0.0130102634429931,-0.0579566970692947,0.0299324989318847,0.0482079998939065,0.0778239019799977,214
1722330659969054700,0.0920563524067401,-0.0203182366138324,0.0746241560906171,5.860677162760496,0.6034559054004028,7.839559069159627,-0.1272752732038498,0.0458814315497875,0.0307662189006805,0.4266567410371714,0.2959483262606183,-0.1127311374418746,0.8471542263842357,-0.5227148532867432,-0.460772305727005,0.1385695040225982,-0.401715737427026,-0.4398006995409727,0.3906364172689616,-0.0248214397579431,-0.0006010185461491,-0.0313437510752934,0.0083773666992783,0.1148300467481371,0.0940858672066591,215
1722330660088370700,0.1783072334051132,0.1209888342393562,0.1050105265259742,5.825751395329832,0.5302339077252894,7.870823391473293,-0.0140026845037937,0.0617726296186447,0.0324730798602104,0.4259111446440282,0.292394913301055,-0.1149126457837187,0.8484692568954832,-0.8823116421699524,-0.3150856792926788,0.0908443927764892,-0.3661754913598299,0.9331190542578696,-0.1993757403969764,0.0204093251377344,0.0044477093033492,-0.0606699198170565,-0.0229955594986677,0.0522933877777075,-0.0021511832595861,216
1722330660128142300,0.0312684139668941,-0.1382654746675863,0.175593882793188,5.826295585209131,0.5412395781252533,7.86967188335061,0.064490683376789,-0.0421626418828964,0.0056132655590772,0.425634751952616,0.2927310757190235,-0.1143106551921511,0.8485733916556898,0.5830328464508057,0.0091696875169873,0.0504915155470371,0.6499070927888154,-0.8200736898362636,-0.1296003395117819,0.0229975618422031,0.0072453608736395,-0.0579367685261182,-0.0306082740426063,0.0250771626779111,-0.0586804812991991,217
1722330660167708000,0.0936012437611818,-0.1024163087816908,-0.0545972671061754,5.839529745313524,0.5585117250414565,7.858647215989231,0.0669113025069236,-0.0750779137015342,0.0221839770674705,0.4245734737352191,0.2939983889482435,-0.1135140516397126,0.8487737146847417,1.5673034191131592,0.1375621855258941,0.2661035656929016,-0.4546393722325563,-0.3989613241523504,-1.0459360167510807,0.0103309508413076,-0.015199014917016,0.0066773942630446,-0.0251235850155353,0.1099756655195262,0.0122721660797775,218
1722330660211197400,-0.0195715464323759,-0.0404175332473591,-0.1186789863944053,5.855288455459475,0.5634008853225038,7.846563394963741,0.03266267105937,-0.0088790040463209,0.0616360716521739,0.4233242264615861,0.295121622499411,-0.1133130163366067,0.8490346923630655,0.6728934645652771,0.1738310754299163,0.0903053060173988,0.2104246654167771,0.2592617615610361,-0.4869027885861695,0.0043908907100558,0.0220254827290773,-0.1443046269676648,-0.0054457075893878,-0.0186125035583158,0.03605520985201,219
1722330660250961700,0.1057674823731184,0.010933664609678,-0.1385749424755573,5.855645013812184,0.5383861979881301,7.848053925782442,-0.0520901456475257,-0.0022742610890418,0.0408093072474002,0.4223370117505201,0.2946617589537629,-0.1141711587399082,0.8495710446745969,-0.4768708944320678,0.1598885208368301,-0.0980506837368011,0.0583440524190664,0.4543681540757417,-0.4064242073789239,-0.0063198916614055,0.0141839478164911,-0.0316635233648587,-0.0149755682796239,0.0686929439773084,-0.0378482330319122,220
1722330660330491000,0.0244020353287458,-0.1414188971972093,0.0369616571724414,5.883589836314321,0.5005491462206467,7.829636810082197,0.00702806096524,-0.0867270529270172,0.037578634917736,0.4204299186729252,0.2954865748006771,-0.1161348828266694,0.8499641986946883,-1.187888264656067,-0.1360685229301452,-0.1118897348642349,-0.5458274173721671,1.0576455976366996,1.5189733615919947,-0.0318055190145969,0.0261819846928119,-0.0284547767516924,-0.0122158098965883,0.0788651911938563,0.033663981033652,221
1722330660370254800,0.024526538491249,-0.1266116060245782,-0.1231657764196395,5.91369212911129,0.4890338457981124,7.807654695376753,-0.0190106146037578,-0.0981222838163375,0.0480800606310367,0.4193705182664757,0.2969579992813099,-0.1172020837071168,0.8498282617313211,-0.991653561592102,-0.2068304121494293,0.0352060385048389,-0.5712139336936175,-0.5062228444755077,0.841391787675023,-0.0256241858005523,0.0138621898368,-0.0223570558149251,-0.0066241887398064,0.053072560023237,0.0447543157760752,222
1722330660410019800,0.1490185950785875,0.1179107419682666,0.1051204166412353,5.91758913654983,0.464179682787694,7.806219694137573,-0.0672011449933052,0.0850362405180931,0.0150020020082592,0.4188200286809189,0.2966406639806947,-0.1183126734260442,0.8500566389064449,-0.4707549214363098,-0.1047285422682762,0.055493202060461,-0.1280544252440333,-0.0660842912822961,-0.3172860805064439,-0.0147227281704545,0.0169405248016119,0.0061818732517509,-0.0077996840700507,0.0957180349857546,0.0207350281206425,223
1722330660449784000,-0.1548567997127771,0.0431642381396144,0.197916189238429,5.889867601409554,0.4383697534224018,7.828644876435399,-0.0388700999319553,0.0483571216464042,0.0012459675781428,0.4190628356780931,0.2945048721299305,-0.1188153148764794,0.8506092863444551,-1.9533334970474243,-0.1053657904267311,-0.1658907234668731,0.2151734673790633,0.997580712774396,-0.1891897158168256,-0.0159027595072984,0.0130909923464059,-0.0776086517941206,-0.0061079049482941,0.0335607855206588,0.0628340116489212,224
1722330660489549000,-0.1840454847961664,0.1467257714336738,0.2288496721625328,5.886584926477075,0.4389559192799031,7.831080579149723,0.0460541732609272,0.0047920537181198,0.0333931632339954,0.4185693904311229,0.2944129700518891,-0.1185200885004012,0.850925233595402,1.6194454431533811,-0.0100674973800778,0.2656471729278564,0.0742789959147572,-2.473904726946354,-0.0399736984699964,0.0012395252706483,0.0301009435206651,-0.0167548541769851,-0.0005428526783362,0.013022305168712,0.0643075091344304,225
1722330660529313300,0.4498270035147667,0.2277276823952794,-0.0773445209652185,5.884931314051151,0.4496819690208882,7.831714785400033,0.036808680742979,0.0420278534293174,0.0186015218496322,0.4176249703640655,0.2947141819593222,-0.1176317126143986,0.8514081782343605,2.049315929412842,0.1983807832002639,0.105005957186222,0.5687605491921305,0.2333937453329563,-1.0783528701007363,0.0241890326142311,0.0124062066897749,-0.0299132890139124,-0.0157792009413242,0.0765958443226525,0.062267472940497,226
1722330660569071400,0.2208762090653181,0.0062356795191764,-0.0627583617299795,5.846629348185658,0.4492611132603138,7.860373893651365,-0.0241421405225992,0.1110436990857124,0.0060821399092674,0.417889520784252,0.292627965750748,-0.1166248152697798,0.8521361206473698,1.1083563566207886,0.372112363576889,0.0865876078605651,0.0473598631985485,0.2526397130727768,-1.2456747452415524,0.0327043682336807,0.0092350002378225,-0.0552235457783564,-0.0035264864563941,0.02099177479411,0.0212946005154517,227
1722330660608836400,-0.0455786788702011,-0.123498990429379,0.0723252314984798,5.832513729071617,0.4486616495298221,7.870887688881158,0.0160004161298275,-0.0082851611077785,0.0131158242002129,0.4179083314460644,0.2918605022803692,-0.1162491245911481,0.8524413277154267,-0.1197814717888832,0.403195708990097,-0.1241037920117378,0.4569608009174465,0.8321709548652172,0.2387443125806748,-0.0084183430299162,0.029284406453371,0.010373536234087,-0.004627589136362,0.0707711476240074,-0.0643977629674598,228
1722330660648600600,-0.1728483834773302,-0.2091556683942675,-0.0231780464917421,5.868803186070918,0.4620431456830352,7.843088996851444,0.0659078285098075,-0.1200141534209251,0.0179957021027803,0.417282725169143,0.2941987826219546,-0.116450901686323,0.8519163320003053,-1.1142704486846924,0.0788493826985359,-0.1501404494047165,-0.5813780387029052,-0.2282645657509565,-0.1276525664448738,-0.0385287553071975,0.0235027149319648,-0.0595990848483052,-0.0004533912288025,0.014183745596942,0.1071050785192754,229
1722330660688364800,0.1654752243608236,-0.1462384993733838,-0.2612859608650207,5.89754120477736,0.4556889543507247,7.821875528430938,0.0015295152552425,-0.0434117577970027,0.1009431853890419,0.4155455317624955,0.295817991882668,-0.1169916694655549,0.8521305377879729,-0.197036325931549,-0.1442540735006332,-0.2303458750247955,-0.1165313068412244,-0.3374497476130724,1.502550196187943,-0.0233635250478982,0.0517820008099079,0.0380853708226117,6.23103696852e-05,0.1397871038774494,0.0643353743888903,230
1722330660728129500,0.381919588458538,0.242410397340171,-0.0376350263893604,5.878468840038776,0.4194367240892723,7.838243894907832,-0.0795018374919891,0.1468033492565155,0.0421619452536106,0.4144776323962187,0.2940795624567997,-0.1178049338184849,0.8531398115737843,0.7307077646255493,-0.1593956798315048,-0.2346615940332412,-0.564428219076246,-0.9930126742064952,-0.1879274407960474,0.0109853520989418,-0.0006145824445411,-0.0377811705615138,-0.0230490267276763,0.1176163986641913,0.0875658177881501,231
1722330660767893800,-0.4059223953366279,0.071356642194651,0.144248896458745,5.836121398174762,0.3703734545063227,7.872286449763179,-0.087246261537075,0.1056473031640052,0.0942079797387123,0.4143738065758608,0.2906694920980645,-0.1188963014858086,0.8542068297590268,3.1085519790649414,0.0260599870234727,-0.2298409342765808,0.5090862710826098,-0.6431336531311274,-0.1928533528909087,0.0124269947409629,0.0260344743728637,-0.0630914250426692,-0.0177763830870389,0.0620123382688034,0.0465929385132389,232
1722330660807658000,0.0755816029459238,0.0670541226951405,0.0724824678868055,5.837946860036253,0.3451976583261043,7.872077190926671,0.0122038088738918,-0.0663344264030456,0.0398637354373931,0.4133599608945995,0.2903113447348056,-0.1198126806592809,0.8546916970474832,3.993802309036255,-0.0023088036105036,-0.2497519254684448,-0.2265000402964651,-2.266957089990377,-0.5348144404485822,-0.0086090164259076,0.0340476110577583,-0.0167268028345017,0.0060777682811021,0.0535258567486889,0.0675224069271702,233
1722330660847423000,0.2823041989743709,0.0671696023009717,-0.0028203181177377,5.83996813673079,0.344333588842675,7.870615301680564,-0.0237630549818277,0.0815355852246284,0.0189812891185283,0.413018742013118,0.290446345237055,-0.11979656877178,0.8548129369553235,2.8753650188446045,0.0606506690382957,-0.119761973619461,0.3569285011954605,0.1776999151617288,-0.9117366590112448,-0.0007578675867989,0.0434754602611064,-0.0094541660708229,0.0127128735184669,0.0880034146209713,0.0610093215389875,234
1722330660926951200,0.1583633465290069,-0.008642119606398,0.1632972957998514,5.731223099851608,0.3396403895251452,7.950352855262159,0.0802284404635429,0.0414490438997745,-0.0310059301555156,0.41384435385941,0.2844516760372539,-0.117183848954667,0.8567894001181773,-0.5866379141807556,-0.2551628947257995,0.1695019900798797,-0.1613973073974251,0.9772194772690534,0.7454302445232868,0.0815136134624481,0.001927122939378,-0.1035141504883766,0.0048704273067414,0.0534548282059375,0.0406463872669031,235
1722330660966716400,-0.1257984630107879,-0.0862391540279611,0.1113198558032512,5.752022726774215,0.3920984161129221,7.932898447114229,0.1355962455272674,-0.0502079911530017,-0.0210376866161823,0.4139395729051965,0.2867786694666454,-0.1152941304653009,0.8562238437664571,0.2113000452518463,-0.0084488280117511,0.1698391437530517,0.5687843684591353,0.1921317606180906,-0.8632698574841022,0.0725794285535812,0.0147629408165812,-0.05081995422428,0.0075522265397012,0.068303355571255,-0.0613009796956321,236
