time_imu,phone_acc_x,phone_acc_y,phone_acc_z,phone_gravity_x,phone_gravity_y,phone_gravity_z,phone_gyro_x,phone_gyro_y,phone_gyro_z,phone_ori_w,phone_ori_x,phone_ori_y,phone_ori_z,watch_gyro_x,watch_gyro_y,watch_gyro_z,watch_acc_x,watch_acc_y,watch_acc_z,headphone_gyro_x,headphone_gyro_y,headphone_gyro_z,headphone_acc_x,headphone_acc_y,headphone_acc_z,frame_imu
1721471601202281500,0.9355284534871576,15.024209291720387,-4.076767793363333,0.1424609079302754,9.649684829831124,-1.7417407912313938,-0.3154935538768768,-0.1860183924436569,-0.1658745110034942,0.0116387544403113,0.0252510852281934,0.766920104792277,0.6411399566070041,-0.4301731586456299,-0.0862138196825981,-0.2586443126201629,9.813968214058876,-8.584650290986895,-0.9386370139617471,0.1811564415693283,0.515876054763794,15.367980643570425,0.8469768166542053,2.199108711645007,-2.136112449505925,0
1721471601281840400,0.3330848669344559,14.935460164165496,-2.636045253926516,0.0155707932082819,9.66511094702184,-1.6600506422773005,-0.1986381113529205,-0.3122978806495666,0.1718684434890747,0.0191664800786915,0.0239703543260751,0.7642410920834567,0.6441999556064069,-0.2453788071870803,0.0640580356121063,-0.2101346999406814,12.569406740128994,-11.33222641311884,1.406841312623024,-0.2243406623601913,-0.5865349173545837,14.728406144225596,0.96893310546875,2.052850813451409,-0.2308165700550191,1
1721471601361394200,-0.4847533554673194,-6.022454117125273,-4.82997451710701,0.1889198493668809,9.760550512126088,-0.9307734409797936,-2.177126884460449,0.1947840303182602,0.1063608527183532,0.0136369868491897,0.0293117383489993,0.7393220281863816,0.6725754745286635,1.5721665620803833,2.8134801387786865,-1.3828243017196655,-2.660032863235473,4.150214722368121,-0.9776420865952968,-0.3902486264705658,-1.2061151266098022,-11.460562870174646,0.1897497922182083,-3.5329821109518407,-0.4350193104833364,2
1721471601401173500,0.2863567440344952,-12.973760278713703,0.7902864543378353,0.1842535745888948,9.804435246559978,-0.0973145195301156,-1.865334272384644,-0.1824366450309753,-0.0710855573415756,0.0159686784404247,0.0294736351044394,0.7099950452624129,0.7034083332644642,0.6045554280281067,1.3352657556533811,-1.007540583610535,-13.065760517019031,8.877641888192295,-4.026856638246774,-0.2124607264995575,0.2337616384029388,-7.97379393660426,-0.0244107320904731,-1.7828195283338426,-0.0350049541636952,3
1721471601440953000,-0.7108391889397054,-14.642868379932642,4.632863214510679,0.1787278334373608,9.799996971851586,0.3138568001775071,-0.1867409646511078,-0.0541700571775436,-0.000121260411106,0.0182748815238089,0.0303777581333761,0.6950359329592558,0.7181004837300898,0.0154655650258064,-0.0519172027707099,-0.4431942701339721,-14.900400541222094,8.03582456858158,-5.130101957541704,-0.041097205132246,-0.3228100538253784,-9.142173114588855,0.1364839076995849,-1.9866401193104684,1.0595964394435289,4
1721471601480732400,-0.1896624113624915,-14.711083253502846,1.819620149725676,0.1589867025917395,9.803568985119462,0.1874694313628599,0.7015994787216187,0.05499979108572,-0.0628479197621345,0.0185822235032595,0.0295797627402602,0.6996904718764388,0.7135915997383835,-0.2252940386533737,-0.3162209987640381,0.2137577086687088,-11.901122863650322,8.446829966270924,-3.3919448700159784,-0.0662278681993484,-0.0508748553693294,-10.168310059762,0.3656764626502991,-2.552585464951396,0.3820074494050815,5
1721471601520347100,-0.1140934578355867,-13.046914362251758,0.3597252923071384,0.1488094184404704,9.803818575966355,-0.1827035321353003,1.1016507148742676,0.1321919113397598,-0.0075112162157893,0.0173925480075435,0.0285455246133789,0.7130921682540161,0.7002729483898471,-0.4609150886535644,-0.9377737045288086,0.7672334909439087,-12.225576936089992,6.8285705932796,-2.7637854986548422,-0.0522495210170745,0.1487238109111786,-9.903208340001106,0.1937342584133148,-2.6960885114789006,-0.1801924808961339,6
1721471601599893500,0.2926061598180793,-6.306815248629451,-2.178712989348173,0.2000007221612147,9.750425423952937,-1.0293674515269695,0.8517625331878662,0.1484664529561996,0.0235604867339134,0.0089168239180324,0.0251472833818493,0.7428665746607144,0.6689076299770133,-0.3562768399715423,-0.8905328512191772,0.7910780310630798,-5.86874531840384,4.200681757801771,-1.190208147954941,-0.1603311002254486,-0.0807885602116584,-9.422822532093525,-0.2640936076641083,-2.270072591662407,-0.388032079989463,7
1721471601679440100,1.5725119134254752,9.943210680043697,5.328551815265417,0.1219842293517198,9.753736740458011,-1.0100105707585811,0.5082405805587769,-0.0116579141467809,-0.4275707304477691,0.0062119191658094,0.0161742752942482,0.7424517504358871,0.6696754557753615,-0.9226899147033693,-1.409875512123108,0.4311925768852234,4.416610573592782,-3.688050799849629,-1.4624153158068656,-0.2939707338809967,0.508110523223877,12.58644087703824,-0.289039134979248,3.037093613485992,1.0526887789469213,8
1721471601719213300,-1.1846766711823642,11.236131014454363,0.9013703094281256,-0.0805091407422907,9.68260685622394,-1.5527432369858023,1.875265002250672,-0.1789175122976303,-0.3296802937984466,0.0159005753894906,0.0123271546029779,0.7609309522070242,0.6485207845396482,-1.2842859029769895,-1.548736572265625,0.7710877656936646,8.966714256352185,-9.4087513366431,-0.9786930569529532,-0.0750738903880119,-0.5929726362228394,13.69990480800867,0.8825215697288513,3.759242058882117,1.3591449109464884,9
1721471601758986500,-1.7663272432163355,8.030880682438612,-7.718369561249017,-0.0490761655971407,9.574431728187204,-2.120901436370611,0.4551511704921722,0.1997708231210708,0.3822836279869079,0.0149557346296517,0.0146349082277915,0.7796933374300713,0.6258118140536553,0.7382362484931946,-0.3969406187534332,0.527001142501831,10.821181263053417,-9.090176969891786,2.6938544688165185,0.2239551693201065,0.545531153678894,8.657007671189307,0.2701092064380646,1.724703439451754,-0.6081196228951216,10
1721471601798759700,0.136746685868781,8.09325150615573,0.3646294309616089,0.1565429079025052,9.59735492313504,-2.009147573064268,-0.1052277237176895,0.5026282072067261,0.5225477814674377,0.0013519821438035,0.0143224652478314,0.7760366505775922,0.6305237888305903,0.9282677173614502,-0.0180528163909912,0.502478301525116,6.744503486061096,-6.723088357588648,-0.7877065939124673,0.2089986801147461,-0.1736300140619278,3.633226738250255,-0.0644080340862274,1.2413564436510205,-0.6653572484422474,11
1721471601838532900,0.581181493217498,1.0208131198018788,-2.7878981956481934,0.314998042634502,9.57712052887976,-2.085649067334085,0.0164983011782169,-0.4298663437366485,0.2012111842632293,-0.0033580913004424,0.0214316526468429,0.7783824229493242,0.6274155288833742,0.1860346496105194,0.6440100073814392,0.188129186630249,3.3524370354920623,0.0720902536988258,-0.336544396271184,0.2052758187055587,0.0530544258654117,-1.5899682212695478,-0.1803005933761596,-0.1918051590122282,-0.6221461754862219,12
1721471601878305300,-1.1905151680774986,-3.541618714132905,0.5510369687139988,0.2955326599903404,9.60328840483725,-1.9646638498239213,-0.5467463731765747,-0.3489710986614227,0.003155946265906,0.0031289521545635,0.027661038152574,0.7742124032992896,0.6323134237349192,-0.357797235250473,0.8543018698692322,-0.0911424756050109,-1.4392226562678814,4.049092435452342,-0.7697709050536156,-0.0066365618258714,-0.0565390661358833,-3.209014945246279,-0.2550415396690368,-0.5823872888106852,-0.8222642586831003,13
1721471601918078500,-0.4328901529675349,-5.87264349488616,2.2934148888051507,0.2832524761425331,9.634832128614187,-1.8055964466787875,-0.2627945244312286,-0.176398754119873,-0.0240176897495985,0.0073196023369325,0.0314240038621073,0.7688122851165912,0.6386600818328141,0.2419799417257309,0.6416178345680237,-0.0582538284361362,-3.669838851332664,3.5509254716604945,-0.4703881455063819,-0.2749864757061004,0.0093756727874279,-4.945713942918181,-0.1501782238483429,-1.2579599340580403,-0.1980804216231219,14
1721471601957851400,-0.0224941010818816,-6.838530846279859,2.2239758802674707,0.2037051479034125,9.64049614572525,-1.7859871985845266,0.1892857998609542,0.0283343344926834,-0.2980935275554657,0.0104568605565979,0.0288078523044485,0.7682643486170393,0.6393987559368633,-0.0507936179637908,0.6457229852676392,0.2671863138675689,-5.406413053581118,5.312147792953253,-1.0997112999498844,-0.3596429228782654,0.0059404522180557,-5.660728590911626,0.0422635339200496,-1.4840680524274703,-0.0248215302492957,15
1721471601997624600,0.1568101074713282,-5.755674819540977,0.5234112951636314,0.1221142854721751,9.613781157279014,-1.9315010004125528,0.4694839715957641,-0.2948542237281799,-0.0383115075528621,0.0146247682625382,0.0276765842067812,0.7731191034452433,0.6334879800270669,-0.539997935295105,-0.0227725785225629,0.4150484800338745,-5.745771265164017,4.265433339175582,-0.0930126302182674,-0.438705712556839,0.0671039968729019,-3.8936964142963286,-0.2322299778461456,-0.9546084900755436,-1.2618605947583914,16
1721471602042369500,0.4032750956982374,2.2510095792740583,-0.6042097559750079,0.1638514042849652,9.5860730661422,-2.0617340848699213,-0.0098436083644628,-0.0483076497912406,0.1974297910928726,0.0154523953185919,0.0324161195290591,0.7772183578792679,0.6282054270261681,-0.1900524348020553,-0.4396712779998779,0.3215283155441284,-2.104710180026293,0.2152367418736219,0.8792436716854571,-0.2914565801620483,-0.0398104898631572,0.6253806273628025,-0.6523999571800232,-0.2472960504898801,-0.4558708137236535,17
1721471602082142700,0.9551342675153166,10.99603747922182,-1.4245453116178513,0.2074002212953753,9.583622165858744,-2.069193168704212,0.2318097352981567,-0.3492437601089477,0.0814035087823867,0.0155469752404553,0.036087178037699,0.7773012346044098,0.6279003430633993,-0.140387937426567,-0.2377995699644088,-0.2516431212425232,6.135076872220635,-4.286228289923072,0.2957224834740162,-0.1663437187671661,0.0374689511954784,5.203122185567021,-0.2697815299034118,0.8109611397065222,-0.1064243205803446,18
1721471602121916200,0.2019893204288557,15.237260506248472,-4.645302132584154,0.1320017472308594,9.581184709578752,-2.086594531490653,-0.4972230792045593,-0.0749413073062896,-0.2558364272117615,0.0225241936454106,0.0386747319747823,0.7777473765116029,0.6269816804505769,-0.3437280058860779,0.3985647857189178,-0.4468705654144287,10.3454108399868,-7.951611915412545,-0.4652502711612731,0.0471714064478874,0.4424839913845062,13.934217421752214,0.0904565975069999,3.675434187121689,0.4730548074323684,19
1721471602161689300,0.3489243141664191,18.76345193414688,-3.3897792164146896,0.1713655427747406,9.64031085228622,-1.790375935062766,-0.7654186487197876,0.2689204216003418,0.3858461081981659,0.0189568918218153,0.0364580434088487,0.7680850064166572,0.6390281459807184,0.8790416121482849,0.2250390350818634,-0.6946202516555786,13.299165952789783,-16.56758088924885,1.3081903842568396,0.0727426558732986,-0.129175454378128,16.95444670193791,0.5505133271217346,5.045653157529235,1.2135277218092233,20
1721471602201462500,0.8288722786460071,14.247571423506736,-3.6348622304975984,0.3026873175179586,9.688010176572202,-1.490375774269551,-0.8651565313339233,-0.1097520813345909,0.2383007407188415,0.0145434148145273,0.0406367177071939,0.7578500359040716,0.6509995737719748,0.5429200530052185,0.8024718165397644,-0.555743396282196,12.825322113871572,-12.113795307993888,0.2406990999102592,0.0909894183278083,-0.4494494497776031,13.123981235319375,0.6890639066696167,3.918914149922132,0.293942102863267,21
1721471602241235500,0.358416145937331,0.8774129491269588,-2.161662339695543,0.4128161734383553,9.736081841301916,-1.0993897398453203,-1.2772202491760254,0.2506772875785827,0.2378923743963241,0.011718824246028,0.0446879464097188,0.7443495590879209,0.6661901224269742,0.8198011517524719,1.683698654174805,-0.7198342084884644,7.012343106353282,-6.675983492064476,-0.3123217726299539,-0.1971111446619033,-0.5932223796844482,0.1468657918257173,0.5127209424972534,-0.1012254184966906,0.3040690176673233,22
1721471602281008600,-0.2686134176762774,-12.543089226567744,0.0344189869523048,0.4363569888278841,9.781826524388787,-0.5439349912216886,-1.378376603126526,0.2761210203170776,-0.1264727413654327,0.0069455238685129,0.0397071953804536,0.7253663251228551,0.6871818606452034,1.79710054397583,2.9082629680633545,-1.0133399963378906,-2.9591765533298253,3.110370738881826,-2.991981090822816,-0.2116659581661224,-0.6596964597702026,-10.926118139821291,0.5249342918395996,-3.561731235574185,0.1222197642737999,23
1721471602320781800,0.1613552218213677,-15.399024601131677,4.1862265314698215,0.3207771009599789,9.801381119686363,0.020386109651695,-1.2075870037078855,0.0680861622095108,-0.4036480784416199,0.0107789581457176,0.0338537124983517,0.7055597238191851,0.7077592948394663,1.043643593788147,1.3930243253707886,-0.3912758827209472,-14.702278015756606,12.960020507174727,-4.663008761927485,-0.1416517496109008,0.5088510513305664,-7.199006664693355,-0.2374813556671142,-2.2798452131360767,-1.0545770038463174,24
1721471602360554200,-0.2206054475662298,-13.7216326556921,4.252421297389269,0.2198570951506495,9.804121942827106,0.0355939786985632,1.0102158784866333,-0.1030216291546821,-0.1753403842449188,0.0147282261205986,0.030491819171348,0.7051634286429141,0.7082358287189392,-0.880413293838501,-1.2588289976119995,0.2693301737308502,-15.254195274436473,8.136511971211434,-5.85559708301723,-0.132077619433403,-0.1870592832565307,-8.532472359982133,-0.1051300466060638,-2.4094230485551056,0.3613465003008023,25
1721471602400327400,0.2676971065489575,-12.044066522729397,-1.3578876043617725,0.1491932027268223,9.798305365502834,-0.3759631642721593,0.8114041090011597,0.1879614293575287,-0.1780584454536438,0.0157843767576744,0.0273667088172707,0.7200137842744344,0.6932402951085243,-0.4215189516544342,-0.787819504737854,0.5045619010925293,-8.31074567156732,6.886500804200768,-2.6941344548016786,-0.0671239420771598,-0.1364587247371673,-9.6919890170753,0.1364883482456207,-2.8020468402490017,0.3255813594365492,26
1721471602479872800,-1.007693379857391,-9.153771197924016,-0.596289557434991,0.0893672777195461,9.768633280816674,-0.8580378020495176,0.6690102815628052,0.0817893370985984,0.1962777823209762,0.0163143845809929,0.0245530808779598,0.736983647954896,0.675267506497584,-0.4369410574436188,-0.5397007465362549,0.6502264738082886,-6.626318420663476,5.464781071397661,-2.7025492319256066,-0.0290986485779285,-0.5890032649040222,-8.978422229802607,-0.1767418533563614,-3.0035084470093247,-0.3947033013816922,27
1721471602519646000,0.7063786293342709,-7.813602205604314,-1.1390486002124844,0.1571799271644093,9.745275201582908,-1.0841172788463531,0.3997137546539306,0.2564924955368042,0.0435069091618061,0.0109044193812684,0.0241985052039137,0.744774483028222,0.6667882480730289,0.0704204216599464,-0.2672076821327209,0.4808728992938995,-5.550987528732419,4.785886369055509,-2.3090822674058376,0.0573874004185199,-0.7286472320556641,-9.512457210311291,-0.3439740836620331,-3.3946488682776685,-0.5972557721186429,28
1721471602559533600,0.7879305388614535,-2.954180644738674,-1.0420856249332426,0.1823197204494848,9.739198512017726,-1.13364608358182,-0.1371121257543563,0.2049544155597686,-0.004958021454513,0.0077874694727507,0.0227227621017127,0.7465142594214357,0.6649356843223337,-0.0529097616672515,-0.5352697968482971,0.0679766088724136,-5.306205543422698,4.81210802102685,-0.2339398349083959,0.0451446138322353,0.4575536549091339,-5.294249148169159,-0.7650754451751709,-2.530879536838829,-0.932478710527718,29
1721471602599311400,-0.1364269158625043,8.727416255411505,3.899454247170687,0.1388211266558151,9.73921020245552,-1.139688213290274,0.8436826467514038,0.2177007794380188,-0.1351926922798156,0.0038133877158604,0.0149324719589764,0.7469169630988675,0.6647386762247809,-1.2195212841033936,-1.8841428756713867,0.8188737034797668,0.2339221531212329,-3.330237478643656,-0.808635254042223,0.1170404106378555,0.3660909533500671,8.085886530345677,-0.2826692759990692,3.441637998467684,0.7879632720872759,30
1721471602639089000,0.8583532246742397,14.894306316000222,0.5322574494421481,0.0248077780018677,9.659428809732198,-1.692697212729603,1.6486393213272097,-0.1056139767169952,-0.4917612969875335,0.0074282247918027,0.0108094668910419,0.7656283023958681,0.643149556002362,-1.0878304243087769,-1.4941530227661133,0.9051692485809326,13.631562508666514,-9.706259534490108,0.080745269319415,0.0301237162202596,0.4107583165168762,15.664268944233656,0.5340093374252319,5.3230386048018925,1.4102303705394268,31
1721471602678866700,-1.2281070859774947,10.496853447341918,-7.12629915587902,-0.0662581682781688,9.495778462710977,-2.448711833500862,1.834390878677368,-0.5080292224884033,0.2696722745895386,0.0145067279083733,0.0132076730652335,0.7903639113060346,0.6123234416109492,-0.9541929960250854,-0.3249043822288513,0.7057494521141052,13.674686195600032,-12.54554304946065,3.007462153071165,-0.0179867818951606,0.2573435008525848,4.827142216290533,0.7083129286766052,0.7364995537664741,-0.9908279505785554,32
1721471602718644200,0.6624974750969559,5.105781170755624,-4.4326036770164965,0.0584563673868542,9.51052068929076,-2.3910214226849376,-1.562572717666626,0.6669352054595947,0.324284017086029,0.0085493745690617,0.0158111801346604,0.7884530229932621,0.6148323739004969,1.0706802606582642,0.1744984090328216,0.2783775925636291,7.24541711821258,-7.800618220868706,4.089609739279747,-0.0059004062786698,-0.1014435142278671,3.537217264303565,0.2994543015956878,1.378416597649455,-0.7651910299174487,33
1721471602758422000,1.1753889836814253,-1.2848317205011843,1.3326761523462831,0.2261168496651575,9.604083354607225,-1.969982706759125,-0.5171369910240173,-0.2124854326248169,0.3025390803813934,4.83035931164e-05,0.0182978142654962,0.7746653196408512,0.6321066232167166,1.355448842048645,0.803029477596283,-0.2990663945674896,2.566893976289034,-3.111062228277325,0.0798281544744968,-0.0407921746373176,0.172840341925621,-2.462679276315868,0.243072360754013,-1.4117869523316622,-0.5069224441122263,34
1721471602798199300,0.0344621137079782,-6.364477748525142,1.1680088833674789,0.2535901639317162,9.624334115475415,-1.8650206955499944,-0.1967203319072723,-0.215858057141304,-0.0107237659394741,0.0031643176907203,0.0241535277782025,0.771042282678636,0.63631793965601,0.0462719500064849,0.8863952159881592,-0.3249560892581939,-3.309659970039129,5.275102549150586,-2.138271088844537,-0.1211192905902862,0.0905896499752998,-4.15515860851109,0.2140975892543792,-1.5824888252995908,-0.7093721851270646,35
1721471602837977000,0.2065096108648925,-7.981551126602292,1.6518601754285394,0.2072383635308593,9.641479896065592,-1.7802501162372528,-0.1669115126132965,0.1613489687442779,-0.1797497123479843,0.0052981975693245,0.0228808649542265,0.7682733634755886,0.6396908650599732,0.1153245121240615,0.0379469618201255,-0.1510343104600906,-7.004998004287481,4.981529937186837,-1.8678472972780464,-0.1149251163005828,0.1230430006980896,-4.995216517233848,0.1163857504725456,-1.728440141762048,-0.603464965489693,36
1721471602877754600,0.5365918253846467,-4.831417117130756,2.0742929760612547,0.1488980283056851,9.631341948410869,-1.8399601963125167,0.5592066645622253,0.1877523064613342,-0.1753307729959488,0.0040069106069357,0.0167556510352649,0.7704097052529133,0.6373162872883595,-0.0741519406437873,-0.608656108379364,0.1982045173645019,-6.884783478888869,4.47163161906898,-1.856561933153868,-0.0990020409226417,-0.0292437151074409,-3.538839312547445,0.0989067628979682,-1.1488332774501293,-0.3870255332954228,37
1721471602917532400,0.0725515602007974,2.3645880276590585,-1.9963525350295008,0.1285614066517911,9.559583118623497,-2.183624288395792,0.9514793157577516,-0.1668135821819305,0.0924939587712287,0.0048233944059239,0.0165625062298582,0.7817029736286205,0.6234122546393934,-1.2450355291366575,-1.1449230909347534,0.4414993822574615,-3.3943121836692094,1.671440928080678,-0.5696890622138977,-0.0394406877458095,0.0953701585531234,1.3172136486679316,-0.0089279385283589,-0.3788827415132895,0.197427528938651,38
1721471602957310000,-1.2247975961033255,16.497372796034814,-6.01662175770998,0.2347950634982436,9.51667628931105,-2.355453265697509,-0.0088383182883262,0.1952250003814697,0.5343452095985413,0.001218411486881,0.0209784124566767,0.7871814260567443,0.6163635089953962,-0.5885378122329712,-0.9720922708511353,-0.2172189205884933,6.961715327399968,-8.15397514718771,0.7611773372966796,0.400424987077713,0.116416722536087,10.793152269399164,-0.0510800592601299,2.826228510825336,0.158941822270397,39
1721471602997086700,1.3535912223421036,25.382315947151184,-6.269736102557182,0.4377204226681962,9.573028875651955,-2.082286459033191,-1.2000526189804075,0.2974534928798675,0.2971025109291076,-0.0080075518089655,0.0256354354631935,0.7781451581988922,0.6275100576938508,0.6706167459487915,0.0487936958670616,-0.7191300988197327,15.875941856145856,-16.176998686385154,0.5679835369376466,0.5006495118141174,0.0578379780054092,21.73218951202631,-0.5406301021575928,7.149534485515952,-1.0853712974954397,40
1721471603036864300,2.562921565526724,17.740304818439483,-5.708929434978962,0.4790612082403153,9.640684946295618,-1.7315001138545572,-0.968094289302826,-0.2756540775299072,0.0253163613379001,-0.0093472046241076,0.026902880878716,0.7665234340787735,0.6415845707614671,0.5414864420890808,0.9905476570129396,-0.7419543862342834,16.97970506183505,-17.558406282544134,-0.6058814885795116,0.1617730259895324,-0.337594598531723,15.333084686756132,-0.4027937352657318,6.013716683918237,-0.5558815957335755,41
1721471603079126000,0.2547921418663114,-1.676246867057681,-2.3059575595140456,0.5155422057563439,9.730341251823306,-1.1068275616958736,-2.066394090652466,-0.3235377073287964,0.2282941043376922,-0.005466983442525,0.0333510674620376,0.7451980981616891,0.6659862191764453,0.9859158396720886,1.4777278900146484,-1.0617743730545044,7.806549364483356,-8.56403361941576,1.914296329241991,-0.1379517912864685,-0.853281557559967,-2.271247919052094,0.2959544658660888,-0.0940310591463465,0.1204163224478717,42
1721471603118903600,-0.944180692628771,-15.367739820551872,1.2924866191685198,0.5973207636462524,9.785957925105096,-0.2204827527683228,-2.464218616485596,-0.1499357670545578,0.2311365306377411,-0.0029714220399648,0.0405284557305601,0.7138619869126548,0.6991063040828116,1.6081775426864624,3.056178092956543,-1.293146729469299,-3.557455750212073,4.87868740234971,-1.5047107352226972,-0.2373313456773758,0.2868821918964386,-13.75561208218336,0.2572467923164367,-6.204028243371844,-0.0841967888796236,43
1721471603238236700,-1.200835924953222,-11.561232737147808,-3.982933325368166,0.4189792261127382,9.7976045237571,-0.042617198716104,0.5542860627174377,0.1365031003952026,-0.1596488207578659,0.000695901680592,0.030974556824012,0.7079642994814394,0.7055684134787662,-0.7408397197723389,-1.0027177333831787,0.2812782227993011,-9.07553002038002,7.018900272911787,-3.0796628814071414,0.0662967562675476,-0.093314841389656,-9.471498592457175,-0.1390310674905777,-3.0795600055545567,-0.5733751668481156,44
1721471603278014200,-1.4775241837419568,-9.669057638821004,-1.648247684019804,0.422279911625944,9.796098210847378,-0.1688015192393213,0.2028489708900451,0.2116063684225082,0.1584804207086563,-0.0016374656779548,0.0290494744576333,0.7125746350978025,0.7009926316594863,0.0047945445403456,-0.7289832234382629,0.3369928896427154,-7.521562210035324,3.649454819473624,-1.9470874227315187,0.1415022909641266,-0.0697253867983818,-9.766465873649716,-0.3598506152629852,-3.180623840281367,-0.3816028871921822,45
1721471603317792000,-0.0935307723408565,-9.015133127084374,0.2626677888785488,0.5035378797078505,9.79070424284935,-0.2427661702415905,0.1825376600027084,0.1580387353897094,0.1577314287424087,-0.0076464665824974,0.0289354171889264,0.7152205054321181,0.6982577091451553,0.2397838979959488,-0.1119341999292373,0.3763685226440429,-5.679570654025674,5.222637033376097,-1.471027076807618,0.2106710523366928,0.0870988816022872,-9.844704713106156,-0.4305334687232971,-3.175702750492096,-0.4429178086481988,46
1721471603357565400,0.2591536615440621,-8.620850316137075,0.7874632136106491,0.5237503178596497,9.788172678545116,-0.2962024124780669,0.1309969276189804,0.2794593870639801,-0.0411126688122749,-0.0107041766459212,0.0273272193539322,0.7171857102081765,0.6962637680334494,-0.0727505832910537,0.0429714396595954,0.2523246705532074,-6.699556675353646,7.108181315386295,-1.112241111177206,0.2185055613517761,0.1617885828018188,-9.783145205771923,-0.6068729162216187,-3.4223616355896,-0.0745759421678725,47
1721471603397343200,-0.1482042464883998,-3.488888994464278,-0.2120645233119837,0.5101776099832728,9.78923007864356,-0.284732302904129,-0.3105520009994507,0.5761192440986633,-0.061287447810173,-0.0160788258166438,0.0207920694475895,0.7169972085738772,0.6965803097594261,0.7260704040527344,-0.6420639157295227,0.0792481079697609,-6.915164004105329,4.202174042186141,-0.0209779060989618,0.1447457820177078,2.442587614059448,-5.419467180943489,-0.8575887084007263,-3.845687877930701,-0.4564003905557096,48
1721471603437120800,0.1467853926664218,7.070739765742421,3.3361399806857106,0.4772034515444189,9.787881586644051,-0.3742137633215636,1.8366048336029053,-0.1452241390943527,0.0400592423975467,-0.021729869145174,0.0125186318967793,0.7203630166680794,0.6931437095681746,-1.5407094955444336,-1.820939898490905,1.0899282693862915,0.1760994942277669,-1.4879413867294788,-1.6351866885252295,-0.0122343255206942,-0.2703168988227844,-0.1852621305769309,-0.2177500426769256,0.3174707528909668,-0.0612135708402376,49
1721471603476898300,1.9324426651768385,13.792345775818823,-2.418343583244085,0.3270850785303861,9.774080440306664,-0.7285348584976047,-0.846587598323822,0.1778268665075302,-0.7609149217605591,-0.0136304245242914,0.0098321882445677,0.7328357727191873,0.6801980167595996,-0.2243073433637619,-0.608385443687439,0.3579902648925781,12.924407926523685,-5.269653636094928,2.950827827179432,2.192798852920532,0.5199569463729858,34.1440091506958,-0.369746595621109,11.9977338106215,3.8536306536287066,50
1721471603516675800,-0.3395423359781503,10.02627357865572,-1.927207102610916,0.3232318371683359,9.718855981212856,-1.2687525462292133,3.092468500137329,-0.6880663633346558,0.5635392665863037,-0.011018328593567,0.0124324622437789,0.7513546494603862,0.6596894643423687,-0.7426226735115051,-0.0443125441670417,0.7894238829612732,10.67562829825878,-14.372479075157642,-0.7609153984248638,0.0619463846087455,0.4837062060832977,0.749770757945627,0.1472089439630508,-1.6612041962265969,-0.901586728657782,51
1721471603556452900,1.5427341764077542,8.551682671886683,-1.00607308517918,0.3826529807670041,9.700362877666947,-1.3881287211075424,-1.2007383108139038,0.7909937500953674,-0.0975962951779365,-0.0161974840051329,0.0111062320135816,0.7554148020927066,0.6549524118780212,0.6594181656837463,0.0673879384994506,0.4595540165901184,6.930261619994044,-2.9284108281880616,4.689741286030412,0.0971258580684661,-0.199292853474617,11.60182544429898,-0.6044514179229736,4.456522897264361,-2.6717016737192867,52
1721471603596230100,2.6446803958028555,4.031186191883683,-2.132718277022988,0.3492684514289721,9.678013683214784,-1.544177507083863,0.993782103061676,-0.5695671439170837,-0.426837146282196,-0.0148899511786945,0.0099883773736549,0.760678231694358,0.6488815986474682,-0.5945775508880615,0.173668086528778,0.2128372639417648,3.787962541931867,-3.583006955575943,-2.106140505090356,0.0240233987569808,0.2126785516738891,1.3300218384452165,-0.5410451889038086,0.2724746048827655,0.4068732663206756,53
1721471603675772400,-0.4986225986048579,-1.2158750886529683,1.805986907301098,0.09490044412571,9.700774965599178,-1.433987970484793,0.1202705278992652,0.4126282632350921,-0.0474465601146221,-0.0102517366239787,-0.0044732160530756,0.7570290788906805,0.6532853665800258,0.5353614687919617,-0.2541837990283966,-0.1768150329589843,-0.1786164454847574,-0.5488210462301969,0.0715682939176447,-0.0962053313851356,-0.0380422621965408,-0.5621732432236894,0.0109368357807397,0.2227967287991195,0.6783939862783998,54
1721471603715549700,0.4237010670028626,-1.268610653540492,1.1342669188939034,0.0886579056074842,9.69650094154179,-1.4630211727455258,0.0288043618202209,0.429043561220169,-0.167785957455635,-0.0157288207794503,-0.011350668516755,0.7579343506749177,0.652042520659883,0.2918865084648132,-0.0779840052127838,-0.0393873937427997,-0.4601736254841089,2.259693236467242,0.7452963890105485,0.017591631039977,-0.1129391491413116,-1.227633769377321,0.1724307686090469,0.0215051631097681,1.0805988954618573,55
1721471603755326700,-0.3322112259050831,-1.3158248246580362,0.859100901236385,0.0414651837033452,9.692987964984772,-1.488177971964329,0.1373707503080368,0.3050918579101562,-0.098910667002201,-0.0187740527672707,-0.0186312728607771,0.7586361676619084,0.6509775044110727,0.1407071053981781,-0.2657458782196045,0.0860396400094032,-0.9803373170286416,1.0580559320032596,0.4148918837338686,0.1461379081010818,-0.13899727165699,-1.6791288522347807,0.1734864562749862,-0.1129876154855359,0.6108314391370863,56
1721471603795104000,0.0640964236670173,-0.8986609043389558,-0.4444412188231945,0.0361607708520256,9.680143680980802,-1.5696809277832506,0.2062900811433792,0.1562663465738296,-0.1153307035565376,-0.0215341861713707,-0.0224637204528314,0.7612666006908361,0.6476919336141759,0.0236254893243312,-0.1807265281677246,0.0101125789806246,-0.2917366287082433,1.203990005069971,-0.2292255014712922,0.234711617231369,-0.029671911150217,-1.884068071977794,-0.1044841185212135,-0.3396023956023156,-0.1839355581482872,57
1721471603834881000,-0.1596515414423309,-0.7846896572440862,-0.5845182364247739,-0.0598667182419681,9.674359252360462,-1.6042302631169556,-0.0013070763088762,0.0609247684478759,-0.3279065191745758,-0.019204540702079,-0.0273687228427602,0.7622623764648429,0.6464040005254367,0.0273022502660751,-0.0176649559289217,-0.0380608737468719,-0.2045680483430624,1.5019459466844796,-0.3306716317802667,0.1902692317962646,0.0357728451490402,-1.378224582208693,-0.3225395083427429,-0.2430020796230062,-0.1216202183449175,58
1721471603874658300,-1.139245218763128,-1.6596365085184572,0.1792320931650698,-0.1488351100041531,9.672280107998848,-1.6109646859385072,0.1428675800561905,-0.1139700338244438,-0.0997769087553024,-0.0171056720947871,-0.03192262196811,0.762310493041756,0.6461972911820048,-0.0686562359333038,-0.0166516229510307,-0.1683544963598251,-0.4221656741291284,0.634126170811057,-0.4123579813420772,0.0966178253293037,0.1336848437786102,-0.8406334435883909,-0.3634961545467376,-0.0935839912322815,-0.011812027479941,59
1721471603914435300,-0.1101133112913928,-0.6863368350416421,-0.4141265984497964,-0.2428817777115851,9.65845733435154,-1.6809499301820992,0.054324347525835,-0.1108168810606002,-0.2935640513896942,-0.0109768258638649,-0.032283893145537,0.7646321645911351,0.6435642318800768,-0.3855409622192383,-0.0236696898937225,-0.0502510927617549,-0.6329279009371995,1.5099135645627977,-0.8100216668993234,-0.0393696315586566,0.1440669894218444,-0.289412058218196,-0.351295530796051,0.1541502040796913,-0.0281788207709672,60
1721471603993989600,0.0540997659128159,-0.3467342933088541,-0.4383623373009264,-0.3090824619151651,9.670804190227388,-1.5970089335612951,-0.1491968333721161,0.1331900507211685,-0.0265426281839609,-0.0126711241093675,-0.0392794032273084,0.7614997850302764,0.6468499172622871,0.2217494994401931,-0.0690020695328712,-0.02727453969419,-0.0943581996083259,-0.8868868799149989,0.0585620836504967,-0.0815884917974472,0.156573936343193,-0.37998781667836,-0.372578352689743,0.0081386430466896,-0.1277488938256632,61
1721471604033767000,-0.1199719670807011,-0.4151572566717862,0.4818237317562103,-0.2639981424331665,9.66964449879825,-1.612037575867027,0.126540333032608,0.0915124788880348,0.1915256530046463,-0.0156280762627388,-0.039258910026857,0.7620037909911878,0.6461924887300511,-0.1072808653116226,0.0275465194135904,-0.0245385412126779,-0.3034533699870109,-0.4675386012941598,-0.2016775875985622,-0.0024049205239862,0.1975421160459518,0.026009575556661,-0.4428465664386749,0.078485772555368,-0.1046720518192276,62
1721471604073543200,0.1827918497395701,-0.0418155269443988,-0.7086041964292525,-0.1598972232990898,9.665907650357484,-1.6477388577148318,0.0600295774638652,-0.1519440114498138,0.2518421411514282,-0.0189428659175423,-0.0350763391049373,0.7634009119605406,0.6446935936995893,-0.0816127806901931,0.1070337817072868,0.0738973543047905,0.1441273159056902,0.0893149447441101,0.2730348508477211,0.0329326763749122,0.162558227777481,0.4153163562236353,-0.3625111877918243,0.3064966832056641,0.1288613759790547,63
1721471604113320200,-0.2074832416700199,-0.0462239910364151,-0.3718190502047538,-0.0907445665552746,9.65834510614872,-1.6966215465664862,0.213740587234497,-0.1939513832330703,0.2647464871406555,-0.0179472840666815,-0.028565918201083,0.7653023002477374,0.6427863691491026,-0.4728207588195801,0.3082464039325714,0.1482719779014587,-0.0181155024051666,0.0239379249483346,-0.5425672465324402,0.0513627827167511,0.0825516507029533,0.0638350464842049,-0.2453406304121017,0.1286416962132323,0.0904155903292354,64
1721471604153097500,2.120816826827079,0.9993909770667552,-0.8780300581119954,0.0098730838901712,9.65420669116974,-1.7223719277642666,-0.1634504050016403,0.1767487823963165,-0.0098865702748298,-0.0217475956695873,-0.0251872560810797,0.7662781025426044,0.6416466778109535,-0.3680304288864136,0.1188857555389404,0.0758075639605522,-0.3758458215028047,-1.058191541081667,0.2070738936841487,0.0830786824226379,0.0594069212675094,-0.1290319741724524,-0.2195117175579071,0.1137278576598968,-0.1194009896591771,65
1721471604192874500,-0.2614185742687434,-0.4768132101178169,1.3322984050750732,0.0413015952060464,9.660222590458392,-1.687837643869221,0.1618869453668594,-0.1546824127435684,0.2376475930213928,-0.0239730150089685,-0.0252537247425646,0.7651261471832834,0.6429382420887418,-0.580112099647522,-0.0377653762698173,-0.0820906460285186,0.0097954178273677,0.0442903926253318,0.7611094596922398,0.1239503398537635,0.041636299341917,-0.3058434617276303,-0.2472231388092041,0.0629100040611578,-0.2478801522544585,66
1721471604272428800,-0.3829860486462712,-0.5344616814881563,-0.8288219366982579,-0.0618867208614479,9.599359248694777,-2.004716604879498,0.1831979304552078,-0.0819736272096633,-0.3238871395587921,-0.0100695169250457,-0.0173916016247762,0.7758283527980254,0.6306239985437113,-0.8710973262786865,-0.0682496204972267,0.1244155839085578,-0.5531640438705683,0.1162812776029109,0.8345031241398304,0.0945644900202751,0.0257399659603834,-0.0289303720739204,-0.1979134380817413,0.0414767143109347,-0.0943775253633037,67
1721471604312206000,0.2354007377738133,0.0411474184244871,0.1104451187953352,-0.1161396406425163,9.602249124917387,-1.9883971921108663,-0.1287659108638763,0.067618116736412,-0.0501470044255256,-0.0081947663779504,-0.0194427498711495,0.7752432023349557,0.6313104250627423,-0.3835949897766113,-0.0767303556203842,0.0487793460488319,0.4556371510982513,-0.4297948538333177,-0.1498362681370228,0.0415894947946071,0.0712548643350601,-0.0174143250160035,-0.0929654836654663,-0.0561210791399702,-0.0630563171966699,68
1721471604351977200,0.1921080509489402,0.0768687201470136,0.2939326774477958,-0.1461693065946921,9.601242578223347,-1.9912720168948173,0.1163796186447143,-0.0287835672497749,-0.1712363958358764,-0.0075292457347473,-0.0210549707772563,0.7752956245974149,0.6312025799855407,-0.3473685681819916,-0.0648041889071464,0.1370410323143005,-0.1776981615960597,-0.1297609369009733,-0.1705564000826329,-0.0463456995785236,0.0940375924110412,-0.0190006101100472,-0.021286092698574,-0.0091382262812257,-0.0273453359387582,69
1721471604391754500,0.0258486356741748,0.137510528114438,-0.3420186629638075,-0.2398302629201673,9.592374212113022,-2.024649239709228,-0.0051541002467274,0.2165040820837021,-0.3108654320240021,-0.0057341611962059,-0.02647990133085,0.7762262520688827,0.629871936351673,-0.4033338129520416,0.0657093524932861,0.107118621468544,0.1563970148921012,0.1971983963578939,-0.3805262344039976,-0.078375332057476,0.0972818434238433,-0.1115740314937196,-0.0339901261031627,-0.0009139142450789,-0.0730968643249478,70
1721471604471308800,0.2319407883119769,0.3537006251901388,0.8785062973216176,-0.2874561201111413,9.623833764737844,-1.862671502075344,-0.0488893464207649,0.298658013343811,0.0330919213593006,-0.0168166499843397,-0.0433938266951412,0.770121286027887,0.6361974956726711,-0.2422975301742553,-0.0731737539172172,0.0087759383022785,-0.5597779090523719,0.3881815714627504,-0.4225358226157724,-0.0185108240693807,0.0796273499727249,-0.0028328733511007,-0.1383834034204483,0.1169719724139664,0.0668516908916411,71
1721471604511085800,0.6062675287550315,0.0244698398679494,-0.5102523922525346,-0.2588089762922376,9.60949778087139,-1.9393151812948288,0.2907223701477051,-0.2220921814441681,0.0602491274476051,-0.0169949354128243,-0.0415856790011037,0.7727536417350437,0.6331141916086618,-0.4963234066963196,-0.0143889477476477,-0.0030095479451119,0.257077987781167,0.2392810498058795,0.0939375630434602,0.0251732971519231,0.0115633206441998,0.1060279325407464,-0.1094591915607452,0.1219712694054469,0.0599734711186494,72
1721471604590640000,-0.1796766951274126,-0.0160252521276474,-0.2729224765144288,-0.224494399562478,9.59088601938188,-2.03344074119106,0.0398318246006965,0.0842488333582878,-0.0223599970340728,-0.0137018589375265,-0.0350830910887896,0.7761738221708198,0.6293930396290609,-0.3196242749691009,0.0691396072506904,0.0344980806112289,-0.1024327849924564,0.5572334852665662,-0.6537433099508285,0.048444028943777,-0.0331092700362205,-0.1025792077258229,-0.0528220348060131,0.0009629872551711,0.0172908596081833,73
1721471604630416100,-0.8747001830369233,-0.7047948672741651,-0.1739884934231639,-0.1714162317823618,9.581146715655922,-2.0838933097079395,0.1202571839094162,0.3814154863357544,0.206466868519783,-0.0173423715341324,-0.0354383455037763,0.7778130300165701,0.6272560846560353,-0.0123918987810611,0.1758612096309662,-0.098918430507183,0.2770861720651388,-0.5266138905972242,0.2044178262174129,0.0465957522392272,0.0034794006496667,-0.1639366531493142,-0.0520304888486862,-0.0563905619974248,-0.1154390454919543,74
1721471604670193400,0.3389451372699812,0.0710042120277881,-0.5803798214457929,-0.0628636807014001,9.581817746785282,-2.0869098810501394,-0.114467829465866,0.5328916311264038,0.1151422411203384,-0.028417368977104,-0.0403755294193955,0.7776712721009398,0.6267292987804389,-0.1287014633417129,0.0917529389262199,0.0275132749229669,-0.1765390546888113,0.5784498762965202,-0.1015546869836747,0.0411918722093105,0.0550473034381866,-0.1576831091798841,-0.0579670742154121,-0.0909318236225284,-0.1082413068744354,75
1721471604709934600,0.8739755950894206,0.2397381459236144,0.7718120554924011,-0.024931970637117,9.586065467357637,-2.0681224707327783,0.1158037483692169,-0.3973520696163177,0.0878392308950424,-0.0303376577034511,-0.0396019923637682,0.777094964344974,0.6274032249443903,-0.2240016162395477,0.0615329816937446,0.0046415803954005,0.007799275574088,0.5914145718097686,0.1757518498338758,0.0310238804668188,0.0384378395974636,0.0419092879087664,-0.0464819967746734,0.0513304016641806,-0.0194420428677694,76
1721471604749710000,0.1526086371934972,0.0630003537923097,0.8308417520880699,0.0265075927732512,9.560493219205735,-2.183267291651666,0.3823391497135162,0.032027281820774,0.1992554515600204,-0.0279853238248104,-0.0329308023602761,0.7811729742000668,0.6228171215021041,-0.150777205824852,-0.078721597790718,-0.069440372288227,-0.6790513542085885,-0.6151905841946601,0.1011795700609684,0.0297688506543636,0.0348647274076938,-0.0576531749449204,-0.0577426217496395,-0.0329236703606322,-0.0696805576420156,77
1721471604789485800,0.4314189479038119,0.0566255580633878,-0.3340978068366647,0.0653777687144465,9.537540213641524,-2.280670411913842,0.1205027624964714,0.4817561507225036,-0.0815197452902793,-0.0330539979800679,-0.0365152745332042,0.7841865001854401,0.6185674584787565,0.0043585849925875,-0.1716911196708679,-0.0564201064407825,-0.3386947792381048,-0.2837503061294555,0.02433350013718,0.0054305847734212,0.0752731561660766,-0.0932889903410803,-0.0932593867182731,-0.1419261708659119,-0.1795451594359241,78
1721471604869037600,0.5270770511295646,0.2329255432993173,0.0504014228515326,0.0559112266484182,9.573422843405604,-2.125275413671136,-0.2068855017423629,0.3425467610359192,-0.2977511286735534,-0.0455834139208068,-0.0522683093139603,0.7782203488002085,0.6241499217605402,-0.1908852010965347,0.0219270884990692,0.0387424901127815,0.4766039512813091,-0.552131193691492,-0.6819336316466331,-0.0461186692118644,0.1278702020645141,-0.0978122307860292,-0.1966863423585891,-0.0763511716794688,0.0498771934814518,79
1721471604908813300,-0.3408890744119882,-0.3216758398979902,0.1809364128649234,-0.0436795718171866,9.582747136589884,-2.083129924120009,0.0049656741321086,0.0093223648145794,-0.2554258108139038,-0.0448133323511289,-0.0591407751169698,0.7763455655712204,0.6259246701408673,-0.0686264112591743,0.0139574194326996,-0.1673013567924499,-0.0328495456784963,-0.0828688373446464,0.2651942203499376,-0.0419161692261695,0.1743537336587906,-0.1275778207082301,-0.2728820145130157,-0.0721383625902934,-0.0314671970751602,80
1721471604948589000,-1.5930599036745725,-0.109835754725337,-1.925594845108688,-0.0370920694859232,9.57561012431681,-2.115817264974117,0.1303118467330932,2.335674285888672,0.1768397688865661,-0.0543286938189855,-0.0706516299622874,0.7764566995610281,0.6238362448119571,0.0965873152017593,-0.0488841794431209,-0.1022093668580055,0.2896872949630021,-0.2718465178459882,0.0733576432861387,-0.0666555017232894,0.2175937891006469,-0.1006532263656146,-0.3631161451339721,-0.0230135903447633,-0.0229903989821323,81
1721471604988365000,-1.2304824368067084,0.1453641642242669,0.8173067093409597,0.5523247800348327,9.549954874056578,-2.159556015066057,0.2655999660491943,2.785839557647705,1.2332342863082886,-0.1110873686287673,-0.0943497686072237,0.7753739960624643,0.6144533288231052,-0.5287026762962341,-0.2482883632183075,-0.1354452222585678,-0.5670557911008596,1.129324347925186,1.011140013179928,-0.0635327324271202,0.2062400430440902,0.0321434752017958,-0.4093210995197296,0.1568310954604297,0.0493524572212947,82
1721471605028140500,0.838975812574476,-0.1179185234159231,0.5057467513963579,1.129357227281481,9.48598187583983,-2.216104854631424,0.4122143387794494,1.983811974525452,0.7365964651107788,-0.1575817586773148,-0.1073909861008114,0.7755366404000283,0.6018124736274265,-0.2636353075504303,-0.0846415907144546,-0.0263258572667837,0.0919008695840835,-0.5869266127407551,-0.9601473464369772,-0.0922667160630226,0.2002003341913223,0.0281793048281571,-0.4092836380004883,0.0427700420571025,0.1170553672479465,83
1721471605067916300,-0.2870423334121704,-0.3764508016586304,-0.916532953377068,1.5299321241103112,9.434315401488542,-2.1962287722945213,0.0420228764414787,2.0873169898986816,0.4286012947559356,-0.1959603266120168,-0.1240560016719046,0.7723901935092593,0.5912894258927672,0.0128173176199197,0.038172211498022,-0.0340137369930744,0.4094458932876587,0.0289706584185361,-0.0577950402341783,-0.1331595778465271,0.243843138217926,-0.0291341715673101,-0.4016360938549042,0.0328526418178807,0.0428045379817485,84
1721471605187242800,-1.6522750398397446,-0.4209147972851991,-1.5739339090526103,2.9514287156820296,9.12877587287724,-2.030986772167682,0.6291021704673767,1.97747814655304,0.8348238468170166,-0.3231955786517877,-0.1743303914880096,0.7570735889299838,0.5403638961639784,0.0308735501021146,-0.0382627993822097,-0.0092496005818247,-0.0337526319980621,-0.4808300445437431,0.4039303447365761,-0.2504534125328064,0.4447994232177734,-0.1921757276239804,-0.5380362868309021,-0.0297680832733865,0.1770187096982262,85
1721471605227018500,-1.2304793680667876,-0.9405839833110572,-0.0880477012872695,3.348150444214046,8.978966419681907,-2.0828948001898824,1.2324293851852417,1.4620152711868286,0.5937401652336121,-0.3570101802203063,-0.191311792567083,0.7547170870727977,0.5160869353695853,-0.0221257526427507,-0.0814843103289604,-0.0109929721802473,-0.1941594670534134,-0.2235457205355167,0.2423486206829547,-0.2495752871036529,0.5733174085617065,-0.1717484228787943,-0.732035756111145,0.0656371046372223,-0.0837109141919761,86
1721471605266794200,-1.707780653962493,-2.014955090299249,0.9848971722900868,3.707387660743296,8.726500894132256,-2.504766898199916,2.013012409210205,1.4597017765045166,0.8100005984306335,-0.3757474708017603,-0.2049729600564223,0.7653062479468883,0.480735188183594,-0.1497894376516342,-0.0887211859226226,-0.0094929477199912,0.0359697235256433,0.1546627384454011,0.0782896928608417,-0.3370170295238495,0.6771548986434937,-0.1015040162423625,-0.8589006662368774,0.1509889087708666,0.010009830046317,87
1721471605306570000,-1.217651450675726,-3.52034796256721,3.088433340100944,4.234944969670474,8.3135408552438,-3.020049247443676,3.103582859039306,2.42229962348938,1.1915684938430786,-0.404811291812563,-0.2295684566665662,0.7754211672728186,0.426788363809818,-0.0722014382481575,-0.0835647732019424,-0.0336604677140712,0.233963069653511,-0.2806307128041982,0.0629562223896384,-0.4490086436271667,0.6999786496162415,-0.035011840562208,-0.903120756149292,0.1945381276400759,0.1739707020381465,88
1721471605386119700,-1.2097048755854367,-5.679000745183229,3.9766502995759248,6.139067403161525,6.46340164861381,-4.087381834097206,4.562402725219727,2.4956700801849365,2.2777082920074463,-0.4786664544079472,-0.272638325595582,0.796283131848392,0.2499600379525159,-0.0596092119812965,-0.0434591099619865,-0.0243545174598693,0.1624485700160265,0.0324649302750825,0.2308611581154167,-0.6945363283157349,0.690312385559082,0.2767578534262254,-0.8753988146781921,0.2999520838677883,-0.2153986544370651,89
1721471605425895400,-1.4456541506201028,-5.288900188356638,1.6285171476334332,6.936307329899072,5.104996157857776,-4.690102812819182,4.46103572845459,0.8389120697975159,2.040539026260376,-0.4892553772547183,-0.28936901744155,0.8095642464222058,0.146630775339639,0.0010591947939246,-0.0670168399810791,-0.0095067294314503,0.1771691692858934,-0.0370493354558944,-0.0025932313635945,-0.877905011177063,0.6376165151596069,0.1489563069647178,-0.7376278042793274,0.2423205088333226,0.0268205996786011,90
1721471605465671200,-2.803753936427832,-3.5175992483809586,1.0216934097677468,7.340617029342055,3.574162554863095,-5.432411418190598,4.040389060974121,-0.0993388295173645,2.64556097984314,-0.4693097584021267,-0.2951082214867416,0.8305943818444185,0.0526543574457876,-0.0038889585994184,-0.0298464149236679,-0.0252288337796926,0.38642917483747,0.2358627657949924,-0.1341721774719655,-0.9206135869026184,0.6322253346443176,-0.0255015735188848,-0.7616459131240845,0.1875418207456357,0.1193911715180613,91
1721471605505447000,-0.606526216223836,-5.131842663729191,3.985465474194288,7.969144064971804,1.7320758679158983,-5.446375646135211,4.289687156677246,2.5376288890838623,3.746925592422485,-0.4688804129699549,-0.2769662495491204,0.8372440416853583,-0.0496304046424805,0.0494858473539352,-0.0082732643932104,0.000424598227255,0.1759872660249471,0.123345809161663,-0.2413184008523821,-0.8566888570785522,0.5997618436813354,0.0446668110225582,-0.750339150428772,0.2150173452355898,0.3431865011667832,92
1721471605545222700,1.2030419105648993,-2.104795958613604,-1.7370371435850858,8.507990245154499,-0.310055581263639,-4.867070322053134,3.160090446472168,1.2337298393249512,3.544969081878662,-0.4745731726080844,-0.2512803783534656,0.8276531232740748,-0.1631835346083915,-0.0311179179698228,0.0205272771418094,0.0309374332427978,0.1416325764805078,0.4357230748385191,-0.1698272820904851,-0.7510185837745667,0.6236890554428101,-0.03453624523998,-0.6650305986404419,0.2319265953898429,0.3020122130016796,93
1721471605584998400,2.8747622401088475,-3.8568297419309614,1.4745938293784857,8.594661981913447,-2.163390332531929,-4.197850041507184,3.258193016052246,1.942936539649964,4.216972827911377,-0.4713522106593495,-0.205234041395726,0.8197010265094535,-0.2525795680934187,-0.1603981405496597,0.0718224197626113,0.0891131162643432,0.2058802999854087,0.2924573441982269,-0.1093345272049307,-0.6045011281967163,0.5226993560791016,0.2281955556353554,-0.5896927714347839,0.329549203621596,0.2109290530086494,94
1721471605624773400,8.742932973495126,-2.292569670152664,-2.958329873372614,8.371569850364327,-3.8686096115738153,-3.334828898087144,3.2176527976989746,0.4688104689121246,2.5181260108947754,-0.4573820740305401,-0.1761307110384391,0.7993790844148059,-0.3475237590873605,-0.0941999480128288,0.0807229205965995,0.1266885995864868,0.2214981403559446,0.0729015700817108,0.0356976285859942,-0.5190887451171875,0.5090590119361877,0.074811952013988,-0.5115479826927185,0.1875491272692568,0.1469518444076646,95
1721471605664549000,8.035016759330034,0.3439981463432311,-2.5710163169160483,8.125995253372192,-4.927847446838021,-2.419697482071072,2.365971565246582,2.386116743087769,2.0961661338806152,-0.4534052281452074,-0.1524969364243158,0.7746708466188639,-0.4135862452721248,-0.1188253983855247,0.105631835758686,0.2048472464084625,0.312310045659542,0.142881699758768,-0.0315159589871764,-0.272392988204956,0.3169441521167755,0.297293093791604,-0.4045710861682892,0.3951343862753361,0.3254681083204224,96
1721471605704324600,8.99027867181301,3.1053327447146177,-4.287455201369524,8.027107593640684,-5.498486357122659,-1.2257916486419738,1.297263264656067,2.224704027175904,0.6333033442497253,-0.4729060855475973,-0.129577227664951,0.738720329186291,-0.4624519288492573,-0.0603154823184013,0.132362887263298,0.1915413588285446,0.3583651098698377,0.0435731842666864,0.069728785264492,-0.0616371557116508,0.2794202268123626,-0.2048748127372935,-0.394811600446701,-0.0560748608114896,0.0235816428735502,97
1721471605783851300,6.702127987146377,2.176827906253934,-1.145277703860402,7.87541773352623,-5.838459485733509,0.2461054889984428,0.578454315662384,1.0026527643203735,-0.1115397661924362,-0.5150825506278679,-0.0903838283512534,0.6923025894316565,-0.4972301625562139,0.0011225780472159,0.151736170053482,0.1611110717058181,0.0287649067133665,-0.0930593919694423,-0.2491533322617411,0.1120098307728767,0.113600879907608,-0.2711912505413405,-0.2473852932453155,-0.1315035519177559,-0.280776185689494,98
1721471605823626200,4.095763585734368,0.0747767163038253,-1.7482295687288043,8.001688490223884,-5.643689777827262,0.5405045783815905,0.6442241072654724,0.0926187485456466,-0.8636298775672913,-0.5269918836015038,-0.0990964578389846,0.6801630888393938,-0.4998376748362508,-0.1301747262477874,0.1415096819400787,0.119819700717926,-0.1553565659284591,0.06242167712152,-0.1878840400457382,0.0894540026783943,0.0993135273456573,-0.1681644817111082,-0.1986698359251022,-0.1355816150116268,-0.1732404332685284,99
1721471605863401200,1.7435183222979307,0.2793774978727102,-3.41641120275259,8.212021093443036,-5.314832501992583,0.6968975381530821,0.2151748538017273,0.3544040024280548,-1.036765694618225,-0.5370945023087914,-0.1168405570249313,0.6714286247165816,-0.4970527628519373,-0.2481431663036346,0.1137671545147895,0.1063526943325996,-0.3527653901666402,-0.0677642071932554,-0.0849647867105901,0.121730625629425,0.1216296404600143,-0.1487325812114402,-0.1524358838796615,-0.2568272461568005,-0.3005070508694276,100
1721471605903176000,-0.3408925815433263,-0.2803156555056572,-2.014018101710081,8.36999748648107,-5.019848269665241,0.95637966446653,0.1123974546790123,1.0368051528930664,-0.7099580764770508,-0.5552299083713451,-0.1223992567001819,0.6604972596887712,-0.4903892719213625,-0.2875629961490631,0.0876428261399269,0.0836756080389022,-0.2707487857371568,-0.0227215348958969,-0.0301003931008279,0.2463164180517196,-0.0108360489830374,0.091370452501811,-0.0805879980325698,-0.1089980435258708,0.060140041590901,101
1721471605942950700,-0.8155307857096195,-1.982677791550756,-3.336557329314947,8.437772215068339,-4.814910218966007,1.3382967687070368,-0.7173014879226685,1.5103261470794678,-0.6016953587532043,-0.5785245885576674,-0.1159379872313957,0.6467799002118267,-0.4832634303627872,-0.1287288963794708,0.0378356948494911,0.0765531212091445,-0.3273147225677967,-0.3955646674513816,0.1634811279341578,0.5397588610649109,-0.2998201251029968,0.3902891016686335,0.1023923680186271,-0.119744935125485,0.4496822978144511,102
1721471605982725600,-1.5006523997426031,-1.6987988906055689,-0.952989145245403,8.510576754516363,-4.621145596449077,1.544506739038229,-0.1233817338943481,0.1712272316217422,-0.6304431557655334,-0.5967393171304116,-0.1108404125882563,0.6395048678493048,-0.4718583173078889,-0.0550179257988929,-0.039237305521965,0.052267886698246,-0.35908816344738,-0.3440840710610151,0.2279153139218687,0.8384472727775574,-0.5230792164802551,0.263250429338403,0.343881219625473,-0.3483884902566671,0.3930000411277636,103
1721471606022500600,-1.8086498429000373,0.0508747394517064,0.8087338190458715,8.615663268887996,-4.457103035239875,1.440468856936693,-0.0127793587744236,-0.6709097623825073,-0.2809762954711914,-0.5978402314698558,-0.1191278587195678,0.6421565860178595,-0.4647907462663301,0.0198991950601339,-0.0510339885950088,0.0155086759477853,-0.3884504515320062,-0.3965051631718874,-0.1422410637676715,0.9382237792015076,-0.7396633625030518,0.2908387482867576,0.4099543392658233,-0.0678832487293519,-0.2598961322081275,104
1721471606062275000,0.4675526298195123,-1.2684157154902815,0.4770937806248664,8.676801335939764,-4.395517224420606,1.250173079574108,0.0132670355960726,-0.4624798893928528,-0.1703080832958221,-0.5931820863989578,-0.1254057817540494,0.6484846172723734,-0.4603000101483896,-0.049221821129322,-0.069616250693798,-0.0037111579440534,-0.2788461674749851,-0.3947866688162088,-0.4812067689016461,0.952598512172699,-0.9175288677215576,-0.1148033870700746,0.376034528017044,-0.3264905101707205,-0.307510353760235,105
1721471606103292000,0.1437549754619598,-0.0934825858175754,-0.3365254723750054,8.727661754605174,-4.325166507865489,1.1363383183404805,0.2289663553237915,-0.5555877089500427,-0.1774705797433853,-0.5892896118757144,-0.1331595794240725,0.6514072429589686,-0.4589934848916048,-0.0339073091745376,-0.0177626926451921,-0.0534609369933605,-0.212588273191452,-0.5332096356004477,-0.2690884513095021,0.7888361215591431,-0.7992562651634216,-0.5040540490690618,0.3482881188392639,-0.4734942948281764,-0.5346139859730378,106
1721471606143065900,0.5626397282242774,0.4625555521845817,-0.1700806723296642,8.760381536424159,-4.283102851378917,1.039774133120477,0.1945454031229019,-0.0157474130392074,-0.0095617026090621,-0.5849571141952388,-0.139870058447043,0.6537756810201296,-0.4591719542082659,-0.0038317004218697,-0.0028556492179632,-0.0869236215949058,-0.2706166837900877,-0.3261059312999248,0.0287444484472274,0.6276301145553589,-0.7384538054466248,-0.5061315129302442,0.2456712275743484,-0.252633557326626,-0.6069774305900558,107
1721471606182840600,-0.659706602269411,0.4188637099742889,-0.4658909071523696,8.744625748887657,-4.301809597675502,1.0937703655935824,-0.2271634936332702,-0.0239505618810653,0.1461488902568817,-0.5864120294301531,-0.1378505268465485,0.6520969745091589,-0.4603126018586668,0.1050140857696533,0.0218485258519649,-0.1293477118015289,-0.250886147403717,-0.4748457094371318,0.0077051675498485,0.5183700919151306,-0.5531834363937378,-0.6361787924919277,0.1783957332372665,-0.3324256358407437,-0.4564110215475782,108
1721471606262390300,-0.2140694516599178,1.3006135192617774,0.0790390499234199,8.581355925616622,-4.637232807897031,1.0133152383271604,-0.5086778998374939,0.5037126541137695,0.7007020711898804,-0.5838781313769758,-0.1138560711565943,0.6598273243572051,-0.4590763755255746,0.1101848781108856,0.0080575048923492,-0.1528891921043396,-0.2581961781561374,-0.5074374809622765,-0.0329717107534408,0.3158883452415466,-0.4066448509693146,-0.3507620509875938,0.1609012633562088,-0.1781041303147561,-0.3205950954565778,109
1721471606302165200,-0.1213484978646039,1.446664788967371,0.2355295152526348,8.422793257123232,-4.904639589729904,1.0823291533205657,-0.5245710611343384,0.3478791713714599,0.7093830108642578,-0.5851170182644405,-0.0932927780502061,0.6603885442083823,-0.4613257285153519,0.0515505969524383,-0.021221075206995,-0.1688706278800964,-0.2426356209307908,-0.2389350128471851,0.1250803778693079,0.2469940483570099,-0.3588058948516845,-0.2487699589673429,0.1405269056558609,-0.0399346177017781,-0.1793814202415757,110
1721471606381710800,1.2931664181262257,1.224148996001482,0.3610135785520076,7.955784232661127,-5.602246006804704,1.2209548030700534,-0.5030971765518188,-0.6858575940132141,0.9559912085533142,-0.5805922341092548,-0.0473824552615634,0.6599269147832106,-0.4745145740199531,0.0253347065299749,-0.0258611515164375,-0.1641847789287567,0.035744682598114,0.0103401922285556,-0.0346539647519588,0.1764085590839386,-0.3679041564464569,-0.2065888866461813,0.0300031900405883,0.0401601837856927,0.0664001066326629,111
1721471606421485600,-0.7744365587770938,0.0774970811784267,0.0783702838163822,7.77403416532576,-5.934761220625043,0.7165044481597841,0.0096125211566686,-1.3533307313919067,1.3446577787399292,-0.5534281104853292,-0.042368361216053,0.6794654985206835,-0.4798425338543166,0.1257084459066391,-0.0174973364919424,-0.1305331438779831,-0.0721802700698375,-0.2926508209437132,-0.000949263548851,0.254313588142395,-0.3243317902088165,-0.23298989550611,0.0098658083006739,0.0457965959371998,0.0526753499997314,112
1721471606461260500,1.3598638728708028,-4.90908838583231,0.3004518500834703,7.488656550255417,-6.313881533753872,0.4746710104573517,0.1806535124778747,-0.7730221152305603,1.0187755823135376,-0.5280164532007415,-0.0365603218038202,0.6888119167765854,-0.4953787981786401,0.0477252304553985,0.0279496144503355,-0.0887525528669357,0.0826063870161771,0.2929202855348586,-0.1439228793747723,0.2582326233386993,-0.2659756243228912,-0.3177035752661526,0.0010749388020485,-0.0506340442973189,-0.1580937906063161,113
1721471606501035300,1.978991796514392,-1.8532026858538388,-0.3786737384051084,7.368420397546887,-6.456023813322186,0.4433170370988547,-0.4218761920928955,0.4037336111068725,0.1246698573231697,-0.5221178423829466,-0.0305732159353734,0.6902625583684234,-0.499995876333824,0.1018555760383606,0.0149826295673847,-0.0880336239933967,-0.1307885263830423,0.2078209126591682,-0.0494832850933074,0.2064822763204574,-0.1726319193840026,-0.2689174421241507,-0.0007565651321783,-0.0688394626087974,-0.1859084473901428,114
1721471606540810000,-2.629402162650228,-1.549851607197523,-0.65681789509058,7.245872460764646,-6.599263240477442,0.3427285282662138,-0.5271687507629395,0.1085431650280952,1.022333741188049,-0.5201030513781428,-0.0166115845227925,0.6944420512607539,-0.4969579863828184,0.0092678563669323,-0.032418493181467,-0.0677950009703636,-0.1126683478027582,0.3693120358198881,-0.1471326352015137,0.1967201679944992,-0.1676503717899322,-0.0371098974035587,0.0353373028337955,0.0999945523943286,-0.0612940110987285,115
1721471606580585000,-0.0341144510477781,-0.4697767356097698,-2.4542279665738342,6.895596549326181,-6.971551661759615,0.1363411007425747,-2.430485725402832,1.1140319108963013,1.0257375240325928,-0.5189063421882435,0.0257223427777093,0.7017028569232319,-0.4875321719696404,-0.050109714269638,-0.0136280283331871,-0.0497457608580589,-0.1348737498700618,0.1419949800521135,-0.156003923921287,0.2061914354562759,-0.1899097710847854,-0.0286386499851942,0.0454100184142589,0.0471102723516523,0.034341670232662,116
1721471606620358700,1.3442314194530247,-0.0501987398862838,0.4463771553218364,6.660332333946228,-7.197648235821723,-0.0649507709074532,-0.8308355212211609,0.248608112335205,0.7548959851264954,-0.5256763973918132,0.0674581768633188,0.7062301055679563,-0.4694174632333052,0.0109746763482689,-0.0601533465087413,-0.0015204414958134,-0.4260100745975971,0.0329272870898246,-0.1021802715361118,0.2213346660137176,-0.18802011013031,-0.0753429718844592,0.0512529946863651,0.0325904769004904,0.0179824802927789,117
1721471606699908600,0.1146644900560378,0.8669289645135402,-1.2466028198719024,6.359556074213981,-7.463852363866567,-0.1317084633727092,-0.5716038346290588,0.3083544969558716,0.1739726662635803,-0.5134471722299447,0.0810996741516909,0.707204429899797,-0.4792251600028915,0.4009853005409241,0.0887522473931312,0.0031974148005247,-0.0141419225990772,-0.2910468928784132,-0.1176513969123363,0.2590028345584869,-0.1948162168264389,-0.1732349899084307,0.0485337041318416,0.0228642130359075,-0.0583223155112937,118
1721471606739683300,-1.5832400820583103,-0.3263695506721735,-0.988535236531496,6.254925486916303,-7.546063614085316,-0.3212419785253703,-1.124916672706604,0.4388090968132019,0.6664706468582153,-0.5132334052988117,0.0988523403909222,0.711763301573416,-0.4692681433893482,0.287381500005722,0.0607190653681755,0.1069886535406112,-0.363008551761508,0.1433966635435819,0.1719298073276877,0.2567649483680725,-0.1540846079587936,-0.2644059925816953,0.0111287645995616,-0.0476492426331387,-0.1391071313898079,119
1721471606779458000,-0.8650432968974113,1.1696855844080447,1.3505308118581771,5.970079202243685,-7.769600566792487,-0.4022777186913415,-0.4749079942703247,1.3140618801116943,1.317284345626831,-0.5133865428189412,0.1291587058399843,0.7098087655512756,-0.4646759378805877,0.3255454003810882,-0.0469169542193412,0.1126793026924133,-0.0423842667430639,0.0628004473060369,0.070018854252249,0.193434327840805,-0.0484593510627746,-0.3063713945918716,0.0314206480979919,-0.1799867474572733,-0.1260948978072497,120
1721471606819233000,-1.477286137202382,4.653723047187924,-0.522764813953638,5.456898209193349,-8.147162544563413,-0.1280091156644281,-0.1834914535284042,0.5513842105865479,2.1947996616363525,-0.5175512385576658,0.1678551798588699,0.6916294433615997,-0.4749885075542012,0.196919247508049,-0.0467063523828983,0.0654316991567611,0.333791225105524,-0.0424497331947088,-0.0992902491830289,0.1376215517520904,-0.0360302776098251,-0.0671154655275167,0.0591046139597892,-0.008554650814677,-0.1483905171749647,121
1721471606858986800,0.5467351798668504,2.6955519203841685,0.4983528417527675,4.34626453321278,-8.78565275580287,-0.3044222880844026,0.0272606611251831,-0.3682857453823089,4.051921844482422,-0.4773471208464958,0.2096451517632018,0.6867096382494929,-0.5065752697634244,-0.036614678800106,-0.0628691837191581,-0.0171002000570297,0.5938379995644092,0.4098801930516958,-0.2113746596179902,0.1338084042072296,-0.0716897100210189,-0.1182034504376817,0.0406946763396263,-0.0935168716796673,-0.2186585147495381,122
1721471606898761000,-0.88804131064713,6.238510943210125,-0.511402804396674,2.7854455417990684,-9.397808502346276,-0.3047200289219617,-0.0516981221735477,-0.223428264260292,4.31865119934082,-0.4324444013656472,0.2678259091404785,0.6661874214848551,-0.545394651159463,-0.0438041538000106,-0.0497641451656818,-0.0804396197199821,0.4571510627925396,0.2160650093913078,-0.2184485435269773,0.0845786556601524,-0.083212025463581,-0.013506258468976,0.0342544689774513,-0.0230671243300195,-0.1371890319419559,123
1721471606978309000,-9.60789677541554,-35.32608543012142,1.2596505174934862,-1.9953024414546787,-9.60066039442122,-0.1283903974664397,-0.2567131519317627,-3.8827602863311768,9.5018949508667,-0.2532038439410328,0.3862604833088854,0.5977866908383243,-0.6552417699897322,-0.0285279918462038,0.0617195628583431,-0.0884490832686424,0.3459609708487987,0.2651069804579019,-0.0992870343126356,-0.002176642883569,-0.1176415160298347,-0.1673728929420001,0.0352001227438449,0.072445136117679,-0.1695213944790884,124
1721471607018083000,4.070686135362088,-7.89786980383098,-0.8431190498590468,-3.988984003709256,-8.955065319612622,0.2553421586981974,-2.065307855606079,-7.508147716522217,1.3285133838653564,-0.0907191400211132,0.3624042540405638,0.5963592286670316,-0.710484965265799,-0.2285122126340866,0.0937216505408287,-0.0953018590807914,0.0493219570517539,0.3224795574963092,-0.0896295636512339,-0.0803498551249504,-0.0238115526735782,-0.1279412106605246,0.0070254928432404,0.0524873805464245,-0.1466491077345796,125
1721471607057857300,0.2437719314843416,0.8108698081612586,4.798320318692922,-3.435691365022957,-9.182045690771936,0.2375834521077573,-1.8261338472366333,-2.60337233543396,-1.8031573295593264,-0.0289101492705255,0.2710112145056192,0.6437697852352959,-0.7150367928517855,-0.1404028534889221,0.0624322779476642,-0.0982193499803543,-0.0168359839886426,0.1412842014342546,-0.1093345272049307,-0.1270288825035095,-0.0323980003595352,0.0517436860396526,-0.0135036269202828,0.2786067692285403,-0.0586247507902793,126
1721471607097630200,-1.4115236252203582,5.3460646756023165,3.841813374584913,-3.002037205412984,-9.335850935605167,-0.0052548049808654,0.046066764742136,1.1381536722183228,-0.7680155038833618,-0.0384738301737557,0.2528449077233156,0.6605583798132013,-0.7058695084653147,-0.1394302695989608,0.1011670529842376,-0.0574491545557975,0.0908791253209114,0.0873059430092573,-0.4486486073851585,-0.1099551022052764,0.037805825471878,-0.2486539861711673,-0.0380217209458351,-0.0024215800033154,0.0897347319256048,127
1721471607137404200,-5.895527526867389,1.9705740967810152,-6.7834203689545385,-2.8687475098639723,-9.377636651933193,0.0248882547929766,-0.3063481450080871,-2.303940773010254,0.2228831946849823,-0.03350830547245,0.2383183255786696,0.6647822409653164,-0.7072101651567729,-0.4196784496307373,0.109191209077835,-0.0166879426687955,-0.3317003903061151,0.0754728818744421,-0.115861590886116,-0.1077890023589134,0.130369022488594,-0.1811508410668932,-0.0513737201690673,0.0465120598633307,0.1002654965565074,128
1721471607177178400,-1.8965458607569337,-0.7103226907849312,-0.4569838895320892,-3.00752703500092,-9.332904360759258,0.1485808429821394,0.2116565704345703,0.3895663022994995,0.3464474380016327,-0.0119933686493974,0.2264459610544026,0.6641887622821733,-0.7123424380527352,-0.1381636708974838,0.1085466742515564,0.0156731270253658,-0.4115402352184057,-0.4672667986154556,0.2393406710386276,-0.0926213786005973,0.1023143678903579,0.0761582611895631,-0.0685532018542289,0.0278042655372642,0.1054887567632831,129
1721471607216952300,0.8749103186562657,-0.0784656339496374,0.4980015440970659,-3.0771266409277915,-9.310843920120597,0.0992023334375582,0.549359142780304,2.499873161315918,0.077545590698719,-0.0326527510296307,0.2512202039123076,0.6571381117399527,-0.7099236664476707,-0.1500331163406372,0.1585258394479751,-0.0145825147628784,-0.3006757219672203,-0.2871533925712108,-0.327554668803513,-0.0601507797837257,0.0397663339972496,0.2489619561417959,-0.0123508051037788,0.1353239230566658,0.3184230121145024,130
1721471607256726500,0.2830240376815199,0.1367436353951692,0.0483235845310147,-3.1388579976975914,-9.29052593923509,-0.0640355146594811,0.3592137396335602,2.922792434692383,0.213348776102066,-0.0698602669668991,0.292569641930414,0.6462723166628432,-0.7013235508509446,0.1931756436824798,0.0909131839871406,-0.06145541369915,-0.2927367456614971,-1.2777245188444852,0.0785235016167163,0.0249494444578886,-0.0263414438813924,0.1853189205317758,0.0228547062724828,0.102071513932012,0.3670490227913484,131
1721471607296500500,0.5924240411132574,-0.483762006342411,-0.1647556413820013,-3.174420601727068,-9.273357362291216,-0.3134859575711191,0.1010204404592514,2.0687825679779053,0.028245273977518,-0.1021461844539375,0.3298995329631837,0.6380827798494222,-0.68817351659374,0.3834859430789947,-0.0157848708331584,-0.0766817033290863,-0.1794341916084289,-0.3475432716041803,0.3018088176503777,0.1094595938920974,-0.0563595928251743,0.1882639975403435,0.0270260293036699,0.1471137387047987,0.3130569185040891,132
1721471607336274700,0.9088932522788644,-0.4175730856418609,0.0171312406081706,-3.1000363918721674,-9.291811302870512,-0.4715804240308702,-0.0007961266674101,0.6880775690078735,-0.3268562853336334,-0.1220492504366295,0.3469740798621397,0.6353368386741817,-0.679014000162503,0.2472868114709854,-0.0187559984624385,-0.1131233349442482,0.3473544710338115,-0.3847434137076139,0.3286906870961189,0.1793129742145538,-0.1273588985204696,0.0723343463866971,0.0021340390667319,0.1162609654672443,0.1892661785865202,133
1721471607376046600,1.0278037093415855,0.0567740266233682,0.2759457698583603,-2.9026129545867443,-9.353309435406327,-0.5107271701574325,-0.1403823345899582,-0.3454955518245697,-0.6882808804512024,-0.1299140453300858,0.3418187644308005,0.6396872451092003,-0.67607885063522,0.2910721004009247,0.042371429502964,-0.1329005658626556,0.6741968999147415,0.2962783637911081,0.2914521126784384,0.1999610215425491,-0.1027342975139617,-0.0974164272683206,-0.0469387993216514,0.0276622061684727,0.051736717442749,134
1721471607415820500,0.0417170350059866,0.1088484972536563,1.3927064042866228,-2.6606737914875147,-9.425433591374754,-0.5023618947310373,0.0670114010572433,-0.1124594658613205,-0.5517339706420898,-0.1346951300508914,0.3296044609106747,0.645735416668106,-0.6754581775622697,0.1086924448609352,0.0318056568503379,-0.1950636208057403,0.4349094203680753,0.246954653173685,0.1608861430048942,0.2059288173913955,-0.1129135191440582,-0.0860798992124851,-0.0636835321784019,0.0864450609967578,-0.0328016719657578,135
1721471607455594500,0.0667731503292918,-0.0605757569938898,0.471046317154169,-2.502424426726997,-9.471938152918218,-0.4366292298980057,0.1352022588253021,-0.3491704761981964,-0.3563505709171295,-0.1394128575064654,0.3217283841152192,0.6471110747006743,-0.6769801899929853,0.0473377406597137,0.0755084529519081,-0.220364049077034,0.5460328768163919,-0.1045627827584743,-0.0716986240327358,0.1800219267606735,-0.034916914999485,-0.1718325757646001,-0.0282940752804279,-0.055873552385997,-0.0933556075701955,136
1721471607495368700,0.0680754650995135,-0.19248714992702,-0.1227484277904033,-2.395388970244676,-9.503730298498272,-0.3340946284988895,0.0554379411041736,-1.0743941068649292,-0.2506159842014313,-0.1350248387112514,0.3078588542629676,0.6498130589738998,-0.6817142091927558,0.0429656356573104,0.2892460823059082,-0.1631635278463363,0.234981306785345,1.072779453882575,-0.4840365855000912,0.1429323852062225,-0.065521739423275,-0.0644259296160191,-0.011061456054449,0.1349919785554055,-0.1881676244937814,137
1721471607574915800,0.0242791396014392,0.0375830039411783,-0.3685235157907009,-2.329446279390156,-9.525953236222266,-0.0166431796716584,-0.0294041950255632,-1.749011516571045,-0.0845476612448692,-0.0983044986450129,0.2621248296327961,0.6573729076371,-0.699633926337076,-0.1345335096120834,0.2619388401508331,-0.274931401014328,0.1908446434170007,0.6541320170074701,0.0244657482147216,0.047794722020626,-0.0382380820810794,-0.0534253326833946,0.0477969646453857,0.046267387220147,-0.0118791710070858,138
1721471607614689800,-0.3256992501951753,-0.0477221206396818,-1.378030228680372,-2.3061267786011097,-9.531329084041714,0.077080938125588,-0.2546535432338714,-1.2269761562347412,-0.0234340708702802,-0.0771022689786642,0.2390065224176583,0.6625298846374013,-0.7056807519740043,0.2011281102895736,0.2984078824520111,-0.2619065046310425,0.0972340473055839,-0.4645476027846336,-0.4642785765849053,0.0459024496376514,-0.0544286556541919,-0.0079956532377807,0.0592430643737316,0.0902727569255977,0.0324058250655652,139
1721471607654464000,-0.3520652790732682,0.1626981608629226,0.2005260794758796,-2.3050495047584176,-9.531806638425588,0.0421863147518597,-0.0190257672220468,0.5086255073547363,0.002034249715507,-0.0714562733129576,0.2341596427063061,0.6655962425967823,-0.7050140632753902,-0.1668563038110733,0.2919222712516784,-0.0825917199254036,0.0162152217417955,0.4163414980202913,-0.3142999043025076,0.0761440470814704,-0.0796615779399871,0.0166352075694012,0.0432145819067955,0.0998642770781647,0.0825192567219957,140
1721471607694238000,0.1183577916160225,-0.0765168379694223,-0.1398643977642059,-2.2958840553976594,-9.534107901105283,-0.0096235706750885,0.1174408346414566,1.160700440406799,-0.0524458065629005,-0.0847629837773013,0.246918376866176,0.6629645395848537,-0.7016584507375322,-0.2349357455968856,0.4342009127140045,-0.0267457030713558,-0.0382931980371475,0.5460872373521327,-0.4420937789142131,0.0885115414857864,-0.0798785164952278,-0.030536583427852,0.0242892727255821,0.1115903981066308,0.0778378300406504,141
1721471607734012000,0.1208957856610417,-0.1517208397746086,-0.2523077046394348,-2.2631075749553737,-9.54150268753171,-0.0918585100133903,-0.0302513223141431,0.9427288174629213,-0.0970654115080833,-0.1005921851172885,0.2610652150101899,0.6607029849412348,-0.6965613182054349,-0.1646184474229812,0.2658562958240509,-0.1091381162405014,0.0034486791491508,-0.9337573521614074,0.4723288312453776,0.0819692015647888,-0.0601374991238117,0.0011830420511512,0.0218032859265804,0.1239045664224307,0.1221158563747536,142
1721471607773786000,0.049257513513416,-0.0184732298016548,-0.0793242783392779,-2.2239408089540897,-9.549504207679629,-0.177304540902283,-0.076603427529335,0.4088235199451446,-0.0836840793490409,-0.1104854435582897,0.2693713543693662,0.6606656407879671,-0.6919197441648136,0.1365166306495666,0.2302480190992355,-0.1296202838420868,0.0633539895355701,-0.2195698026418685,0.3933622620362788,0.0707710534334182,-0.0051205493509769,-0.0978838986495975,-0.0028752079233527,0.0539081249313894,0.0634144784179981,143
1721471607813560000,0.0758078129172325,0.0113555067509412,0.1498585713003762,-2.191833021553605,-9.555839840441942,-0.2284178566165268,-0.0994452238082885,0.0611392222344875,-0.0763445422053337,-0.1138635551723928,0.2713754565705635,0.6618167657783934,-0.6894845892400452,0.1887329667806625,0.2117783576250076,-0.1284775286912918,-0.0383656787514686,0.0756061528652906,0.1787619914352893,0.0512482523918151,0.0483044050633907,-0.1300990462815389,-0.0505117736756801,0.0273363306483952,0.027599310699827,144
1721471607853354200,0.0780213973134756,0.0980453636884689,0.3464659977614879,-2.1638198099903763,-9.561276478537916,-0.2650631778487936,-0.0784670859575271,-0.0553786270320415,-0.0721153989434242,-0.1143239669843821,0.2705947845405451,0.6635457207653337,-0.6880520041146394,0.5993982553482056,0.2649434208869934,-0.1337018460035324,-0.0305348389953374,-0.0597790536582469,-0.1649883176267147,0.042548730969429,0.1091562658548355,-0.1180874776415061,-0.0691898763179779,-0.0560038277021609,0.0504576602505287,145
1721471607932903700,0.0341648660607636,0.0351923094123601,0.1370411753033287,-2.1207113206259907,-9.572493453601002,-0.2007866666408255,0.0467990115284919,-0.4392470717430115,-0.0466191172599792,-0.1097382820646327,0.2619491761743322,0.6645448819068027,-0.6911730081908956,1.449289083480835,0.0379216633737087,-0.1957596242427826,-0.3273305046588182,-0.7146054826706647,1.1241817243397236,0.0425023362040519,0.1127109751105308,0.1769953653552569,-0.0408401489257812,0.0825727678743656,0.1278014642631169,146
1721471607972678700,-0.0052431613504886,0.0085638302057981,0.0031949966490268,-2.106741978114844,-9.576841127416492,-0.1270946220348589,0.0318805053830146,-0.5259027481079102,-0.0366066023707389,-0.1042532547749153,0.2543541985518687,0.6646683112989896,-0.6947311327085738,-0.0250693447887897,0.1406387239694595,-0.0759232342243194,0.002545592829585,1.855073155900836,-0.6733703859627247,0.0606910437345504,0.0838284716010093,0.0519188462437363,-0.0126992259174585,-0.0659094461720436,0.1737721472587436,147
1721471608052227600,-0.0243033972598612,0.0251806184858083,-0.391270769649744,-2.0799005868099627,-9.583432196244598,-0.0471676057291915,-0.0803354606032371,-0.2175333052873611,-0.0431990064680576,-0.0913798437481984,0.2387975664273547,0.6673684146779787,-0.6994603922950786,0.3169252872467041,0.0262958444654941,-0.0152660151943564,0.0161778123408555,0.7424182032257318,-0.212618083807826,0.0254969503730535,0.0653420686721801,0.0087828951961564,-0.0499990582466125,-0.0703815637845313,0.0878505073478911,148
1721471608092031200,0.0234245685987174,0.0264221429795026,-0.0789326578063424,-2.063433874525129,-9.58676806266904,-0.0805808177390135,-0.0274102538824081,0.3733623027801513,-0.0446575134992599,-0.0929817023979225,0.2397405290113785,0.6683060354594355,-0.69803001534986,-0.015880374237895,0.0412275493144989,0.09969013184309,-0.0338648602008819,0.4621750284343958,0.2158469644601456,0.0071142488159239,0.041998166590929,0.0652094081439077,-0.0933902338147163,0.0094003906277939,0.0521673913444392,149
1721471608171552000,0.0599376052208244,0.0047317046970129,0.0826525642454624,-2.0100147112876177,-9.596951018509268,-0.1695925052202306,-0.0002997899428009,0.5331746935844421,-0.0672989189624786,-0.1094411655329978,0.2533942230648864,0.6666619674905366,-0.6923697445326589,-0.045086994767189,-0.1003918424248695,0.0814191848039627,0.0149696055948734,-0.3937070568859577,0.1955313399285078,0.0732840299606323,0.012920556589961,-0.0230645031146705,-0.1562424302101135,-0.0334435340828495,0.0506799657982774,150
1721471608251101700,-0.0621012129954993,0.0552466709256172,0.1248246495425701,-1.9785067894764243,-9.602724341213705,-0.2087707059309817,-0.0136742908507585,-0.0138539271429181,-0.008797931484878,-0.1167824349280723,0.2590208358692415,0.6659974101712116,-0.6897227964079304,0.3614993989467621,-0.1279182285070419,-0.0514619685709476,0.3737339439153671,-0.3195551944822072,0.94663963008821,0.0382009223103523,0.0265864729881286,-0.0323709683813154,-0.1180495023727417,-0.0178231569786439,-0.0319225784431328,151
1721471608370424300,0.1168067627817392,-0.0026508067697286,-0.2004290488421916,-1.9925139797799287,-9.601240240135787,-0.1283247848843224,-0.0211711525917053,-0.4131110310554504,0.0133054358884692,-0.1053346874209387,0.2474797714166338,0.6673054066932269,-0.694522809361068,-0.2212934494018554,-0.0946222692728042,0.1355659663677215,-0.172138189381361,-0.204275787398219,0.3751145846188068,0.0495563223958015,0.0761959329247474,0.005134729685841,-0.1099881380796432,-0.0138043338083196,0.0312309589001815,152
1721471608410199000,0.0884729409620165,-0.0005249006569385,-0.2024491564929485,-1.9969509393140672,-9.600522447255251,-0.1119395403378643,-0.0077991723082959,-0.117988646030426,0.012209553271532,-0.1013516116562757,0.2436729852370248,0.6680799387200037,-0.6957157827199902,0.0595472753047943,-0.225600466132164,0.1786737591028213,-0.3655973992109299,-0.6307955650836229,0.277317058211565,0.0428591445088386,0.0720671415328979,-0.0075842851122928,-0.1082703694701194,-0.0169802718471386,0.0142982639382593,153
1721471608489747700,0.0116802086606621,0.0357768313020467,-0.166317520403862,-1.999765266082436,-9.599564415878056,-0.1402896557052619,0.0150976497679948,0.3813572227954864,0.0117305302992463,-0.1066482422972304,0.2494609572279016,0.667024746711488,-0.6938828243354362,-0.1210464760661125,-0.2273007780313491,0.2901612818241119,-0.1441740776568651,-0.1459872645586729,0.3943792570590972,0.0100276544690132,0.0660076066851615,0.0041436865216091,-0.0976069793105125,-0.0423195948758628,0.0481566852652002,154
1721471608529522700,0.0398119320370256,0.0482645569533109,-0.1012836332236416,-2.007247438531369,-9.597688685134052,-0.1604322252249345,0.0236030332744121,0.290500283241272,0.0344686731696128,-0.1110078538857691,0.2545403945456344,0.6658745787177958,-0.692457646766459,-0.2261004447937011,-0.2704174816608429,0.313746303319931,0.1230289982974529,0.1426367850869894,0.2246236154327169,-0.0034758825786411,0.1151542514562606,-0.1068351024714764,-0.0876444354653358,-0.1187316207639407,-0.0437254248194862,155
1721471608569297700,0.178992000798881,0.0438075775444507,-0.0439432048891671,-2.016691558703035,-9.595476269781589,-0.1737793989834375,0.0370147563517093,0.1257326751947403,0.0298407040536403,-0.1135214557952617,0.2578620017653203,0.6651071129473537,-0.6915581960609807,-0.2714362442493438,-0.1735447347164154,0.3334719836711883,0.1258943246006965,0.3885802153915166,-0.2086697115082293,-0.0146275125443935,0.0905877128243446,-0.0457693791367113,-0.0769125074148178,-0.0670116352602839,-0.0397147187402471,156
1721471608648847400,0.211379774184525,-0.1148737488925456,-0.2439677463173866,-2.017954564376175,-9.595708909493684,-0.1435929259011987,0.0175298862159252,-0.1958754658699035,-0.0060773082077503,-0.1123798597248826,0.2562870526343168,0.6645586117722184,-0.6928561163073019,-0.3497118651866913,-0.0556620843708515,0.2148270457983017,0.7421054840147495,0.4888987847089767,-0.0647709436614066,-0.0326466523110866,0.0645503923296928,-0.0592955627239309,-0.0720625445246696,-0.0669479269408853,-0.0403993765361607,157
1721471608688622000,0.0813948192693293,-0.0862029502034187,-0.2735737982963211,-2.0045374489203094,-9.598643209379912,-0.1352355049876961,-0.0122843943536281,-0.1470911502838134,-0.0089578963816165,-0.1103940464684068,0.2532974238984208,0.6653837291860591,-0.6934826457192058,-0.3105064034461975,-0.0503881722688674,0.2336157113313675,0.0886111803889274,0.5164280121475457,0.3101894733089953,-0.0032819146290421,0.0302901100367307,0.0019540332735137,-0.0776759982109069,0.0165269751216866,-0.0370663573726429,158
1721471608807946800,0.0092696403875946,0.0309726458907127,-0.0179273046229965,-1.9785006519965824,-9.60284241463542,-0.2033864190767519,-0.0015130755491554,0.2940133213996887,-0.0069088279269635,-0.1145524538427793,0.2567646625318345,0.6666646307123129,-0.6902956456874032,0.1217240914702415,-0.0735754072666168,0.0519110895693302,0.0471522117972373,-0.3444663483768701,0.4092939175963401,-0.0756143555045127,0.0410875305533409,-0.0510038320243591,-0.051698300987482,0.036548443578917,-0.0606232904966222,159
1721471608887496400,-0.1662641827814281,0.0736363140970468,0.184092831069231,-1.962779643512517,-9.605102760782838,-0.2446962432550266,0.0292625166475772,0.0903996974229812,-0.0082540232688188,-0.1208446673646046,0.2625523804600257,0.6659897026469578,-0.6876921595063784,0.0394766256213188,-0.0824072510004043,0.0313385054469108,0.1622626920551061,-0.0972732102721929,0.345382294178009,-0.0347515940666198,0.0267334040254354,-0.0566820557572878,-0.0445838160812854,0.0187224302061949,0.0498980901390081,160
1721471609006914600,0.148993460637331,-0.015546528699994,0.09330258960817,-2.010036192467064,-9.5967224704504,-0.1817383586312644,0.0433781407773494,-0.0852533653378486,0.0236286949366331,-0.1159634318739324,0.2599007047263553,0.6646184626037903,-0.6908590923690079,0.0509468615055084,-0.0744037628173828,0.1543622314929962,-0.0948760860025882,0.0947241103112697,0.4510849676866084,0.0200686510652303,0.0097637511789798,-0.0455294009349541,-0.0381949990987777,0.0457503821752965,-0.0339626100704888,161
1721471609046692900,0.2173871979057788,0.0446586414158344,-0.0665185910463333,-2.0178267002128063,-9.595428338986634,-0.1628762939088046,0.0371060632169246,0.022862808778882,-0.0083100395277142,-0.1155388872896305,0.2596728279382942,0.6639837367467679,-0.6916259674233937,-0.0292233433574438,-0.0231333300471305,0.1130781695246696,0.2377700607210397,-0.0198854346871376,0.1646282521426677,-0.0143642630428075,0.0047914898023009,-0.1127208999739028,-0.0622521005570888,-0.0206805374374496,-0.0522785464016022,162
1721471609086471400,0.1085753794007003,0.0212894562661647,-0.0307119673942215,-2.005232153186202,-9.598246903538705,-0.1519956381279975,0.0432767793536186,0.1276729702949524,-0.0283306762576103,-0.1171634088668982,0.2601532470730378,0.6633776516941177,-0.691753702993109,0.0193660296499729,0.0277717150747776,0.0735856965184211,0.1649994235426187,-0.0430079515993595,-0.1613843017853796,-0.0259136296808719,0.04004617780447,-0.0925734168170951,-0.080281913280487,0.0082243131777911,-0.0457515283861896,163
1721471609166028000,-0.0844878168486058,0.0605003536701202,-0.0369651643037796,-1.98514973462224,-9.602591070222854,-0.1408039162371773,0.0434600450098514,0.0675619170069694,0.0180170126259326,-0.1219298283408776,0.2631181828413527,0.6617762639217758,-0.691342325705481,0.0626376047730445,-0.0213188659399747,0.0869277939200401,-0.1194382803291082,0.1573842723637819,-0.1679961211405694,0.0044779605232179,0.0142604149878025,-0.0861360041807405,-0.0704055875539779,0.005437961832559,-0.0392314744011033,164
1721471609245584600,0.1541755394503474,-0.0511164392530918,-0.040030397093296,-1.9981597305819392,-9.600209728044272,-0.1170893973817117,0.0298780687153339,-0.0536289736628532,-0.011127782985568,-0.1213576270375726,0.2630065723748171,0.6609065296616592,-0.6923167041408332,-0.0379478558897972,-0.0675669983029365,0.0420590601861476,0.080939330586791,-0.1413157656162977,-0.1573953052144497,-0.050068337470293,0.0315739139914512,-0.1048530161430127,-0.0149401556700468,-0.0617011031954316,-0.077576886682678,165
1721471609285363000,0.0970246423386037,-0.0087087916344404,-0.1258569243329111,-1.9927835905015467,-9.601468203672766,-0.105033669939544,0.0189907047897577,-0.0472742766141891,-0.0145944766700267,-0.1209364802765515,0.2620012680351827,0.6608407994602927,-0.6928342220526627,0.04895880818367,-0.0286656208336353,0.0167365260422229,0.1227343992650508,0.0117892219930887,0.2076512551806867,-0.0462829135358333,0.0401880703866481,-0.0259054986942559,0.000536628300324,0.0198940449685673,-0.0221876243820181,166
1721471609364918800,0.0865237065903842,0.0018599486529827,-0.0653180013512261,-1.976446934337169,-9.60470470137596,-0.1170901006346102,-0.0126634053885936,0.078533686697483,-0.0122483056038618,-0.1219152334654711,0.2620441986937215,0.6612887203310833,-0.6922187809837625,0.3811010718345642,-0.021614795550704,0.0384356938302516,-0.234218505719304,-0.1512590674817562,-0.1034733800865709,-0.0068658581003546,0.0270240306854248,0.0296378170903772,0.0070958500728011,0.0450393797951517,0.0884518799076788,167
1721471609484254000,0.0594163578256964,0.0326169059664011,0.0172246910452842,-1.9631059528574344,-9.607178982535004,-0.1367853921776637,0.0187611170113086,-0.0341514348983764,0.01038633659482,-0.1244598845520058,0.2639429131068004,0.6612928644197127,-0.6910395061400759,0.5805185437202454,0.0712539479136467,0.0641101002693176,-0.1530547187268734,0.1678618272364139,-0.2928010430693626,0.0444623455405235,0.0234458800405263,0.0631276014677481,0.0031880745664238,0.042125606673723,0.0963412357848603,168
1721471609524032000,0.0821016523644328,-0.0161427410274744,-0.0100456114624626,-1.964393216188997,-9.60705331032872,-0.1268728964424226,0.00267806625925,-0.0913502424955368,0.0028837523423135,-0.1236332507774005,0.263046714596421,0.6612678304282402,-0.6915534790435738,0.8994619250297546,0.0025695827789604,0.0277415737509727,0.1188280394762754,-0.3687760292470455,0.1581669471740722,0.0378376208245754,0.0143128558993339,0.02061494540493,-0.0334885418415069,0.0026589289982133,-0.0051507446723029,169
1721471609603588900,-0.0012983692474663,0.0273421804338693,0.0057984571456909,-1.955961487930268,-9.60893722437918,-0.1136871603233274,0.0169112291187047,-0.0226584784686565,-0.0074548730626702,-0.1221489790152365,0.260791207757131,0.6616527623905712,-0.692302826584238,0.0041178353130817,-0.1417213827371597,0.1545715630054474,-0.1592465591043233,0.5468173051923513,0.1769558370624668,0.0578524991869926,-0.0015191460261121,-0.0254579558561556,-0.0645720437169075,0.016778963421646,0.1026389842221979,170
1721471609643367200,-0.0466628208450973,0.0165396313905715,-0.0013385551273822,-1.9504006389327344,-9.610105683636665,-0.1104404152207542,0.0087277647107839,0.0258156359195709,-0.0037570430431514,-0.1224368110150433,0.2606206451261922,0.6615948709197422,-0.6923715558620992,0.2283658534288406,-0.2203283756971359,0.2012571692466735,-0.2920312277406454,-0.2777016736149788,0.4579810473432764,0.0636670961976051,-0.0070733749307692,-0.061689015465416,-0.0641352087259292,-0.0167254271531011,0.011559646454337,171
1721471609722923800,-0.0524887505196034,0.0174281046628952,-0.0166892689943313,-1.9492134749747807,-9.61054524409771,-0.091498508461425,0.0341905429959297,-0.0141187757253646,0.0068389582447707,-0.1233976021300476,0.2610895734537863,0.6606794687768054,-0.6928981793466483,0.8529916405677795,-0.2755405604839325,0.2177034616470337,0.0249579156458377,-0.2586211255699396,0.0039419790914282,-0.0016976519254967,0.0272358674556016,-0.0344808275416027,-0.0677367895841598,-0.0256014879461145,0.009036366492082,172
1721471609762702300,-0.0255363000556826,-0.0266214649438858,-0.052556710322434,-1.9544686190240084,-9.60959247341752,-0.0786749475850723,0.016048489138484,-0.0318193919956684,0.0047864844091236,-0.1229522287266668,0.2607782862006857,0.6603074977283888,-0.6934490217795863,0.9673344492912292,-0.278134673833847,0.2568614482879638,-0.2103752733170986,-0.3076934917747974,-0.433414213374257,0.020077547058463,0.0063472553156316,-0.0504285163544351,-0.0730209350585937,-0.0158188337021972,0.0570958333231043,173
1721471609842258000,0.0079353230439126,0.0050333179920911,0.0146668141228612,-1.9536732308626168,-9.609674306482075,-0.0879896783565636,-0.0119125489145517,0.0933155119419097,-0.0065496237948536,-0.1235918424585035,0.2615131931747191,0.6603764644192898,-0.6929927821221654,0.3438626229763031,-0.3769665062427521,0.1495453715324401,0.1507937880575657,-0.8203554293870925,0.7741162407815456,0.0126648321747779,0.0699783638119697,-0.0527023202050477,-0.0822226405143737,-0.0784829138780012,-0.0377719095428241,174
1721471609882036200,-0.028428222104907,0.0763239457458257,0.0733317781925201,-1.952923143147677,-9.609735681280494,-0.0972730824080295,0.0146727906540036,0.1301807612180709,0.0043725073337554,-0.1251758927688631,0.2631523914892606,0.6600836051391069,-0.69236660153602,0.6021623015403748,-0.2372448742389679,0.1733122318983078,0.1885463033467531,-0.0254044903695583,-0.2479389880359172,0.0055153714492917,0.0478132478892803,-0.0359673900046618,-0.0767639428377151,-0.0683743886805837,0.034424960035365,175
1721471609961592800,-0.0159198920570313,0.0154120886653661,0.0257283154964447,-1.96872364660874,-9.606434301647544,-0.1045869947511237,-0.0185606218874454,-0.0063814083114266,0.0327624604105949,-0.1265132369560334,0.2656558972297098,0.6593628721286601,-0.6918540179104292,0.1500502824783325,0.1504009664058685,0.3404095470905304,0.1292173315435648,0.3225719119548797,-0.9305734614282846,0.0482280664145946,0.0253652520477771,-0.050768210337311,-0.057463202625513,-0.0388251038236077,0.0616661095138639,176
1721471610080768000,0.0383680168390274,0.0016875146955251,0.0729986098485533,-1.9845545452080664,-9.603184359940888,-0.103824129753001,0.0040170811116695,0.0494157783687114,-0.0051040360704064,-0.1250175589060634,0.2653024977049552,0.6594756568186186,-0.6921539111445838,0.2337997704744339,-0.2666376531124115,0.1119705662131309,0.0962614028811454,-0.1638327178508043,0.357042336833477,0.0011912122135981,0.0201278757303953,-0.1797565736969001,-0.1179730370640754,-0.0958600920712575,-0.0744870720077538,177
1721471610120540700,-0.0902295753709971,0.0418225412070751,0.0339081148207187,-1.9816526862867176,-9.603815059059858,-0.1009460170334205,0.0222967006266117,0.0569950304925441,0.0054626045748591,-0.1259786188082703,0.2659619931502293,0.6590986518326698,-0.6920857400446803,0.1179831475019455,-0.2231762558221817,0.0979948341846466,0.1215641864418983,0.4500952990621328,0.0136024111781851,-0.0173966381698846,0.0653697699308395,0.0133703582712681,-0.0550513938069343,0.0086849295557738,0.0045772425043745,178
1721471610200085800,-0.0470706709936261,0.0669657502919435,-0.0401823727846145,-1.990993346083909,-9.601873861864208,-0.101824233773211,-0.0273803379386663,-0.0216898862272501,0.015096241608262,-0.1261246352705658,0.2667593484379824,0.6588103226808715,-0.6920268146036866,0.2656647562980652,-0.2075398117303848,0.1392597109079361,0.1275917761683464,0.1370721366971731,0.0023708299177233,0.0048415190540254,0.0115670021623373,-0.0509240310866851,-0.0221644453704357,-0.0300764642359688,0.0655587010721908,179
1721471610239857200,0.0207661630444228,0.0199497320950031,0.0418131979899946,-1.9980773129954927,-9.600347090688349,-0.1067565299430862,0.0009307088330388,0.0176490303128957,0.0089089917019009,-0.1256778004542307,0.2669176650058007,0.6589370441437328,-0.6919262964076902,0.2956120073795318,-0.1367820352315902,0.1552422046661377,0.0528992310166358,-0.0020510873109102,0.0251671744823455,0.0027723021339625,0.0211457852274179,-0.0275478864732664,-0.0649474710226059,-0.0141302093283971,0.0070935550113703,180
1721471610319402200,-0.0742933167010545,0.0280079508662223,-0.0252525238113943,-2.0085126361615955,-9.598231705969573,-0.1011910869688261,0.0205374676734209,0.0437557622790336,0.0220005512237548,-0.1268854688714855,0.2686722444558175,0.6580080049241295,-0.6919110720167332,-0.0341744273900985,-0.1200242415070533,0.0915984511375427,0.220268306300044,-0.0335597397744655,0.1960404584944248,-0.0181855354458093,0.0248103477060794,2.80507716612e-05,-0.0712272822856903,0.0405035538632655,0.0032149006468505,181
1721471610359167700,-0.0342949221812188,0.0156219320237636,-0.0415805491447448,-2.016937204027176,-9.596468787950275,-0.1007242640415206,-0.0090933609753847,0.0543161481618881,0.023311074823141,-0.1271974961193744,0.2695370609436461,0.6576361310519608,-0.6918709053819688,0.1314249336719513,-0.140768826007843,0.0555828586220741,0.2593576231509447,-0.154471015265584,0.3002648030787706,-0.016485596075654,0.0172693226486444,-0.0615051376653369,-0.0849458277225494,0.0150294848392368,0.0108819572553271,182
1721471610438712800,-0.0005922668047249,0.0854249515682458,0.0418576033873017,-2.0428589962691066,-9.590855624243616,-0.1123367686276789,0.0217304620891809,0.0745297074317932,0.0402709357440471,-0.1283115328549768,0.2726048462829676,0.6568212688134679,-0.6912370411131517,0.5341100096702576,-0.2139723151922226,0.1190652325749397,-0.2323608951538801,0.2121796923905611,-0.427004346331954,0.014654079452157,-0.0248084105551242,0.1155381950174923,-0.0913254246115684,0.1149749716441612,0.0053939491608965,183
1721471610478485200,0.0182204240843653,-0.0276981542646884,0.0016448354644235,-2.0577811094604432,-9.58771615717411,-0.1078878081284929,0.0230284426361322,0.0477393418550491,0.0397094674408435,-0.128650804111861,0.2738585833192829,0.6561266825835241,-0.6913380662574903,-0.1204491257667541,-0.1676660776138305,0.1803501695394516,0.052171501263976,0.3747954356670379,-0.3866091710468754,0.0492898598313331,-0.108116790652275,0.0585164452773286,-0.0921258181333541,0.1106911203125026,0.0598623160614864,184
1721471610518258000,-0.0195456813387572,-0.0173187990695238,0.0443850760383065,-2.072388019222766,-9.584628128030896,-0.1025944144281092,0.028788473457098,0.0708355829119682,0.0418983586132526,-0.1289942209857132,0.27507607123785,0.6554113321572826,-0.6914692983755314,0.1331567764282226,-0.1404251158237457,0.1455826610326767,-0.0377887556463479,-0.4373381088197231,-0.0466372662787325,0.0640835240483284,-0.0974945873022079,-0.0692452486644033,-0.0666563585400581,0.0067978531505592,0.0290728104686248,185
1721471610637575400,0.0990827439121902,-0.0523918660163879,-0.1555658247649669,-2.1173945972934365,-9.574992284679412,-0.0810109893172048,0.0222417451441288,0.0758077278733253,0.03412402048707,-0.1311497271890214,0.2797447588492815,0.6525896725725913,-0.6918593989283219,-0.4133614301681518,-0.3135074079036712,0.2772000730037689,0.0221872818887233,0.3191881147354841,0.8805880720317363,0.0329870693385601,-0.0548994056880474,-0.1592132961555384,-0.0455401316285133,0.0370581329669919,-0.0661005254644667,186
1721471610717119500,0.0430897846639156,0.0222808053910732,-0.176433256226778,-2.1291874725483355,-9.572302314943077,-0.0893239043687004,0.0161180943250656,0.0914140045642852,0.0212014652788639,-0.1332942404046758,0.2827429388756183,0.6516215788432475,-0.6911428339430463,0.2253849804401397,-0.4824382066726684,0.2470693886280059,0.0980424410790204,-0.0630225656241178,0.1323860247075557,0.0450066551566123,-0.0178890079259872,-0.1458990291527938,-0.0318611487746238,-0.0352640457745874,-0.0679530853954376,187
1721471610796664600,-0.0017544424518942,0.0744903005778789,-0.123286187928915,-2.1479393731608987,-9.56794879590869,-0.1053603537437971,-0.0050213853828608,0.0245165918022394,0.0415532030165195,-0.1343344102102834,0.2853366472825777,0.6511181773729338,-0.6903494824621103,1.724907398223877,-0.1489240676164627,0.3408258557319641,0.2190156758904457,-0.8934960689216852,-0.1927098527669906,0.0685120522975921,-0.0145455561578273,-0.1747495957224629,0.0034160988871008,-0.0604122369952499,-0.0361486260397941,188
1721471610876209400,0.0403702965721488,-0.0135059627830982,0.0227998608291149,-2.177793828676641,-9.561056113785504,-0.1175200804165564,0.0097040347754955,-0.0235476866364479,0.0280639305710792,-0.1327479642672546,0.2861288685954404,0.6512465947914492,-0.6902073313208966,0.3976411819458008,0.0424405671656131,0.2993462681770324,-0.1265557111188769,0.2726373759627342,-1.3043500754415989,0.0380520708858966,-0.0115947108715772,-0.0853849300851114,0.0272167827934026,-0.0788088030978105,-0.0619093117191689,189
1721471610995527200,-0.0122416419357061,0.0288467397779226,-0.1384311500906944,-2.183091788954288,-9.560013911256194,-0.1030832847904413,-0.0129728717729449,0.0369621999561786,0.0116315502673387,-0.1323694289285489,0.2858291003193975,0.650812961104662,-0.6908129469201753,-0.6746223568916321,-0.2002213448286056,0.2108526825904846,-0.1023062360033392,0.0968389105081558,0.5901040006678551,0.0269900560379028,-0.0391985103487968,-0.0362229356683092,0.024335604161024,0.0301300027878023,0.0486399341709213,190
1721471611035299300,0.0749262077771127,0.0770931765526533,-0.0356032283008098,-2.184816274659336,-9.55947848920524,-0.1155312355537433,-0.0044373613782227,0.0751131102442741,0.0073220864869654,-0.1329334148889331,0.2867401081749828,0.6508998110327603,-0.6902451326346167,-1.3331427574157717,-0.4135931134223938,0.1127967461943626,-0.1082885252833366,0.109600776925683,0.6900538097381591,0.0390397682785987,-0.0314767770469188,-0.0824597816197201,0.0232525561004877,-0.0106357159928535,0.0206029786892118,191
1721471611075070700,0.0858959300808608,-0.0005634791016578,0.0710568007315508,-2.185461294564605,-9.559185643738507,-0.1270209996762219,0.0040553794242441,0.0773389115929603,-0.0018048958154395,-0.1339195761774045,0.2879574130619801,0.650812413004864,-0.6896298896269402,-2.064383745193481,-0.4168995916843414,0.2106527984142303,-0.5056494285017251,0.2994762830495834,1.1799825220167637,0.0129795698449015,-0.0099169444292783,-0.0321870951478136,0.006781602744013,0.0139317572969826,-0.0326002676421427,192
1721471611154615600,0.0186323658861219,0.0202092598140239,0.0216530380147043,-2.1862826939500866,-9.559157002165913,-0.114278970470326,0.0093911029398441,-0.1342635601758957,0.0201007332652807,-0.1333232222456693,0.2871810654868739,0.6506563161710947,-0.69021608713855,0.3732812404632568,-0.0221768822520971,0.2144845575094223,0.3097448713466525,-1.360469437548518,0.9676000005304812,0.0439668409526348,0.0048921108245849,-0.0417254146752646,-0.0078076170757412,-0.0195754896718426,0.0187643536687595,193
1721471611273933000,0.0567906854972243,-0.010274141255021,-0.0335316827237606,-2.1979551576957106,-9.556806055125591,-0.0827366805986501,0.0128408428281545,-0.0261645279824733,-0.0103969499468803,-0.1283738562485991,0.2826561439899808,0.6514014897507858,-0.692316257704163,-0.6613973379135132,0.0786985456943512,0.2227466106414795,0.0686366061136126,1.6022586707830428,0.1769353422637097,0.0223880372941494,0.0216731764376163,-0.036882404224039,-0.0049684043042361,-0.0390133838041685,-0.078723892160179,194
1721471611393247500,-0.1825419483654201,0.0938467429548502,0.0873626416325569,-2.181283132097125,-9.560520107212662,-0.0940968087257817,0.0131197646260261,0.0111416261643171,0.0087960669770836,-0.1304511602452869,0.2837109779386123,0.6513875059327311,-0.6915091716680218,-0.344015896320343,-0.213461771607399,0.0725310817360878,-0.5849602811038493,1.638713547477126,-1.992218796225637,0.060268111526966,-0.0157583151012659,-0.1088607996128033,0.0016708521870896,-0.0049993009872356,0.0068782192021695,195
1721471611512564200,0.1140587792478501,-0.0513373885273933,0.0090402064127381,-2.2112300882019102,-9.553751928251982,-0.0817642827693838,-0.0151190683245658,0.0251601655036211,-0.0100813955068588,-0.12709203842832,0.2823352416286706,0.6515025937622592,-0.6925885291336414,0.9615673422813416,0.4701114296913147,0.1485248506069183,0.3409834746971726,0.8486509650230407,-2.0463912620484828,-0.0140934968367218,0.0092074899002909,-0.0428722785888705,0.0426885075867176,-0.0393421134350355,0.0395826715921051,196
1721471611592109300,-0.0287207753106951,0.0591086070507764,0.0196364283621311,-2.1911529303349555,-9.558253331324458,-0.095053625393426,-0.0131212845444679,0.05226606503129,-0.0208546407520771,-0.1296629881219133,0.2836610174413796,0.6514467078996787,-0.6916221279384103,-2.017611503601074,-0.2524735629558563,-0.4320485293865204,-0.4665913835719227,0.4379939423799514,3.2309950141251087,-0.051130149513483,0.0279654078185558,0.0563504857153631,0.0144406491890549,0.0219056884683668,0.0943914625571109,197
1721471611631881700,-0.1080466793514788,0.0038449849903583,0.0804851570785045,-2.181408658172935,-9.56045054910779,-0.0981420107296667,0.0015138057060539,-0.0031394357793033,-0.0185366980731487,-0.1302664268569049,0.2836296135065382,0.651581224701523,-0.6913948341388522,1.0278332233428955,-0.3194505870342254,-0.3969391286373138,-0.2087830356895923,-2.117134192791581,1.9869816262245177,-0.0089081274345517,0.011386296711862,-0.0086469978525594,-0.0073628537356853,0.0847637659794651,0.0447612798064015,198
1721471611751199200,-0.0526437949508428,-0.0117237555414438,0.0127753195541445,-2.188328958955407,-9.558947158807516,-0.0901379789642524,0.0044824257493019,0.0012408569455146,-0.0011245956411585,-0.1286450323234005,0.2824079369785127,0.65179867687531,-0.6919932454435226,1.751524806022644,0.0993368700146675,0.0121008958667516,0.3699707919895649,-0.7242120999276638,-0.801741914331913,-0.021928371861577,0.0255136042833328,-0.0175620218244264,0.0224656984210014,0.0162619560935068,0.0805555463004391,199
1721471611870516700,0.1051113565519452,-0.0244318459451198,-0.0296668239891529,-2.197793099001795,-9.556714285188912,-0.096477338053612,-0.0029354630969464,0.021078273653984,-0.0048817191272974,-0.1280269797067648,0.2826019554716656,0.6519625067040485,-0.6918743946209197,0.2332578152418136,-0.5240327715873718,-0.0073100202716887,-1.2054030867382883,-1.3458189809054135,1.4754162516772746,-0.0329423286020755,0.0228498987853527,0.0515274038073141,0.0042125955224037,0.0182127431014087,0.0553753296734299,200
1721471611950060500,0.006670125413686,0.0619376929968595,0.0257154560148715,-2.180305957628041,-9.56063350445926,-0.1045740348048508,0.0151257487013936,0.0304946154356002,-0.0151093872264027,-0.1293267236516561,0.2828018686104918,0.652192375974224,-0.6913340844711575,-0.0203225258737802,-0.197551354765892,0.1743814051151275,0.3903454714983701,0.8585171099990606,-0.921093173964694,-0.0282499212771654,0.0112027488648891,0.003392619846668,-0.0054876734502613,0.0419271523590199,0.070834527149843,201
1721471611989833200,-0.0853796511217951,0.0108563250571489,0.0010579754871781,-2.1787869313672186,-9.561028641256687,-0.1001176216515712,0.0179802272468805,0.0156407803297042,0.0101389456540346,-0.1298923289930907,0.2831392784986852,0.6518717105073046,-0.69139243419509,0.2078784257173538,0.020648717880249,0.2120851129293441,0.3840349731773138,-0.5485381376355886,-0.5258241284590214,0.0104711651802062,0.0114316334947943,-0.0229285994920297,-0.0027618343010544,-0.0190613364544929,0.1832917620857246,202
1721471612150229800,0.0515308652728795,0.0427957701534032,0.0478150596201419,-2.197034827980399,-9.556904254803062,-0.094950521211978,0.0287878960371017,0.0877879038453102,-0.0153982928022742,-0.128396408347651,0.282866778187289,0.6517879370931446,-0.6918622045162475,-0.5848314762115479,-0.4054777920246124,-0.5929626226425171,0.2793456414297223,-0.740739456358552,3.625914369410276,-0.0262353662401437,-0.0002047957386821,0.0760585408418672,0.0060378769412636,0.1175600105681456,0.1158111484736669,203
1721471612269554200,0.078741382151097,0.0177057525604963,-0.1416635561406612,-2.2023982547096908,-9.555905306893589,-0.0670809102373663,-0.015107475221157,-0.1605591922998428,0.0106359953060746,-0.1271636301586348,0.2814991196808347,0.6512898127378518,-0.6931156096356363,-0.0904209241271019,0.1394149959087371,0.1831891536712646,-0.3473986024364829,0.9538041148900984,-0.2296481290638446,-0.0084672840312123,0.0281113032251596,0.0067771168940293,-0.0276246406137943,0.0202199204886448,0.0019497772235044,204
1721471612309329200,0.103968323996663,-0.0102624508172273,-0.1281049863874912,-2.205029918387532,-9.5553207850039,-0.0637298005780205,-0.0192413534969091,-0.095850259065628,-0.0102324932813644,-0.1251335921546022,0.2797024432370711,0.6519324035071855,-0.6936081136426726,1.1801114082336426,0.039434976875782,0.1056289821863174,0.005632160668075,-1.430840027847886,0.4621785355657339,-0.0276012402027845,0.0251315236091613,-0.0643741902956273,-0.0116735389456152,0.0278635145939653,-0.0652005352842854,205
1721471612388873500,0.0120227384880185,0.0396697470873594,-0.030033903735876,-2.1873044382132587,-9.559165185472368,-0.0919204236679244,-0.0197640508413314,0.0648481398820877,-0.0264446884393692,-0.1260007297995714,0.2798824142335518,0.6529567149038616,-0.6924140463772267,-0.5840791463851929,0.4191657304763794,-0.1177380606532096,-0.033128070358932,0.726067372405529,-1.5281418796926736,-0.0487652570009231,0.0600871220231056,-0.0384686916013713,-0.0190514624118804,0.0079694679129315,-0.0430129109022673,206
1721471612468423200,-0.1158781036294996,0.0743622902840375,-0.0008253449082374,-2.1789641876302657,-9.560937455841898,-0.1048185019520577,-0.0295980460941791,-0.0686905607581138,0.0125414161011576,-0.1261607175700324,0.2797266905891843,0.6535267668532249,-0.6919098739184681,0.6541134119033813,-0.0129066854715347,-0.5319119691848755,-0.0717959469273686,-0.469313794273138,2.027605897557735,-0.0430378653109073,0.0012362044071778,-0.0128187362874741,-0.0226967111229896,0.0865798115586396,-0.006610305534827,207
1721471612508198100,-0.0546982432626187,0.0695879154890775,0.0282195477902889,-2.189716175530106,-9.558407645103337,-0.1112681347491685,-0.0414324030280113,-0.0822928324341774,0.0263222325593233,-0.1244908984832869,0.2790155853213926,0.6540821042888633,-0.6919746900670203,1.4367146492004397,-0.0505169667303562,-0.472925454378128,0.0989306220903992,-0.747414111816883,0.3645610419005155,-0.0191755201667547,0.0249975770711898,-0.0761501418151892,0.0141922803595662,0.0358301255419966,0.0342305174587876,208
1721471612587747600,-0.0027481296643614,0.0086100074350833,0.0425753871346823,-2.209344712846726,-9.553844282710552,-0.1151491043683607,-0.0063508544117212,-0.0398293398320674,0.0037275305949151,-0.1221697889994811,0.2782437245570245,0.6545619911113358,-0.6922453780440941,0.6326594948768616,0.1436014771461486,-0.3707995414733886,0.1115636014312505,-0.4591752620965242,-0.5346842381976544,-0.0076113948598504,0.0480438135564327,0.0370662797408294,0.0746985450387001,0.0707682980797952,0.0780462029611691,209
1721471612627522600,-0.0456855002455413,0.1156622689217329,0.0599006433444563,-2.2117472439438104,-9.55330535352826,-0.1136202143006492,-0.0103061022236943,-0.0176648497581481,0.0057875500060617,-0.1216748210376179,0.2779095694951156,0.6546443996738807,-0.6923887722546612,1.2199357748031616,0.0992133542895317,-0.4169078767299652,-0.4227449353218078,-0.592454436251521,-0.1995348764814436,-0.0194663647562265,0.0077197314240038,0.0110049557306221,0.0603588633239269,0.0994109803527127,0.0597511655709007,210
1721471612707072000,-0.1099227023564279,0.0411281292021274,0.0310860522704664,-2.229810870031267,-9.549250525179504,-0.1006673188230488,0.0191318616271018,-0.0520067140460014,0.0295443013310432,-0.1204156264477168,0.2776976542378003,0.6542297895735683,-0.6930854438493451,0.933064341545105,0.0528355203568935,-0.3826359510421753,-0.2161561948060989,-0.077144029957056,0.2332084518939256,-0.0378775298595428,0.042159304022789,-0.0039797395479952,0.0447075217962265,0.0972053509340621,0.0876699996818322,211
1721471612746847000,-0.0302187587834894,0.0472346293836832,-0.0136345575988292,-2.2439735431574284,-9.546080078449846,-0.085575602952158,0.0190221965312957,-0.0605795197188854,0.02416567876935,-0.1192494218610475,0.2772663774269127,0.6538245156601518,-0.6938418041671514,0.5614873170852661,0.134847417473793,-0.3033154308795929,-0.0040863925307989,1.1957184358090165,-0.4390665400475263,-0.014243496581912,0.0097603276371955,0.0889614277318585,0.0167837068438529,0.1524908742990344,0.1320661451034248,212
1721471612866170400,-0.115533381845057,-0.0213508310645818,-0.0493465024045435,-2.26131031627506,-9.542137478303909,-0.0667720817502122,0.0200019292533397,0.1214144825935363,0.027985643595457,-0.1195445996280441,0.2783556045211177,0.6526274482718853,-0.6944815234189948,0.1492609232664108,0.1738088279962539,0.4737105965614319,-0.24998539917171,2.6783471030831336,-0.3573749297887086,0.0299784634262323,-0.0154654895886778,-0.0356713114012265,0.033071257174015,0.125394741048105,0.0466068711404688,213
1721471612985494800,0.1971928433999419,-0.225932323411107,-0.1157224746763706,-2.304987983829528,-9.53178559563756,-0.0496269815800478,0.0541169717907905,-0.1206927970051765,-0.0042258063331246,-0.1188072386218039,0.28030664946033,0.6511209213183078,-0.6952370181292876,-0.3957885503768921,0.1489831507205963,0.2671754658222198,0.4075023580044508,0.3591729191213846,-0.7974398332238197,-0.0053625488653779,0.0784852430224418,0.0541645017120987,0.2920994460582733,-0.0696473586253123,-0.4067745186539366,214
1721471613065044500,-0.0930788273222744,0.0844786106288433,-0.570100565624237,-2.29199493900463,-9.53499052915871,0.0330512696625199,0.143546923995018,0.0086159436032176,0.0477789938449859,-0.1170482024274059,0.2761412678235401,0.6496621078866354,-0.6985591119617889,-1.251619577407837,0.5122798085212708,-0.2455819845199585,1.2022320554867385,1.187674830085039,0.211140996992588,-0.1646649837493896,-0.001435124897398,0.3104271545223891,0.5493128299713135,0.1406576670337468,-0.0916496804351452,215
1721471613104819200,0.2179908628873527,0.0693809947401285,-0.7625503061503172,-2.3118699984282256,-9.53007002389133,0.0585054078600835,0.1110960394144058,0.2648147046566009,0.0729511901736259,-0.1189526098538016,0.2787596644102877,0.6475415846112892,-0.6991661602762763,0.0270132981240749,0.1106692105531692,0.1920476257801056,0.0237748433411121,-0.535019899892807,2.242123385246098,-0.1862469911575317,-0.1176724508404731,0.335937516419217,0.5899566411972046,0.3552854101635515,0.2280840580848976,216
1721471613226680600,0.1001097488723695,-0.0633498978823423,-0.5530588299304247,-2.292600065290928,-9.534256369665265,0.1110293940898496,0.1668852120637893,0.0304074119776487,-0.0632626339793205,-0.1287343440701596,0.2854208723575234,0.6425527230720066,-0.6993485525271093,-0.1374880224466323,-0.0689277201890945,-0.0258181914687156,0.0124669751241803,0.4356815737843513,-0.5213628382012248,-0.2213293313980102,-0.0517447292804718,0.1383110673749819,0.6027583479881287,0.1686833727523684,0.49819429019019,217
1721471613346006000,0.895859290921688,0.3048807724416256,-0.6410480790287256,-2.2322727301001546,-9.549192657512426,0.0164607688845251,-0.074486419558525,0.6945048570632935,-0.063117392361164,-0.1426754801093348,0.2962174957364575,0.641417126020811,-0.6931688168553551,0.4330087602138519,0.069238893687725,0.1599379479885101,-0.7067898404836654,1.1478034229457377,0.1241504035428166,-0.2190297842025756,-0.107591837644577,0.1603683662084862,0.4908149838447571,0.072241338907578,0.857200985899195,218
1721471613425559800,0.6712978174723684,-0.2065115836262702,0.2599462366938591,-2.1331074224710465,-9.570659808433057,-0.1507108590144664,-0.0583124347031116,0.3606534302234649,0.0123766297474503,-0.1624783649509922,0.3118333043496332,0.6406591179488511,-0.6825808899480542,-0.0964143648743629,-0.3218151926994324,0.5531603693962097,-0.7541834598213434,0.6329658948600292,0.861727888739109,-0.0236013773828744,-0.2264153212308883,0.8384713701836765,0.4830242693424225,-0.0938041915879119,0.9747972185581922,219
1721471613465336600,0.8017059662356972,-0.9665291564285756,0.729873778951168,-2.175528660223633,-9.561224456089734,-0.1429945855487138,0.1955391615629196,-0.1306072324514389,0.0942939966917038,-0.1625741234017648,0.3145765415777624,0.6390088374803504,-0.6828462045842697,0.0757406204938888,-0.577711820602417,0.8438951969146729,-0.0073339961498975,-0.5494184276014566,0.6943214040547608,0.0962575823068618,-0.138048455119133,1.0664542694490402,0.4565314948558807,-0.1750486334679648,0.8837834340069443,220
1721471613544890000,0.5473967125155031,0.4329202923774718,0.5600175630271435,-2.1067701812960204,-9.574431143665311,0.249371998247411,0.6632301807403564,0.4083055555820465,-0.0858898237347602,-0.172284349822745,0.3096394379000064,0.6256268738274253,-0.6950054643791791,-1.2457371950149536,-1.2012726068496704,2.1129860877990723,-1.1082552564114332,2.729665786910057,2.236733216640353,0.1079635322093963,-0.334057867527008,0.4010622784869745,0.5418137311935425,-0.0435631332301301,1.3156000759914517,221
1721471613664219600,1.042723046053946,-0.1530775150805711,-1.4441894848950207,-1.967932057839632,-9.539397824206947,1.139078264698386,0.4786323010921478,-2.10893177986145,-0.051512986421585,-0.1483255944181941,0.2609056766946711,0.6114338889181767,-0.7321722948818303,0.5182996392250061,-1.5101697444915771,4.587338447570801,-1.3045499819278716,5.261057657185196,0.8121339828781783,0.1433719545602798,-0.402540773153305,-0.0505524167287396,0.5707769393920898,-0.0651693546947324,0.992659403789416,222
1721471613703996400,0.627077567473799,-0.4616214862048625,-2.054587281855196,-1.852160921715945,-9.522649518501758,1.434937672425061,0.305411696434021,-1.573024868965149,-0.0212772935628891,-0.1271644099308809,0.230682971829853,0.6112478241934495,-0.7463181621460074,1.6495134830474854,-1.2797772884368896,5.501999378204346,-1.0071771008983257,-1.0324930362015965,-0.6917930546209216,0.0553934015333652,-0.304246723651886,0.2686015263090841,0.563959538936615,-0.0759003820049343,0.9824304168503732,223
1721471613783550200,0.0839575093641877,-2.180790964666009,-1.4166842228539287,-1.8444439175978304,-9.465952064245938,1.7788067855611442,0.6760117411613464,0.9277654886245728,-0.026279903948307,-0.1297639295386249,0.2266259561289231,0.5982865307050192,-0.7575322854891152,-0.8516426682472229,0.2590382397174835,5.892635345458984,-2.5373317817181347,-3.856818051493168,-1.5780720317706465,-0.0713444948196411,-0.2583051025867462,1.0926595548074691,0.5733312964439392,-0.1515731749322265,0.5022100286375731,224
1721471613902880800,3.706183837911486,-2.4357196654587985,-2.7866572556763884,-1.84319537884146,-9.436227957111596,1.931478204058856,-0.695492148399353,0.6202684640884399,-0.6401320695877075,-0.1587215447695597,0.2464890112478639,0.583750962227757,-0.7571561336067357,1.472676157951355,0.2738512456417084,3.4591143131256104,0.3751566701948642,-8.210423595118522,-0.7353086634814738,-0.4858333468437195,0.5736307501792908,1.0287086222920567,0.7837435603141785,-0.2918294763571583,0.8148778016936034,225
1721471614022210000,-4.875235800591111,-0.5471756171107292,-0.0808755994345061,-1.5455639930061995,-9.6804043777436,-0.2671816861064173,-2.872382164001465,0.830072820186615,1.2202290296554563,-0.1598660140197761,0.2722116590332962,0.6629655254808259,-0.6788375211673078,-0.0719236731529235,0.4184946119785309,-0.0918091237545013,0.973297919911146,-9.518101938199996,0.3431125226151198,-0.3894631266593933,0.0262365695089101,-0.9168271870832888,0.0947042852640152,0.1130089870671276,0.0391707069574622,226
1721471614141020000,-1.816864421276748,-1.3157348082870244,-1.8595988166317343,-1.989766434637457,-9.240000451612472,-2.6141160384520887,-2.018864870071411,0.3888028562068939,-0.5380669236183167,-0.1795160606173815,0.3906153438409505,0.6933271053194275,-0.5783521045787631,0.8659710884094238,0.6205012798309326,-2.382117986679077,-2.6209482225596905,-2.452786535593867,-0.9666863928169012,-0.0444876365363597,0.1274283230304718,-0.4084730662001297,-0.4423320889472961,0.8480717768955975,0.2452549000510945,227
1721471614260845800,-0.9336142904289066,2.2748615795046088,2.30998754568249,-1.56323861977607,-8.767786259722708,-4.105189293466508,-1.200450778007507,-1.8275939226150515,-0.4535689949989319,-0.1268757094463128,0.3387880096283407,0.7710571194397723,-0.5240191667370477,1.1257538795471191,0.5683477520942688,-2.3314335346221924,-1.7179308765769004,2.599488085901737,-1.2592787615716456,-0.2018432766199112,-0.0926973447203636,-1.377471425753832,0.1894482374191284,0.6883566504314541,0.7539188175357878,228
1721471614300621800,-0.0393533746145665,5.543018741810322,2.5288445238798856,-1.7449255587473511,-8.662515036433934,-4.252819941318035,-0.3950736224651336,-1.8327487707138064,-0.300011932849884,-0.0966380612928351,0.3151378911873886,0.7858254176747824,-0.523285490152099,1.2227683067321775,0.583551287651062,-2.001148223876953,-1.1447551412910222,3.7358985926955937,-1.373162914904952,-0.2571316957473755,-0.0734032467007637,-1.3885200585126876,0.4022321403026581,0.7597085799183696,0.7109198529604822,229
1721471614340397600,0.0013123977728188,6.316948520109057,0.5744736661419272,-1.959320442969352,-8.661917655062675,-4.159639553317428,0.2884795069694519,-2.058810949325561,0.1335202157497406,-0.0745498707478043,0.2987208575532943,0.7892074806712892,-0.5313751952755431,1.4681919813156128,0.6132405400276184,-1.4657961130142212,-1.092262737509608,4.74295323625803,-1.412781224066019,-0.1699028611183166,-0.0468096211552619,0.255305297286529,0.4176094532012939,1.061600765003264,0.1453399430984631,230
1721471614380168400,-0.3642807636544108,2.6849019315540787,-4.397921070691943,-2.476739073589444,-8.703028248608112,-3.7806720926627513,0.8195230960845947,-1.6753183603286743,0.8821806907653809,-0.0404602859692513,0.2856466527766692,0.7817714646382599,-0.5528132237489973,1.6441938877105713,0.754833996295929,-0.4933788776397705,-2.280861696702242,5.005967043828964,-1.845404140932113,-0.1009445264935493,-0.1660980135202407,1.5827416310168805,0.2709402740001678,1.2630102031849324,-0.2070688339165411,231
1721471614419943400,2.206322296285629,-7.322677468025684,-4.826381753312051,-2.7285572411462664,-8.799875926944614,-3.359692413447797,1.0551466941833496,0.2277214676141739,-0.2302945256233215,-0.029729280521445,0.2829030450792208,0.7689359565020635,-0.5725552155368145,1.0197864770889282,0.425020694732666,0.7350569367408752,-4.744195929795503,5.226003879460692,-2.6285195345968004,0.0292257647961378,-0.3127442896366119,1.6682824640497564,0.2016742080450058,1.3330702662304044,-0.1490520863562356,232
1721471614499495000,-3.014128917483985,-2.9185768319159746,1.3470628434866665,-2.72507202937901,-9.007243250617384,-2.7593440090760586,0.9636114239692688,-0.1507237553596496,0.5297785997390747,-0.0357543890724806,0.2770733969435381,0.7509445497156076,-0.5983597692825195,-1.2085016965866089,0.0495344810187816,2.409385204315185,-5.066851428380608,4.816962475320697,-1.7300825021415949,0.2154065370559692,-0.3165088891983032,0.5744610623886809,0.3477741181850433,-0.0633384860057616,0.1653501184101216,233
1721471614618822700,-0.3689575232937931,3.2406150753855703,4.994301155954599,-2.842415383255481,-9.092793289870023,-2.3264121723912656,0.9856359362602234,1.1136553287506104,0.187707632780075,-0.0353336564903355,0.2772346135301914,0.7360400678705711,-0.6165530178431554,-1.3196202516555786,-0.1541012525558471,2.6127309799194336,-2.404225626042485,-0.4527934521049261,0.6896878990352153,0.1542620211839676,0.2447513043880462,-0.0600161686160601,0.150410309433937,-0.7437691794432699,-0.3570613703275099,234
1721471614698374100,0.2815031117245555,-1.2694266460984944,1.4682956060171126,-3.0376781353756783,-9.248151609364152,-1.189371624065563,1.595817804336548,-0.7114731669425964,0.0110388910397887,-0.0427798756478501,0.2790830066568425,0.6948048293702681,-0.6614596576798505,-1.7892487049102783,-0.7647604942321777,1.9597876071929927,-2.276260924908519,-1.927289666327834,0.0050917701810598,0.3136554062366485,-0.1832659393548965,-0.5562563838627189,-0.2613677978515625,-0.3236856088178232,-0.0251865322033641,235
