frame,pose_x,pose_y,pose_z,ori_x,ori_y,ori_z,ori_w,phone_acc_x,phone_acc_y,phone_acc_z,phone_gravity_x,phone_gravity_y,phone_gravity_z,phone_gyro_x,phone_gyro_y,phone_gyro_z,phone_ori_w,phone_ori_x,phone_ori_y,phone_ori_z,watch_gyro_x,watch_gyro_y,watch_gyro_z,watch_acc_x,watch_acc_y,watch_acc_z,headphone_gyro_x,headphone_gyro_y,headphone_gyro_z,headphone_acc_x,headphone_acc_y,headphone_acc_z
0,0.000572,0.215204,0.420647,0.157872,0.093188,-0.676529,0.713233,-1.448244459374249,15.00346811698675,-5.145694663470983,-0.3958892962958663,9.72953051996231,-1.1618291718192395,-1.889273166656494,-0.8631241321563721,0.3455201387405395,0.3908222982739672,0.4152838973397775,0.6219132482907169,0.536675827084794,1.3887741565704346,1.5891331434249878,-1.5814208984375,-1.3622467517852783,0.9444048404693604,-0.6944971084594727,0.3284375667572021,0.0459077060222625,0.1648433561980724,-0.6751748323440552,-0.000964534183219,0.0887398482698947
1,-0.000671,0.207856,0.423353,0.165158,0.097309,-0.677247,0.710345,0.5998762202827259,5.436656216153502,-5.541365713906288,-0.255709731635265,9.80124024991095,-0.2017255183935165,-2.7993388175964355,-0.7948330044746399,0.4632177054882049,0.4175340143793088,0.4111169776632418,0.5841814526440174,0.5615872650641529,1.284263253211975,0.8755969405174255,-2.161815881729126,-0.5261306762695312,0.6539749503135681,0.1223362982273101,0.3417947292327881,-0.0347785130143165,0.854967308562994,-0.9625994563102722,0.3041629795610904,0.5238738711740821
2,0.000941,0.184442,0.416377,0.155812,0.086119,-0.686579,0.704922,1.3282991063058376,-5.890840830355883,-5.490758393219113,-0.1558885356470011,9.76196563962102,0.9220228560302406,-2.917043447494507,0.3367167711257934,-0.0270568057894706,0.4403658101689025,0.3920526243354811,0.547069150924858,0.5942121855330348,2.2430434226989746,0.8754503130912781,-2.304539442062378,0.1802777647972107,0.5707416534423828,0.6049811840057373,0.3400326371192932,-0.1384196281433105,0.6772387518286704,-0.686535120010376,0.2343842176750302,1.247079205211997
3,0.005416,0.102573,0.3881,0.094425,0.037816,-0.698025,0.708813,1.0806535482585429,-13.580660004425049,-3.787899998089671,-0.2923626151194796,9.586233225139974,2.046716694610566,-2.827988624572754,0.5375511646270752,-0.4034158587455749,0.4592794484446104,0.355964800410575,0.518589966244964,0.6272287824448016,2.605881929397583,0.7218578457832336,-2.005699634552002,1.0884244441986084,-0.0265083312988281,0.7871008515357971,0.3326134085655212,-0.1394793391227722,-0.0341793329775333,-0.3206354677677154,0.1327715534264221,0.8515741589933633
4,0.00965,0.061865,0.372101,0.054039,-0.00911,-0.707879,0.704205,0.7967565271347761,-16.14563090369701,0.5014812029063701,-0.5131934141404927,9.328141091880202,2.9820822126209734,-2.047902107238769,0.3406387865543365,-0.4327678978443146,0.4776633045638911,0.3222828753312061,0.4940545216847937,0.6510619977779333,1.2060072422027588,0.1349617689847946,-0.9710022211074828,1.498734712600708,-0.5778161883354187,0.7616788744926453,0.2486904263496399,-0.076826587319374,-0.6300783567249775,-0.143992006778717,-0.0128687973907217,0.0196392048411071
5,0.01253,0.030742,0.360628,0.021945,-0.043782,-0.713724,0.698713,-0.6451279687535018,-17.050877616167067,3.013335136757791,-0.564392526708357,9.175898858579991,3.413898927670717,-0.1412560641765594,-0.2594864070415497,0.2993756234645843,0.486655270489449,0.3095413297659818,0.4797121622555674,0.6612313833776213,0.2240013182163238,0.4074364900588989,0.1872066855430603,1.3600720167160034,-0.544736385345459,0.6044000387191772,0.1505050659179687,0.0291351005434989,-0.8114455622225999,-0.1107779070734977,-0.1206904723472893,-0.5755456792876124
6,0.014231,0.011355,0.354328,0.004076,-0.064063,-0.715423,0.695737,0.2209223497619852,-15.052150607091187,0.4051590097486972,-0.3327018224336207,9.270003960210085,3.182252902787924,1.214832425117493,0.0904686972498893,0.5356007814407349,0.4774144922360806,0.3238435086174937,0.4825719019921839,0.6590335800860796,-0.2369071841239929,0.7885180115699768,1.4997358322143557,1.3462989330291748,-0.4774648547172546,0.7174322009086609,0.0848574116826057,0.0805629044771194,-0.6673240915358066,-0.2144134640693664,-0.1436298147123307,-0.6966700130075216
7,0.01405,0.000388,0.350606,-0.009535,-0.079041,-0.713336,0.696285,-0.0625372297925874,-9.187366009011864,1.0191241438016294,-0.2798337354739196,9.458360878464578,2.5751713907688853,2.19140362739563,0.5025427341461182,0.0477720946073532,0.4593079036155009,0.3362085414478785,0.5056348703049655,0.6483313640154977,-1.403654932975769,0.5898305773735046,2.735553026199341,1.018423318862915,-0.3946526944637298,0.7974829077720642,0.0553294271230697,0.0493497028946876,-0.3889911342799663,-0.255168080329895,-0.1150227289091795,-0.3738483640752733
8,0.011714,-0.004131,0.352181,-0.010567,-0.080553,-0.70899,0.700523,-1.3598328932106494,6.379380134102702,-0.2595693662054836,-0.1724560779578052,9.753946583816408,1.0005744146976618,3.692648887634277,-0.2892535328865051,0.5756244659423828,0.426579333348306,0.3753107339296194,0.5550916644941674,0.6074908023939215,-2.660379648208618,-0.7468193769454956,2.9411263465881348,0.1261743903160095,-0.0654519200325012,0.2004162669181823,0.0258014425635337,0.0181364957243204,-0.110188221424818,-0.2959226965904236,-0.0863623785488307,-0.0511548715673387
9,0.010697,-0.003641,0.354469,-0.009878,-0.074131,-0.707995,0.702246,0.8389529431555419,10.347748927545547,-4.351877696919441,0.0175728811451583,9.803647895574567,-0.2419960626519285,2.415008783340454,-0.0772610828280448,0.3488851189613342,0.3977452999280815,0.4087384225704323,0.5875978786853326,0.5739863176683327,-1.3309431076049805,-0.640457808971405,1.8055225610733032,-1.1037726402282717,0.9872050881385804,-0.4765221774578094,0.0349277928471565,0.0620244368910789,-0.2372621111989021,0.2405540347099304,-0.5567376645736396,1.5917854998245835
10,0.010997,-0.005901,0.356075,-0.009651,-0.071189,-0.707805,0.702745,1.5110894764743743,9.156007578673956,-2.613241885966062,0.0909305358477402,9.763273215088248,-0.9168590435262768,1.3459596633911133,-0.0502234399318695,0.0237710215151309,0.3823667177655505,0.4256046451792607,0.6046548506639642,0.5541200271268074,-1.522912859916687,-1.1052970886230469,0.9281215667724608,-0.8300365209579468,0.5186855792999268,-0.3830064833164215,-0.0048315078020095,0.1166531145572662,-0.1355412738680839,-0.1630277186632156,-0.4171249034829437,-0.5151965706564485
11,0.011049,-0.006487,0.356788,-0.010366,-0.070869,-0.707804,0.702768,0.9636824617605656,5.439651890838146,-3.252072873467206,0.0309584484020015,9.711454765045644,-1.3627503880925476,0.7504429817199707,-0.1731632947921753,-0.2253220975399017,0.3751060488172763,0.4333887378473329,0.6177824313537156,0.5383443271424072,-0.7279157638549805,-0.7629048824310303,0.2919480204582214,-0.4485512375831604,0.5187938213348389,-0.2959384620189667,-0.0501144416630268,-0.0012184306979179,0.4801894085526466,0.0124025791883468,0.1080137999951839,0.0751106244333088
12,0.011701,-0.00917,0.355224,-0.012111,-0.07303,-0.707819,0.702505,-0.0487944717120844,1.9634008441507813,-2.22224452643022,-0.0513130304042715,9.701896663105488,-1.4286140223614872,-0.2925480306148529,0.07740518450737,-0.1473387330770492,0.3770849952152807,0.4334008732937822,0.6204858825402793,0.5338237505819431,-0.274444967508316,-0.4019571244716644,-0.103772148489952,-0.3079129457473755,0.256447434425354,-0.3120807111263275,-0.0856383889913559,0.013841338455677,-0.1434440098166465,0.0748101100325584,-0.1682156821753829,-0.3684016429767012
13,0.012008,-0.011684,0.350817,-0.023428,-0.083879,-0.706599,0.702234,-0.0739294244252611,0.4925269120782613,0.0133177467346191,-0.0909712788500823,9.720389182129502,-1.2946644015990196,-0.2985602617263794,0.2468002438545227,-0.1222703382372856,0.3788434689015617,0.4268658941255443,0.6195119202707567,0.5389509999304001,0.2920341491699219,0.0016610731836408,-0.0849026590585708,-0.0695551633834838,0.1844254732131958,-0.0633400380611419,-0.0558507815003395,-0.0031006019562482,0.084618895882368,0.1919790208339691,0.0650519525598734,0.0386833663985133
14,0.010378,-0.002966,0.34765,-0.027135,-0.099975,-0.702212,0.704391,-0.263665951336734,-0.2740653629392385,0.7811693010982126,-0.1104279393316712,9.729963650682569,-1.219009002764523,-0.0955444946885109,0.0981722995638847,-0.0112373065203428,0.3793190814348398,0.4228040193186043,0.6191840792881609,0.5421851915709502,0.0090173631906509,0.0569958575069904,-0.0721447169780731,-0.0020310282707214,-0.0431626439094543,0.0113361775875091,0.0563268810510635,-0.1107947304844856,0.0362473714232444,0.2533832192420959,0.1231197453208267,0.1012507356010377
15,0.009734,0.023181,0.347276,-0.008796,-0.099079,-0.699083,0.708088,0.1624557304091751,-0.5025438637018204,0.9992575599454344,-0.1096338480782229,9.730247143799064,-1.2168310742035506,0.0708479434251785,0.0119196576997637,0.0110911130905151,0.3787309045330781,0.4220864575321274,0.6195838461553477,0.5426987194997449,-0.0209408029913902,0.0094024557620286,-0.0063924025744199,0.0086193680763244,-0.0601393580436706,-0.0102279782295227,0.1277324706315994,-0.1039020419120788,-0.0209783399238018,0.1660955399274826,0.121966812426038,-0.1100311676995828
16,0.008102,0.064589,0.355343,0.030423,-0.06865,-0.69935,0.710824,0.297515577435866,-0.4593406817913055,0.8903098401010036,-0.1076255221968051,9.721907769998907,-1.2819108646184203,0.2649303674697876,0.0220143049955368,-0.0360392481088638,0.3773797911530087,0.4235521913572315,0.6212590491173962,0.5405785642565117,-0.2053484618663787,-0.1123136505484581,0.0827588513493537,0.0483153462409973,-0.0705276727676391,0.0280792117118835,0.1484617739915847,-0.0821154415607452,-0.0697282007426023,0.0794033259153366,0.0951690045345574,-0.2291283429734408
17,0.00595,0.111814,0.367962,0.074788,-0.035307,-0.696263,0.713006,0.1788366641066968,1.2188842073410748,0.7092179444134235,-0.1328980567497666,9.70181833717227,-1.4238874322310089,0.510838508605957,0.0112176528200507,-0.0294070485979318,0.3746279915451023,0.4250828713017257,0.6260212524299348,0.5357759265817058,-0.3306611180305481,-0.145250603556633,0.122182086110115,0.0086216330528259,-0.0143212676048278,0.0037456452846527,0.1363297402858734,-0.0499704033136367,-0.0934159503221511,-0.0674278140068054,0.1368305830262601,-0.2937948764123022
18,-0.000428,0.185844,0.399123,0.134699,0.033349,-0.675492,0.724192,2.8806159345731137,10.853278529059889,-0.8650060336269437,-0.1552662938291207,9.653657825115324,-1.718487049154937,0.9222009181976318,-0.5867199897766113,-0.2964796125888824,0.3703836568963521,0.4320022228731912,0.633239716375025,0.5245928199543101,-1.1277692317962646,0.0299705285578966,-0.2092452496290207,-0.199783444404602,0.3245375752449035,-0.2337289750576019,0.1334571838378906,-0.0228337943553924,-0.1929728876173496,-0.2393379360437393,-0.0401108419183641,-0.3736050568386912
19,-0.001607,0.201201,0.410656,0.156685,0.05905,-0.667607,0.72544,-2.2595488595604896,14.333812952154874,-7.914437492272257,-0.3179591939950362,9.6483088653028,-1.726116082728654,-1.3939220905303955,-0.6380055546760559,0.012409777380526,0.3834955412836615,0.4376474934372939,0.629660304936694,0.5147076480050773,-0.4404677748680115,1.1132051944732666,-1.3696906566619873,-1.6296424865722656,0.6977519392967224,-0.8818157315254211,0.0624860152602195,0.0706978365778923,0.2829062565207481,-0.4264886975288391,0.0040015637915581,-0.2328267590999603
20,-0.00025,0.200378,0.414688,0.166586,0.06367,-0.669861,0.720751,0.6656238634891808,8.459632164698839,-5.886269869178533,-0.3111321244539692,9.775654557755589,-0.7142443212080747,-3.275843620300293,-0.5319909453392029,0.0354033075273036,0.410268952509255,0.4225047642466841,0.598252496764073,0.543381095345419,2.7735180854797363,0.8295645713806152,-1.967976450920105,-1.013368844985962,1.0340168476104736,-0.4644683599472046,-0.0084851682186126,0.1642294824123382,0.7609621601760387,-0.6136394143104553,0.0485818792741745,-0.0926220234654843
21,0.002577,0.183261,0.411063,0.158045,0.052562,-0.677127,0.716769,0.2682286561423913,-2.3468740917921065,-3.1420313670367,-0.3303281886374578,9.785959094148874,0.5443228214954957,-3.023170232772827,-0.211515262722969,-0.2134172916412353,0.4429080857638591,0.4003551752477776,0.5585364738836947,0.5758343698260024,1.961764454841613,0.4018475711345672,-2.481701374053955,-0.1836012005805969,0.4014959931373596,0.4004967212677002,-0.0121119488030672,-0.0470300316810607,0.8252741810888051,-0.3470983803272247,0.2125020562127232,0.7301520113706589
22,0.004959,0.150654,0.403532,0.140501,0.044274,-0.681134,0.717187,0.1572275839647278,-10.77854156024456,-2.227417106762528,-0.5127662747696041,9.655660397109388,1.63575031375736,-2.594119071960449,0.2873870730400085,-0.614982008934021,0.4690541296787241,0.3687970107143004,0.5297062456819656,0.6028169715945682,2.1099226474761963,0.8304348587989807,-2.576998472213745,0.5744202136993408,0.1060757339000701,0.7006122469902039,0.0406339913606643,-0.0706476122140884,-0.4153261834979057,-0.0382945239543914,0.0598018500119447,0.5142538829788565
23,0.009827,0.069928,0.383649,0.089643,0.003813,-0.696776,0.711655,0.1889782650232315,-14.236567214411496,-0.0197369661271572,-0.728870812453702,9.443974041193725,2.53978385104537,-2.073390007019043,0.1061464697122573,-0.2855753898620605,0.4892618705153627,0.3373709666553224,0.5066437539263203,0.6245925807262229,2.1298251152038574,-0.27310711145401,-1.2018091678619385,1.2788232564926147,-0.5516365766525269,0.5693285465240479,0.0504323616623878,-0.0210539884865283,-1.0395441237568854,0.0433640554547309,-0.0486246955025941,0.033379707032442
24,0.013602,0.040813,0.372429,0.057279,-0.031112,-0.7076,0.7036,0.4608811161663383,-16.10175435256958,2.667207869431376,-0.6777060770794748,9.30805750427246,3.0118384684592483,-0.2048140615224838,-0.3542593121528625,0.3664458692073822,0.49820948214611,0.3281110245010501,0.4886533902819751,0.6366697390693052,0.0037698701489716,-0.0536077767610549,-0.2287979125976562,1.310520052909851,-0.4760123491287231,0.6429555416107178,0.0222674291580915,0.1667760759592056,-0.8525006261885165,-0.1172579005360603,-0.1509798121489584,-0.5966083410605788
25,0.014896,0.022878,0.363764,0.026164,-0.048378,-0.707011,0.70506,1.1495528969615698,-15.489654720127582,-0.7467606163442134,-0.4974324024396017,9.390874903690817,2.781083839458227,1.1210016012191772,0.0762539133429527,0.3245507478713989,0.4908011592351182,0.3411328846153233,0.4917647181588941,0.6331746630495502,-0.6213842630386353,0.5129678249359131,1.0682984590530396,1.4998219013214111,-0.3923438191413879,0.7288979887962341,-0.0117664504796266,0.0521538332104682,0.0024123218387365,-0.2303979694843292,0.1865836249716579,-0.3422410735428333
26,0.014776,0.013919,0.359088,0.010341,-0.060768,-0.70222,0.709287,1.3902043583378194,-10.603166288638114,-1.469024212552607,-0.4798095423895865,9.504977083688974,2.365503388938308,1.1476881504058838,0.6676959991455078,0.0411832332611084,0.4773223215904519,0.3480265906149026,0.5082030956809547,0.6267141879588344,-1.0139281749725342,0.5764642357826233,2.1908273696899414,1.2147610187530518,-0.4043578207492828,0.576907217502594,-0.0668756812810897,0.0630631223320961,-0.1771826132893562,-0.1479286551475525,-0.2573364925868809,-0.1533984175980091
27,0.01323,0.008903,0.357783,0.007844,-0.06838,-0.697769,0.713009,-0.036473179535754,3.7888048379749057,2.1172434983849526,-0.4268045859761535,9.642666475501656,1.734129147183895,2.140100240707397,0.0224084891378879,0.5639041662216187,0.4563579829549221,0.3584987430954458,0.5320363426571604,0.6165657744381556,-0.9690243005752563,-1.02123761177063,2.589744806289673,0.4865352511405945,-0.017738938331604,0.1081665158271789,-0.1291108131408691,0.0221718363463878,-0.1689998913556337,0.2765166759490967,-0.2207024599336087,1.1297275218985974
28,0.010763,0.009076,0.362493,0.015366,-0.056476,-0.698357,0.713352,-1.4938282528109847,8.134606429851054,1.0512106692183762,-0.13482770050494,9.780158298915625,0.707629433112964,2.9053542613983154,-0.1644957512617111,0.7546773552894592,0.4325130878608204,0.3947386725575105,0.555069653825683,0.5907720899630797,-3.201183319091797,-1.3347303867340088,1.3865936994552612,-1.373182773590088,0.4633462429046631,0.0518294274806976,-0.1259936690330505,0.2863909006118774,-0.2595066762328147,0.2027148306369781,-0.4394315009023994,-0.4528881446510553
29,0.010105,0.008106,0.364557,0.01495,-0.052451,-0.697881,0.714134,1.7351238573096692,10.031120434165,-2.807116106337309,-0.0686097409395733,9.803343944191932,-0.2451918447522446,1.7725107669830322,0.6101771593093872,-0.2997460067272186,0.4057027525430826,0.411888697333707,0.5855330953976046,0.568246389663339,-0.4777685403823852,-1.432081937789917,0.7149227261543274,-0.8063204884529114,0.610900342464447,-0.3582743704319,-0.2109192460775375,0.23309126496315,0.6264654269248247,-0.0901392698287963,0.1313721714898943,0.1156529165714979
30,0.009504,0.00696,0.365416,0.013495,-0.05203,-0.696159,0.715873,1.1126947001636027,5.717091114124655,-2.913085248762369,-0.219807027197536,9.775039056205747,-0.7554298796858638,0.947672724723816,-0.0743541419506073,-0.4418716430664062,0.3961141360224079,0.4143886831641173,0.6056386908267157,0.5518852622583871,-1.2892441749572754,-0.9017313122749328,0.4743416607379913,-0.650736391544342,0.2608734965324402,-0.2445463240146637,-0.1447656452655792,0.1831970810890197,0.1736556082069873,-0.0732954740524292,-0.0403497652407735,0.0572980504974722
31,0.008932,0.005103,0.364929,0.01078,-0.054501,-0.694732,0.71712,0.1450427502501756,2.859538367491961,-3.202795340079069,-0.3620172757018357,9.756558812141416,-0.9213665110133588,-0.1530956774950027,-0.1725697517395019,-0.1569498181343078,0.3988663198952009,0.4158891606178242,0.6115658798516722,0.5421523552666566,-0.2425754517316818,-0.3385530710220337,-0.0470149330794811,-0.3188144564628601,0.3978263139724731,-0.4190105199813843,-0.0790457725524902,0.0698667764663696,0.1162058742791414,-0.0408405177295208,0.0073350921284407,0.1276043433889746
32,0.008964,0.001728,0.363204,0.007,-0.061058,-0.695455,0.715936,-0.3406816422063857,0.7169108370035886,-0.4134264142911881,-0.3620163989190012,9.770738728663323,-0.7562907342988997,-0.49534872174263,0.1804307401180267,0.0907752215862274,0.4021800334280007,0.4122945958850585,0.6071023496914861,0.5474404597391702,0.5990992784500122,-0.0512785203754901,-0.0683902651071548,-0.0993227362632751,0.2584248185157776,-0.1001091599464416,-0.0315910428762435,0.0429186299443244,-0.084206807950139,-0.0260834544897079,0.0655093409385532,0.0844791951507329
33,0.013853,0.009912,0.358747,0.016608,-0.083182,-0.708336,0.70076,0.0768419052053242,-0.3224070767819881,0.8274936837691813,-0.3387074560565873,9.780549928581712,-0.6296727715987712,-0.1595116108655929,0.1863932907581329,-0.0543028749525547,0.4017499079509196,0.4077400663094498,0.6048573525072674,0.5536176848699383,0.358932226896286,0.1558065265417099,-0.0791786611080169,0.0077489018440246,-0.0565819144248962,0.1192345172166824,-0.0190729685127735,0.0761758163571357,-0.187858321082592,-4.11104410886e-05,0.0667952160306274,0.1015238534539938
34,0.016022,0.034694,0.355806,0.033803,-0.087491,-0.711961,0.695927,0.3464056458763778,-1.1234826361596584,0.923454642399028,-0.384114066295512,9.77971815393269,-0.6163980602882803,0.0586344115436077,0.0576711669564247,-0.1543883979320526,0.4019381767624394,0.4045599327974542,0.606431213654195,0.5540921672267987,-0.1365374326705932,-0.0093515245243906,-0.0628688633441925,0.0839818716049194,-0.1657358407974243,0.0726270079612732,-0.0365819409489631,0.1175508424639701,-0.1786533251627348,-0.0444021597504615,0.0946693753161933,-0.078553202635236
35,0.016068,0.075604,0.355896,0.055822,-0.069533,-0.706313,0.702261,0.2793369466666132,-1.0252157386749985,1.2816402309834956,-0.4360078100640326,9.773330498722196,-0.6799475723959505,0.2970595061779022,0.007148815318942,-0.0898335203528404,0.4018647356069328,0.4040037267825227,0.609465886051215,0.5512143120204637,-0.2870411872863769,-0.2375244051218032,0.0207041297107934,0.1007951498031616,-0.0821951031684875,0.0140793919563293,-0.0431533865630626,0.0930427238345146,-0.132217682403326,-0.0798204392194747,0.110946857772395,-0.0539560465931892
36,0.014479,0.122935,0.36071,0.078588,-0.034745,-0.697064,0.711842,-0.9703454998463392,1.0997960556238888,0.6344295376718044,-0.4164958848644047,9.76135013807118,-0.8443710957467555,0.5021894574165344,-0.3109926879405975,0.3016383945941925,0.3990200022750037,0.4092389438246466,0.6128412787814792,0.5456483361442108,-0.3167490065097809,-0.3377395868301391,0.0917024761438369,-0.0058737993240356,0.0153462886810302,-0.1050260066986084,-0.0406650528311729,0.1174139603972435,-0.2763572732686996,-0.1105027869343757,-0.0104696638271212,-0.0669280486300587
37,0.012389,0.164561,0.368263,0.095901,-0.003142,-0.69024,0.71719,-1.4166494438014925,7.603598688209057,-0.0786192170761525,-0.2346013675570487,9.75181775509417,-1.008647100385651,0.2607490718364715,-0.7279120683670044,0.7003939151763916,0.3963630500765427,0.4249378965356578,0.6089782229401575,0.5398791838737577,-0.5222222805023193,0.1255261301994323,-0.291409820318222,-0.5455766320228577,0.2619315385818481,-0.3735451102256775,-0.0238882545381784,0.207157015800476,-0.1162666645556688,-0.1599883735179901,-0.0813008573755621,-0.099779640135169
38,0.01094,0.193666,0.379232,0.111766,0.025195,-0.685412,0.719086,0.6526553685836494,15.912273398721217,-1.208875585154444,0.012783032503142,9.757309922769664,-0.9824174112383276,-0.4061465859413147,-0.9836122393608092,0.5002104640007019,0.399743852587258,0.4427930748408601,0.5949988593265435,0.5386238022960183,0.1955824494361877,1.113822102546692,-0.7354589700698853,-1.483945369720459,0.6346797943115234,-0.4941456317901611,0.012380788102746,0.1552474200725555,0.5656856717914343,-0.3553048372268677,0.1526097514383494,-0.3605155659019947
39,0.013868,0.200073,0.402976,0.148102,0.063402,-0.690513,0.705151,1.885127956294268,11.369552811950443,-4.206863661307096,-0.014508505730523,9.79144892373681,-0.5456270359618589,-1.8788851499557493,-0.0560985021293163,-0.494821548461914,0.4164452036735228,0.439440821156011,0.578542134367719,0.5465841075847147,0.5500028729438782,1.2115488052368164,-1.709875464439392,-1.1009525060653689,0.6091419458389282,-0.1587573289871215,0.011945130303502,0.036404088139534,0.7135919217139483,-0.4005807936191559,0.1201332037907093,0.0638385581821203
40,0.016886,0.178928,0.408412,0.154203,0.068318,-0.693635,0.700303,0.0765026633135974,-0.5542752199828624,-3.850013632175326,-0.2563668073045089,9.796492178601026,0.3652529331548139,-2.470886707305908,0.6586608290672302,-0.5332716107368469,0.4392039766197726,0.4086102781751959,0.5607271379677092,0.5707211296782364,2.01350736618042,0.5647974610328674,-2.407390832901001,-0.1750227212905883,0.5893022418022156,0.1516896784305572,0.0060277823358774,-0.0675918012857437,0.4847697220802306,-0.1719607412815094,0.1193105622962117,0.4186556201815605
41,0.020482,0.147183,0.405036,0.134099,0.068306,-0.694216,0.703858,0.397147589261271,-9.807653039562702,-4.013757502698898,-0.420491238110885,9.72625018311739,1.180519478437677,-1.8129502534866333,0.461910605430603,-0.2812524139881134,0.4536862155094806,0.3788378416021308,0.5443272433462123,0.5952802352347685,2.3688480854034424,0.3799338638782501,-2.3069663047790527,0.7674896121025085,0.2055319249629974,0.4836888313293457,0.029126526787877,-0.1049701422452926,-0.1839934623479843,0.0353474915027618,-0.0435613476984202,0.1136374850958585
42,0.023686,0.111095,0.393432,0.098125,0.040421,-0.693912,0.712197,-1.1337127190772442,-14.814417371249196,-4.607294473490119,-0.4873112232565879,9.608974049258231,1.897507107004523,-1.94647216796875,0.5189527273178101,0.1568468958139419,0.4633028911606263,0.3546294679849885,0.5267750935243474,0.6181394564449854,1.6781636476516724,-0.0654479712247848,-1.4097379446029663,1.4195395708084106,-0.2377003133296966,0.6275317668914795,0.0122660920023918,-0.0504362173378467,-0.5496604196637869,0.0762576162815094,-0.0214275495626032,-0.0836857066854834
43,0.028094,0.079062,0.378902,0.062641,0.000771,-0.699684,0.7117,0.0863714021055027,-16.082439411246774,-2.384642389172316,-0.3124737848538905,9.468457909587023,2.5339807177245617,-1.2994614839553833,-0.493887722492218,0.6335642337799072,0.4684479473611375,0.3432124793100337,0.5029991417427311,0.6401200392652787,0.5769593715667725,0.4189581274986267,-0.5722101330757141,1.3682931661605835,-0.3521852493286133,0.5863763093948364,0.0028284220024943,-0.0309544615447521,-0.7055126601547003,0.0629351884126663,-0.0202875857472419,-0.2058893600746989
44,0.035627,0.037403,0.354168,-0.001934,-0.048263,-0.714626,0.697837,0.0201447386438725,-13.796138153839111,1.3687778316885233,-0.0743135512049077,9.380781964221596,2.857586941163241,-0.35350102186203,-0.0158869046717882,0.3018798828125,0.4721521622092048,0.3459218886294587,0.4843982456941917,0.6502067371655414,-0.4277575612068176,0.8489285707473755,0.3573170900344848,1.4048272371292114,-0.4131362438201904,0.6300935745239258,0.006261826492846,0.0057483129203319,-0.3870990369230508,-0.0199632197618484,0.0646783700071275,-0.2852785386100411
45,0.037192,0.027344,0.347833,-0.015516,-0.065651,-0.715879,0.694958,0.742720839434117,-8.731126215845347,5.359066195994616,-0.1169361156492959,9.42559316585064,2.7046041186288,1.41974937915802,1.0336295366287231,-0.1441138535737991,0.4618396717998942,0.3418455463557754,0.4952223588206816,0.6516137223999742,-0.8243874907493591,1.1023484468460083,1.55074942111969,1.1409006118774414,-0.3125592768192291,0.6384797096252441,0.0096952309831976,0.0424510911107063,-0.0664572162479162,-0.1028616279363632,0.1468880858559161,-0.3567179271847009
46,0.03805,0.02306,0.346338,-0.018088,-0.06477,-0.717898,0.692892,0.6343547188699246,2.043790724161267,4.4814369737684725,-0.3021591106590814,9.644252283388376,1.7514181356370448,3.234523296356201,-0.222137913107872,-0.2995092272758484,0.4438308217862362,0.3539657579734317,0.5342384958831875,0.6263478268647662,-2.474929094314575,0.4393725395202636,2.660197257995605,0.4901565313339233,-0.3263126611709595,0.2369782030582428,0.0292768441140651,-0.2019722163677215,-0.0288110839426517,0.2539340853691101,0.0430278253436088,1.1931580838017164
47,0.038523,0.02229,0.346304,-0.018359,-0.061124,-0.719961,0.691074,0.9468892940003424,6.93776629653573,0.4468774695267901,-0.2094751644059084,9.788574245083332,0.5570409218365326,2.7850091457366943,0.3962273001670837,0.4933649003505707,0.4189357813019531,0.3836805308277641,0.5695507594515372,0.5940487278069467,-3.682997703552246,-0.6221464276313782,1.7644939422607422,-1.0623230934143066,0.4004490375518799,-0.2323130965232849,0.0717969834804534,0.245350569486618,-0.2052911019206047,0.195584163069725,-0.2922253620732575,-0.4438014596149325
48,0.038525,0.02341,0.34783,-0.015889,-0.057558,-0.719937,0.691467,0.3912580562986433,6.829675339651107,-2.0698948872327803,0.0202452855420531,9.798504102945326,-0.3991259035969153,2.1939172744750977,0.262302428483963,0.6234995126724243,0.3868684888676032,0.4041830477887673,0.5974829053650271,0.5744415366642376,-1.1917879581451416,-0.6705919504165649,1.2083861827850342,-0.6565330624580383,0.3928897976875305,-0.3489502668380737,-0.0474473312497139,-0.072285771369934,0.290112826898694,-0.2912030816078186,0.1082459282506257,-0.7328212305799127
49,0.036139,0.025235,0.351053,-0.007998,-0.047879,-0.715518,0.696905,2.0045891791075467,4.984596923542022,-4.40058327563852,0.1564772770540788,9.7428839225322,-1.1054813347186894,1.1823887825012207,-0.1613117158412933,0.0928345695137977,0.3691525979406361,0.4233182232843181,0.6141380485517742,0.5544027255296846,-1.6289678812026978,-0.4876299500465393,0.8441791534423828,-0.4621521234512329,0.3246567845344543,-0.3023333847522735,-0.0499567277729511,0.0394920855760574,0.2528460492998361,-0.1966845095157623,0.0328869550794363,0.0976134020119905
50,0.035253,0.024901,0.351519,-0.006211,-0.045093,-0.715782,0.696839,-0.1549637489522807,3.2742262530863284,-3.25893048427701,0.2089829421758651,9.723744922298192,-1.2551868160828947,-0.1605553328990936,0.2306988090276718,0.2115662842988968,0.3636677067237344,0.4269900632867622,0.617799487213067,0.5511343411921382,-0.3231334090232849,-0.2150369882583618,0.3237639963626861,-0.3401995897293091,0.3999501466751098,-0.2749419212341308,-0.0725468769669532,0.036704983562231,-0.0481472644163062,-0.0347276255488395,-0.2280555443764664,-0.0077227916839736
51,0.034688,0.024199,0.35114,-0.006564,-0.046973,-0.715639,0.696859,0.5624195826675743,1.865349635243416,-1.1415653322737664,0.2825838926985859,9.729020232352614,-1.198616860664263,-0.1000862419605255,0.1153343692421913,0.07847261428833,0.3607044803205129,0.4259193345874881,0.6162022167744645,0.5556795618119614,0.0068258475512266,0.118821308016777,-0.0222519915550947,-0.1740537285804748,0.2157896757125854,0.0051758885383605,-0.0543081909418106,0.0371828489005565,-0.0711468353688716,0.0051533728837966,-0.1060992716107517,-0.0814326670616865
52,0.034062,0.021571,0.349177,-0.010688,-0.04898,-0.714832,0.697497,0.8526599814686924,0.160332600775361,-0.7479355053424834,0.2688736760476604,9.742085465630888,-1.0908121003098783,-0.4346179664134979,-0.0152057548984885,-0.1778587251901626,0.3629539690277699,0.4229391336921865,0.6137902145386361,0.5591498120806518,-0.204829141497612,0.1983410567045211,-0.0888354778289794,-0.0545157194137573,-0.0450679659843444,0.0059636831283569,-0.0416811779141426,0.020805787295103,-0.0646492900431156,0.0044730654917657,-0.0107469463985413,-0.0644236645936966
53,0.033608,0.019883,0.347275,-0.014222,-0.052014,-0.71408,0.697984,0.1899885745769366,-0.5458902534753084,0.5609048672556877,0.1742292799090966,9.759975342586635,-0.9396380807630718,-0.3313829004764557,0.072317287325859,-0.2153000831604004,0.3687410638710729,0.4169232279260531,0.61162343948114,0.5622471548794454,-0.4063872992992401,0.0766683146357536,-0.1657399088144302,0.070293128490448,-0.0454813241958618,0.0547074675559997,-0.0364011824131011,0.0063447374850511,-0.1000976200431585,0.0209773574024438,0.0022079583730548,-0.0395975586339831
54,0.032116,0.016454,0.343809,-0.012536,-0.05232,-0.708752,0.703403,0.0040557873299811,-0.715268915015459,0.8401238866310566,0.1469285548636224,9.770440037977696,-0.8290509962137788,-0.1807666718959808,0.0419379845261573,0.0377583280205726,0.3708202979978457,0.4128298390100048,0.6097879653884496,0.5658821251920175,-0.7807369232177734,-0.1324681788682937,-0.1690560132265091,0.0706963539123535,-0.0434222221374511,0.0120028257369995,-0.0334058329463005,0.005026844330132,-0.0715448947757482,0.0233128201216459,0.0165539521768689,-0.055183542561531
55,0.031521,0.015217,0.343059,-0.007386,-0.052201,-0.708158,0.704083,0.1133685593608301,-0.264347686523199,1.0292121148347857,0.1513404712880496,9.770375740569827,-0.8289975855261087,0.1761991530656814,-0.0524635203182697,-0.0279821269214153,0.3711937236859318,0.4135052505563429,0.6093279251497131,0.565639535656937,-0.8162134289741516,-0.0740623995661735,-0.0498774275183677,0.039146602153778,-0.0231344699859619,0.0225567370653152,-0.0372850485146045,-0.0012947684153914,-0.0679956778615713,0.0192880444228649,0.0061585226297378,-0.0599266454353928
56,0.030631,0.014973,0.343433,0.001265,-0.053223,-0.706159,0.706049,0.1774274548958987,-0.0040846389651298,0.3329624461311847,0.1296289354186039,9.762101833221315,-0.9246289468754082,0.2517231702804565,0.0824324861168861,-0.0758884698152542,0.3689978158370783,0.4137734347960879,0.6131349765691407,0.5627589499668053,-0.5479926466941833,-0.095358207821846,0.0163788218051195,0.0128702521324157,0.0015301704406738,-0.0229093432426452,-0.0365910157561302,0.0137725574895739,-0.1076087263256311,0.0179766919463872,0.0012277882292866,-0.0643614130124449
57,0.031086,0.014564,0.341064,0.000783,-0.056553,-0.706324,0.705626,0.0932151122541166,0.1384159525215625,0.0286881882153451,0.1116387490266933,9.751732999420163,-1.030362161652744,0.2404345273971557,0.0413543507456779,-0.0754859298467636,0.3670064819282395,0.4149115844278047,0.6167513504380883,0.5592606817418704,-0.4963675141334533,-0.0853959619998931,0.0304464399814605,-0.0250375270843505,0.0160022377967834,-0.0324245542287826,-0.044195219874382,0.0383071862161159,-0.1056160912036895,0.0150339473038911,-0.0208341137140989,-0.0817588302761316
58,0.031873,0.014323,0.337734,-0.012934,-0.058344,-0.705485,0.706201,0.6488295266851782,-0.2079676276534795,-0.2261680318631231,-0.015563216114958,9.75185516449511,-1.035126891836524,-0.1187567859888076,-0.1459012180566787,-0.4003592133522033,0.3707539405499903,0.4112029176208207,0.6194263035334039,0.5565652137299987,-1.0024675130844116,-0.1233948990702629,-0.1178293749690055,-0.0359897017478942,0.0016283988952636,-0.0978122353553772,-0.0522247962653636,0.0378162786364555,-0.016563012266159,0.0190848633646965,0.0177454269837588,-0.0408002124220132
59,0.032912,0.013643,0.33248,-0.036657,-0.047207,-0.698877,0.71274,0.3854461916821077,0.2361345684736966,-0.4022377154745161,-0.0810834243657533,9.759059981307386,-0.9615602819748222,-0.2009162604808807,-0.2177765816450119,-0.0440340712666511,0.375851394042741,0.4095866361787147,0.6174663691206719,0.5565159393104537,-0.5432207584381104,-0.0778613463044166,-0.0859807059168815,-0.0175246596336364,-0.0858739614486694,0.0203816890716552,-0.054776232689619,0.0249012261629104,-0.016074351966381,0.0256303828209638,0.0254730986263602,0.0025169512569904
60,0.03401,0.013496,0.334086,-0.037127,-0.015544,-0.698424,0.714552,0.2266717436015606,0.0979927567183971,-0.1053950688641518,-0.1428745576319284,9.769110835200548,-0.8452531392782926,-0.3208199143409729,-0.4834495782852173,-0.1493814140558242,0.3840669807188577,0.409815677219331,0.6124924697708171,0.5562343539669217,-0.75970458984375,-0.0237486269325017,-0.0352209210395813,-0.0362770557403564,-0.006637692451477,0.0429514050483703,-0.0545027889311313,0.0158854089677333,-0.0249561620801687,0.0190393924713134,0.0302072875414043,-0.0031944121271371
61,0.035007,0.012871,0.336082,-0.033352,0.010865,-0.698561,0.71469,-0.7881571872241795,0.3139852853953838,1.36033558203578,-0.1517166111240629,9.767100079900024,-0.8666806157756596,0.4600343704223633,0.1391904205083847,0.0549741312861442,0.3860575996209651,0.4123763177130797,0.6116650938581639,0.5538692544065859,-0.0201549045741558,0.0587256364524364,-0.1018963530659675,-0.0158438086509704,0.1376738548278808,0.0420915484428405,-0.0531695261597633,0.0155544923618435,-0.0568979452639818,0.0107404952868819,0.0354887350756675,-0.0137681208506226
62,0.036892,0.011443,0.337489,-0.029887,0.015685,-0.700774,0.712585,0.3635193508278578,0.0119277536809444,0.6695746469415724,-0.1764721817313693,9.74085153992176,-1.120282598009333,0.7463675141334534,0.7784388661384583,-0.3355382978916168,0.375574335808034,0.4100060451927787,0.6237095149490283,0.5493863135672643,-0.1979478001594543,0.224132165312767,0.0061867064796388,-0.0162870287895202,-0.1036514043807983,0.0400869846343994,-0.0514477863907814,0.0062085092067718,-0.0415513230502605,-0.0157688595354557,0.0562310057878494,-0.070717211779952
63,0.037716,0.01021,0.337206,-0.030849,0.006628,-0.701948,0.711529,-0.2618303882063366,-0.8954851969122886,-1.089649194010347,-0.2943723657730035,9.709438749048113,-1.345552585054189,-0.0103987585753202,0.5771902203559875,-0.3319145441055298,0.3665973847190957,0.401724322278595,0.6381392136159754,0.5449790847100298,-0.2980203330516815,0.2128443121910095,0.0432146303355693,-0.0094345808029174,-0.0735015273094177,-0.0121699050068855,-0.0614312477409839,-0.0107218492776155,-0.0249690215617418,-0.0198934078216552,0.0652688832461833,-0.0711655400693416
64,0.036266,0.010283,0.334544,-0.042777,-0.005683,-0.695039,0.717676,-0.2015464354995638,-0.5991875438988209,-1.725031648492813,-0.3411891898697242,9.743690562739967,-1.0556842344358564,-1.4054369926452637,1.4052013158798218,-0.174657329916954,0.3627947466017869,0.3820838804721305,0.6386210340191275,0.5608521038663166,0.8128930926322937,0.0100708557292819,0.0630483925342559,0.0334523916244506,0.0502960681915283,-0.1196712180972099,-0.0903300493955612,0.0048301927745342,-0.041968087157607,0.0094191785901784,0.0352548532545566,-0.0687000267386436
65,0.035197,0.011103,0.334636,-0.043192,-0.0022,-0.694212,0.71847,0.2995465352742001,-0.0791010092437267,-0.776582923156023,-0.350572885091044,9.786391640347242,-0.5234678476564586,-1.1296615600585938,0.6794771552085876,-0.0015339474193751,0.3593627722679703,0.3566878369172517,0.6320310269635425,0.5866591364586822,0.3805062174797058,0.0224859286099672,0.0424797311425209,0.0014955401420593,0.0291094183921813,0.0363609194755554,-0.1105067878961563,0.0093055106699466,-0.017599954098463,0.0370136797428131,0.065622957380861,-0.0070706690385937
66,0.033934,0.011265,0.334152,-0.043433,0.002788,-0.692083,0.720504,0.906836246683821,0.1918091045349836,1.510863997155428,-0.2958659653316252,9.79694985924065,-0.3203474408384412,0.1068424731492996,-0.1946540474891662,0.1625013202428817,0.3594424010125053,0.3526441200713116,0.6260793071681282,0.5953721374481642,0.0718732848763465,0.1514094918966293,0.0391536429524421,0.0141701698303222,0.0361647009849548,0.012285754084587,-0.1001294329762458,0.002402332611382,0.0130208096146583,0.0613403618335723,0.0765000329650938,0.0684665102437138
67,0.033778,0.010625,0.333297,-0.047415,0.00875,-0.692772,0.719543,0.6383300522416829,0.952154594117403,0.7845663231253623,-0.2682762946764007,9.791226805418727,-0.4799048194576054,0.5622301697731018,-0.287451297044754,-0.0612482726573944,0.3595465899806324,0.3605263990471942,0.6280836343433503,0.5884369217964838,-0.3387477993965149,0.0340778157114982,0.0989107862114906,0.0340387821197509,-0.0339681506156921,0.0460968017578125,-0.0710044503211975,0.0073234420269727,-0.0243272165268659,0.0529096610844135,0.0662165393598377,0.0754442403018474
68,0.033924,0.010282,0.332914,-0.053387,0.015603,-0.692898,0.718887,0.3142957395840436,0.3981874171704053,0.4767618452567607,-0.375347881918028,9.773726804563402,-0.7097478865716605,0.5262182354927063,0.15083809196949,-0.3904972374439239,0.3592812434146171,0.3621405060973302,0.6364285709152089,0.5785584012194358,-0.4720169007778168,0.0678899511694908,0.0103195328265428,-0.0517067909240722,-0.0039129257202148,-0.0090835839509963,-0.0457276925444603,0.0260530263185501,-0.1074631803750991,0.0181756243109703,0.0332563729137182,0.02763005746454
69,0.033733,0.009064,0.33243,-0.063551,0.031074,-0.690959,0.719425,0.007591331911832,-0.8368804477304219,-0.6542283900540322,-0.4678764549463987,9.763361477893593,-0.7926170892424881,-0.1746120005846023,0.2047575265169143,-0.0412922725081443,0.3584624816970836,0.3583945231851898,0.6418454568583211,0.5754062687247377,-0.1793789118528366,-0.0407026298344135,-0.0755219981074333,0.0032296180725097,0.00092613697052,-0.054828718304634,-0.0442293770611286,0.0252071805298328,-0.0024520693272352,-0.0099739450961351,0.0650621086277067,0.0532674798071384
70,0.034404,0.009441,0.332869,-0.07071,0.037908,-0.688357,0.720921,0.0406638361586257,-0.0198123694509267,0.8055939866501838,-0.5214492013104259,9.76765362212956,-0.7009973016221076,-0.1321613937616348,0.2786178886890411,-0.2313426285982132,0.3598163270141409,0.3528407622162939,0.6412833328581485,0.5786114461251827,0.123803861439228,-0.242193192243576,-0.0085457013919949,0.0958485603332519,0.052697479724884,-0.0885800123214721,-0.0548431947827339,0.0031600184738636,-0.0303828633040189,-0.0184010360389947,0.0417434115562588,0.036348785971105
71,0.034876,0.008924,0.331995,-0.078287,0.038887,-0.686256,0.722089,-0.341155872122012,-0.9680471597760916,-0.3591980535626411,-0.5129755701387301,9.770329563340544,-0.6692617085348814,-0.1196958720684051,0.4761620163917541,0.1237978637218475,0.3556265788064425,0.3475540141547029,0.6429067258067012,0.5825864086391029,-0.2727051377296448,-0.0480629652738571,0.0072826640680432,-0.0180753469467163,-0.037817358970642,0.0547424629330635,-0.048511367291212,-0.0020557376556098,-0.0041372459352016,-0.0517213493585586,0.0889463306274265,0.0366980378001928
72,0.035327,0.008335,0.331043,-0.083363,0.036785,-0.684846,0.722968,-0.2384493482220917,0.0707213034331798,-0.2587970666587352,-0.5398157923998311,9.769746795016529,-0.6565355710178613,-0.0192711055278778,0.4903229176998138,-0.1519879847764969,0.3504208194827022,0.3395625173162684,0.6466616549512476,0.5862860318320658,-0.4288167059421539,-0.1798104494810104,0.0396017208695411,0.0313090085983276,0.0260891914367675,-0.0232598185539245,-0.0219096448272466,-0.0200495366007089,-0.0190729492604732,-0.0634803399443626,0.1044604914277791,0.0759045512899756
73,0.037026,0.008557,0.332144,-0.086093,0.030212,-0.684883,0.722918,-0.1790385798869654,-0.0444967288523912,-0.2368726734898984,-0.5541855324054137,9.770939219671488,-0.626086729805544,-0.1851469129323959,0.5417593121528625,-0.060710322111845,0.3453506929277334,0.3319075337802957,0.6494296937174214,0.5906024297554372,-0.8229560256004333,-0.1298674494028091,0.0081708943471312,-0.0177142620086669,-0.0111315250396728,0.01111501455307,0.0045222379267215,-0.0118996072560548,-0.052540919098258,-0.0624346919357776,0.1108260078717023,0.044946518446505
74,0.038458,0.008238,0.332173,-0.079867,0.012918,-0.685592,0.723476,-0.0362314797343686,-0.0702554394870996,0.3839198954302817,-0.5920968184528872,9.771260122188924,-0.5850328348834067,0.0051509831100702,0.6029092669487,-0.206411525607109,0.3400283898136851,0.3220635215229616,0.6527660080082982,0.5954429043464954,-0.3626392781734466,-0.0183466710150241,0.0739573612809181,0.0032595992088317,0.013645589351654,0.0376972518861293,0.017387107014656,-0.0037556709721684,-0.0549883122503757,-0.0650093182921409,0.1065479652263224,-0.0157744922369718
75,0.039459,0.008184,0.333235,-0.067472,-0.001271,-0.687785,0.722771,0.1577167922537773,0.1148550441920757,0.2332370934665203,-0.6402979913137853,9.762573542386292,-0.672723101035133,0.294904351234436,0.309471845626831,-0.1023292019963264,0.3342372530015426,0.3155334556971054,0.6593466232423724,0.5949673125555452,-0.7318508625030518,0.0080994246527552,0.0711455270648002,-0.0130263566970825,-0.0514280200004577,0.0410026907920837,0.01264891307801,0.0074086273089051,-0.0720499216884374,-0.0593493580818176,0.0927921924006193,-0.0182765381857752
76,0.040602,0.007687,0.335057,-0.059414,-0.007449,-0.689907,0.721417,-0.1933121295090764,-0.2232639809846878,0.0483235936641693,-0.6663559771560132,9.751887313199044,-0.7918727006159723,0.3295131921768188,0.0861729905009269,-0.0089419949799776,0.3309724550167084,0.3142992172634796,0.6645225905962194,0.5916781366089789,-0.3165524899959564,-0.0515836663544178,0.0438480675220489,-0.0021780133247375,0.0302833318710327,-0.0269781332463026,0.0008365763351321,0.0121335024014115,-0.0561193621069192,-0.0474780686199665,0.0870040374532341,-0.057878480733931
77,0.04208,0.006794,0.336291,-0.056512,-0.012493,-0.693632,0.718,0.8387011603515595,0.3889110547810793,-0.2119615926604718,-0.6582381371520459,9.739308986654876,-0.9396494058746844,0.4059798121452331,-0.3849748969078064,-0.0089943278580904,0.3299764433389069,0.3189491237409927,0.6679672472967326,0.5858384203429361,-0.5637018084526062,-0.0024280508514493,0.0556912086904048,-0.0188965797424316,-0.0802066326141357,0.0302267670631408,-0.0150717599317431,0.0145757943391799,-0.0620651187688112,-0.0365098863840103,0.0697716014929115,-0.0313067001506686
78,0.043527,0.005439,0.336067,-0.055833,-0.017226,-0.69666,0.715019,-0.3630799364972859,-0.1852981152057647,-0.4367958186365663,-0.6926136502888053,9.727091310116649,-1.0365363202430309,0.169809490442276,-0.4124858975410461,0.01328613050282,0.334160601201973,0.3248804351178465,0.6688059104422611,0.579213452233992,-0.5869384407997131,-0.0784586891531944,-0.0694282874464988,0.0107752084732055,0.0798166394233703,-0.0020902156829833,-0.0236485209316015,0.0268133245408535,-0.0403173973411321,-0.0155764352530241,0.0465233393091708,0.0035553543940186
79,0.044937,0.00479,0.337836,-0.050581,-0.007424,-0.696477,0.715756,0.6522051405981183,-0.2106441533863544,-0.5930231760501862,-0.7072719979774207,9.720562785130738,-1.0866587069574742,0.1280434131622314,-1.242315411567688,-0.0061895274557173,0.3429619733017531,0.3359354040711457,0.6652455027856603,0.5718155083334125,-0.7370413541793823,-0.0171414818614721,-0.0731794238090515,-0.0097362995147705,-0.019891083240509,0.0254327021539211,-0.0271274782717227,0.0384862348437309,-0.0052075055152177,-0.0016654478386044,0.0579687893658876,0.0348091553136706
80,0.046034,0.005079,0.337813,-0.049985,0.000546,-0.696419,0.715892,-0.4679040736056864,-0.5738543651998043,-0.1980629042327404,-0.7253062518399208,9.722248546260596,-1.0593423185519872,-0.0743002742528915,-0.4536039233207702,0.1744468063116073,0.3539175873068261,0.3464049880483955,0.6587981562237827,0.5663311286071818,-0.4679585099220276,0.1038747429847717,0.0379976332187652,0.0296045541763305,0.0231238007545471,0.0403252840042114,-0.0176847036927938,0.0339723788201808,-0.0192068047732114,0.0034729950129985,0.0525841737180948,0.0589776741474866
81,0.046081,0.00492,0.337264,-0.050957,0.003325,-0.696677,0.715565,0.1284942049007862,0.2065413942426443,0.5862837847925723,-0.6008999007746577,9.727898534846306,-1.0850250413410365,0.2248976528644561,-0.2196314036846161,0.3442139029502868,0.3543850153035414,0.3563539139752469,0.6544713676680479,0.5648807783515247,-0.0063552018254995,0.1472644507884979,0.006832655519247,-0.0063772201538085,0.0530841350555419,0.0251852236688137,-0.0148217342793941,0.0286673679947853,-0.0756570062696933,-0.0161198005080223,0.0259455384436994,0.0322694077029824
82,0.045726,0.004569,0.336219,-0.04955,-0.000505,-0.697394,0.714973,0.361612932684645,-0.0731119979619979,-0.3192005358256399,-0.5365395837407558,9.728778824812172,-1.1105869872946292,-0.2021455764770507,-0.072316013276577,0.0088550215587019,0.3538832219692723,0.3611082514839195,0.6528591027928602,0.5640413276831928,-0.4433626234531402,0.0951588004827499,-0.0288399197161197,-0.0025652050971984,-0.0779374241828918,0.0206886604428291,-0.0176042392849922,0.0452179834246635,-0.0617220044195652,-0.0452596060931682,0.0299852422885596,-0.0275216286540031
83,0.04627,0.003352,0.334572,-0.046566,-0.008086,-0.69875,0.713803,0.3271026872523129,0.1666770013660192,0.0923087197326123,-0.5485665234798566,9.74187679131627,-0.9825026053037492,-0.4332180619239807,0.4766318202018738,-0.1076091900467872,0.3542363608501162,0.3556687046818911,0.6508405819237439,0.5695814326867942,-0.3041970133781433,0.051109954714775,-0.0560884550213813,0.0115591287612915,0.0180320739746093,-0.0349507331848144,-0.0284107774496078,0.0304153431206941,-0.0299421337991952,-0.0663389638066291,0.0271625130180269,-0.0431321625009179
84,0.045316,0.002159,0.330949,-0.047568,-0.0244,-0.699118,0.713005,-0.0366035644497722,-0.1197714578062295,0.3752524587195366,-0.5463848320592194,9.755984811645746,-0.8322453352756798,-0.3359276056289673,0.9101179242134094,0.0187347717583179,0.3483680710161821,0.3434055555289346,0.6515407330961698,0.579833701204939,-0.2096334844827652,-0.0144259110093116,-0.1478850245475769,-0.0101062655448913,-0.0023444890975952,-0.0427092239260673,-0.0344658493995666,0.0171439833939075,-0.0015717793613672,-0.0717788711190223,0.0293915141791105,-0.0315197583794593
85,0.044907,0.001639,0.329365,-0.047647,-0.036898,-0.69843,0.713136,-1.076922691167146,0.0946627355128526,0.1463479145646095,-0.4338185563914477,9.764360425803064,-0.7996650349926203,0.0419371426105499,1.642593264579773,0.4289255440235138,0.3313425999501038,0.3307325187563452,0.6568010139486252,0.5911349915997558,-0.1625956594944,-0.0838752910494804,-0.1131075918674469,0.0277248620986938,0.0148061513900756,-0.0288347080349922,-0.0306553989648818,0.0053716721013188,0.0006143325060606,-0.046719379723072,0.0429608245220035,0.0361877501904964
86,0.044079,0.001201,0.327513,-0.047289,-0.050153,-0.697212,0.713543,-0.8996376404166221,0.2053945622950792,0.1921300070524215,-0.0706127421919023,9.768550278708338,-0.860711039846763,0.1369370073080063,2.369207859039306,1.0044748783111572,0.2949577586577952,0.3172846326095477,0.665743578924545,0.6075490778866486,-0.0017050565220415,-0.1687933802604675,-0.0331840030848979,0.0271797180175781,0.0303121209144592,-0.0475053787231445,-0.0141588263213634,-0.0036999182775616,-0.0322217691689729,-0.0287862177938222,0.042821342986077,0.066119947117567
87,0.044347,0.00048,0.326187,-0.046939,-0.052938,-0.696915,0.713655,-0.2594332091378047,-0.1517494813472032,0.024895956325531,0.4499218421913683,9.753994514611362,-0.9097023036394268,0.1403850466012954,2.2132792472839355,1.1596673727035522,0.2485463572362291,0.3041445982813334,0.6737046635969182,0.6259735376579801,-0.0610693134367466,-0.2085805237293243,0.0515826866030693,0.0117177963256835,0.0033762454986572,-0.0153578519821167,0.0040191449224948,0.0064996844157576,-0.0423310752511024,-0.0221652910113334,0.0327392902370542,0.0628919249817729
88,0.043766,0.000413,0.325473,-0.048706,-0.046123,-0.696985,0.713941,0.0965451882585883,-0.222623929515481,-1.0338765995144843,0.9432863741375506,9.725210318675636,-0.8371918517671525,-0.272304356098175,2.172521114349365,0.9987921118736268,0.2052380764295466,0.2902955490429457,0.6770623316848995,0.6443543197406051,-0.1724490970373153,-0.1737688034772873,0.0797676518559455,-0.0064834356307983,-0.0113292336463928,0.0466290712356567,0.0207423698157072,0.0084006953984498,-0.01036941832304,-0.016695337370038,0.0511950574472546,0.090163670527935
89,0.04094,0.00063,0.323758,-0.054004,-0.045057,-0.694982,0.715579,0.8556383396923541,-0.2201706911444663,-1.355361300754547,1.3699217410266398,9.694924486005306,-0.5496748500479385,-0.76656174659729,1.361374855041504,0.8831992745399475,0.1726952204409576,0.2792692515251477,0.6708459607251122,0.6649441772573336,-0.2204821407794952,-0.1375506669282913,0.0552903339266777,-0.0195168852806091,-0.0109617114067077,0.0200226306915283,0.0310433339327573,-0.0019564107060432,0.0090577512025833,-0.0188089571893215,0.0376918711431324,0.0720946376129984
90,0.039838,0.000588,0.322839,-0.057663,-0.041225,-0.694726,0.715773,1.039882561931014,-0.5914420443385839,-1.0802221711039544,1.68217494193241,9.660826986092328,-0.09533035084242,-1.0408978462219238,1.786595582962036,0.6720713376998901,0.1469345916078854,0.2653704769119419,0.659119871816516,0.6881494923295954,-0.1492801308631897,-0.1558000892400741,0.0456500276923179,0.0081381797790527,-0.0139250755310058,0.0006607919931411,0.0385129116475582,-0.001541462726891,-0.0002870002478361,-0.0050919018685817,0.0427259197875857,0.1181204757288098
91,0.039284,0.000327,0.321804,-0.060748,-0.036288,-0.695514,0.71502,0.0523144168660044,-0.9915554611355064,0.4825058688014745,1.9024016010478133,9.611878538528083,0.4037975121371447,-0.8446455001831055,1.4281411170959473,0.5898855924606323,0.1218577172555026,0.2472154263742778,0.6467585242945243,0.71115305501095,0.0162086971104145,-0.1422712802886963,-0.0129463756456971,0.0024979710578918,0.0453537106513977,0.039405807852745,0.0377489291131496,-9.0394169092e-06,-0.0476502244472503,-0.0166025310754776,0.0359573755007237,0.0107590021625161
92,0.039377,-0.000965,0.32108,-0.06274,-0.037326,-0.696942,0.713402,-0.0153017601586878,-1.0632985088318585,1.4515823716253042,2.0891293106652795,9.549546293255686,0.7823571957085281,-0.4722214043140411,1.792256236076355,0.6486939191818237,0.0969107855047624,0.2310959498052089,0.6377346982595735,0.728352525029817,0.2335985451936721,-0.1115211471915245,-0.1164424046874046,-0.0205298662185668,0.03529554605484,0.0204344913363456,0.0201744716614484,-0.000264398753643,-0.0251502233475446,-0.0408731065690517,0.0617099486555904,0.0207978733569383
93,0.040005,-0.002551,0.321156,-0.062334,-0.043404,-0.698403,0.711663,-0.3960927829787135,-0.6744166801452637,1.6950906837373971,2.3213300468213856,9.469965391540526,1.04956231748946,-0.0062326043844223,1.8416346311569207,0.9254090785980223,0.06127884058135,0.2119959948811467,0.6336757156517129,0.7414565085860333,-0.0135824875906109,-0.1053569912910461,-0.0949114114046096,-0.0080887079238891,-0.023402452468872,0.0406954437494277,0.0131008364260196,0.0028638176154345,-0.055985506594181,-0.0577371641993522,0.0462249408844858,-0.0099210900336503
94,0.041757,-0.005871,0.322783,-0.05304,-0.060817,-0.708639,0.700941,0.6505877685293555,0.3171370274245739,0.824446498093009,2.6116616310372947,9.39090179169774,1.07729766195938,0.5684933662414551,1.2678046226501465,0.8602562546730042,0.0270999108743351,0.2020150131014144,0.635816830157161,0.7444410331574981,0.0260805003345012,-0.0904722660779953,-0.0889017954468727,-0.0093216896057128,-0.0033779740333557,0.0074664279818534,0.0117993736639618,-0.0002916026860475,-0.0430067825555801,-0.0715336203575134,0.0577080195378512,-0.0095279990628361
95,0.043172,-0.006892,0.322059,-0.051228,-0.073937,-0.712293,0.696094,0.9899950799509882,0.5004512753367424,-0.0900327376246452,2.79733267120868,9.34196211196184,1.0358923963163047,0.2446103692054748,1.0031049251556396,0.4001424312591553,0.0020372519657994,0.1935786795698675,0.6400870880874298,0.7435131052474988,0.1825316250324249,-0.0938684865832328,-0.0302277598530054,-0.0008667111396789,-0.0200735926628112,0.0141084343194961,0.018714565783739,0.0071302908472716,-0.0408013814657926,-0.0703010186553001,0.0492906851306557,-0.019737258388102
96,0.043874,-0.00835,0.321916,-0.054974,-0.077785,-0.715536,0.692052,0.502706653048098,0.4451590117037296,0.54764725321047,2.860548129056394,9.31779622347653,1.079961182080209,0.1644316464662552,0.8931879997253418,0.1635863035917282,-0.0155590800751509,0.1824019940862953,0.6416126680492347,0.7448627794126961,0.0652939528226852,-0.053358506411314,0.0669502541422844,-0.0025383234024047,-0.0345196723937988,0.0323420763015747,0.0215517133474349,0.0143376039341092,-0.0285275908261537,-0.0568743646144866,0.0258607097044587,-0.019625322446227
97,0.044453,-0.009484,0.322561,-0.061098,-0.072223,-0.716853,0.690777,-0.1031558385699987,0.1096598136365413,0.183444742424041,2.873247451631725,9.321550607573986,1.011710871870443,0.4661437273025512,0.1869676113128662,0.0643710121512413,-0.0235661277845507,0.1768450619906719,0.6458660271190504,0.7423123999670184,-0.0484850779175758,-0.0084996316581964,0.1290943175554275,0.0253025293350219,-0.0386014580726623,0.0699895620346069,0.0078868540003895,0.0310739912092685,-0.0162339264422655,-0.0304479338228702,0.0094517920214682,-0.0050029228538274
98,0.045764,-0.009243,0.324514,-0.06798,-0.063367,-0.71733,0.690508,-0.2705067936748266,-0.3778378721028566,-0.5024228676706552,2.91819455460012,9.320330710390207,0.8865422311957925,0.3128992319107055,0.5666989684104919,0.2693180441856384,-0.0315454390474151,0.1738253231754106,0.6516008613548478,0.7377031410444834,0.1059609502553939,-0.0248697642236948,-0.0531181618571281,-0.0195014476776123,0.0369621515274047,0.0362394005060195,-0.0033570593222975,0.0352304354310035,0.0044213235735893,-0.0154579076915979,0.0124461515318602,0.0065115738511085
99,0.04535,-0.009516,0.329521,-0.070991,-0.045931,-0.719108,0.689735,0.1660290588513016,0.1673474479734897,0.0436731375098228,3.0260403045520183,9.28181831664443,0.928073461306095,0.1415973752737045,0.9036996960639954,0.4148215651512146,-0.0494364168248072,0.1653354720046938,0.6521852515258458,0.7381562606069136,0.0314502343535423,-0.0591218508780002,-0.050833836197853,0.0005567669868469,0.0245631337165832,0.0200870037078857,-0.0057934960350394,0.0210089925676584,0.0122802203804254,-0.0216839518398046,0.0174631759762763,0.0301803264692425
100,0.043806,-0.010008,0.333386,-0.06729,-0.043975,-0.720043,0.689258,0.4159557135730982,0.2381657820403575,-0.0680143825620412,3.114444271931052,9.249905759555102,0.9538685584284364,0.1018953695893287,0.373810201883316,0.1481569856405258,-0.0628215516560848,0.1596073313699052,0.6526038137142326,0.738029290208706,0.0245798118412494,0.0737542286515235,0.0830101147294044,0.0213852524757385,-0.0434295535087585,0.0574131160974502,0.0108086904510855,-0.0023981183767318,0.0227104289799928,-0.0398131608963012,0.0366354208927601,0.0567898087143897
101,0.042766,-0.010528,0.336388,-0.061527,-0.047517,-0.721347,0.688197,0.1052986958175897,0.2146966436475515,0.0722287123214453,3.10951529109627,9.25317323691845,0.9381239498730748,0.1314940899610519,0.0793149396777153,-0.0891578570008277,-0.0652252651023545,0.1571956790502557,0.6538031124337939,0.7372765144734155,-0.0897885784506797,0.1554135680198669,0.0453344397246837,-0.0124599337577819,-0.0248006582260131,0.0686094760894775,0.0207259058952331,-0.0070939413271844,-0.0030447745233774,-0.0559276230633258,0.0207578336074948,0.0384846289560198
102,0.041945,-0.01122,0.339331,-0.059783,-0.047099,-0.722588,0.687076,-0.0287558466240763,-0.0005155483067035,-0.7858774057239294,3.082560064153373,9.262783945828676,0.9322228360705076,-0.0619885511696338,0.3166043162345886,2.76968930847e-05,-0.0667504675626253,0.1539597379711109,0.654802461516652,0.7369358891008989,0.1106433197855949,0.1894969046115875,-0.0995031744241714,0.006049633026123,0.0429925918579101,0.0186099931597709,0.0206239446997642,-0.0038252512458711,-0.0338654447227716,-0.0563768371939659,0.017675503552705,0.0356707405790686
103,0.040834,-0.013979,0.341062,-0.058605,-0.040693,-0.7233,0.686838,0.1807543342962861,0.1117512329578399,-0.4423726689208299,3.0811954978019,9.249427036127448,1.0605259023133664,-0.2367201596498489,0.5284504890441895,0.1144666150212287,-0.07287440744134,0.1480103203725418,0.6511690809038696,0.7407840821032668,0.0752448514103889,0.2016585618257522,-0.1405844986438751,0.0165198445320129,0.0075169205665588,0.0187513977289199,0.0156184928491711,-0.0010676027741283,0.0016805004328489,-0.0647761970758438,0.0360681423988193,0.0197694070920348
104,0.040239,-0.017188,0.345855,-0.065865,-0.026011,-0.725158,0.684931,0.4383271198570728,-0.1743628796935081,-0.0857217425577342,3.1136209728494286,9.221902484863996,1.196781315800175,-0.0954711064696312,0.7290061712265015,0.2099616229534149,-0.0829302240560007,0.141140161193149,0.6473488932973956,0.7444068470283377,0.23101207613945,0.0847964957356453,-0.1387184113264084,0.0419806241989135,0.0157688856124877,-0.0207139402627944,0.0117435567080974,-0.012915457598865,-0.0530097056537866,-0.0713054239749908,0.0211269591808319,0.0473290296688675
105,0.040739,-0.020453,0.347251,-0.063189,-0.023724,-0.72497,0.685465,0.4173167727932333,-0.1942483143806457,-0.0629465777784585,3.1639597057282924,9.185373373889922,1.3374104873917996,-0.174178346991539,0.8682500720024109,0.2477401196956634,-0.0965056681637508,0.1327049398901562,0.6435840610755859,0.7475798886830984,0.2914101779460907,0.0878949239850044,-0.123733676970005,0.007759153842926,-0.012764036655426,0.0494619607925415,0.0139833902940154,-0.0134444972500205,-0.0018751462221145,-0.0746339336037635,0.0682039137847721,0.0252136439725756
106,0.040003,-0.023215,0.347055,-0.065184,-0.030558,-0.724963,0.685016,-0.0327203663408756,-0.3296083864629268,0.293278743583709,3.1935157628193496,9.152990861201284,1.481423529268056,-0.0345515497028827,0.5401378870010376,0.1306226104497909,-0.1086776172823393,0.1242912755079438,0.6395467929486519,0.7508134728741682,0.3479376435279846,0.2224941104650497,-0.1212454140186309,-0.0003888010978698,0.0449111461639404,0.0450230836868286,0.0219890847802162,-0.010569367557764,-0.0964724152833223,-0.0999883040785789,0.0419501861747354,0.0027802783682942
107,0.038633,-0.026379,0.345536,-0.067906,-0.046476,-0.723306,0.685607,-0.5331944380313157,-0.2133656873047351,0.1020148518413305,3.1946488585025072,9.144486067706346,1.5306811889119445,-0.0270423479378223,0.2603249549865722,0.053755983710289,-0.1142825114010525,0.1196236674794808,0.6384725177616484,0.7516532258265489,0.011635516770184,0.3077224791049957,-0.0916036367416381,0.0131494402885437,-0.0382792353630065,0.0743322297930717,0.0244741924107074,0.0064014662057161,-0.0899941591799259,-0.1111059933900833,0.0475678799260407,-0.0275096459552645
108,0.036067,-0.030324,0.343079,-0.074632,-0.063933,-0.719247,0.687769,-0.7207388708591461,0.0044108021795749,0.1809580401748418,3.244077783060073,9.121088825505971,1.5659116383776068,0.0824920460581779,0.3067734241485595,0.3285499811172485,-0.1203189253860765,0.1179859079654357,0.6373696347023996,0.7519059950819829,0.1880819201469421,0.3739134073257446,-0.097400277853012,-0.021734595298767,-0.0040689706802368,0.0342481210827827,0.0250375196337699,0.0053048296831548,-0.0547930819392204,-0.1235228702425956,0.077065704023838,-0.0436897963836789
109,0.03015,-0.037725,0.341522,-0.081436,-0.087193,-0.708112,0.695947,-0.6393216936275362,0.162141696023941,-0.1405811677314341,3.384273604735732,9.06900149539411,1.5717152100898324,0.1193808019161224,0.4300088882446289,0.5843294858932495,-0.1320233327591905,0.1178858187963631,0.6371559921604804,0.7501366588571522,0.2221147269010543,0.1684769541025161,-0.1134243831038475,0.0582884550094604,-0.0661402344703674,-0.0425479412078857,0.0393797047436237,0.0044854059815406,-0.0817108994811773,-0.1128562092781066,0.0395844068914651,-0.0390899013727903
110,0.027402,-0.040036,0.34035,-0.085245,-0.093193,-0.704149,0.698729,-0.4778109889835119,0.0202840786159038,0.3052751785866916,3.602393793091178,8.974282061257957,1.6295385996356606,0.157742291688919,0.848763644695282,0.8406136631965637,-0.151552800294585,0.1168207460081688,0.6350350920313147,0.7484083189565868,0.2148552238941192,0.1884285062551498,-0.0427434854209423,-0.0099251866340637,0.0025222301483154,0.0276589356362819,0.0375715047121048,0.0087236836552619,-0.0293657952159643,-0.0953553617000579,0.0455476261448115,-0.0822086198702454
111,0.024578,-0.044376,0.340857,-0.088215,-0.096845,-0.703291,0.698728,-0.3836407131627202,-0.195782684341073,0.4304249684303998,3.872890357632935,8.859650304427742,1.6363697608299552,0.4543422162532806,0.8792632818222046,0.9812694191932678,-0.1764475774930623,0.1149121767304541,0.635109088590472,0.7431674787882102,-0.1341309994459152,0.1062219440937042,0.033557079732418,0.0202032327651977,-0.061562955379486,0.0614227056503295,0.0314162969589233,0.0045124203898012,-0.0172439802676439,-0.0703649818897247,0.0466322795763611,-0.0828358118578791
112,0.021565,-0.047739,0.339854,-0.094779,-0.093541,-0.703629,0.697978,-0.0746869921937584,-0.3179121034502983,0.2361189325131475,4.144231848566234,8.743258552187681,1.597241427142918,0.5756779909133911,0.8139639496803284,0.8328861594200134,-0.2023221253330099,0.112052777145494,0.6371872008620696,0.7351887797692855,-0.3827538788318634,-0.0566940605640411,0.1025128439068794,0.0833851099014282,-0.061378002166748,-0.08620285987854,0.01583007350564,-0.016465451568365,-0.0027794015854597,-0.046843871474266,0.0551106234557926,-0.0298313669010996
113,0.018051,-0.051662,0.34048,-0.099672,-0.090015,-0.703337,0.698055,-0.1661126454815268,-0.229766787007451,-0.413866193947941,4.357760909739136,8.65092162927389,1.53031220946908,0.5579583644866943,0.9601843357086182,0.763400137424469,-0.2252431013074864,0.1072434957339596,0.6406829329928075,0.7261472066726155,-0.2849018573760986,-0.1052933931350708,0.116488978266716,0.0422889590263366,0.0315052270889282,0.0817604064941406,-0.0057650376111269,-0.0004541184753179,-0.0684738167673349,-0.0240354668349027,-0.0189975459367036,0.020270634612441
114,0.014001,-0.055822,0.342456,-0.100606,-0.090516,-0.702662,0.698535,-1.1116831850335,0.0227536835998296,-1.3955045105725523,4.620086442784965,8.508086106744408,1.56130341392979,0.4519339501857757,1.2193636894226074,1.2484376430511477,-0.254801037952468,0.1008659035500502,0.6404855600955778,0.7174125810412464,-0.1403068751096725,-0.1663275063037872,0.1007134094834327,0.0500909090042114,0.0519324541091918,-0.0412453413009643,-0.0113305542618036,0.0278666336089372,-0.0468266331046819,-0.0298813991248607,-0.042760698840022,0.0722027741625905
115,0.006235,-0.062407,0.348622,-0.094096,-0.091982,-0.69881,0.7031,-0.6278647723287344,0.0030061960786581,-1.8968563880108296,5.0165860529989,8.254596498844027,1.6929004802167416,0.1768410950899124,1.451810002326965,1.5696840286254885,-0.2917501237344929,0.0994144909758237,0.6354548411551266,0.707951944967574,0.0320659577846527,-0.1469524204730987,0.1757466495037078,0.0166438221931457,0.01581871509552,0.0102362632751464,0.0179648660123348,0.0135874105617403,0.0240197580128908,-0.047605313360691,-0.0087128832876682,0.1695522645413875
116,0.003686,-0.065096,0.352704,-0.086738,-0.091364,-0.697795,0.705132,-1.2608528790205715,-0.5413467648267746,-1.2159499074548483,5.456691288444399,7.8928925999403,2.024142751491815,0.1081238836050033,1.9045330286026,2.027791738510132,-0.3395147995693074,0.0956708869893043,0.6226110522026757,0.6985215000987482,0.2080116868019104,-0.2655627429485321,0.2591943442821502,0.0515060424804687,-0.0095493793487548,0.0080915689468383,0.069751426577568,0.0287134125828742,-0.0529553451180458,-0.0604735910892486,0.0200001471079885,0.1547854880422353
117,0.002484,-0.068464,0.356019,-0.081737,-0.093523,-0.698009,0.705234,-1.734485121014714,-0.984057214334607,-0.3656501523114741,5.978057341516018,7.397823602163791,2.388600771409273,0.3112282156944275,1.7123656272888184,2.5370869636535645,-0.3930965609787439,0.0966217262690919,0.6073545084777517,0.6835640390906457,0.2490779012441635,-0.2572022974491119,0.2770783305168152,0.0409536361694335,0.0453138351440429,0.0047870799899101,0.0717537701129913,0.010472435504198,-0.0599614244878292,-0.0655555054545402,0.0248008253879845,0.0201180743992328
118,0.003329,-0.071268,0.361745,-0.079915,-0.093684,-0.698264,0.705169,-1.856982788914442,-1.404686764937639,-0.1259282268702983,6.643141545170545,6.692430768996477,2.692662044161558,0.6482989192008972,1.7524816989898682,3.351202964782715,-0.4550323933119574,0.1049743535887805,0.5930369519560611,0.6559215713733543,0.3683542311191559,-0.3941439986228943,0.3008162379264831,0.008692443370819,-0.0027501583099365,-0.0424912050366401,0.0482933185994625,0.0140495570376515,-0.090780925643444,-0.0490718036890029,0.0103892920672893,-0.0547018965244293
119,0.004171,-0.074871,0.364123,-0.077694,-0.093522,-0.698465,0.70524,-1.714972611293197,-1.9077695578217504,0.3041930824384093,7.304235802406072,5.77051407675445,3.0853979179278013,0.8012008666992188,2.222803831100464,3.859087705612183,-0.5257848567669606,0.1143097770284966,0.5741269551010568,0.6171399520484101,0.1008777767419815,-0.4737185537815094,0.2614208459854126,-0.0563117265701293,-0.0175220370292663,-0.03377366065979,0.0575501546263694,0.0060084601864218,-0.072488897627592,-0.0513507090508937,0.0630941695556044,-0.0972577204421162
120,0.007588,-0.084041,0.366551,-0.075084,-0.094954,-0.701662,0.702151,0.1228214930266141,-1.3428370424851774,0.1844438364639878,7.798994419059157,4.762056872917712,3.559339664262533,0.7879812717437744,2.328642606735229,3.4056944847106934,-0.5964952396920822,0.1204656215850605,0.5513730313911779,0.5706744497002998,0.1880443692207336,-0.3538764417171478,0.2775723934173584,-0.0586417913436889,-0.0458182096481323,0.0351254940032959,0.0555745474994182,-0.005468912422657,-0.1183516541361808,-0.0472748391330242,0.0400496863156557,-0.1495166077286004
121,0.00906,-0.087565,0.367031,-0.07436,-0.100996,-0.701291,0.701756,-0.6290145268857479,-1.0523474912285804,0.570341096381843,7.946292766216397,3.835307353691757,4.279861969761551,-0.0711390152573585,2.7303757667541504,2.985290765762329,-0.6577173945453844,0.1224023951937076,0.5165321073571817,0.5344342229028939,0.028303176164627,-0.2926189303398132,0.3184175789356231,-0.0872867703437805,-0.0597767829895019,0.0215463563799858,0.0441239401698112,0.0164229739457368,-0.1032213050216436,-0.0297401715070009,0.0547996578104794,-0.1480836523160338
122,0.00965,-0.09191,0.366579,-0.072867,-0.104912,-0.700406,0.702222,-0.8300310202270745,-1.0003507620096206,2.203129053202271,7.725182163873314,2.835057129447162,5.334266101258993,-0.2283253222703933,3.762351512908936,3.2356107234954834,-0.720886484923797,0.121295295513958,0.4618609775273781,0.5022892968980277,-0.1939743608236313,-0.233973354101181,0.3268997371196747,-0.0569261908531188,-0.0647648572921752,-0.033317320048809,0.0435684248805046,-7.3067843914e-05,-0.0723702396839857,-0.0305837169289588,0.0964108943544328,-0.1394119778215885
123,0.010703,-0.09486,0.36694,-0.070003,-0.110377,-0.700143,0.701938,0.0152542677551507,-0.2353219369165599,2.3447306500226257,7.202963877886534,1.8228272752039127,6.400390188905597,-0.0980551093816757,3.145182609558105,3.127955913543701,-0.7821620497458069,0.1178898852261024,0.399716018327146,0.463197141985519,-0.102565623819828,-0.1935965269804,0.3179873526096344,-0.0587536692619323,-0.0289551615715026,-0.0428693294525146,0.0372685715556144,-0.0049320380203425,-0.0896709185749292,-0.0249505154788494,0.092164781217277,-0.1512128902524709
124,0.012113,-0.09688,0.367743,-0.067942,-0.114007,-0.700708,0.700995,0.7167991933226585,-0.2790022348195314,1.994446555277705,6.71525167261362,1.0177630845814942,7.073891507771611,0.1105290949344635,1.5479193925857544,2.600418329238892,-0.8260747882788365,0.1181570926974384,0.3540774041122564,0.4222186147480588,-0.1297937780618667,-0.201414868235588,0.268972247838974,-0.0452967882156372,0.0027714967727661,-0.0021362379193305,-0.0071224682033061,0.0368367508053779,-0.0970353098630905,-0.0094707133248448,0.0328856399051845,-0.144200381141901
125,0.01641,-0.098282,0.373503,-0.063977,-0.124361,-0.701419,0.698893,2.9460780023038384,0.7199209786050021,2.3586790958762167,6.564439179855585,0.5997330489523709,7.260774261820316,0.4858800768852234,0.4966529905796051,1.3083581924438477,-0.8472799737175809,0.1203334655706092,0.3395929792970564,0.3902731177160374,-0.2206997126340866,-0.1014144420623779,0.1797893196344375,-0.0485457181930542,0.0097416639328002,0.0091454833745956,-0.0416837707161903,0.0294073671102523,-0.0047930794954299,0.0022353455424308,0.0241926303617656,-0.0791939482241868
126,0.018103,-0.099909,0.375162,-0.06265,-0.126078,-0.70316,0.696955,1.349305653977394,0.2827113550031557,1.7404782239496708,6.371396149611472,0.356690235460177,7.446373405799269,0.2026998698711395,1.0237462520599363,1.4573359489440918,-0.8637543670320901,0.1171175222844358,0.3265334771355679,0.3654967106837559,-0.1672993451356887,-0.0964855700731277,0.1611575782299041,-0.022043764591217,0.0320335030555725,-0.0047391504049301,-0.0461337193846702,0.0152846910059452,0.022001403927803,0.0036997145507484,0.0059419572696089,0.0081920742839574
127,0.01996,-0.101904,0.376242,-0.06422,-0.127557,-0.705759,0.693909,3.018521307224035,0.5309893657350913,2.724552389419079,6.042933426052332,0.1717089128523133,7.721648729050159,0.441679984331131,1.2361061573028564,0.6123669743537903,-0.8788978368684489,0.1114282179755599,0.3064134939747681,0.348185508263821,-0.0452826246619224,-0.0276965480297803,0.0774839222431182,-0.0397284626960754,0.0263496041297912,-0.0269729048013687,-0.0451665669679641,-0.008479107171297,-0.0012087912678718,-0.0118372030556201,0.0153568513467907,0.0177954766705632
128,0.021764,-0.103732,0.376738,-0.062334,-0.132718,-0.709807,0.688966,0.9972130485057832,-0.1194699175763875,1.7867898932695387,5.654477129301428,0.2709032273801974,8.00773887630403,0.8963403701782227,1.0540006160736084,0.4483153820037842,-0.891072199986327,0.0937472007606205,0.2879763744690863,0.3380407332552553,-0.1286012083292007,-0.0431408062577247,0.0877673178911209,-0.0006311535835266,0.0286215543746948,0.0132677555084228,-0.0423957668244838,-0.0135027561336755,0.0124772042572498,-0.0246006846427917,0.0441517148070037,0.0102077980205416
129,0.022889,-0.105623,0.377544,-0.059418,-0.134618,-0.713397,0.685137,1.6681927399396896,0.1754881939290091,0.4567933353960514,5.352953266072273,0.5342429607035591,8.19944276689887,1.0719448328018188,0.9043371677398682,0.1623433530330658,-0.9000760300817745,0.0709557817467938,0.2773265953834359,0.3285094565312316,-0.0530073903501033,-0.0586571805179119,0.1357357054948806,0.0233470797538757,0.0068411827087402,0.0040550231933593,-0.04468235373497,-0.0007369704544544,-0.050722471499443,-0.0112835587933659,0.050955695733428,0.07318272511065
130,0.024237,-0.108225,0.379385,-0.063577,-0.125286,-0.715773,0.684054,0.4672580307871103,0.1896166359920054,-1.0016413863420486,5.138765156468748,0.8084661810856312,8.313233981251717,0.7779062390327454,0.3753412365913391,0.1941305249929428,-0.9060825822230032,0.0505327563327069,0.2712737863656154,0.3207355705012187,-0.024764034897089,-0.0331762693822383,0.1222371459007263,-0.0084614157676696,0.0133683681488037,-0.0186392068862915,-0.0416159555315971,0.0131730446591973,-0.060592123606801,-0.0187058392912149,0.0459264693945646,0.0079161799520254
131,0.024842,-0.110075,0.379689,-0.063528,-0.124979,-0.716648,0.683199,0.7892641255527735,0.2510737789303064,-2.4289251830130816,5.158231488960981,0.9969036902956664,8.280653315642475,0.4130846858024597,-0.6619187593460083,-0.2179554402828216,-0.906452821822438,0.0404659703767596,0.275983144893426,0.3170789197991897,-0.2020362764596939,-0.1490307003259658,0.0506974495947361,0.0048244595527648,0.0526015162467956,-0.0279695987701416,-0.044244710355997,0.0396452061831951,-0.0537485413223505,-0.0186389200389385,0.0154343004971742,0.0340647666871547
132,0.02577,-0.112168,0.380452,-0.061929,-0.127245,-0.718755,0.680709,-0.4301660252332687,-0.59476432062909,-1.9467109906345603,5.349651886439323,1.102484856316447,8.144700538364052,-0.0635035932064056,-0.2014278471469879,-0.0177426692098379,-0.9017388639223524,0.0398570508159366,0.2883526778584895,0.319579958912788,0.1030839383602142,-0.1319427341222763,0.0358137749135494,-0.0159429311752319,0.0125344991683959,0.0081808716058731,-0.0229158885776996,0.050307746976614,-0.0114501992970705,-0.0077104587107896,0.0245338450148701,0.1214645254597067
133,0.026266,-0.113172,0.381484,-0.061863,-0.125096,-0.723511,0.676059,-0.1121679970651865,-0.0511031413801014,-0.925410379576683,5.289180174341798,0.971823244248703,8.200641036772728,-0.3607440292835235,0.4028576016426086,0.3911608159542084,-0.9044151857287822,0.0441434058475808,0.2827278214337888,0.3164639481250976,0.0537621974945068,-0.1077440381050109,0.0876784324645996,0.016821801662445,-0.013351023197174,0.0225964933633804,0.0122373364865779,0.0236439723521471,0.0440764576137065,0.0102355051785707,0.0626921646259725,0.1367439276561141
134,0.028104,-0.115888,0.384085,-0.056883,-0.118359,-0.731365,0.669224,-0.6759907975941896,0.0667727119378745,-0.0551209987193345,5.19594425676167,0.7077515981879084,8.2868352191478,-0.5536639094352722,0.3218820989131927,0.6918584704399109,-0.9091050104332512,0.0534342820992059,0.2731918231234351,0.309901885169544,-0.2069255858659744,-0.1285983920097351,0.1064599156379699,-0.0036311149597167,-0.0082267522811889,0.0356832891702652,0.0282891802489757,-0.0059127379208803,0.0295113411664962,-0.0090825967490673,0.06852481630221,0.0357578343406319
135,0.029371,-0.122124,0.383917,-0.050113,-0.116997,-0.73958,0.660925,1.3870382955223322,0.1913571229837834,0.9283306509375572,5.075211260446906,0.4362230237172916,8.379875906416773,-0.3245852887630462,0.479082703590393,0.2554818391799927,-0.913881107968566,0.0627590415148045,0.262309974571261,0.3034405673744592,-0.0402391329407691,-0.1325533390045166,0.1017695516347885,0.0024251341819763,-0.0128732919692993,0.0130350738763809,0.0256797801703214,-0.0140913780778646,0.0074766194909811,-0.025382675230503,0.0722191407755017,0.0725438426852226
136,0.028032,-0.122738,0.383041,-0.049963,-0.121442,-0.734041,0.666287,0.5036474410295486,-0.1450960513399913,0.2190712054699659,4.944657711863518,0.3646144160555675,8.460957275822759,-0.0600860342383384,0.2326825857162475,0.0043967487290501,-0.9163185642671428,0.0636995903477048,0.2540739889462601,0.3029010500094543,-0.4086110293865204,-0.1544015407562255,0.0647270455956459,-0.0100464224815368,-0.021386444568634,0.0168373584747314,0.0303531326353549,-0.0195450410246849,-0.0053963060855865,-0.0242444239556789,0.0738489339344203,0.0998509518057107
137,0.025937,-0.122873,0.383659,-0.036025,-0.132882,-0.725373,0.674446,0.6249567759275436,-0.0025176453767344,-0.2399491583257913,4.897418698565661,0.3603012655641883,8.488572427979111,-0.1086728125810623,0.0251403450965881,-0.2245112061500549,-0.9162277622677384,0.0637319019154993,0.251279740663396,0.3054889697128209,-0.1147767528891563,-0.1868310719728469,-0.0209873225539922,0.0039185285568237,0.0858233571052551,-0.0267455428838729,0.0413840524852275,-0.010714472271502,0.0009328969359397,-0.0298561453819274,0.1039179089836776,0.0743780723750591
138,0.023885,-0.123623,0.385339,-0.015233,-0.143112,-0.716116,0.682983,0.021941782695055,-0.1473209608478471,0.0562070403903722,4.843973816365003,0.3800073981616645,8.518326930251717,-0.0334848016500473,0.2477455139160156,-0.1840640306472778,-0.9154661882227928,0.0630181044111638,0.2484248747257423,0.3102182461786623,-0.0322898626327514,-0.2019435614347458,-0.0239773876965045,0.0175729990005493,0.0253141522407531,0.0039055347442626,0.0515419654548168,-0.0267484858632087,-0.0013262801676988,-0.048523299396038,0.1276494977049529,0.0664157151937484
139,0.023107,-0.126217,0.386266,-0.00908,-0.141993,-0.711849,0.68777,-0.3523898348525166,-0.3112519149087369,-0.530032759130001,4.851842942304909,0.3811327489297836,8.513797470128535,-0.089245855808258,-0.3668716549873352,-0.0547839552164077,-0.9146266139094166,0.063683603555555,0.2487198166058803,0.3123156054498852,-0.0089861387386918,0.0319280587136745,0.1230713129043579,-0.0317080616950988,-0.0500496625900268,0.0915871709585189,0.0685557499527931,-0.0110998880118131,-0.0114694885194301,-0.0584436208009719,0.1321872872650623,0.0713984720423817
140,0.027298,-0.136487,0.385128,-0.031262,-0.140396,-0.715732,0.683403,0.3534232695534825,0.0253340920144692,-0.2168769102960824,4.8928711182639,0.3411283265279606,8.49198603581488,-0.2087537199258804,0.2445004880428314,-0.0182196199893951,-0.913434580252374,0.0669370261212528,0.250097269723034,0.3140190183881157,-0.2353135496377945,-0.1311903446912765,0.1001273170113563,0.0145447850227355,0.0309834480285644,-0.0547955185174942,0.0759982615709304,-0.0216637477278709,-0.032626258316636,-0.07740218937397,0.1337294021405279,-0.0213452781066298
141,0.028519,-0.141768,0.383944,-0.034962,-0.149065,-0.714675,0.682493,0.3456006131038069,0.0824522741666995,-0.4998725986659526,4.802381869043409,0.26500616869824,8.546185243514179,-0.2110444605350494,0.1551654487848281,-0.0187074430286884,-0.9145432737675006,0.0692701308341226,0.2438595074846972,0.3151900326992036,-0.0295566618442535,-0.2736822366714477,0.1012922525405883,0.0147907137870788,0.0392089486122131,-0.0261160433292388,0.051813893020153,-0.0057279635220766,-0.0709013361752033,-0.073052167892456,0.0706843324236571,-0.0678723437428474
142,0.029297,-0.146523,0.38339,-0.037834,-0.153792,-0.713602,0.682413,0.1297562607258558,0.1815362053889781,-0.5433072512447834,4.816963644364476,0.2043791929737664,8.539640936437248,-0.2432810217142105,-0.1737421005964279,-0.1351058930158615,-0.9134248107765612,0.0732895203087359,0.2433682757833124,0.3178923163701472,0.4279203414916992,-0.2787181138992309,0.1028990000486373,-0.0039480328559875,0.0241549015045166,-0.0052706897258758,0.0276311542838811,-0.0099067836999893,-0.0361117623448371,-0.0547868087887764,0.0656238341636955,-0.039107144768536
143,0.029943,-0.150446,0.383578,-0.039126,-0.156755,-0.712682,0.682629,-0.1056932480931282,-0.0258391280603129,-0.90529288969934,4.854741878616809,0.1350746244707144,8.519602357015014,-0.279213547706604,-0.1168789789080619,-0.0128490282222628,-0.9119906033578596,0.078152446773323,0.2439536082250004,0.3203936475450457,1.1636539697647097,-0.1722167730331421,0.0988508611917495,-0.0013744235038757,0.0462317466735839,0.0531871318817138,0.0292887017130851,-0.0189338643103837,-0.0229120890319347,-0.0350894927978515,0.0457728862680494,0.0271764684781432
144,0.030627,-0.153858,0.384241,-0.040062,-0.157556,-0.712599,0.682477,-0.6202315009713173,-0.0594740519628394,-0.4900654904007911,4.906899935877322,0.0076993617176805,8.490739250624179,-0.4281800389289856,-0.1457994133234024,0.059464119374752,-0.910755036434884,0.0858642289030217,0.2443769731411297,0.3216090130111325,2.5648999214172363,0.0559743270277977,0.179286852478981,-0.0289463400840759,0.095242440700531,0.1042679399251937,0.0568700581789016,-0.0225655864924192,0.0115939916819334,-0.0263683088123798,0.0651192456424236,0.0872127117678523
145,0.030678,-0.158726,0.387484,-0.036535,-0.153921,-0.712935,0.683153,-0.7625994059890508,-0.0506668140557594,-0.1033919854134321,4.943922383326291,-0.1698989590872079,8.467535485169291,-0.4547906517982483,-0.0317869260907173,0.2084265202283859,-0.910249625421212,0.0953608202380174,0.2432738487436429,0.3212006351941688,2.5230376720428467,0.1804942041635513,0.2483300864696502,-0.0034508109092712,-0.0664335489273071,0.0605702400207519,0.0801422074437141,-0.0470901727676391,0.0199959093242883,-0.0316465236246585,0.0786048962898552,0.0748410137116909
146,0.030837,-0.162008,0.389661,-0.031216,-0.149789,-0.713776,0.683456,-0.0145849901914596,0.0227765895513817,0.1040723688930273,4.927636434435844,-0.3639502895910292,8.470910514560341,-0.4155872762203216,0.0655299201607704,0.2299919426441192,-0.9110967698222864,0.1041606691993292,0.239278747022869,0.3190594660969227,1.895730257034301,0.0415677428245544,0.4533174633979797,-0.0049106478691101,-0.1435568928718567,0.0260180830955505,0.08607067912817,-0.0601100586354732,0.0222884041756391,-0.0398532375693321,0.0792599991977214,0.0791851803958415
147,0.030907,-0.166353,0.39073,-0.027509,-0.145921,-0.714349,0.683854,0.6166390294373035,0.2302025480762124,0.4179448415637016,4.903941086071729,-0.5200505500262603,8.476514325916767,-0.2843579947948456,0.1341909766197204,0.1648224890232086,-0.9118619219751376,0.1110483915236473,0.2355553208352904,0.3173165446182863,0.916883945465088,0.0592247135937213,0.4835354089736938,0.0347836017608642,-0.0398803353309631,0.0670745894312858,0.0819933786988258,-0.0577440112829208,-0.0226800338417291,-0.0455374121665954,0.0618257570549845,0.070310676805675
148,0.030772,-0.171099,0.392548,-0.02306,-0.142036,-0.714537,0.68464,0.4704135722085833,0.2706270590536296,0.2389092938840389,4.872995620448887,-0.6278120192281902,8.487057931762934,-0.2289568185806274,-0.0245400220155715,0.0491647347807884,-0.9124032671369002,0.1156485760238336,0.2321764005323426,0.3166068232760394,0.4781560897827148,0.0512222871184349,0.3777719736099243,0.0072869658470153,-0.0113682150840759,0.0365669131278991,0.0722987875342369,-0.0426775142550468,-0.0479816483587026,-0.069939836859703,0.0471134872220456,0.0070554714694619
149,0.030289,-0.17613,0.394543,-0.018973,-0.138089,-0.713429,0.686724,0.0310077172040939,0.1970416714262217,0.2440706221699714,4.897157125020027,-0.6975795290678739,8.467681031119824,-0.1783116310834884,-0.1308251619338989,0.0290313232690095,-0.9117605372054908,0.1197266763248591,0.2322368306889819,0.3168980658914483,0.5989575982093811,-0.0484033711254596,0.3675091564655304,0.0281160473823547,0.0163989663124084,-0.0175144672393798,0.0579717718064785,-0.0416297726333141,0.0089835169225931,-0.0894294381141662,0.0361228682607412,-0.012443301987648
150,0.026736,-0.185503,0.396693,-0.012646,-0.127849,-0.7039,0.698584,-0.2426186697959899,-0.015963438937813,0.045097617354989,4.977002815151215,-0.760356449367851,8.415562136825919,-0.1365202218294143,-0.3522045612335205,0.0458931438624858,-0.9103959739426704,0.1244681833687871,0.2354430113326052,0.3166283913714143,0.798080325126648,-0.0802979245781898,0.3535802960395813,0.0194572210311889,0.0096800327301025,0.0171364098787307,0.0517234317958354,-0.0041955858469009,-0.0747135879397392,-0.063565008342266,-0.0209584707461297,0.0491974538892507
151,0.025403,-0.188534,0.397345,-0.01013,-0.127093,-0.697799,0.704855,-0.4354828363418578,0.0143434365205466,-0.2917594250619411,5.112855054664611,-0.8307662026338278,8.327000056275725,-0.1625200510025024,-0.4284725189208984,0.223072737455368,-0.908898190002538,0.1301136289905882,0.2418917323752712,0.3137881260869619,0.4693583548069,-0.0963185429573059,0.3468889594078064,0.0155437886714935,-0.0080930590629577,0.0119214653968811,0.0594869218766689,0.0054280441254377,-0.0434703084141016,-0.0425499938428401,0.0003134498633444,0.047945408001542
152,0.024458,-0.191547,0.398352,-0.00867,-0.123486,-0.692266,0.710946,0.0105722474187612,0.0483214747723192,-0.5263000023424625,5.216867802324891,-1.0077979362104088,8.242512677818537,-0.3262248039245605,-0.2576751708984375,0.3078857362270355,-0.9085755762512264,0.1396972609971951,0.2454250969245611,0.3078011430662119,0.256680965423584,-0.1207654476165771,0.3477126061916351,0.0110224187374114,-0.0248640179634094,0.0464864373207092,0.0604856982827186,0.0177847854793071,-0.0603355184972286,-0.031326163560152,0.00637830286026,0.0150368256121873
153,0.023019,-0.19349,0.399003,0.000144,-0.117657,-0.68872,0.715417,0.5438333209455013,-0.1411001501042395,-0.1488373932927846,5.34201218534112,-1.1879810464899987,8.137689782819152,-0.3744401931762695,-0.5197040438652039,0.2084216326475143,-0.9071203185753792,0.1503706723990924,0.2499639032027331,0.3033802698076477,0.1083977445960044,-0.1865422874689102,0.3094806671142578,-0.000361144542694,0.0021447539329528,0.0440306812524795,0.0448445603251457,0.0139745287597179,-0.041653029859066,-0.0217921398580074,0.0039648119777441,-0.0009121464088559
154,0.022893,-0.194863,0.399878,0.005501,-0.114428,-0.687032,0.71754,0.6675543931603432,-0.1893298549398779,-0.3045230450451374,5.482101624032855,-1.329641606955975,8.02178259922564,-0.2946950197219848,-0.3716233074665069,0.217100128531456,-0.9049240406769604,0.1597928264067218,0.255869431091534,0.3001824680403716,0.4749602973461151,-0.1577417403459549,0.2727213203907013,-0.0237317979335784,0.0277423858642578,0.0016277432441711,0.0358751490712165,0.0001119086518883,-0.0273918647944927,-0.0207759458571672,0.0237855108655989,0.0142073890507221
155,0.022473,-0.195772,0.399298,0.002869,-0.114748,-0.687671,0.716892,0.3475841881364583,0.0287188756145536,-0.1237339316964149,5.421693624821305,-1.4673349442914128,8.038814982569217,-0.410103976726532,0.2392890006303787,0.0500774271786212,-0.9051720160308347,0.1658389207545872,0.2502637580407317,0.3008805244106992,-0.0418080016970634,-0.2049904316663742,0.275318294763565,-0.0350326895713806,-0.0291024446487426,0.0126482248306274,0.0491758808493614,0.0033242555800825,-0.0446299998432397,-0.0414722077548503,0.0411421577274799,-0.0241451379582285
156,0.022863,-0.19696,0.399364,0.00229,-0.115548,-0.689403,0.715099,-0.282796366405487,-0.1726980152212083,0.4142641072243452,5.45187775068283,-1.605894543067366,7.991777921584248,-0.3416573703289032,-0.3329935073852539,0.0942109897732734,-0.9037846051000532,0.1737657408147258,0.2496761815745129,0.3010658168066067,-0.0144163249060511,-0.1466574966907501,0.1819528639316558,-0.0256687104701995,0.0311373472213745,-0.0029160678386688,0.0515425838530063,-0.0027126020286232,-0.0643149435222148,-0.0536228418350219,0.0444691101931035,-0.0320130948543548
157,0.022593,-0.19695,0.398679,0.003425,-0.114132,-0.692373,0.712447,0.4210235183566808,0.2061447961404919,0.6377870314061641,5.489661830154061,-1.6978820680215954,7.94677265868783,-0.169934943318367,0.1898165196180343,0.0489956699311733,-0.9025592110442158,0.1793709935323805,0.2503066256794772,0.3009310960107041,0.0827688127756118,-0.0778167620301246,0.1710595488548278,-0.0389959812164306,0.0111855268478393,0.019208550453186,0.0464318990707397,0.0161682572215795,-0.0717833797067403,-0.0317768976092338,0.0175162213377654,-0.0049210897892713
158,0.022917,-0.197756,0.398967,0.006018,-0.112635,-0.695569,0.70955,-0.2169178268283605,0.1702615818545222,0.4893956283152103,5.385849573501944,-1.7858986435182391,7.998348532146215,-0.1861004382371902,0.3575068116188049,0.1902488619089126,-0.9041891717427616,0.1815634288778001,0.2433771583973154,0.3004069780338876,-0.1396232396364212,-0.0832698494195938,0.1070315539836883,-0.0231267213821411,-0.0106174349784851,-0.0282880514860153,0.0464660823345184,0.01034826785326,-0.0243435831397771,-0.0293613858520984,0.0661529726043343,-0.0217833772629499
159,0.0235,-0.198955,0.399788,0.009319,-0.111734,-0.697888,0.707377,0.0609293927371501,0.1958833682365715,0.34575346557796,5.279636685448884,-1.8601527972526848,8.052058495023847,-0.0619729235768318,0.163784459233284,0.1113869920372963,-0.9061378439538552,0.1828039333837498,0.2367318830458686,0.2990900905479697,-0.0752330720424652,-0.0786497443914413,0.065369002521038,-0.025109052658081,0.0126477479934692,-0.0175269693136215,0.0440071076154708,0.0171581208705902,-0.0739899498403072,-0.0431469231843948,0.023267770601809,-0.0184761524111032
160,0.023108,-0.199741,0.400302,0.01037,-0.114242,-0.69931,0.705555,0.0266319863379001,0.0298778363913297,-0.0515460628420114,5.250786438539624,-1.900497374861688,8.061496769976616,-0.0786611661314964,0.0436505824327468,0.0885797142982482,-0.9067785825238078,0.1840036730065906,0.2347779643856849,0.2979504011485107,-0.0505319833755493,-0.0509907379746437,0.0824870020151138,0.0046107470989227,-0.006382942199707,0.0140865594148635,0.045509222894907,0.0149541068822145,-0.0402992771625518,-0.0421750955283641,0.0294243935354053,-0.0067202481657266
161,0.023173,-0.200521,0.400005,0.008605,-0.116637,-0.698861,0.705631,0.022685879060626,-0.1061908223517239,-0.1866536214679479,5.237974303239584,-1.958508834325522,8.055945565590262,-0.1502202749252319,-0.033704724162817,0.101831205189228,-0.9069992189196202,0.1864794157451266,0.2334234838057243,0.296801856689608,-0.1173680052161216,-0.0577010549604892,0.12586210668087,0.0229794085025787,-0.0106111168861389,0.0074140280485153,0.0355791375041008,0.0047641908749938,-0.0587660772234201,-0.0255488660186529,0.0038733343020081,-0.0276776959985494
162,0.021893,-0.19912,0.397999,0.007524,-0.118549,-0.698686,0.705498,0.1788940933823585,-0.1256416650138795,-0.0004477437674999,5.2381368003249165,-2.027194686408341,8.03883018013835,-0.1216380596160888,0.0056253671646118,0.1205092966556549,-0.9070129236539636,0.1897085277556678,0.2326895088906517,0.2952858625037555,-0.167128637433052,-0.0555431470274925,0.1439876407384872,0.0176247358322143,-0.0137854218482971,0.0239990502595901,0.0087754018604755,0.0045764953829348,-0.0079050740361213,-0.0070589147508144,0.0245316530577838,-0.0770738873302936
163,0.021484,-0.198705,0.397394,0.007123,-0.119461,-0.69887,0.705166,0.2836719801962375,-0.23952727965191,-0.0664846887767314,5.2225423408299685,-2.096315715038031,8.031244839575887,-0.1359749287366867,0.0051541277207434,0.1285901069641113,-0.907373674098202,0.1925703331542825,0.231164747439078,0.2935174841100053,-0.1666700392961502,-0.0385013110935688,0.1523204147815704,0.0106576681137084,0.0107437372207641,0.0176318138837814,-0.0148813519626855,0.0063133286312222,-0.0828051244586706,-0.0106937531381845,-0.0002102817498147,-0.0770119280099868
164,0.021442,-0.198912,0.39774,0.00704,-0.119622,-0.698828,0.705181,0.4118295735538005,-0.1184400630719959,0.0878811125487089,5.217088167077303,-2.1563506431534885,8.018885708740353,-0.0985437557101249,0.0047337454743683,0.1059849336743354,-0.9075548205128656,0.1952125205101266,0.2303099723153895,0.2918795874717165,-0.2987372577190399,-0.0592844076454639,0.1391467601060867,0.0051624774932861,-0.0025879144668579,0.0211340934038162,-0.0168476644903421,0.0147095676511526,-0.0720090051561593,-0.016695063561201,0.0128863695800304,-0.0178971834793686
165,0.020574,-0.196209,0.398284,0.005789,-0.121024,-0.698572,0.705208,0.3649240299940109,-0.0743500153243541,0.1582178005784749,5.234963430985808,-2.2058276446364817,7.993739577046036,-0.0787244439125061,-0.1742421686649322,0.0555195696651935,-0.9073218753196022,0.1978410992952875,0.2308497793108652,0.2904037784543185,-0.1749577969312667,-0.0858727693557739,0.133258432149887,0.009425401687622,0.012183666229248,-0.0190421938896179,-0.0111158620566129,0.012009154073894,-0.0481371311813592,-0.0253601539880037,0.0116647188305854,-0.0243634568840265
166,0.020848,-0.196641,0.398883,0.007572,-0.120945,-0.700226,0.703561,0.086047467380762,-0.0628843261972069,0.162505268639326,5.28160301708579,-2.2370454974599183,7.95428668757975,-0.0747366026043891,-0.1373482942581176,0.0348188951611518,-0.906475550025368,0.2002870145710167,0.2330865590504345,0.2895821351966728,0.0092171002179384,-0.0552435927093029,0.0810851752758026,-0.0030924379825592,0.0063421130180358,0.0098137855529785,-0.0121577540412545,0.0227240249514579,-0.0773953743696212,-0.0265927035361528,-0.0049951779387891,-0.0081073186099529
167,0.020978,-0.196279,0.39846,0.007349,-0.121754,-0.700883,0.70277,0.0663198536038398,0.1993342393428087,-0.0271299989879131,5.295045851504803,-2.2513146997004747,7.941313224238157,0.0075381994247436,0.0234143622219562,0.0410767495632171,-0.9062906429227596,0.2011898874340354,0.2337270295306357,0.2890183658910709,-0.002852079924196,-0.0525600872933864,0.1302448064088821,0.0196588039398193,-0.0026993751525878,0.0195373147726058,-0.0253528244793415,0.0197221934795379,-0.0093465050160884,-0.0261086914688348,0.0236475636996328,-0.0231698631852865
168,0.02081,-0.19635,0.398339,0.006618,-0.122986,-0.700547,0.702897,-0.0562070403903722,0.1069943938195705,-0.3821832078307867,5.277063035568594,-2.284969862673432,7.943670601019263,-0.1304855495691299,0.0367230623960495,0.0926043689250946,-0.9066750189309524,0.2023410731989871,0.2324728270301318,0.2880188564940609,0.075685866177082,-0.1070000529289245,0.214384526014328,0.0438999831676483,0.0126698017120361,-0.007204994559288,-0.0307673867791891,0.0173429511487483,-0.0138555068731307,-0.0142631763592362,0.023940116905421,0.0231622644007205
169,0.020542,-0.196839,0.3983,0.005168,-0.124652,-0.699966,0.703194,0.05880348662436,-0.0849250392220914,-0.0206599261909723,5.257521299752593,-2.3453391373097894,7.93903300434649,-0.1215641573071479,0.0242435969412326,0.0687852352857589,-0.906734116546546,0.2049921220988372,0.2306516995106872,0.2874218284243789,0.5866202712059021,-0.1493969410657882,0.3759964406490326,0.0586337447166442,0.0025548338890075,0.0131599307060241,-0.0267308466136455,0.0109257027506828,-0.0273205531239509,-0.0021364372223615,0.0572020427770912,0.0825014653369784
170,0.020312,-0.197813,0.397915,0.001469,-0.128958,-0.69958,0.702819,-0.0730097066313028,0.0277481308862566,-0.1029968486160039,5.258251952114701,-2.3872337208397685,7.92605077317655,-0.0780366733670234,-0.0746621191501617,0.0702869370579719,-0.906667866081756,0.2070073720866919,0.2302863822340093,0.2864775843778788,0.6828263998031616,-0.2002260833978653,0.4731014966964721,0.0616509616374969,0.0367136597633361,-0.0543725490570068,-0.0177950151264667,0.016978446394205,-0.0292740252792835,0.0072869313880801,0.0414670057676732,0.0650227995306253
171,0.020458,-0.198711,0.397895,-0.000265,-0.131522,-0.699572,0.702354,0.0633785394549369,-0.1373934776060283,-0.0279424844145774,5.258632475864887,-2.4411617103822527,7.909355074441432,-0.1219861656427383,0.0210389140993356,0.1238975599408149,-0.9066308751930876,0.2095562173432322,0.2298288754889514,0.2851057327384402,1.7646154165267944,-0.3603219091892242,0.5204163193702698,0.0252465605735778,0.0502106547355651,0.0290810167789459,-0.0196237675845623,0.0380695760250091,-0.0652414107173681,0.0057279244065284,-0.0078648881562054,0.0551511015966534
172,0.020458,-0.199232,0.396937,-0.002693,-0.133799,-0.699211,0.702279,0.2787818700671196,0.0270920050650835,-0.0324327815711498,5.23745875493288,-2.496711017516255,7.906064216202497,-0.1078679785132408,0.0635167062282562,0.0697364881634712,-0.906914588950344,0.2117831100422735,0.2281465071774663,0.2839068738060336,2.662203073501587,0.0745817795395851,0.4300341010093689,-0.0154486298561096,0.0368101596832275,0.139432668685913,-0.03154918551445,0.0213626269251108,0.0235036251842975,-0.0172063186764717,0.020017975025624,0.0367456763342022
173,0.020339,-0.200092,0.396328,-0.005225,-0.13627,-0.698578,0.702419,0.025367665490508,0.0439642294108867,-0.0093184479653835,5.213594479742646,-2.5454563437238336,7.9062933487832545,-0.0743533745408058,0.0210470743477344,0.1196618527173996,-0.907234949627911,0.2136439330274785,0.2263791208932866,0.2829019424604793,0.8356130123138428,0.1487416476011276,0.3772231638431549,-0.0111917853355407,-0.0448011755943298,0.0984257161617279,-0.0380412526428699,0.0253874938935041,0.0058650926411151,-0.0169515702873468,0.015766601191461,0.1091036410585045
174,0.020359,-0.201203,0.395989,-0.007828,-0.138946,-0.698313,0.702134,0.1869043813586235,0.0379874930888414,-0.1164899519175291,5.209475938507914,-2.5982866011574863,7.891808896356821,-0.1106233745813369,-0.0449273437261581,0.0843647047877311,-0.907336768623326,0.2159943185855188,0.2257790439026882,0.2812654161699583,-0.0134892771020531,0.0467686839401721,0.3747453391551971,-0.0046497881412506,-0.0450185537338256,0.0143423378467559,-0.0263223387300968,0.0113426148891448,-0.0080967972159385,-0.0213048756122589,0.0430110203392803,0.1165244387090206
175,0.020275,-0.203747,0.395496,-0.01297,-0.144265,-0.697715,0.701579,0.0250911866366863,0.0866933640688657,-0.2677390825271606,5.193819519692659,-2.6474416772097347,7.885789489936828,-0.1134998947381973,0.091567188501358,0.1002007946372032,-0.9074619545200736,0.2180793052224535,0.2244505504643142,0.2803143680365819,0.0371366143226623,0.0275122709572315,0.3137800097465515,0.0050136148929595,0.0203612446784973,0.0309305191040039,-0.0170735735446214,0.006329393479973,-0.021667641928792,-0.0215376298874616,0.0430224185161292,0.1148436460152268
176,0.020254,-0.204796,0.395342,-0.015083,-0.146535,-0.697581,0.7012,-0.0291822553426027,0.0831689893350005,-0.2362386133700609,5.150379606416821,-2.711254224167764,7.892596247342229,-0.1266821324825287,0.0831410139799118,0.1333386301994323,-0.9079877185848748,0.2203438480620318,0.2214456230355223,0.2792289059412536,0.3613538444042206,-0.1128856390714645,0.3203181624412536,-0.0155249238014221,-0.012755811214447,-0.0468488037586212,-0.0150867253541946,0.0090845637023448,-0.0012573065847158,-0.028261175379157,0.0681928078688681,0.0588236526295542
177,0.019977,-0.20562,0.395293,-0.017255,-0.14854,-0.69747,0.700838,0.0749976655781269,0.0552367340534925,-0.2060200007170438,5.098872122019529,-2.7874700333639977,7.899487760421633,-0.1843544691801071,0.1491803675889969,0.1599999070167541,-0.9086548118618252,0.2230142861246045,0.2179514872648492,0.2776837774554558,0.5687411427497864,-0.1119914054870605,0.2970746755599975,-0.0286937952041625,-0.0143839716911315,0.035764992237091,-0.0031155934557318,-0.0076390709728002,-0.0080506199866533,-0.0284810531884431,0.0791711518704891,0.0699862671568989
178,0.020018,-0.206418,0.395635,-0.019704,-0.148243,-0.698271,0.700038,0.102323479399085,0.0031818449065089,-2.39653974771e-05,5.025158066511154,-2.885501660788059,7.911513713780045,-0.1915075033903122,0.1884550154209137,0.1801739931106567,-0.9094444175657768,0.226442559837856,0.2129526254990281,0.2761989219836429,0.992721676826477,-0.2810158729553222,0.2106339931488037,-0.0102921724319458,0.060298204421997,0.0436404049396514,0.0092051913961768,-0.009075416252017,-0.0028057050704956,-0.0162748284637928,0.0720925917863845,0.0400412107482552
179,0.020307,-0.206901,0.396436,-0.020094,-0.147948,-0.699313,0.699049,0.2080593975901603,-0.0167474289223551,0.0421463663339614,4.9450107630848885,-2.968073853273689,7.931442987608909,-0.1306413114070892,0.1675959229469299,0.1541810184717178,-0.9104813159680656,0.2289063824769968,0.2078721261131383,0.2746175396040741,1.997692942619324,0.0717376843094825,0.0995538681745529,-0.0453819334506988,0.1072577238082885,0.0264554023742675,0.0112742464989423,-0.0160738602280616,-0.0707698187500238,-0.0204444490373134,0.0667985770314931,-0.0525868040665984
180,0.018501,-0.207619,0.397277,-0.02321,-0.149242,-0.69806,0.699929,0.1955930069878697,0.0346422743141651,0.0685848759263753,4.887446755127608,-3.035325142508745,7.941665690937638,-0.130148559808731,0.1095118224620819,0.1167068183422088,-0.9111376733404656,0.2311072031444051,0.2041499335284205,0.2733871290763159,0.5100677013397217,0.1456047147512436,-0.0332040414214134,-0.007028728723526,-0.0464016795158386,0.0449057817459106,0.0068003726191818,-0.0065249847248196,-0.0517366169780492,-0.0380695164203643,0.0664591159440576,-0.1291089027330279
181,0.018487,-0.208715,0.396965,-0.026057,-0.152773,-0.697931,0.699195,0.222909176197648,-0.0057543257430195,0.0793020847737789,4.849207040843368,-3.0912951592728493,7.943518040806055,-0.0992371514439582,0.0657142698764801,0.0861739590764045,-0.911505468196628,0.2331428793736968,0.2015879428978509,0.2723318561284841,-0.734677791595459,0.064741663634777,0.0092375576496124,0.0438110530376434,-0.0193182229995727,-0.0407648086547851,-0.0002670367248356,-0.0114574767649173,-0.044980128455162,-0.030623834580183,0.0743270728401839,-0.0903618234485387
182,0.019374,-0.210311,0.396887,-0.028237,-0.154846,-0.700003,0.696578,0.1295370650172233,-0.1031178446471691,0.0538765516161918,4.818080665695667,-3.1327953366577623,7.946198658192157,-0.0728033557534217,0.0837640911340713,0.0552833117544651,-0.9117152380084956,0.2346753860041915,0.199459481621116,0.2718798387977543,-0.6873414516448975,0.136262834072113,0.0187054947018623,0.0272107422351837,0.0099718570709228,-0.0236687660217285,0.0038530048914253,0.0056538097560405,-0.0988029040575027,-0.0101494435220956,0.104517628442496,-0.0371288304328918
183,0.019769,-0.21106,0.397393,-0.0274,-0.157431,-0.700481,0.695551,0.0891074394732713,-0.0394134342387318,-0.0758522365808486,4.775311783549189,-3.163579474239051,7.95980808134973,-0.0653770416975021,0.1101088672876358,0.0684486702084541,-0.9122170781280348,0.2354007074721059,0.196848233402105,0.2714725183427027,-1.235405445098877,0.0499613881111145,0.1662067323923111,0.0439085066318511,-0.1062380671501159,-0.0235425233840942,0.0113777508959174,0.0274610463529825,-0.1135012914955616,-0.0220717899501323,0.098703535336256,-0.0722007283359766
184,0.02043,-0.211528,0.397862,-0.02616,-0.160446,-0.701782,0.693595,0.1335445470929145,0.013056757710874,0.0405167193055152,4.7316225716874,-3.197644240926206,7.9722771023005246,-0.0695167183876037,0.1270897537469864,0.0310957636684179,-0.9126005214916442,0.2363539353672757,0.1940716226307954,0.2713547004520967,-0.7905645370483398,-0.0370850414037704,0.206012949347496,0.0295312702655792,0.0468701124191284,-0.0145074725151062,0.0102264322340488,0.0211967527866363,-0.1123269870191812,-0.0299567393958568,0.0726977180726826,-0.0611240385264158
185,0.020727,-0.211972,0.398346,-0.026246,-0.161389,-0.702485,0.692661,-0.0475450105071067,0.0963452817723155,-0.1954191117256879,4.714891509377956,-3.216438665506244,7.974629218384623,-0.0234658755362033,-0.0414768904447555,0.047024130821228,-0.9127895019823586,0.2369561130276708,0.1930255724064557,0.2709398178900983,-0.13515605032444,-0.037923514842987,0.2641308903694153,0.0534166097640991,0.0203894972801208,0.0191352069377899,0.006369893439114,0.0470666140317916,-0.0611345599204301,-0.0403711795806884,0.0728138917982578,-0.1067246369674801
186,0.018942,-0.212567,0.397866,-0.028879,-0.165151,-0.70014,0.694043,0.1403033737033605,0.0948006826788186,-0.2468137833982706,4.699275714834034,-3.246766876013577,7.9715552177667615,-0.101523257791996,0.1022048443555831,0.0680882856249809,-0.9128988391987312,0.2381621336493531,0.1919442414740612,0.2702810347438177,-0.0559360682964324,-0.0479913279414176,0.2966592907905578,-0.0101830810308456,-0.0101016759872436,-0.0099761486053466,0.007092922925949,0.0436262935400009,-0.079911741104722,-0.0488270819187164,0.0531770250447094,-0.0731134592667221
187,0.01791,-0.213053,0.397496,-0.031002,-0.16868,-0.698405,0.69485,0.1894581574946642,-0.0167450908347964,-0.0889952112704515,4.640095796112716,-3.302965148575604,7.983126997616886,-0.1331277638673782,0.1677050441503524,0.1023427322506904,-0.9133679987074698,0.2399502088065391,0.1881427401093459,0.269787142211109,-0.8735976219177246,-0.0643935203552246,0.3797160685062408,0.0176557302474975,-0.1442773342132568,0.0186508297920227,0.0146078262478113,0.0503919757902622,-0.0460235000282526,-0.0537301711738109,0.0468102664917707,-0.059424541132152
188,0.017464,-0.213561,0.397391,-0.031564,-0.171957,-0.697846,0.694583,0.4097875463321804,-0.1107791730552911,0.1330523796617984,4.5813747270748015,-3.3605142512246964,7.993017692512273,-0.1277553737163543,0.113642081618309,0.0372364334762096,-0.9136885169346268,0.2419016002413317,0.1842637705384359,0.2696361354615852,-1.996101975440979,-0.314139723777771,0.4553520679473877,0.0645793825387954,-0.1083900332450866,-0.0263720154762268,0.01584686152637,0.0351841077208519,-0.0121779290497303,-0.0507888160645961,0.0361493178762495,-0.0534802457749843
189,0.01726,-0.213903,0.397601,-0.03259,-0.171844,-0.698684,0.69372,0.2543433021202683,-0.0973299088954925,0.3165823161512613,4.560096961246431,-3.3866824194431304,7.9941405590623615,-0.0204629451036453,0.0305583626031875,-0.0163478069007396,-0.9135586007033534,0.2430223363421272,0.182626438923327,0.2701821002088767,-2.075373411178589,-0.2371680587530136,0.3471342325210571,-0.0138895660638809,0.0165780782699584,-0.0260854959487915,0.0019871359691023,0.0467508882284164,-0.0939186391472816,-0.0379092618823051,-0.021356091761589,-0.0456593428909778
190,0.016652,-0.213421,0.399033,-0.033923,-0.168424,-0.699411,0.693763,0.0439174676597118,0.1084402087137103,0.1061105967223644,4.559982687216997,-3.383109529392421,7.995718183642626,-0.0105988727882504,-0.0087118558585643,-0.0283341910690069,-0.913438882732774,0.2429346196979639,0.1825228529818983,0.2707351518849741,-1.9613617658615112,-0.3772976994514465,0.3539288938045501,-0.0223500430583953,0.122754156589508,0.0363439470529556,-0.0125416200608015,0.0397774875164032,-0.0043704701691865,-0.0298212654888629,0.0067453826069831,-0.0513227754801511
191,0.01572,-0.213284,0.400053,-0.0346,-0.166652,-0.698657,0.694917,-0.1881008976668119,0.2142015536069869,0.1420218680590391,4.5590153034895655,-3.38547070556581,7.995270439875125,0.0108634904026985,-0.0082527874037623,0.0213445294648408,-0.9133869564967472,0.2430713806782716,0.1824032556412437,0.2708682917092338,0.1975137740373611,-0.0019751535728573,0.0302114151418209,-0.1178759336471557,0.271267831325531,0.0361537337303161,-0.0021385354921221,0.04715047031641,-0.0406523283839225,-0.0214579962193965,-0.016960194890201,0.0106520346567034
192,0.015945,-0.213799,0.400849,-0.036072,-0.1684,-0.699401,0.69367,0.1940340871080756,0.2780681688398123,-0.1668792459398508,4.562047510792315,-3.384095910081267,7.99412302340567,0.0260715335607528,-0.0191612560302019,0.040746372193098,-0.9136739151703108,0.2428409175664182,0.1828700405282357,0.2697902038176032,1.5169517993927002,0.1558326333761215,-0.1623904556035995,-0.0308866947889328,0.1502807140350341,0.0813272446393966,0.0090517755597829,0.0453743934631347,0.0081067340880632,-0.0113412765786051,-0.0215970609106123,0.0248971253693103
193,0.015956,-0.213956,0.401689,-0.035953,-0.168031,-0.69965,0.693515,0.277279648810625,0.0117342769354581,-0.2285977432280778,4.5498798108756535,-3.4002778140753507,7.994190827944874,-0.0640024840831756,0.0586104430258274,0.0687935575842857,-0.9139094282278214,0.2433286209111531,0.1822110752107621,0.2689979212613506,0.6583594083786011,0.2082434892654419,-0.1746421903371811,-0.0067567378282547,-0.1270455718040466,0.083796203136444,-0.0062537174671888,0.0281819775700569,0.0113899935424327,-0.0005526104941964,0.0276354642920196,0.0311626155048608
194,0.015688,-0.213917,0.402127,-0.034812,-0.168483,-0.698786,0.694333,0.3220291833803057,-0.0985208722457289,0.0463075776666402,4.514856720550358,-3.433824402107298,7.999706376495957,-0.0550180114805698,0.078284166753292,0.0605711564421653,-0.9142413419654144,0.2443563307690999,0.1800512734301282,0.2683921282340692,0.2330672442913055,0.193155288696289,-0.0301432702690362,0.0458708852529525,-0.1073648929595947,-0.0414741039276123,-0.0249742697924375,0.024442994967103,0.0053109658896923,-0.0039259097538888,0.0440207819037139,0.0537672460228204
195,0.015427,-0.214404,0.401614,-0.036064,-0.17107,-0.697741,0.694688,0.4191442804813384,-0.0954825274631381,-0.0913736308395862,4.500341288463771,-3.447935637307167,8.001815331473946,-0.0075618801638484,-0.0634263232350349,-0.0134452190250158,-0.9144079659329224,0.2447724423677096,0.1791853745654397,0.2680245353763179,-0.0267755202949047,0.026247002184391,0.1087767928838729,0.0919204354286193,-0.0376423001289367,-0.02177494764328,-0.0480054281651973,0.0061070900410413,0.0248632230997085,-0.0023250000085681,0.0475610848590731,0.0961085504069924
196,0.016109,-0.215139,0.401602,-0.036798,-0.173986,-0.697794,0.693872,0.0922501214131712,-0.0759586195647716,-0.1841238107293844,4.546066390067339,-3.445911730264127,7.976800717204808,-0.0320191495120525,-0.1268423795700073,-0.0456807725131511,-0.9135796734371154,0.2456550538294328,0.1815211547270358,0.2684693205977215,-0.7792801856994629,-0.2020001262426376,0.0333129316568374,0.0288137048482894,-0.0243114233016967,-0.076530322432518,-0.0494811609387397,0.0463748350739479,-0.0184364049226045,-0.0016343512106686,0.0537967643782496,0.1281944182366132
197,0.015644,-0.21514,0.401136,-0.036679,-0.174066,-0.697404,0.694251,0.0889335442110896,-0.0091138653039932,-0.0314244813114404,4.560456442208588,-3.457839776206016,7.963414581409096,-0.0654254257678985,0.0872155502438545,0.0060358550399541,-0.913094848530416,0.2466734361149148,0.1820194455407148,0.2688475709618216,-0.7077330350875854,-0.2338757514953613,-0.0226093232631683,-0.0162366330623626,-0.0124000310897827,0.019644558429718,-0.0157815441489219,0.0224468782544136,-0.013754384586215,-0.0340597555041313,0.0667526920631527,0.1269204527780413
198,0.015299,-0.215199,0.40086,-0.036825,-0.173871,-0.697061,0.694636,-0.0140030986502766,0.1382376733452081,-0.0666354954242706,4.539942061968148,-3.473659861150384,7.968249746480583,-0.0265483427792787,-0.0190510917454957,0.0057023973204195,-0.913177492727789,0.2471702885293192,0.1806631921120736,0.2690253301984183,-0.8754400014877319,-0.2877891659736633,0.0026444355025887,-0.0480538606643676,0.0126007795333862,0.0128332525491714,0.0168378166854381,0.0330342575907707,-0.0453916318655014,-0.0560172833502292,0.0339576530508697,0.0843842103436589
199,0.015321,-0.215292,0.400813,-0.037058,-0.173085,-0.697434,0.694445,-0.0069981883242726,0.1643000431016087,-0.0268669641375541,4.550295113678276,-3.482663836339116,7.958407566902041,-0.0201786123216152,-0.0332128889858722,0.0117786172777414,-0.912943142278263,0.2478457195178068,0.1811259937583204,0.2688880608621627,0.7827727198600769,0.0167589057236909,-0.0043869754299521,-0.0430505126714706,0.185689091682434,0.0201950669288635,0.0386457964777946,0.0279882252216339,-0.0072714523077011,-0.0706821382045745,0.0274123230606317,0.0226855867996811
200,0.015504,-0.215322,0.400769,-0.034094,-0.176774,-0.695867,0.69524,0.229686707508564,0.0330716639965772,-0.0123041857779026,4.545548503673077,-3.4937405261486765,7.956265294176339,-0.0284176021814346,0.0576266273856163,0.0446746200323104,-0.9130065775337332,0.2482783585052946,0.1808348225597887,0.2684692044108081,1.35616135597229,0.2233478277921676,-0.0869997590780258,-0.0264120399951934,-0.001219093799591,0.1490162760019302,0.0408384837210178,0.005260981619358,-0.012318214303255,-0.0467531010508537,0.0237077694542706,-0.001135726031661
201,0.017833,-0.216182,0.399834,-0.031663,-0.182909,-0.697224,0.692402,0.3297290902331471,0.0413727516129612,0.0428027844160795,4.521970936469733,-3.511768058009445,7.961761553505062,-0.0388549007475376,0.0348845198750495,0.0090734381228685,-0.9131893150441612,0.2487823787302857,0.1793612726834367,0.2683693193584153,1.0897130966186523,0.3146775066852569,-0.055727194994688,-0.0171339213848114,-0.0317088961601257,0.0707823187112808,0.0291316211223602,0.007303231395781,-0.0105395141929388,-0.0238480456173419,0.0617550299063324,-0.0509267618998885
202,0.017794,-0.216962,0.398642,-0.034316,-0.184011,-0.695635,0.693581,0.1128898815989494,-0.0345575186401605,0.0828168148964643,4.520039676146209,-3.5221786851257084,7.958259098342061,-0.0186278969049453,-0.0282289832830429,0.0087424851953983,-0.9130740048847704,0.2493297226297409,0.1790988829771236,0.2684291163242432,0.4192363321781158,0.4334574341773987,-0.1813164800405502,0.0233394503593444,-0.0200077891349792,0.0623329579830169,0.0069779269397258,0.0125635480508208,-0.0818424169063568,-0.0157642886042594,0.053327977822721,-0.0297124166965484
203,0.016434,-0.217716,0.39669,-0.038759,-0.18649,-0.691926,0.696389,0.1060617891445755,-0.029763562361896,-0.0577805733174085,4.529860812936723,-3.5286186550453302,7.949817433211207,-0.0248976405709981,-0.0395682603120803,0.0214392524212598,-0.9129616651064468,0.2497984187652579,0.179646510001075,0.2680090887889395,-0.0240393914282321,0.2718075811862945,-0.1437617093324661,0.0507960170507431,-0.0680146217346191,-0.0532467365264892,-0.0195091217756271,0.0256343521177768,-0.0267266788840293,-0.0223904196172952,0.0665668141022324,-0.0361591086179018
204,0.015404,-0.217425,0.39617,-0.038734,-0.18574,-0.689411,0.699079,0.3494163719996809,-0.0981631448492407,-0.1658481493264436,4.544930371774733,-3.5330925855889914,7.939222389438748,0.0138500202447175,-0.0714777261018753,-0.0095684640109539,-0.912781538712784,0.2502684124711327,0.1804938791544526,0.267614601563824,-0.2336216419935226,-0.1826388835906982,0.0208410155028104,0.1329441219568252,-0.0888358354568481,-0.2471076548099517,-0.0333931185305118,0.0182606987655162,0.0324035554766654,-0.0101086739450693,0.083746204701066,-0.0080877371266484
205,0.014857,-0.216578,0.397413,-0.036629,-0.182024,-0.689895,0.699694,0.2414773908063769,-0.0659907677799463,-0.4680576567322015,4.577900328962505,-3.531296934343874,7.921057202672958,-0.0647733584046363,-0.0984845906496048,-0.0643463432788848,-0.912136108687624,0.2509228482492409,0.1821433503369792,0.2680841547120875,-0.5875719785690308,-0.1327558010816574,0.1312408149242401,0.0399663299322128,-0.0889691710472107,-0.0202745795249938,-0.0366447567939758,0.0224944427609443,-0.0280997208029031,0.0003710947930812,0.0674773530758917,0.0550786208823323
206,0.015725,-0.216184,0.398072,-0.034511,-0.178025,-0.693283,0.697478,-0.2260425057873129,0.2122714623272419,-0.2460626727700233,4.596956619349122,-3.548591475754976,7.902270084616541,-0.1045750975608825,-0.0154588241130113,-0.0180235560983419,-0.911333913444854,0.2524515826306182,0.1826596921655414,0.2690241974732182,-1.912669897079468,-0.4790667593479156,0.2410277873277664,-0.0253146737813949,-0.0196062922477722,0.1079568266868591,-0.0139671266078948,0.0218176059424877,-0.0004249474138021,-0.0067330561578273,0.0806068837620317,0.071735448911786
207,0.016672,-0.216713,0.397321,-0.034879,-0.17961,-0.694462,0.695878,-0.3205386525616049,0.2944388734042644,0.3792202663719654,4.569049790769816,-3.587962532156705,7.900677262467146,-0.0818150117993354,0.2017777562141418,0.0738895982503891,-0.9111797026238756,0.2541411754680795,0.1805265472929302,0.26939585380354,-0.417490005493164,-0.4578980505466461,0.0928168073296547,-0.0270145088434219,0.2559409141540527,-0.100278615951538,0.0011626444756984,0.0193047262728214,-0.0413572617828846,-0.0025298846885561,0.0015085048668086,0.0801031720235943
208,0.017133,-0.218111,0.396905,-0.037741,-0.181323,-0.693872,0.695873,0.2876844307079911,0.0855552999496459,0.3133510791450739,4.489046864250302,-3.615805355589091,7.933775814470648,0.0226566921919584,0.1359905898571014,0.1029970869421958,-0.9123966054307204,0.2538800976967917,0.1761673011909777,0.2684071799693023,1.0283573865890503,-0.1074688807129859,-0.0870795845985412,-0.0881094485521316,-0.0491146445274353,0.1979386955499649,0.0299766398966312,-0.0071341060101985,0.0216261408746242,-0.0126722976565361,0.0760308080181479,0.0903586085781455
209,0.017812,-0.218213,0.396083,-0.035859,-0.185074,-0.692003,0.696845,0.4407973093628883,0.041835692949593,0.1337783558487892,4.467465731561184,-3.607999358013272,7.94949536164999,0.0591622702777385,-0.0119068454951047,-0.002696486422792,-0.9130083705850168,0.2529044015056165,0.1752937312794737,0.2678194430698446,1.1636371612548828,0.0946715995669364,-0.0197658650577068,-0.0380639284849166,0.0681719779968261,0.1070821285247802,0.0373481623828411,0.0064119612798094,-0.0609416676968336,-0.0134965563192963,0.0278983530119061,0.0681692808628082
210,0.018867,-0.218333,0.395927,-0.03412,-0.185079,-0.69309,0.69585,0.3919467692151665,-0.0057508186116814,-0.1673801811993122,4.487435921922326,-3.5882445639684795,7.947188253751396,0.0442572832107543,-0.0958239436149597,-0.0310609824955463,-0.91302713789393,0.2521546645260249,0.1767036882527567,0.2675353699628234,1.8597102165222168,0.3997639715671539,-0.0795477703213691,-0.0088055729866027,0.0321251153945922,0.00954470038414,0.0066497828811407,-0.0063173007220029,0.0369768547415733,-0.017400786280632,0.0826721457287669,-0.0015861001476645
211,0.019832,-0.219641,0.393341,-0.035995,-0.185273,-0.69528,0.693515,0.0976242156669497,-0.0540922401934862,-0.380147902610898,4.534707376185059,-3.5741704459086057,7.926671535423398,-0.0002358225174248,-0.1522317081689834,-0.0343740433454513,-0.912451882601591,0.2523209720280364,0.1794055302472915,0.2675434118428252,0.4379665851593017,0.3242150247097015,-0.2148714363574981,0.0556161105632782,-0.1149302124977111,0.0207283496856689,-0.0091276820749044,-0.0047063115052878,0.0178700032114982,-0.0097199818119406,0.0827621620997786,0.0480143815845251
212,0.019191,-0.219797,0.392824,-0.036866,-0.182746,-0.694977,0.694444,0.0592377863883972,-0.0468617044180631,-0.3173316732138395,4.586710535144806,-3.5796056226998565,7.894231739589571,-0.0511005707085132,-0.088965505361557,0.0006474305409938,-0.9116682347042702,0.2535822744627043,0.1822147737235364,0.2671232761175377,-1.4463506937026978,-0.3890726268291473,-0.0376786850392818,0.1135726124048233,-0.1307660937309265,-0.0452378988265991,-0.0063362661749124,0.0090131666511297,-0.0229126735538244,0.0025067953392863,0.0734860919713974,0.1332782973721623
213,0.019032,-0.220053,0.392442,-0.037175,-0.181793,-0.695243,0.694411,0.2193614205881953,-0.2479471713423728,-0.1877373250514268,4.562008932347595,-3.6041736622452736,7.897365945962071,-0.0635406821966171,0.1479702740907669,0.0684255436062812,-0.9118048796853566,0.2544144973166516,0.1806091156187786,0.2669558904402467,-0.4434182643890381,-0.1598443984985351,0.0703312680125236,0.0519917756319046,0.122440218925476,-0.0368509292602539,-0.0042134532704949,-0.0013681417331099,0.0136474170804023,0.0050227986648678,0.1024869993977248,0.0758773710221052
214,0.01909,-0.22054,0.391703,-0.038085,-0.182307,-0.695004,0.694467,0.0663762599661946,0.163314831456542,-0.2128974852710962,4.559520622663199,-3.619045652684569,7.892000035014748,-0.0794118344783783,-0.1205423399806022,-0.0881135985255241,-0.911457849779144,0.2553224239641311,0.180084517663035,0.2676279279180815,-0.7202118039131165,-0.2548066079616546,0.1275375634431839,-0.0133976340293884,-0.1126624941825866,0.0494245588779449,-0.0110559556633234,0.0108895134180784,-0.0435369439095258,-0.00465670786798,0.0626237755648791,0.0624155396416783
215,0.019327,-0.221056,0.390799,-0.038528,-0.184236,-0.694601,0.694335,-0.2905117630884051,0.2090934168130159,0.266097160539031,4.5759830971643325,-3.640582653971016,7.872541885828971,-0.0743957757949829,0.0753675103187561,0.0232150573283433,-0.910685769908725,0.257004229563269,0.1804463673261777,0.2684012800127318,-0.7226206064224243,-0.2180853486061096,0.0693906396627426,-0.0430998057126998,0.0766400098800659,0.0948464274406433,-0.0104399835690855,0.013169040903449,-0.0190185887247324,-0.0060140769928693,0.0995214275903999,0.0736401134893298
216,0.017861,-0.221042,0.391387,-0.038183,-0.186237,-0.692731,0.695688,0.0305590966537594,0.128250824598968,0.1438882464528083,4.527252676264942,-3.656855158858001,7.893147451484203,0.0234245508909225,0.0675190761685371,0.037354364991188,-0.91134790492686,0.256865871010855,0.1777115615191531,0.2681111006431031,-0.169508695602417,-0.0678539872169494,0.1064483970403671,-0.0455788075923919,-0.0906410217285156,0.0546494126319885,-0.0003364980220794,0.0143813984468579,-0.0472328758180141,-0.0300996862351894,0.0648173400864005,0.0492912696525454
217,0.01749,-0.22128,0.390457,-0.040474,-0.186951,-0.693002,0.695097,0.0428252885088324,-0.0240197580128908,0.0581003067910671,4.524563291050494,-3.653623629590869,7.896185796266794,0.0192579161375761,-0.0005215155542828,0.0222402922809124,-0.9115145134359676,0.2565781258280529,0.1776914159909178,0.2678335392157662,0.2466544210910797,0.1073767989873886,-0.0204209368675947,-0.0580722391605377,0.1120223999023437,0.0426959097385406,0.0162212420254945,0.0313898921012878,-0.0675268913060426,-0.0431636646389961,0.0028242636404931,0.0269043735384941
