time_imu,phone_acc_x,phone_acc_y,phone_acc_z,phone_gravity_x,phone_gravity_y,phone_gravity_z,phone_gyro_x,phone_gyro_y,phone_gyro_z,phone_ori_w,phone_ori_x,phone_ori_y,phone_ori_z,watch_gyro_x,watch_gyro_y,watch_gyro_z,watch_acc_x,watch_acc_y,watch_acc_z,headphone_gyro_x,headphone_gyro_y,headphone_gyro_z,headphone_acc_x,headphone_acc_y,headphone_acc_z,frame_imu
1733382816312759600,3.3898154567718506,13.735799128210544,-2.5607529893159864,-0.161384082589671,9.803243990948795,0.2018655113860964,-0.792388916015625,-0.2243556082248687,-0.8459383845329285,0.5638864606166281,0.5593927622382323,-0.4204610103189517,-0.4385479863461834,-0.0796405375003814,0.2455626130104065,0.1272046267986297,0.0098082423210144,0.0119139328598976,-0.0660620853304863,-0.0094110546633601,-0.0067396108061075,0.0458487279832363,-0.0280104167759418,0.1607261301375925,0.151859955984354,0
1733382816352759600,5.199667661198974,7.584037663170695,-1.0597679966181517,-0.71517846025303,9.767340318396688,0.507904513952136,-0.6791524887084961,-0.6831509470939636,-1.939130544662476,0.5545720208292867,0.5575498638601227,-0.4040324569006474,-0.4672748876457698,-0.0855112075805664,0.166435569524765,0.0870637372136116,0.0039048790931701,0.0262747891247272,-0.0599718652665615,0.0013096537441015,0.0061022853478789,0.0060568158209323,-0.0480001233518123,0.158687756177783,0.0990866894349455,1
1733382816392759600,3.8496027132868766,-1.8756050717979669,-0.7117126838386059,-1.5107668203912674,9.65661082970202,0.7986520585577934,-0.7208014726638794,0.0400119386613369,-2.0676372051239014,0.5399157049450737,0.5627322817735494,-0.3776406433716588,-0.4992103637117427,-0.0707295984029769,0.0851485952734947,0.0343651659786701,0.001016616821289,0.0539106577634811,-0.0626114010810852,0.0091883800923824,0.0009697158820927,0.0055418520361185,-0.0645371228456497,0.1779717178404331,0.0658355772182345,2
1733382816432759800,2.098227540008724,-9.416288746410608,-0.7540047422535717,-2.2433754311338068,9.491256016850471,1.0264949648305772,-0.5620772838592529,0.228226751089096,-1.65910804271698,0.5296304447492122,0.5719937503015368,-0.3471116145816497,-0.5213714252088585,-0.0164413303136825,0.0003581280470825,-0.0041775638237595,-0.0023925304412841,0.0516287945210933,-0.0372365079820156,0.0153178507462143,-0.0111417770385742,-0.0063712885975837,-0.0479294657707214,0.1769135870896279,0.0257920283824205,3
1733382816472759800,1.1432353843778371,-13.785647154963016,-0.3245515414647758,-2.7331352165862914,9.342159095838666,1.1934971064977349,-0.3194162249565124,-0.2344880402088165,-0.9564059972763062,0.520859935599924,0.5760529864754839,-0.3275844005647799,-0.5381045002426269,-0.0054107829928398,-0.053545743227005,-0.0699682310223579,0.0005407929420471,0.0310264304280281,-0.0127518251538276,0.0187702663242816,-0.0213917940855026,0.0046148003190755,-0.0268931686878204,0.1811943331487476,-0.0288476165607571,4
1733382816512759800,-0.2549295775756239,-14.498132576739788,0.6523584314636885,-2.963026799017191,9.259320069110393,1.2867949833981691,-0.0341739803552627,-0.0488901063799858,-0.2937160730361938,0.5151049177157593,0.5763027200371309,-0.3197919496511253,-0.5479736799773031,0.0016335442196577,-0.072302758693695,-0.106813333928585,0.0012256503105163,0.015388548374176,0.0050069764256477,0.0175830889493227,-0.0307974852621555,0.0241027601212263,-0.0210812911391258,0.2116726927164942,-0.0055374681219458,5
1733382816552759600,-1.6689134554296732,-10.704583174586295,0.1933275462739169,-2.9288512654319403,9.275693111762404,1.2464854771025478,0.281821459531784,-0.080003909766674,0.4175775051116943,0.5139714631087415,0.5763069031596114,-0.3229818556620819,-0.5471621316960884,0.078553095459938,-0.071613535284996,-0.1241429150104522,0.0023878812789916,0.0006977245211601,0.0137249305844306,0.0078852549195289,-0.0113906692713499,-0.0484539420455694,-0.0223388820886611,0.1699501778177917,-0.005548281776905,6
1733382816592759600,-1.3467214827030896,-6.379690515226125,-0.7883195381790399,-2.611791394896805,9.39024946526885,1.0826568509049712,0.4192354679107666,0.2994235455989837,1.2792588472366333,0.5198767411082857,0.5763371367785711,-0.3356119289091508,-0.533786777927327,0.1223290711641311,-0.068324476480484,-0.113363042473793,-0.0096420645713806,-0.0197177231311798,0.0141530036926269,-0.0014328612014651,0.0058675911277532,-0.0334019188642501,-0.0163517873734235,0.1928343559294938,-0.0110123924016952,7
1733382816632759600,0.3329821006797254,-0.1295101770102977,1.265551850491762,-2.062942876137793,9.54381154899597,0.911226590597257,0.5487106442451477,0.3009579181671142,1.6044856309890747,0.5328505041368912,0.5731011794403551,-0.3536882991035973,-0.5123769014632684,0.0715902596712112,-0.0692567378282547,-0.0808967128396034,-0.0055121779441833,-0.0390391126275062,0.0343399718403816,-0.0138175198808312,0.0126190995797514,-0.0290372939139604,-0.0203979630023241,0.1935335902400314,0.0033279753789305,8
1733382816672759600,0.8872548364445567,3.725899761250615,-0.4051947021165862,-1.404851307849586,9.692253220969436,0.5069482361406088,1.2110153436660769,0.1734417825937271,1.738127589225769,0.540858177743936,0.5740695222361758,-0.3802591446814997,-0.4830316499027817,0.0173922665417194,-0.0476774126291275,-0.0516975447535514,-0.0041531324386596,-0.0398225262761116,0.0209202244877815,-0.0238446332514286,0.0207003429532051,-0.0102256259381771,-0.0216349102556705,0.1958285693094134,0.0198842656433582,9
1733382816712759800,2.3625987535379824,5.938073121652007,-0.8227624905288219,-0.8470688834633677,9.768637372469902,0.1630104599487967,0.5456973314285278,0.0171206183731555,1.087494969367981,0.5446181714367091,0.5727300189455987,-0.4045603844087126,-0.4601110870158864,0.0063505349680781,-0.012864626944065,-0.0116679714992642,-0.0028319358825683,-0.0299059525132179,0.0232918336987495,-0.0306816194206476,0.0187981612980365,0.01891103669703,-0.018627630546689,0.1925391723752021,0.0200087688058614,10
1733382816752759800,1.5944389369428156,5.561865481099486,-0.0012239894078258,-0.5330595596052706,9.792150934526324,-0.0055096473916142,0.3262093961238861,0.1250985115766525,0.5585268139839172,0.5479480577431469,0.5717360998773343,-0.4164117504760522,-0.4466229866725196,0.0111165288835763,0.0086040198802948,0.0187878720462322,-0.0066571831703186,-0.0224971771240234,0.0264499187469482,-0.035678319633007,0.0175201892852783,0.0097433953791856,-0.0074265589937567,0.1958141023926436,0.0407388376235961,11
1733382816792759600,0.292436593671143,4.335291888299584,0.358420639449358,-0.3843138266513123,9.79827789297402,-0.1281283855293877,0.3613072633743286,0.0190503448247909,0.2721560001373291,0.548230407676385,0.5724543593217546,-0.4228814680049043,-0.4392158549941204,-0.0127342101186513,0.0304014086723327,0.0466681718826293,-0.0095705389976501,-0.0113468468189239,0.0172200128436088,-0.0342394039034843,0.0111608393490314,0.0242740250349044,0.007597186602652,0.1931536510117351,0.0568754411712288,12
1733382816832759600,0.3172339849930256,2.2045050177305936,-0.7979273244798183,-0.3078068890213966,9.798526899299024,-0.2540250116850249,0.2219758927822113,-0.0134443305432796,0.088204950094223,0.5463210787864308,0.5743771023238626,-0.4278347996768004,-0.4342599188051098,-0.0067908326163887,0.0341605134308338,0.0535136274993419,-0.0063853859901428,0.00224369764328,0.0078315734863281,-0.0281477943062782,0.0081608360633254,0.0148830963551998,0.0145378317683935,0.1867924454167485,0.0739931647107005,13
1733382816872759600,-0.021552235388197,0.6786743375897407,-0.6589081453680992,-0.3148328786680475,9.79775240779519,-0.2743817902109585,-0.0930923745036125,0.0104963108897209,-0.0586957149207592,0.545444239799737,0.5749753301084172,-0.4282440288078104,-0.4341668857310809,2.472870983183384e-05,0.0290296673774719,0.041108027100563,-0.0071077942848205,0.0063587874174118,-0.0009039640426635,-0.0237666647881269,-0.0032542794942855,0.0293131882458925,0.0114532439038157,0.1926594377540051,0.0941311128541827,14
1733382816912759600,-0.3159040515635162,-0.3358995955616236,0.185609080851078,-0.3206542417652905,9.798681797599793,-0.2310990950571373,-0.0751474350690841,0.0076349605806171,0.0524037405848503,0.5465885564149877,0.5739009084292119,-0.4271071547982136,-0.4352679972905492,-0.0242566429078578,0.0344617702066898,0.0213164780288934,-8.511543273925781e-05,0.0088501274585723,-0.0039826035499572,-0.0236034169793128,-0.017938032746315,0.0541711506485939,0.0181659925729036,0.2190880835395306,0.1578396149158477,15
1733382816952759800,-0.6785238232031464,1.504166545343399,0.2444879707992076,-0.2445906274560838,9.800955003228784,-0.2277282121182419,0.022756079211831,0.3598814606666565,0.3067713975906372,0.549841556605702,0.5736006460349946,-0.427309263105164,-0.4313507034067579,0.0121551612392067,0.0118884975090622,0.0050492901355028,0.0013664364814758,0.0126422420144081,-0.0044267177581787,-0.014252963475883,-0.0220672935247421,0.0367120663255453,0.0115332165732979,0.1760137156404554,0.1341001351490616,16
1733382816992759800,-0.2263035313436761,11.4768371286273,-0.1399485506500117,-0.123249974971218,9.803874105545878,-0.1980829241074621,-0.2802273035049438,0.7433378100395203,0.1506765782833099,0.5578118289000037,0.574573241415311,-0.4242228287358195,-0.4227842409454907,0.022843224927783,-0.0052131516858935,-0.0098231323063373,-0.005580723285675,0.0057426393032073,-0.007408320903778,-0.0046812277287244,0.012807048857212,-0.0457364997804164,-0.0095169441774487,0.1539586818292737,0.0934939839944243,17
1733382817032759600,6.076143037214875,14.839342553669214,1.1810498589873313,-0.3589389642350375,9.799686006206274,-0.0877968865976668,-0.0671777129173278,-0.1364663988351822,-1.525274634361267,0.5606180493030077,0.5810032507564955,-0.4085481830879344,-0.4257123864312364,-0.0180211160331964,-0.0282666981220245,-0.0346581079065799,-0.0038697123527526,-0.0042877420783042,-0.0057742521166801,-0.0060157626867294,0.0163894966244697,0.0068330608904361,-0.0304938964545726,0.1917859428551047,0.0792933169454336,18
1733382817072759600,4.972865569216013,6.223416834452748,-2.480057404357195,-1.1844906470909713,9.734386727821828,-0.0953549920933321,-0.0687789544463157,-0.7247118353843689,-2.524062156677246,0.5365791834752245,0.5933778153675503,-0.3908510197521694,-0.4552154273754246,-0.0274740066379308,-0.0371998474001884,-0.0215475000441074,-0.0043234825134277,-0.0098029598593711,0.0041091442108154,-0.0064323502592742,0.01842837408185,-0.0007628010660409,-0.0258327163755893,0.1944790543965995,0.0947910380676388,19
1733382817112759600,1.2050178868129848,-5.497533001920581,-2.3940923545628783,-2.1275338601224125,9.572762918192147,0.078749866851652,-0.5651081800460815,-0.6663569211959839,-2.128809690475464,0.5128124045261316,0.6022577097063693,-0.3650623582487732,-0.4909568441906073,-0.0240095015615224,-0.034486673772335,-0.0083990078419446,-0.0052899718284606,-0.0064283683896064,0.0088960528373718,-0.0035329130478203,0.0155188543722033,0.0365635977655649,-0.0256734564900398,0.202071920678392,0.0536556023418903,20
1733382817152759600,0.4975628604188561,-12.722093210065363,-0.1983353644985705,-2.757239730273187,9.403279042711851,0.3825391085963696,-0.6234606504440308,-0.6761734485626221,-1.2075748443603516,0.4983801944163983,0.6008412057668862,-0.3456671507039288,-0.5206929215844721,-0.0216435492038726,-0.0258710794150829,-0.002482928102836,-0.0003602504730224,-0.0040545538067817,0.0113095045089721,-0.0017380649223923,-0.0031722011044621,0.0237210673272609,-0.0280448235571384,0.1950312814518809,0.0609741086617112,21
1733382817192759800,1.295078681488335,-15.894506271362305,1.6981565010488031,-2.989873889410496,9.318083808246254,0.6358908423960209,-0.3265759944915771,-0.2887976169586181,-0.1672552824020385,0.4938254998942114,0.5944525455546672,-0.3379419484385946,-0.53717575817633,-0.0050680339336395,0.0029929531738162,-0.0012988203670829,-0.0046572089195251,-0.004527561366558,0.0114811658859252,-0.0022808392532169,0.0129416463896632,-0.0041968671679496,-0.0266697779297828,0.1750757041379809,0.0695154347747564,22
1733382817232759800,1.7766428855255243,-12.796092512255909,0.1980680918645113,-2.994842325472832,9.31342692235112,0.679257032848522,0.0396782867610454,-0.0361996889114379,0.0254934858530759,0.4947923240041639,0.5932213455102443,-0.3368322510384205,-0.5383428705168162,-0.0225522182881832,0.0190971419215202,0.0174485687166452,-0.0152744054794311,-0.007830873131752,0.0112667679786682,-0.0041596386581659,0.0103501137346029,0.0103664957135915,-0.0103177689015865,0.1749574845857918,0.0745411539822816,23
1733382817272759600,-1.288570030246675,-7.607380544835329,-0.8582114050507545,-2.9439295920982955,9.328063350468874,0.7006429352264851,-0.0082665514200925,-0.4358476400375366,0.3735863864421844,0.4928503458848676,0.5891514577189744,-0.3423123017093695,-0.5411297445984189,-0.0164637006819248,0.0301204975694417,0.0250556226819753,-0.0066964030265808,0.0011008605360984,-0.0002853199839591,-0.0057502407580614,0.0084059759974479,0.009587912556529,-0.0021123774349689,0.1782280306890606,0.077502049614489,24
1733382817312759600,-1.6614795060366392,-2.3552093739390374,0.6117232003450394,-2.593765032079816,9.431421433612703,0.7007483683623373,0.0632145404815673,0.2555235028266907,1.418797731399536,0.5026930803469446,0.5825422129463839,-0.3534350684886269,-0.5320036326818551,-0.0161843355745077,0.0443079024553298,0.0124014122411608,-0.0014832019805908,0.0046732500195503,0.0004186034202575,-0.0073920129798352,0.0102997357025742,0.0140466455310583,-0.0005446773720905,0.1807870675221085,0.0685658789649605,25
1733382817352759600,0.545686693727225,0.97636782887578,0.9813497089415788,-2.06181489502117,9.569192658489944,0.5914911441773176,0.5138353705406189,-0.0983702838420867,1.3311116695404053,0.5148280738578869,0.5758810646889551,-0.3717571028646227,-0.5148880859662178,0.0177062544971704,0.0282533019781112,0.0112065849825739,-0.0026259422302246,0.0082289204001426,-0.0029662176966667,-0.0086391782388091,0.0064937733113765,0.0158493110388517,0.005649889819324,0.1791387157931923,0.070726564130187,26
1733382817392759600,1.2511758268758657,2.3781050963580608,0.3123597300201654,-1.5274068434163928,9.68074047783017,0.3473922822935506,0.6791684031486511,0.066873051226139,1.3509132862091064,0.5215097780875583,0.5717692036711929,-0.3941673514813897,-0.4957213491959533,0.00972555950284,0.0203692279756069,0.0032926690764725,-0.0096874833106994,0.0022403746843338,-0.0076958462595939,-0.0099215749651193,0.0043173916637897,0.0194189862191677,0.0132436556741595,0.1923391928236931,0.0898120806112885,27
1733382817432759800,0.2324695431601256,3.4555011041253803,-0.30705460934937,-1.073283384816721,9.74702467559874,0.1182122913312632,0.489362359046936,0.1060132458806037,1.1449401378631592,0.5265127995089539,0.5688068245842024,-0.4128336794165194,-0.4783424334331241,0.0048423870466649,0.0253898706287145,-0.0047144573181867,-0.0092279911041259,0.005771979689598,-0.0060803890228271,-0.0105976536870002,0.0052920407615602,0.0277244577497243,0.0249624848365783,0.2049085323438048,0.1098714105606079,28
1733382817472759800,1.830859628881514,3.976153455969691,0.2722550986468792,-0.6593466098506003,9.784071088445186,-0.0871534832607489,0.5540669560432434,0.009305078536272,0.835989236831665,0.5317634320543351,0.5665888452118178,-0.4282763963877769,-0.4612851972315852,0.0209995191544294,0.0098352534696459,-0.0132457604631781,-0.0038435459136962,0.001247301697731,-0.0036222338676452,-0.010026091709733,0.0014341918285936,0.0331160876601934,0.0189504548907279,0.1965397863186895,0.0896127586469054,29
1733382817512759800,0.2261907551515847,3.5703409507483244,0.1220539792528375,-0.4192234101321548,9.790651635879277,-0.3712004068497568,0.8552622199058533,0.0682940930128097,0.5238920450210571,0.5290569299362263,0.5689016254046753,-0.4419014526608705,-0.4485230135677853,-0.0014011280145496,0.0033685653470456,-0.0096739288419485,-0.0026202797889709,-0.0030402690172195,-0.0068314671516418,-0.005094310734421,-0.0051574846729636,0.060543608289957,0.0228242073208093,0.2246509052984416,0.1584317355901003,30
1733382817552759600,0.7336416070520877,2.4372744936853645,-0.8232417984783649,-0.2331039868724532,9.782282451462745,-0.6503894694782794,0.5034064650535583,0.0580085813999176,0.3820743858814239,0.5258818280841224,0.5729422680551465,-0.4526563736391478,-0.4362197920513917,0.0054067107848823,0.0007692136568948,-0.0110635664314031,0.0056759119033813,-0.0026550814509391,-0.0114328265190124,0.0042487303726375,-0.0028298120014369,0.0663093322098255,0.0144186057150363,0.1827267303477972,0.1147659046038985,31
1733382817592759600,0.9526747455339878,2.456303603804112,-0.2638918325144797,-0.1320621539148967,9.772232182091471,-0.8102070334035902,0.3448092341423034,0.0504459589719772,0.125500738620758,0.5239220687994988,0.5754014162482803,-0.4585000240610625,-0.4291813853587945,0.0001187382731586,0.0331392437219619,-0.0077739632688462,-0.0124617218971252,-0.0031727626919746,0.0017086341977119,0.0098596382886171,0.0169759038835763,0.015526070433855,-0.0001184539869427,0.1800125029530376,0.105342827220261,32
1733382817632759600,0.8941061636440455,3.5243753183871505,-1.0212111061435192,-0.1122495561351068,9.766136787825822,-0.8833761683803051,0.0200667083263397,0.1302637159824371,-0.0581142343580722,0.5231778778388019,0.5779509864319665,-0.4593607597263679,-0.4257290456928412,0.0053547793067991,0.00552508700639,0.0015422401484102,-0.0032618641853332,-0.0028612539172172,0.0040011405944824,0.0130062205716967,0.0164318345487117,0.0625713147252798,-0.003695196704939,0.1974596776425838,0.1105778052642941,33
1733382817672759600,0.1256644613675773,8.955093376663326,-1.3001333345293995,-0.1909063835415989,9.769358672481776,-0.8328013617232441,-0.3657940626144409,0.4711335599422455,-0.3931867480278015,0.5248659116409926,0.5804711035139536,-0.4533369059381584,-0.4266786127135525,-0.0360137000679969,0.0127175394445657,0.0106880674138665,-0.0124048590660095,-0.0106803402304649,-0.0071916654706001,0.0568753853440284,0.0450067296624183,0.0643728111892938,0.0306424796581268,0.198852958631888,0.1526724414110183,34
1733382817712759800,3.5292455547720194,15.2702216956079,-1.3280267191052435,-0.4818761560631915,9.77537340272665,-0.6166633601609617,-0.7313527464866638,0.8173208832740784,-1.5462156534194946,0.5319781070536647,0.5884512252611536,-0.4303094642778539,-0.43076477803408,-0.064068503677845,-0.0145445484668016,0.0203931592404842,0.0028318762779235,-0.0021920055150985,-0.0124040320515632,0.0704652518033981,0.0325927399098873,0.1102092642128467,0.049930665642023,0.2546590900711715,0.1514256562203168,35
1733382817752759800,1.745684122029692,6.909923765364289,-3.375378935140371,-1.3644076537802814,9.70987714046538,-0.1645980762001127,-1.5138274431228638,-0.4204910397529602,-2.551320075988769,0.5262695478732692,0.5955312389376081,-0.392090181021716,-0.4633015585169761,-0.0737672001123428,-0.052583385258913,0.0131078828126192,0.0120710730552673,0.0019571408629417,-0.0152906849980354,0.0455087311565876,-0.0041747018694877,0.0538262827336788,0.0479324609041214,0.2315454871177673,0.092884619924426,36
1733382817792759600,1.7901523554399608,-4.896244686350226,0.0911181947737932,-2.2484921896256505,9.536206919211148,0.4188470511004328,-1.0514094829559326,-0.7917383909225464,-1.9424469470977783,0.5152227895427993,0.591727430309986,-0.3584736972308456,-0.5058663881047719,-0.127132162451744,-0.0934731811285018,-0.014725612476468,0.0020989179611206,-0.0021811351180076,0.0027966499328613,-0.003779824823141,-0.0165970250964164,6.4297407865e-06,0.0177151504904031,0.2281542372442782,0.0354851548790931,37
1733382817832759600,2.872575835980475,-12.943778981947895,0.6903617797087878,-2.7982053623899814,9.36758930517137,0.7672579723846167,-0.5633456707000732,-0.2113575190305709,-1.058123230934143,0.5050024169689097,0.5884396875812435,-0.3385549641457464,-0.5330025423118278,-0.0940477028489112,-0.0575318560004234,-0.0284755136817693,-0.021809697151184,0.0164926052093505,0.0115221738815307,-0.0281729474663734,-0.0188051722943782,-0.0104068277239799,0.0045104390010237,0.2313280449748039,0.0883735722407698,38
1733382817872759600,4.064058826176822,-15.839032805943488,0.3650116352122277,-3.085727588273585,9.26799612751901,0.8677027253650128,-0.048597551882267,0.256316065788269,-0.6006597280502319,0.5007642679826674,0.591391853262832,-0.3255996742619313,-0.5417338806250735,0.0211031157523393,-0.0112910708412528,-0.0133823808282613,-0.0173441767692565,0.0169051438570022,0.0149727538228034,-0.0284954030066728,-0.0114297438412904,-0.0034673838496208,0.0030479407869279,0.2056803934991359,0.0971586439818143,39
1733382817912759600,1.873232497447729,-14.111571884477138,-1.2034446461468935,-3.2487013512074947,9.216776227891444,0.8169310078963636,0.1162033528089523,0.0983397737145423,-0.1736499369144439,0.4968855848582818,0.5971104050255686,-0.3190725229772418,-0.5429150250810896,0.079126738011837,0.028535172343254,-0.0061329235322773,-0.0149009227752685,0.010105438530445,0.0139288231730461,-0.032442782074213,0.0054103471338748,0.0012859481573104,-0.0188464857637882,0.1743241551183164,0.0682066902637481,40
1733382817952759800,-1.268222823266685,-8.589278535309434,0.1959382402289658,-3.2209055817872283,9.230476836463808,0.7710199552666396,0.1224829703569412,0.2193074822425842,0.4655531346797943,0.4971098286074399,0.5983941713772529,-0.3203331702283852,-0.5405488069098123,0.0584169290959835,0.049477469176054,-0.0116581842303276,-0.0032256841659545,-0.0055813491344451,0.0139859914779663,-0.0462290756404399,0.0110193360596895,0.0252367325872182,-0.0246086455881595,0.1838772886224091,0.0667886401593685,41
1733382817992759800,-2.7361215389207003,0.3335316973865032,1.5470049855947494,-2.844912753029168,9.364482571327686,0.6191489664316177,0.397585391998291,0.718901515007019,1.5460623502731323,0.5085057733151418,0.5993127355499053,-0.3305396074515415,-0.5224842786360551,0.0348828434944152,0.0525021851062774,-0.0030495156534016,-0.003785490989685,-0.0078073516488075,0.0041638612747192,-0.0565608106553554,0.0041615162044763,0.032762451916933,-0.025461247190833,0.2023817172799259,0.0600575783386826,42
1733382818032759600,-0.4198654343627393,4.1620097895801065,0.2822948466241359,-2.2454795638062057,9.538809210664033,0.3732674954473972,0.7165665030479431,-0.0176475923508405,1.5312763452529907,0.5210866062031954,0.5980065782719466,-0.3512218488948038,-0.497493857055107,-0.0094239003956317,0.0422746315598487,0.005308149382472,-0.0049537420272827,-0.0102517008781433,-4.035979509353638e-05,-0.0629494711756706,0.0054326192475855,0.0338251127123832,-0.0195777267217636,0.1798693681553006,0.1003784828111529,43
1733382818072759600,-0.0379189578972756,5.947519579911232,-0.4747925179451703,-1.7092497036017475,9.656240827345847,0.0766071557345334,0.6538516879081726,0.0979628935456276,1.262888789176941,0.5255222332491071,0.5959821805855722,-0.375365638532309,-0.4772130463601293,-0.0109546855092048,0.0274604260921478,0.0107033140957355,-0.0012078285217285,-0.0012243166565895,-0.0081888362765312,-0.066280260682106,-0.0002241893671452,0.0545300470888614,-0.0177086237818002,0.18817440129444,0.0909103972420096,44
1733382818112759600,0.4883063717737794,5.710062822923064,-0.906081409728527,-1.3000906644314527,9.719519998079535,-0.1053185878281481,0.2600757777690887,-0.0578204169869422,0.8786516189575195,0.5300647857047605,0.5930033978105951,-0.3920672439470505,-0.4622354880026704,-0.0026802441570907,0.022602554410696,0.0107662314549088,-0.0012822747230529,0.0034297406673431,-0.0077760145068168,-0.0554732903838157,-0.0178099013864994,0.0688227763354778,-0.008770172484219,0.2153980699151754,0.1385667591691017,45
1733382818152759600,1.6783640053421258,3.937855581757426,-0.0330453605115413,-1.05796664628461,9.748000242632626,-0.1661220160980708,0.1592170596122741,-0.186348870396614,0.3540608286857605,0.5330016504900666,0.5889258215495627,-0.4020401001677824,-0.4554551928939154,0.0081300595775246,0.0063189212232828,0.0031487918458878,0.005869448184967,0.0055375397205352,-0.0043684169650077,-0.0412875451147556,0.0010656621307134,0.0356137496948242,-0.0176934599876403,0.2092822173833847,0.1207192600503563,46
1733382818192759800,1.1710041196607053,1.7626164059996603,-0.802284350645542,-0.9673474870741366,9.756786191156506,-0.1993899150528013,-0.0102548766881227,-0.2094046771526336,0.1516853868961334,0.5321322363208241,0.5861884367329249,-0.4081043658343991,-0.4546089043130344,0.0299719758331775,-0.0032303216867148,-0.0082396836951375,-0.0088981389999389,0.0086377039551734,-0.009828396141529,-0.0340504460036754,0.0205076169222593,-0.0079968439728021,-0.0349136367440223,0.2238848162967711,0.0858291484549641,47
1733382818232759800,1.3820862260729074,0.4699696278333664,-0.6285679521620273,-0.954272536119446,9.75910791210234,-0.1399708172807469,-0.2319331616163253,-0.2083097994327545,-0.1063209846615791,0.5325048961926759,0.5827592066767316,-0.4093021288002953,-0.4574955523555307,0.0076472284272313,-0.013646263629198,-0.0226860009133815,-0.0067306756973266,-0.0008895248174667,0.0074951648712158,-0.0356819182634353,0.0167259462177753,0.0011596914291381,-0.0526791736483573,0.2245247216355055,0.0318529358565807,48
1733382818272759600,0.1517974852073937,-0.1982271548837423,0.3614671675384044,-1.0132614623133092,9.754085700026154,-0.0391477416404057,-0.2242149114608764,-0.1605586558580398,-0.108265221118927,0.5319010888230976,0.579281176316602,-0.4079574709026922,-0.4637730206409443,0.0210495870560407,0.0006652969168499,-0.0083145853132009,-0.0077306628227233,-0.0013181418180465,0.0070705413818359,-0.029609028249979,0.0196846462786197,0.0296902048647403,-0.0528530292212963,0.2125784824497997,0.0497314146354794,49
1733382818312759600,-0.0560991230364888,0.0143710551798343,0.3195639623105525,-1.0003424325726926,9.755468094295262,0.0234050830135354,-0.0561316162347793,0.3802032470703125,0.0823023840785026,0.5353752689146518,0.578451288059945,-0.4052169545264604,-0.4632134292687043,0.0251045152544975,0.0028873854316771,0.0112087158486247,-0.0001657009124755,-0.0069393292069435,0.0069877430796623,-0.0431243553757667,0.0026307590305805,0.0325578692555427,-0.0462560094892978,0.2392464899491518,0.0252960615590214,50
1733382818352759600,0.3857808669965714,-0.001008884781599,-0.1938993548125028,-0.9910651203352956,9.756334355735778,0.0462068024395965,-0.1361028105020523,0.3392534554004669,-0.0504421219229698,0.5396887662376901,0.5806158909718226,-0.4006610736501899,-0.4594475354329022,4.603387787938118e-05,-0.0046996944583952,0.0080316979438066,-0.001776099205017,-0.0082003325223922,0.0067688822746276,-0.063589371740818,-0.0121343834325671,-0.0271276609003543,-0.0560956895351409,0.2134709743101149,0.0030868600994348,51
1733382818392759600,-0.0742564918220043,-0.1983399676084518,-0.3893997150808572,-1.0285724286917597,9.751951610606907,0.1088291349660605,-0.2169074267148971,0.0461836010217666,-0.0715278685092926,0.5426336576043538,0.5813455284143827,-0.3955864443653088,-0.4594532955674152,0.0123136192560195,0.0124638993293046,0.0038255010731518,-0.0057250261306762,-0.0010382607579231,0.0047570392489433,-0.0753416270017623,0.0075109535828232,-0.0241974526673555,-0.0477825030684471,0.2044835118647664,0.0296238616302609,52
1733382818432759800,0.1099973750278353,-0.1154074173778295,-0.757703450641036,-0.993008801748976,9.754612354248762,0.1784561038238927,-0.2522093951702118,0.2509289979934692,0.1923453956842422,0.5467278018128395,0.5797009011368667,-0.3935074789628004,-0.4584620064824391,0.0228674598038196,0.0246995277702808,0.0296165514737367,-0.0111159086227417,-0.0041031911969184,0.0036663934588432,-0.0720197185873985,0.0224585868418216,-0.0038689503878355,-0.024974750354886,0.1758650278847664,0.0437970561504364,53
1733382818472759800,0.2185363679409027,-0.0738894120752811,-0.6877233209639787,-0.9297638986110688,9.757836576992272,0.3009104257722385,-0.4061414301395416,0.1950470954179763,0.1622466146945953,0.5536842080344844,0.5765573099104345,-0.3901788128270816,-0.4569200793001156,-0.0090326815843582,0.0038918231148272,0.0204957574605941,-0.0015845298767089,0.0012580603361129,0.0019885897636413,-0.0590580031275749,0.0206856299191713,0.0578968931734561,-0.0039213523268699,0.1769240354184061,0.075655837225914,54
1733382818512759800,0.6260810307171195,0.0115232645332813,-0.6399766504049301,-0.8708879312723875,9.757418059319257,0.4524806598287075,-0.4870340824127197,0.7409550547599792,0.1313783526420593,0.5639313068289077,0.5747927698797859,-0.3828095851358993,-0.4528262214271109,-0.0172219015657901,0.0002979406272061,-0.0059411758556962,-0.0061866641044616,0.0054964423179626,0.0013112425804138,-0.0553894974291324,0.0117031252011656,0.0351227513074874,0.0161122716963291,0.1804849427703768,0.0668862553149461,55
1733382818552759600,-0.1558519482299685,-0.3451765424728393,-0.2780745255153626,-0.8360959462892263,9.74885364459157,0.6566576630275696,-0.597624659538269,0.5706028938293457,0.1739330142736435,0.5766178302442724,0.5730693881442168,-0.3716332236165071,-0.4483215756325553,-0.0028320441488176,0.0053941123187541,-0.0068273427896201,-0.0124009847640991,0.0070801973342895,0.0013760849833488,-0.0571433641016483,-0.0057904766872525,0.0124947399139404,0.0159572772681713,0.1892361853070557,0.0870168969348073,56
1733382818592759600,-0.3542688535321504,-0.106051560011506,-0.5200292515099049,-0.7540969505816698,9.73672773799002,0.8932252891562878,-0.7458300590515137,0.4168783128261566,0.3275864720344543,0.5897249401349698,0.5679828178563792,-0.3631166507725138,-0.4447092097163634,0.0222567971795797,0.0091244550421834,-0.0008667223155498,-0.0047903656959533,0.0041676983237266,0.0020219683647155,-0.0447554588317871,-0.0035177578683942,0.0297661927103996,0.0302937366068363,0.1779774899940937,0.1031856491863727,57
1733382818632759600,-0.5925317392714321,0.1007709892600774,-0.4203127397388219,-0.6051676046891138,9.715455817380548,1.1891506017260254,-0.8302680850028992,0.8639287948608398,0.572185218334198,0.6072307890577021,0.5606345882750691,-0.3536368935126967,-0.4380646060337526,0.0121202738955616,0.0086606387048959,-0.0088751800358295,-0.0035168528556823,-0.002709574997425,-0.0009241625666618,-0.0380846336483955,-0.0006135865114629,0.0154810622483491,0.0169810336083173,0.1658078173160553,0.0712426969587802,58
1733382818672759600,-0.2047759920053184,0.1025087728381156,-0.6132837276600301,-0.4133771317893639,9.683791097572444,1.4912076950490474,-0.7982426881790161,0.8915234208106995,0.6180158853530884,0.6277586159753364,0.553681166078102,-0.3426466569732965,-0.4265555234652941,-0.0101895593106746,-0.004894530866295,-0.0132245887070894,-0.006230354309082,-0.0049066916108131,0.0012770891189575,-0.0387392081320285,0.0030181482434272,0.0247048176676034,-0.01833469979465,0.1859985185600817,0.0698360450312495,59
1733382818712759800,-0.3261497704416513,-0.0398310751289129,-0.7546263812832534,-0.2388819126867689,9.647014733839034,1.7459755061917006,-0.5411599278450012,0.3217380940914154,0.4832782447338104,0.6449418636419366,0.5471606665104036,-0.3340587255154134,-0.4160168278900715,0.0084704114124178,0.0183892734348773,0.0019232053309679,-0.0073548555374145,0.0022895112633705,0.0025619938969612,-0.0314225852489471,-0.0005492665804922,0.0373211381345987,-0.0158387459814548,0.232862341869995,0.1343932728767395,60
1733382818752759800,0.0031590211533475,0.2161357365399599,-1.410271287071705,-0.1116461925476323,9.617000119325516,1.916046533910185,-0.4675554633140564,0.1586163789033889,0.2791400551795959,0.6537242915492036,0.5402293382334785,-0.3323568508992151,-0.4127175308845325,0.0171911977231502,0.0101537676528096,0.0003161206841468,-0.0006676316261291,-0.0035451352596282,-0.0008243322372436,-0.0216929260641336,-0.0056722066365182,0.0177285489141941,-0.0118100671097636,0.2057232827927917,0.100201080417633,61
1733382818792759600,-0.5700193536141887,-0.1843243017375469,-0.5757563994288444,0.0006483897538782,9.581266542643307,2.0903877862937748,-0.3264646232128143,0.705070436000824,0.4898492097854614,0.6647451410338777,0.535329638225675,-0.3268670386901722,-0.4058251244548156,0.0083287311717867,0.009932511486113,-0.010161287151277,-0.0091102719306945,0.0008396431803703,-4.988908767700195e-05,-0.0226434562355279,0.0096173267811536,-0.0133861357957124,-0.0242449510842561,0.1958578684691339,0.0679641136795282,62
1733382818832759600,-1.3591880194358528,-0.9391624260753392,-0.574610152003169,0.1748062212805263,9.568014846882225,2.143111222352087,0.0772594287991523,0.8585392236709595,0.8199768662452698,0.6760404700002655,0.5355889126894767,-0.3222983873893425,-0.3901763299745367,0.0037310498300939,0.0149258859455585,-0.0139152128249406,-0.0046783685684204,-0.0040492415428161,0.0066909790039062,-0.0390033647418022,-0.0066381338983774,0.041401100924611,-0.0322191938757896,0.2033732125353068,0.0589689063191413,63
1733382818872759600,-1.1506292940214276,-1.2541764699965714,-0.0594902998447418,0.4642415690427646,9.588093173792958,2.005826611948013,0.720787763595581,2.395813703536988,1.3102203607559204,0.6900684549849191,0.5461684510886967,-0.3153273294136809,-0.3550694108433899,0.0019390088273212,0.0180467907339334,0.0072437347844243,-0.002547264099121,-0.0072804987430572,-0.0001596808433532,-0.0398673377931118,-0.0155357923358678,0.0212877027004957,-0.0230642724782228,0.2129786607485264,0.1085311018675565,64
1733382818912759600,-1.0667898580789563,-1.1543851394236089,-1.8916022668749093,0.7818798605203628,9.60681424087584,1.807804916508496,0.4398310482501983,2.268078565597534,1.3385623693466189,0.7068826857603309,0.5642198066773189,-0.2991381070191226,-0.304120428683138,0.0071356352418661,0.0164741929620504,0.0091346455737948,-0.0013462305068969,-0.0063267424702644,-0.004472441971302,-0.0179026816040277,-0.0074934093281626,0.0143552730888128,-0.0279132779687643,0.1923356126271188,0.1003881274223327,65
1733382818952759800,-0.783918453675881,-1.0069231261372569,-1.3010025185793637,1.1376618220292032,9.567391162025928,1.827876667547971,-0.0997491180896759,1.1923940181732178,1.1735159158706665,0.7222574324745868,0.5677781134508013,-0.290572258095802,-0.2674695594593178,0.0036927005276083,0.0153311118483543,0.0091180009767413,0.001551866531372,-0.0044483318924903,-0.0058458521962165,0.0123444125056266,-0.0021005710586905,0.0094178166866302,-0.0317248776555061,0.2020130300980061,0.1403469205841422,66
1733382818992759800,-0.6854284880250692,-1.5282646292895077,-0.4450833161190152,1.5248954451173542,9.483597611051795,1.976474406865984,-0.3105800747871399,2.289098024368286,1.4650146961212158,0.7400458892426155,0.5658003206863241,-0.281243393204352,-0.2304434684098762,0.0107279727235436,-0.0023701740428805,0.0078057283535599,-0.0002919435501098,-0.0008340254426002,-0.0021751523017883,0.0337062552571296,0.0157151855528354,0.0093365681439638,-0.0438929535448551,0.1982095461618155,0.1178027880817651,67
1733382819032759600,0.487987076691538,-0.5335767153471708,-0.458895860633254,1.8089502871513363,9.349176865646244,2.3432824970409274,-0.5794217586517334,2.9212162494659424,1.2606667280197144,0.7659878300036178,0.5624769506294822,-0.253269666868537,-0.1809330744487763,-0.0028765189927071,-0.0004060392966493,0.0086661297827959,-0.0134869217872619,-0.0001490414142608,0.0021526850759983,0.0419974662363529,0.0136277033016085,0.0361976870626211,-0.0472475439310073,0.1902256347358226,0.1383595461592078,68
1733382819072759600,0.5395781477190554,-0.3043494420439004,-1.071891565132141,1.9310881818279624,9.19701354280114,2.8028993654251098,-0.8170907497406006,1.9359614849090576,0.8605185151100159,0.7898193935882664,0.5549081438667132,-0.221740513723225,-0.1381793788981176,-0.0043939882889389,0.0082738948985934,0.004104733467102,-0.0062170028686523,0.0042222887277603,0.0027939081192016,0.0507753528654575,0.0052167354151606,0.048950785651803,-0.0335650481283664,0.1792226677495986,0.1075625490963459,69
1733382819112759600,0.0034950025089085,-0.0365618441998958,0.2490235684022307,2.081854497356713,9.005839813560247,3.2758398257628083,-1.2284423112869265,1.2338123321533203,0.8887214064598083,0.8086203936895908,0.538393760987796,-0.2076314313705793,-0.1146929517399648,-0.0083040408790111,0.0073831742629408,-0.0015974937705323,-0.0047252178192138,-0.0006018280982971,0.0047141313552856,0.0570497699081897,-0.0024693310260772,0.0461842435479164,-0.019668685272336,0.1590263404823839,0.0877761908695101,70
1733382819152759600,0.8437472647599875,-0.1099240175306797,0.6630436377376318,2.1184787392683324,8.740572089582681,3.909582550214231,-1.388971924781799,1.9934823513031008,0.6848178505897522,0.8316036437458028,0.5163202589326191,-0.1846081126554288,-0.0881399155503875,-0.0272385831922292,-0.0004269185010343,-0.0002362189115956,-0.0029571056365966,-0.0053969025611877,-0.0010377131402492,0.0584543421864509,-0.0003168056719005,0.0254886615216732,-0.0125917233526706,0.1401985981546342,0.0605728343844413,71
1733382819192759800,0.7843817603386938,-0.1456768834352493,0.1386579445838928,2.0780359619818625,8.492761696362495,4.441299901430309,-1.1927257776260376,0.2240950018167495,0.2584066689014435,0.8491195484182379,0.495377448109988,-0.167803161053928,-0.0737510260277066,-0.0434535071253776,0.0072216265834867,0.0093302549794316,-0.0062702298164367,-0.0049462616443634,-0.0022265315055847,0.0587913058698177,0.0050440821796655,0.0163286189883947,-0.0079022366553545,0.1612849330641329,0.0714931645885109,72
1733382819232759800,0.4223796091407537,-0.1442623404622078,2.291653724351525,2.1156239343591032,8.283651328414678,4.803712825386226,-0.6985674500465393,0.9566506743431092,0.3113800287246704,0.8603705568872329,0.4778949063769058,-0.1633868524019036,-0.0684385523150977,-0.0592524446547031,0.011539090424776,0.0124458875507116,0.0055470466613769,-0.0019411221146583,0.001511625945568,0.0776803717017173,0.0050823497585952,0.1047188501030206,0.0160565450787544,0.2127038623951375,0.1405985572576522,73
1733382819272759600,0.2990316080220043,-0.218214880901575,0.1342693542361259,1.986083946732432,8.177439024883508,5.035410580456257,-0.2749355435371399,0.7443923950195312,0.2016573846340179,0.8681976909061243,0.471056071665067,-0.1461905716994282,-0.0544738057304017,-0.0781829878687858,-0.023006584495306,-0.0122045315802097,0.0244851112365722,-0.0068637952208518,-0.006445474922657,0.0655524134635925,0.0068285572342574,0.0961754781633615,0.029556319117546,0.3064453914098441,0.0437967638894915,74
1733382819312759600,-0.2911101673729717,0.027275544938445,0.9618068040817976,1.9875516811974343,8.083531491652131,5.184258495143055,-0.4908443093299866,0.5171993374824524,0.1993577629327774,0.8728011278506411,0.463955370196107,-0.1429048391452977,-0.0504155558813227,-0.025419645011425,-0.0445246063172817,0.0049629369750618,-0.0202301740646362,-0.0045621246099472,0.0016869306564331,0.0139219760894775,-0.0088576562702655,-0.0159194536656141,-0.0046841166913509,0.2976280978996306,-0.0700058486402034,75
1733382819352759600,0.5120525735422968,-0.1701116519898176,-0.0498603017121553,1.7829393553212285,7.963537331005931,5.438159606453776,-0.4845064878463745,1.2477221488952637,0.1195230260491371,0.8808912957208671,0.4559414177436434,-0.1218541543951982,-0.0360477376999427,0.0390679985284805,0.0515486113727092,0.0552406869828701,-0.03361177444458,0.0094717517495155,0.0093911886215209,-0.0588259845972061,0.0168783739209175,-0.115550040718913,-0.0198677890002727,0.279266511778906,0.0043590719923377,76
1733382819392759600,-0.7764316781170666,-0.0707511140495538,0.4877706574618816,1.6452276055462658,7.832453621068597,5.667123260384797,-0.681353747844696,0.8450609445571899,0.1396125853061676,0.8877485656392166,0.4462655257297492,-0.1091064166250022,-0.0290764209010349,0.1614833921194076,0.1341380327939987,0.0634138658642768,-0.0229511260986328,0.0267287120223045,0.0035992786288261,-0.0929947197437286,0.0483266040682792,0.0111520931333303,-0.0102856140583753,0.2401527180738747,0.0825038034245371,77
1733382819432759800,-0.7332657594770192,-0.4506161080658435,0.8100234204649924,1.3725174566082656,7.619604066592454,6.018987317797541,-1.0049163103103638,1.796282410621643,0.2519966065883636,0.8981285386289262,0.4310578686505895,-0.0854760635620971,-0.0157509580102254,0.2235563546419143,0.0959866493940353,0.0530700124800205,0.0029114484786987,0.025376372039318,-0.0126882195472717,-0.0891955345869064,0.0819001495838165,0.0164747494608163,-0.017222061753273,0.1756210630610585,0.0465811339110136,78
1733382819472759800,-0.5912248944565653,-0.2015676974833011,0.2612678406864404,1.0585429118026046,7.313693366581201,6.446686660656333,-1.2928135395050049,1.469398856163025,0.4514780342578888,0.91030189903459,0.4100309867483744,-0.056436171382073,0.0063329753184748,0.0472265928983688,-0.0090524703264236,-0.0142396530136466,0.0067591071128845,0.0017949938774108,-0.0024198293685913,-0.1067789420485496,0.09841238707304,-0.0314461086213588,0.0034427270293235,0.1690581974141299,0.0197933724895119,79
1733382819512759800,-0.7562859119933099,-0.486216413757205,2.0743869379550217,0.8046187849424778,7.000539855834841,6.820221282607316,-0.8461846709251404,1.1778815984725952,0.2163556963205337,0.9204957688840576,0.3885575649114498,-0.035895882085334,0.0205429895635985,-0.0726137831807136,-0.0414108373224735,-0.0584557838737964,-0.0110475420951843,0.0218900889158248,0.0111671797931194,-0.1286781132221222,0.0846147611737251,-0.0156394676804542,0.0466441474854946,0.1862444561451673,0.0109431265577673,80
1733382819552759600,-0.5183134971005842,-0.5147533569335937,1.7075187881559133,0.5462958020688966,6.83783935688436,7.008273080435395,-0.3657628893852234,1.1340827941894531,0.2522706687450409,0.9252897195392042,0.3773790728691184,-0.0162034152073393,0.0340784169869783,0.0146827669814229,0.0054029538296163,-0.0706289559602737,-0.0110030174255371,0.031327836215496,0.0136122703552246,-0.1384948939085006,0.0745288953185081,0.0210188226312398,0.0435818545520305,0.1757818065807223,-0.0122705757692456,81
1733382819592759600,-1.119164699895307,-0.0670031596928835,1.1929565698802471,0.3751665340017527,6.751913470056652,7.10220341002047,-0.2551118433475494,0.7459593415260315,0.3236167430877685,0.927438052082904,0.3713222960023615,-0.0028531212444158,0.0443875214925166,0.0266078691929578,0.0077583072707057,-0.072299025952816,0.0033991336822509,-0.0048871636390686,0.009957917034626,-0.127263605594635,0.0524184927344322,0.0944470469355583,0.0508620142936706,0.1806501432694494,0.0655924161121249,82
1733382819632759600,-0.2481385657286271,0.3360807973474264,0.9257412189662456,0.1959151150817051,6.662469345974921,7.193295301309227,-0.3717558979988098,1.0554336309432983,0.2148967832326889,0.9292766017150704,0.3648459916640573,0.0114634455482252,0.0565762073742547,-0.0707008391618728,-0.0689492002129554,-0.0774479806423187,0.0218068957328796,-0.0328398793935775,-0.0005972906947135,-0.0986086055636406,0.0121423453092575,0.0999392146110534,0.0817819088697433,0.2064912714906036,0.1885673461347818,83
1733382819672759600,-0.2687998070938512,0.3639543081790208,1.0946095928967,-0.0675856540222652,6.551397911974787,7.296917588347196,-0.3002030551433563,0.8925255537033081,0.2159928232431411,0.9313114344328988,0.3564611816152708,0.0299358609027056,0.0685451920142677,-0.2193680852651596,-0.1106045544147491,-0.0851521715521812,0.0026874542236328,-0.0501680523157119,0.0211950540542602,-0.0615314580500125,-0.0251070633530616,0.0848965437799692,0.0765004158020019,0.1958913323473185,0.1440507435381412,84
1733382819712759800,0.4356141345713287,0.4229612084209919,1.015152609822154,-0.2110079634637571,6.535486057093739,7.308438514792919,0.1466269195079803,0.5610967874526978,0.0279739145189523,0.9311362031727224,0.3546357094124685,0.0400855000708204,0.0749125024367581,-0.1808712929487228,-0.0509720109403133,-0.0313555225729942,-0.0153042674064636,-0.0315459817647933,0.0242157615721225,-0.0287885405123233,-0.0544031932950019,0.0451473017156124,0.0437368005514144,0.2473513974063098,0.2120215792194008,85
1733382819752759800,0.0014369740005582,0.0410205771744251,-0.0535819525837898,-0.3684980160232633,6.58927200781703,7.253694532692432,0.1583407670259475,0.5582183003425598,0.1570414453744888,0.92918747557377,0.3571489044949941,0.0510799354128123,0.0802877042548743,-0.1830718666315078,0.0137189412489533,0.0171223320066928,-0.0184428095817565,-0.0247374400496482,0.0203827619552612,0.0178107917308807,-0.0888687372207641,0.0455757562607526,0.0047305077314376,0.250429343546927,0.1973629392698407,86
1733382819792759600,0.5848952530436218,0.0982920319259166,-0.068507134515047,-0.487032260184735,6.61983782647252,7.218790392571687,0.0421149656176567,0.5749286413192749,0.1315279603004455,0.9276262713202346,0.3581918349958994,0.0603551350255,0.0869792963463356,-0.153625026345253,0.0649341344833374,0.0634801685810089,-0.0113604068756103,-0.0130261182785034,0.0089279487729072,0.0560066662728786,-0.0870678648352623,-0.0118242933064699,-0.0386908538639545,0.2077582226864993,0.1218620003446936,87
1733382819832759600,0.4119395367342978,-0.0137479548454284,0.0422264458328485,-0.616194865866378,6.619349750694632,7.209361469969153,-0.0489839389920234,0.4607791602611542,0.0818467736244201,0.9268136271323306,0.3571805365824536,0.0696198237707012,0.092690957051056,-0.1588639914989471,0.0591783002018928,0.0766971781849861,-0.0029171705245971,-0.000477872788906,-0.0102325156331062,0.0795676410198211,-0.0679661482572555,-0.0326695129364728,-0.0403235740959644,0.2036584592174738,0.0997080362036824,88
1733382819872759600,0.6830345786258578,0.0528548073530197,0.4361106128513812,-0.7322652771975845,6.61245297691822,7.20483434793353,-0.023614726960659,0.5155698657035828,-0.0256700068712234,0.926277484598712,0.3558856773474886,0.0774665837211436,0.0967176115382738,-0.1796291917562484,0.039546649903059,0.0484156720340251,-0.00691419839859,0.0093494057655334,-0.0137009024620056,0.0778156593441963,-0.0337696000933647,-0.0811076728910207,-0.0090451166033744,0.18628142715469,0.0345578109011054,89
1733382819912759600,-0.0381138228822499,-0.0110264209270477,0.040599136891961,-0.8960737373899668,6.601216128110885,7.196622984427213,-0.0381536744534969,0.5197380185127258,0.0226443763822317,0.9256843704829114,0.3541013568424029,0.0876730310334655,0.1001704926170289,-0.1745811700820922,0.0168647747486829,0.0166944935917854,-0.0095970034599304,0.021501749753952,-0.0240749754011631,0.0623250603675842,-0.010665263980627,-0.0595405687272548,0.0107858460396528,0.18025040336214,0.0279863235563039,90
1733382819952759800,-3.442295585593581,-0.690859865424037,-0.5671387932091951,-0.8579895789936184,6.611420711261034,7.191894202339649,-0.0318688303232193,-0.338168054819107,0.6407034993171692,0.9248183861370658,0.3543111895163545,0.0881987037892521,0.1067493453874322,-0.1224103644490242,0.0247033610939979,0.000300208106637,-0.009585678577423,0.0286399498581886,-0.0272792614996433,0.0539020001888275,0.0042781382799148,-0.0072813891798257,0.0355851016938686,0.1851762423917651,0.1036822005316615,91
1733382819992759800,1.9046441192775965,-0.7169032382190227,3.498395073956251,-0.713678504018858,6.612475188750028,7.206679099017381,0.2637832760810852,0.3293298184871673,0.1713572144508361,0.9243216074905554,0.3544555389176711,0.0832039200877925,0.1143153365682054,-0.0760426074266433,0.01304217800498,-0.0202520713210105,0.0026094913482666,0.0285300239920616,-0.0231050290167331,0.0513106659054756,-0.0144212841987609,0.0915589242786169,0.0549211725592613,0.2144922071166336,0.1176160333380103,92
1733382820032759600,1.359042911876738,0.5741062941342592,-0.1873497870385646,-0.8330666615959257,6.677032708856463,7.133976850900053,0.1344827562570572,0.5693461894989014,0.0415720902383327,0.9216288245616476,0.3573665905332185,0.0925069773075437,0.1197160549447243,-0.0387554243206977,0.0153530556708574,-0.0486859120428562,-0.0033838152885437,0.0155437365174293,-0.0254815816879272,0.0263384375721216,0.0021169912070035,0.0456973368138074,0.0158834010362625,0.1739342790178954,0.0322673618763685,93
1733382820072759600,0.6381688703306019,0.5514648387372494,-1.6149264291763306,-0.9533056638486684,6.6523886814653865,7.141940961647033,-0.3774847686290741,0.2886565625667572,0.068931795656681,0.9212836150972692,0.3546332199720117,0.1004870132518662,0.1239928330310397,0.0026633886154741,0.0275412797927856,-0.0477729775011539,-0.0019223093986511,0.0044796392321586,-0.0232341364026069,-0.0032372511923313,0.0273230336606502,0.0689233141005039,0.0173115208745002,0.1773574583996087,0.0273182150363922,94
1733382820112759600,0.7655745493423193,0.4497054229617118,-0.8677326821118593,-1.034174121156335,6.448288835155964,7.315766665723919,-0.9137263298034668,0.7187771201133728,0.1275839209556579,0.9251577631138338,0.3405193512201406,0.1051012939783052,0.1307035029389651,0.0331784188747406,0.0042724953964352,-0.0554882884025573,-0.0015515685081481,-0.0101360008120536,-0.0270556211471557,-0.0366854667663574,0.0463180691003799,0.0571411063700914,0.032570656388998,0.1430351367548108,0.0578477933347225,95
1733382820152759600,-0.7264079294715077,1.3854624245077372,-0.3970101900845766,-1.0518854266747832,6.273588686332106,7.463646027639508,-0.4637355506420135,0.1301786601543426,0.6648951172828674,0.927348531166742,0.3281332103744331,0.1085751395537838,0.1434044608806061,0.0652905479073524,-0.0130327250808477,-0.0568020939826965,0.003556489944458,-0.0124556720256805,-0.0180559158325195,-0.067797876894474,0.0421767309308052,0.0218371532768011,0.0208299830555915,0.1660420644633471,0.0672527505397796,96
1733382820192759800,1.7118122475661337,4.094124001833796,0.7241606620013713,-1.0650785971816628,6.085572544339299,7.615891183549166,-0.6185315847396851,0.5294969081878662,-0.0570874698460102,0.9298567077810056,0.315387434948054,0.1105819663180352,0.1538472442621212,0.0626766607165336,-0.0317383408546447,-0.0587019920349121,0.014419674873352,-0.0114974528551101,-0.0044507384300231,-0.0648019090294838,0.0518176108598709,0.0630471155434846,0.0649221539497375,0.0890536634594202,0.2630228676602244,97
1733382820232759800,1.1358774228304624,3.123412591284513,0.5982663374006748,-1.2876099530428646,6.061343527489901,7.600826885408162,0.5927766561508179,1.0690529346466064,-0.307825893163681,0.929377875201081,0.3122032942667596,0.1224532318136546,0.1542440015576596,0.008261352777481,-0.0900541618466377,-0.0840011537075042,0.0086650252342224,-0.0100755393505096,0.0173312462866306,-0.0330609157681465,0.0694053918123245,0.0355249023675918,0.0809951573610305,0.1082794651940464,0.1626934846878051,98
1733382820272759600,-0.2329866258367895,0.7714040592133998,-1.4754916550010442,-1.650052687615156,6.342367623525858,7.295346393507718,1.0699774026870728,0.9969632029533386,-0.0653940588235855,0.9210642029605076,0.3267596830192261,0.1458387708549394,0.1536223641172146,-0.0322442613542079,-0.1168756559491157,-0.0970029756426811,-0.0029897093772888,-0.0207176059484481,0.0367559269070625,-0.0090343113988637,0.0439662523567676,0.0240682733297348,0.0487924292683601,0.1584717022743076,-0.0008142389923334,99
1733382820312759600,0.1590881536722183,0.3067009736061096,-3.755480660521984,-1.826050913425535,6.470984651088714,7.138786881530285,-0.2868132591247558,0.2879894375801086,0.0960697084665298,0.9161833658172632,0.3329682561902423,0.1586042359630093,0.1567953550951693,-0.0286766905337572,-0.072229154407978,-0.0730626210570335,-0.0220681428909301,-0.0129051357507705,0.0440396070480346,-0.0053611784242093,0.0249542407691478,-0.0464934556275606,0.0125554054975509,0.1278194474443793,-0.0942886415034532,100
1733382820352759600,0.1577742945946753,-1.108925118497014,-3.6733635183274735,-1.7575500625208018,6.27606179844737,7.327513802140951,-1.061319351196289,-0.0083902748301625,0.7897315621376038,0.9196595928311312,0.3197507889041153,0.1554355147802806,0.1668100658675704,0.0788886547088623,0.049467671662569,-0.0045287022367119,-0.0389426350593566,0.0008775740861892,0.0336127951741218,-0.0305858664214611,0.0244020149111747,-0.076205872324109,0.0165345109999179,0.1343818016346544,-0.0826294756308198,101
1733382820392759600,0.122902887699753,-2.17586519870162,-3.596563187241554,-1.4314837325789034,6.036664428785443,7.594729737576841,-1.1188957691192627,-0.0230197105556726,1.8545889854431152,0.92148700624384,0.3036166149592878,0.1435043496337436,0.1951541350164414,0.0887583270668983,0.1191172152757644,0.0552800372242927,-0.0204712152481079,-0.0092249289155006,0.0211157202720642,-0.0515599176287651,0.0029701478779315,0.0226192435652017,0.0662883669137954,0.1544827057033777,-0.0348389659300446,102
1733382820432759800,1.5355293595954775,-1.552619318345189,-3.6197640300869938,-0.8370210252448916,5.767610756528377,7.88697957650423,-1.1573349237442017,-0.8101284503936768,1.7973167896270752,0.9212527823361948,0.2893681910386042,0.1189201710077296,0.231121962395519,0.0973395630717277,0.1347816586494445,0.0713515505194664,-0.0064261555671691,0.0056386962532997,0.0057315826416015,-0.0727504640817642,0.0032652108930051,7.65723675489e-05,0.0978001952171325,0.1449227771323174,0.0465197591125965,103
1733382820472759800,0.6014027357302606,-3.0805618760734794,-2.197444577825069,-0.1834648901629261,5.445882894182205,8.15347070479691,-1.06338632106781,-0.9524351954460144,1.6449726819992063,0.9213858776947712,0.2767440671033852,0.0877577413359901,0.2583782114540541,0.1017100811004638,0.1187462359666824,0.045522678643465,-0.0072546601295471,0.0147115066647529,-0.0083667710423469,-0.0710486248135566,0.0046529411338269,0.0199082310408353,0.107423759996891,0.1559428413838148,0.090344580052793,104
1733382820512759800,0.8891095244005321,-4.033776208376884,-2.549349551770091,0.54711215995308,5.092162395247817,8.363069733044505,-0.9862479567527772,-1.071444392204285,2.127753496170044,0.918230201076964,0.2660270394971821,0.0532139313928793,0.2885330586706028,0.0955131724476814,0.1021086201071739,0.0375886559486389,-0.0069067478179931,0.0213882103562355,-0.017701506614685,-0.0657111406326294,0.0025661410763859,0.047122985702753,0.0925574004650116,0.1881793697305023,0.1538619434565305,105
1733382820552759600,0.8819462086424231,-3.916230902187526,-2.309205747655034,1.3528914035096764,4.6605283432886,8.521710142949223,-1.1778886318206787,-0.7254026532173157,2.56939697265625,0.9097116999059084,0.2554563288278692,0.0159928189353361,0.3269722072791969,0.07260013371706,0.0581987351179122,0.009101822040975,0.002734363079071,0.0292323678731918,-0.0250142216682434,-0.049893170595169,0.0015277659986168,0.0306634338110685,0.0455009378492832,0.2031262520369142,0.1130792666912078,106
1733382820592759600,0.4524970995068549,-4.204588117590546,-2.129498584324121,2.140123730973899,3.881819806280732,8.747669938889146,-2.1788313388824463,-0.7787378430366516,3.2987780570983887,0.8968980810098742,0.2310440874539154,-0.024730135811372,0.376272490320322,0.075052373111248,0.0073698051273822,-0.0260650850832462,0.0081631541252136,0.0277810543775558,-0.0214053988456726,-0.0298111774027347,0.002004325389862,0.0289285728424787,0.0026308596134185,0.2384253828246146,0.1296846567943692,107
1733382820632759600,0.483096235910058,-3.4208468471124767,-2.573892456874251,2.8991625218719244,2.6484172442436216,8.986163053187727,-2.675574779510498,-1.332347393035889,3.2024879455566406,0.8800684619646093,0.1901362507777279,-0.075375092598373,0.4285395825115917,0.1028328686952591,-0.0589573383331298,-0.0682337060570716,0.0009597539901733,0.0248994678258895,-0.0205981135368347,-0.0146755278110504,-0.0413064025342464,0.0547767153263092,-0.0074444282799959,0.2802047424770891,0.0827843739315867,108
1733382820672759600,1.6912313779607415,-2.295652730859816,-0.6415460916787386,3.871696179412305,1.4925478576116262,8.885530595615506,-1.5080559253692627,-2.586749315261841,2.2472920417785645,0.8577780420449282,0.1650362453195505,-0.1404530304965286,0.4661039204482671,0.0478694811463356,-0.0889049023389816,-0.085380807518959,0.005857765674591,0.0054935067892074,0.0027628019452095,0.0106091424822807,-0.021580645814538,-0.0022153379619121,0.0110653396695852,0.2643551391772926,0.1301432142168283,109
1733382820712759800,0.5713648864716291,-2.556201317360997,0.2166530384123325,5.013858673861622,0.8329747455287724,8.386760989755391,-0.5319889187812805,-3.568511486053467,1.7316060066223145,0.8329214777951369,0.1714023846065644,-0.2074015830360538,0.4835779625536107,0.0443594343960285,-0.1301461905241012,-0.0987376943230629,0.0065354108810424,0.0017058700323104,0.012956254184246,0.0478796660900116,-0.0248586423695087,0.0304676189780235,0.0257993713021278,0.3293978855174034,0.1052770685076713,110
1733382820752759800,2.2999276317000388,-0.7877740331254899,1.393288588088751,6.233455997908115,0.3928804333360865,7.560427070480585,0.3055353760719299,-3.7636640071868896,1.6445777416229248,0.7973028090259797,0.1974205640966003,-0.2748647106239157,0.4997827541019296,0.0138864824548363,-0.1457877457141876,-0.1154803186655044,-0.0011143684387207,-0.0141075775027275,0.0266625881195068,0.0587980151176452,-0.0417137145996093,-0.021835399711132,0.0161724090576171,0.3410533981282264,0.0963058265447616,111
1733382820792759600,1.953886581352353,-0.4133926216194405,2.5910300541579723,7.360006789466738,0.1664906302147545,6.478654747325182,-0.0181131418794393,-4.045632839202881,0.7706758975982666,0.7621559572343882,0.2335083785244241,-0.3393440421203061,0.499437506843719,0.0181328915059566,-0.1010354980826377,-0.077229268848896,0.0053675174713134,-0.0183802247047424,0.0432938337326049,0.0897044762969017,-0.050407987087965,0.1208510697364807,0.0305872298777103,0.3743817402996122,0.0995434932917356,112
1733382820832759600,1.3708213202148676,-0.8578788120955229,2.8595097259193656,8.262249059423803,-0.105488199640857,5.281524106630683,1.1404298543930054,-3.661676406860352,1.7012979984283447,0.7193424121892146,0.2697694807804199,-0.3974187213225703,0.5018259574193794,0.0578558035194873,-0.0786789581179618,-0.0298011675477027,-0.0011423230171203,-0.0208889618515968,0.0476746037602424,0.0853583514690399,-0.0629500672221183,0.0634440059065818,-0.0004772394895553,0.3819043178241699,-0.0323477336362004,113
1733382820872759600,1.9628338579177853,-0.3517042637411505,1.43019822281301,8.927939996799827,-0.5545010280953719,4.019304030910134,1.0794222354888916,-3.833462953567505,1.9795070886611936,0.6611663778285124,0.3076403544270185,-0.4476940297999137,0.5174809748487222,0.0390858426690101,-0.0146083049476146,0.0106053100898861,-0.0226092934608459,-0.0262773931026458,0.0555083155632019,0.0416097417473793,-0.0281809493899345,-0.072341598111391,-0.0273529142141342,0.2827974623840302,-0.1168169919148087,114
1733382820912759600,2.443597851487994,-1.25789052208364,1.6804872811064122,9.389745022878053,-1.1406505555164068,2.588823484024405,1.4371066093444824,-4.1466498374938965,2.132065534591675,0.5947277615423996,0.3448866928076944,-0.4990590176286639,0.5275341717082288,0.0077915713191032,0.063117541372776,0.0479812435805797,-0.0190107822418212,-0.0171664655208587,0.0366359949111938,-0.0091192461550235,-0.0082095377147197,-0.0443108508914709,-0.0325389914214611,0.3268755274329334,-0.1158440552294254,115
1733382820952759800,3.651541562619805,-0.5981275134518742,2.0817304325856267,9.550985386148094,-1.880320263751596,1.1888989650525152,1.832638144493103,-3.727049350738525,2.413255453109741,0.5163802343288564,0.3826525374039026,-0.5412578465164348,0.542188653338329,0.0181009341031312,0.0939372926950454,0.0859068557620048,-0.0041435956954956,-0.0061887204647064,0.0160615518689155,-0.0307784266769886,0.0042140670120716,-0.0245692085891962,-0.0156047251075506,0.3176453422728926,0.0355792629033327,116
1733382820992759800,5.086384980890155,0.9504808156862854,1.950089527156949,9.407064406469464,-2.7694755269899964,0.0867775534872896,1.163438320159912,-2.740561485290528,2.4707157611846924,0.4410196051978857,0.4058871021545209,-0.5751793080523727,0.556710086410097,-0.0269437711685895,0.0770295262336731,0.088794320821762,0.0122367143630981,-0.010616585612297,0.0005972385406494,-0.0056408736854791,0.0067942580208182,0.0910334390997886,0.0349312275648117,0.325957681935653,0.2283487369030714,117
1733382821032759600,4.65291114628315,2.177213982962072,1.5422235965371132,9.064666096538303,-3.6694001676544543,-0.7332824914161116,0.6304723620414734,-2.5499484539031982,2.268996238708496,0.3774864331062837,0.4125852804619583,-0.6059376106067351,0.565788749757509,-0.1399805843830108,-0.0097336545586586,0.0515851639211177,0.0154152512550354,-0.0117522925138473,-0.0042155347764492,0.0510719045996665,-0.0005626855418086,0.1072656119763851,0.0767611563205719,0.2301782904177904,0.2967296146899461,118
1733382821072759600,3.241739695501327,2.1413170324116946,2.903248914402723,8.633948867163062,-4.390819129732251,-1.531670784471184,0.9360985159873962,-2.459988594055176,1.6150481700897217,0.3174635891757663,0.4228094570234954,-0.6319221756604569,0.5666774956155928,-0.2293714433908462,-0.0488615073263645,0.0243243183940649,-0.0203778147697448,-0.0020347014069557,0.0051130689680576,0.0814973264932632,0.0226741433143615,0.0136263742923736,0.0788666978478431,0.1619104445513337,0.1997702926725149,119
1733382821112759600,1.4168290381520985,0.7924363258481025,1.800443155568838,8.17943049096167,-5.020596457684039,-2.0151728247031566,1.5592576265335083,-1.9713164567947388,1.7270158529281616,0.2609715423288039,0.4341188623547314,-0.6436505535794075,0.5737147992890547,-0.1994976997375488,0.0160122960805892,0.0221381299197673,-0.0282422304153442,0.0216460302472114,0.0095739364624023,0.0692104324698448,0.0115256169810891,0.0395785616725683,0.0352173633873462,0.2015587104592472,0.0445002359837293,120
1733382821152759600,2.345209957972169,1.58143157133162,0.7736911472372711,7.649084428098797,-5.705143486699462,-2.2612381278216835,1.9133590459823608,-1.9353729486465447,1.4966803789138794,0.2006907860818836,0.4432033110741186,-0.6471953960562893,0.586883323221312,-0.017736691981554,0.1232586428523063,0.0460584424436092,-0.0148751735687255,0.0450042709708213,-0.004932701587677,0.0323537923395633,-0.0150129469111561,0.0111649526149034,-0.0153763964772224,0.1701164742954075,0.0093064652666449,121
1733382821192759800,2.089763955307007,1.9901503193885088,0.2620399941027164,7.198990298080444,-6.242551743033528,-2.31850987483412,2.016042709350586,-1.6834222078323364,0.8971585035324097,0.1453595681680019,0.4561792165593543,-0.6403995863340167,0.6005493658736467,0.1114386096596717,0.1365511864423751,0.0470565930008888,-0.0024493932723999,0.0307263508439064,-0.0314616523683071,0.0119875147938728,-0.0132165709510445,0.0294984816849231,-0.0077234962955117,0.1718842876855283,0.0825298146486282,122
1733382821232759800,2.0289912144362927,1.669865057066083,-0.2237587787643075,6.88776512504816,-6.597581571000814,-2.280576596150547,1.5913593769073486,-1.355047345161438,0.4459100365638733,0.1009876192178966,0.4708027949045725,-0.6281892810447043,0.6111665948047253,0.0285626295953989,0.0672709494829177,0.0005498128011822,0.01570725440979,-0.0003765895962715,-0.0419391356408596,0.0134285381063818,-0.0042834682390093,0.0088905779421329,0.0049101142212748,0.205646125903353,0.1197191430971026,123
1733382821272759600,1.4490689274996518,1.3691314674317836,-0.2033035813651978,6.716953800356388,-6.790351629522442,-2.223518491888792,1.0293275117874146,-0.7605699896812439,0.1344655901193618,0.0717048297343065,0.4828902204777704,-0.6165913794843029,0.6176491621223561,-0.0814365744590759,-0.0297358594834804,-0.032355073839426,0.0093855857849121,-0.0161332488059997,-0.0359587706625461,0.0296791233122348,0.020032774657011,-0.0213742119401693,-0.0268729627132415,0.1347790573239326,0.0513838580176234,124
1733382821312759600,1.146191311573982,0.6550678365528583,-0.3933256563529372,6.664142832145094,-6.869965848985314,-2.136148105341196,0.5274326205253601,-0.2157614380121231,-0.0171392355114221,0.0582060875854549,0.4888319103731329,-0.6082405845936983,0.6226545407668461,-0.0662027597427368,-0.0551446005702018,-0.035775039345026,-0.0106621384620666,-0.0069698840379714,-0.0284188389778137,0.0398910343647003,0.0329417698085308,-0.0162742584526538,-0.0748034492135047,0.1288110888302326,0.0126817869186401,125
1733382821352759600,1.0472639043539762,0.826326320490241,-0.3319157866224646,6.6987260697484015,-6.862257758826017,-2.0510629071213304,0.2812056839466095,0.0503431931138038,-0.3441322445869446,0.0553968302097672,0.4920095956498229,-0.6020811107291157,0.6263832811500665,-0.0006581058260053,-0.0358656570315361,-0.015360178425908,-0.0171025395393371,-0.009970799088478,-0.0241304002702236,0.0427081510424613,0.0310632698237895,-0.0436216995835304,-0.0897436439990997,0.0724193395227193,0.0629155981183052,126
1733382821392759600,0.9897855288535355,0.7329530402660369,-0.1953062990009784,6.88504300660789,-6.71277096171379,-1.924908616410196,0.2467542737722396,0.352516621351242,-0.8976650834083557,0.0633377732984566,0.4970433855532102,-0.5925292372170258,0.6307497924446457,0.0367459915578365,-0.0447018630802631,0.0090440986678004,-0.0077661871910095,-0.0084776505827903,-0.0122155621647834,0.0142909754067659,0.021007016301155,0.0260246680945158,-0.057781234383583,0.0446295614518225,0.0809594965919852,127
1733382821432759800,0.4981996970176696,-0.0041717327266931,-0.3729400170587003,7.17671241529882,-6.451642821758985,-1.7439834555916487,0.3983288109302521,0.2764232158660888,-1.00436532497406,0.0770543590611702,0.5049096174904105,-0.5779140845512901,0.6365093595034402,0.0269479565322399,-0.0613659024238586,-0.0026076971553266,-0.0098859667778015,-0.0018547028303146,0.0016310848295688,-0.0242095682770013,-0.0176248773932456,0.1438707107961177,-0.034485138952732,0.0982614906571805,0.0864107477352023,128
1733382821472759800,-0.208841487878561,-0.3208130855888128,-0.8779181221701204,7.386958509278297,-6.24034751098752,-1.6313545630164443,0.3992892503738403,-0.2479855716228485,-0.6583176851272583,0.0837251404910805,0.5145275731246653,-0.5643024983251943,0.6401673945011975,0.0522714182734489,-0.042687714099884,-0.0212727952748537,-0.0092084407806396,0.0145181789994239,0.0120353624224662,-0.0374009162187576,-0.0573662333190441,0.0797293702751398,-0.0257782600820064,0.1044828493900597,0.1115668163016438,129
1733382821512759800,-0.4360398857027292,-0.2482218966305255,-0.1576782868742942,7.51584383238852,-6.08114946720004,-1.643808824789524,0.5102293491363525,-0.4807361364364624,-0.6454257369041443,0.0826795218424896,0.5275006133212334,-0.5527694176603111,0.6398071866866922,0.0622239187359809,-0.0471609234809875,-0.0411311239004135,-0.0035132765769958,0.0136762931942939,0.0174168273806571,-0.0096399523317813,-0.0594960786402225,0.0167623342305421,-0.0187890902161598,0.1428830149330198,0.1328323071703314,130
1733382821552759600,-0.7996002261281013,-0.8179156350195408,-0.2204712815262377,7.631905329760909,-5.928645952615142,-1.6660104274645446,0.5369384288787842,-0.5335034132003784,-0.5437456369400024,0.0793933725694604,0.5415637749065614,-0.5400477510108126,0.6393386514534328,0.0421463474631309,-0.0303211696445941,-0.0641485527157783,-0.014478325843811,0.004196211695671,0.022241473197937,0.0256450027227401,-0.0572902597486972,0.0093728085011243,-0.0226002242416143,0.1768129762593656,0.1055228599622845,131
1733382821592759600,-0.8280407231926917,-1.0409446382045746,-0.1621380427621304,7.691767385527491,-5.837895422109961,-1.7105759837694463,0.508194625377655,-0.5273981690406799,-0.2832008302211761,0.0732038849484155,0.5536379338940918,-0.5298114233065164,0.638299355835603,0.0058455998077988,-0.0256500355899333,-0.068521998822689,-0.0039178729057312,-0.0062867254018783,0.0197505876421928,0.0517951026558876,-0.0480840094387531,0.0135427876621484,-0.0146604301407933,0.1967759331621229,0.0958972457438707,132
1733382821632759600,-0.6798229231029749,-0.8290367484927177,-0.1908065033636987,7.704559062561392,-5.810083870598674,-1.747299886663258,0.4608008563518524,-0.4630384743213653,-0.1244656443595886,0.0651274180504479,0.5626831149138348,-0.5219915808751358,0.6377074819555638,-0.0417056754231452,-0.0388366803526878,-0.059043675661087,0.0026957988739013,-0.0177212134003639,0.0168236494064331,0.061213694512844,-0.0447614341974258,0.0196416890591382,0.0082988077774643,0.2151425607841461,0.0836263777136802,133
1733382821672759600,-0.5165408248722553,-0.6421130779117346,-0.1125321542024612,7.6846309577763074,-5.824625606170296,-1.7862191076442595,0.3444580137729645,-0.398980438709259,0.0390882529318332,0.0566367854182177,0.5691625431015942,-0.5168421726201183,0.6369619340889536,-0.0827503129839897,-0.0461373627185821,-0.0553161837160587,0.0021227002143859,-0.0213448628783226,0.0152897275984287,0.0500145480036735,-0.0456451326608657,0.0155623107910156,0.0264212489128112,0.224582077845931,0.0617681816488504,134
1733382821712759800,-0.1743102727234363,-0.2817161699533462,0.2051646990619599,7.637636566889285,-5.876619997301697,-1.8172104582354425,0.2154208421707153,-0.2117801159620285,0.1473587304353714,0.0488422422123316,0.5724192753690744,-0.5147699673848468,0.6363666955781245,-0.0842842906713485,-0.0249001439660787,-0.0343414582312107,-0.0026543736457824,-0.018133208155632,0.0120477080345153,0.0396547019481658,-0.0480482429265975,0.0130453595340251,0.0171443074941635,0.2453375003006309,0.0678670830458402,135
1733382821752759800,0.1271574764043092,-0.0184521870136261,0.3066623951613902,7.594442152807116,-5.931587851285934,-1.8196474761240184,0.0386959873139858,-0.0133842173963785,0.1551717221736908,0.0443969473395543,0.5723343854442999,-0.5149850059904085,0.6365946759199251,-0.0955393388867378,-0.0052624735981225,0.0012335130013525,-0.0059907436370849,-0.015983410179615,0.0161416456103324,0.0334811508655548,-0.050057552754879,0.0035848727494478,-0.0118871983140707,0.2711192264847457,0.0859267636105418,136
1733382821792759600,0.2768441800028086,0.0972486603528261,0.3223476016797125,7.562668711927532,-5.975910977137088,-1.80690241471082,-0.0356979444622993,0.0910795554518699,0.1457099616527557,0.0431517168004303,0.5701416192639136,-0.5167832398090345,0.6371902976744559,-0.1017620861530304,0.0096087781712412,0.020177574828267,-0.0075109601020812,-0.0067658424377441,0.0056783556938171,0.0316951423883438,-0.0538586489856243,0.0120493342339992,-0.0293031092733144,0.2802025505200028,0.0724760381460189,137
1733382821832759600,0.352417015120387,0.2761860083550214,0.249701906055212,7.536477455094456,-6.01643412618339,-1.7816914010867475,0.0219609644263982,0.0867118835449218,0.1226913332939148,0.042540314824878,0.5674963188796733,-0.5184485564707545,0.6382392813066593,-0.0746700093150138,0.048502329736948,0.0267919357866048,-0.0045262575149536,0.0094006732106208,-0.0030903816223144,0.0214355960488319,-0.0541819706559181,0.0036485856354236,-0.0327722504734993,0.3025342093154788,0.0784133192405104,138
1733382821872759600,0.420792047688365,0.4303992494672536,0.14318112109676,7.521671515628695,-6.046447571653127,-1.742208701004088,0.092376984655857,0.076406143605709,0.0395527370274066,0.0415710775158592,0.5656431063596341,-0.5185323475568087,0.6398779700427533,-0.0383085459470748,0.0387241579592227,0.0285230576992034,0.0006033182144165,0.0119002908468246,-0.0101907290518283,0.0110947778448462,-0.0463994704186916,-0.0097480715543031,-0.0293663088232278,0.2702060571625828,0.0405716643631458,139
1733382821912759600,0.4705108951032161,0.2772480846285819,-0.041607291021198,7.529114232850074,-6.05011661555469,-1.6967326057255268,0.0687334388494491,0.0795361325144767,-0.0401247702538967,0.0415342609788335,0.5647490261375648,-0.5172695831403498,0.641689632886533,-0.024617500603199,0.0473897121846675,0.0201886966824531,-0.0090873837471008,0.0136905685067176,-0.0222266353666782,-0.0023561352863907,-0.0060355067253112,-0.0634229631185531,-0.0273936949670314,0.2538258541174232,-0.0260866274148225,140
1733382821952759800,0.3524024020731449,0.1384025085180997,-0.1395487559437751,7.54771488842368,-6.033525546237826,-1.6730113922677934,0.0034052005503326,0.0269710607826709,-0.0765267387032508,0.0425532493832698,0.5647101910229639,-0.5161416883203797,0.6425647430862016,-5.4100994020700455e-05,0.0239581558853387,0.0051184659823775,-0.0028141736984252,0.0141276493668556,-0.0240660347044467,-0.0250250026583671,0.0158825200051069,-0.0487152233302593,-0.0239834524691104,0.2603879891119897,-0.0295873290121555,141
1733382821992759800,0.0597141717284917,0.1530512115955352,-0.0614135229922831,7.570158775421977,-6.007623043218255,-1.6648064585022628,0.0027354294434189,0.0201476104557514,-0.0926321446895599,0.0438898903716644,0.5652804929324141,-0.5151111230663314,0.6428003715425988,-0.0032195339445024,-0.0009941719472408,0.0066570406779646,-0.0048627853393554,0.0098820477724075,-0.0268115326762199,-0.0271860584616661,0.0193714722990989,-0.0182213008671998,-0.0111560728400945,0.277718405554071,0.032272038051486,142
1733382822032759600,-0.0216045135647058,-0.0415080684304237,-0.0827357124842703,7.590874231192469,-5.981406067422032,-1.6648818618260324,-0.0217431802302598,-0.0035258466377854,-0.0669017434120178,0.0451477568591195,0.5660544350219121,-0.514264257612232,0.6427102668486528,0.029934424906969,-0.0381258279085159,0.0002006725408136,0.0052778124809265,0.0146361887454986,-0.0218423008918762,-0.0073546301573514,0.0210666954517364,-0.0042436289191246,-0.0116063980385661,0.2528617583256214,0.0356795084074139,143
1733382822072759600,0.0691857644289731,-0.0991226375311613,0.0560297841273248,7.599293684491514,-5.969730242675542,-1.6683746723778543,-0.0029416135512292,0.003932281397283,-0.0051909238100051,0.0457868003952424,0.5663867014798561,-0.5140715308809674,0.6425264791671633,0.0288087055087089,-0.064598336815834,-0.0183635577559471,0.0029760599136352,0.0080638974905014,-0.0068007707595825,0.0103816799819469,0.0121866380795836,-0.0147784669369459,-0.0048795156180858,0.2360223402708768,0.0506640193104743,144
1733382822112759600,0.1726993303954601,0.0801589938640594,0.1042215681053698,7.600075190258026,-5.969146305307746,-1.6668875025600194,0.0166598185896873,-0.0022361457813531,-0.0113672157749533,0.0456873584549536,0.566482972819468,-0.513891673988303,0.6425924019591877,0.0228102020919322,-0.0823909714818,-0.0308799482882022,-8.33272933959961e-05,0.0043014660477638,0.0049266144633293,0.018111415207386,0.0209339633584022,0.0054343000084161,0.0160495191812515,0.2199526644796132,0.0369900064840912,145
1733382822152759600,0.2416255671054124,0.0989694927960634,0.0555402470447123,7.605369789534807,-5.963416237223148,-1.663246954100579,-0.0004241098649799,0.0072618923150002,-0.0321202203631401,0.0458825649526534,0.5666585838060813,-0.5135173236917998,0.6427229156584785,0.0029302374459803,-0.0679043903946876,-0.0222070310264825,-0.0120841860771179,-0.0043975040316581,0.0222182869911193,0.0138796735554933,0.0133467549458146,0.0220960964739322,0.0321972444653511,0.221506250597164,0.0267146961852908,146
1733382822192759800,0.1894493896663188,0.0986386534065008,0.1142366200327873,7.613702733594178,-5.953808450922369,-1.659544592451304,0.0166060123592615,0.0142702963203191,-0.0261403564363718,0.046382409371107,0.5668509097386071,-0.513121111116767,0.6428339377350416,-0.0160304047167301,-0.0504290983080863,-0.0135186687111854,-0.0050637125968933,-0.0061669871211051,0.0218109413981437,0.011356116272509,0.008167240768671,0.0039385084927082,0.0285406000912189,0.2228358917657285,0.0475105237156152,147
1733382822232759800,0.1688397323578596,0.1017529860347509,0.0256723475255072,7.623238623702526,-5.944502277916669,-1.6490908568456768,0.0290731657296419,-0.0017306187655776,-0.0384031347930431,0.0466677717198258,0.5670889817582454,-0.5123380891629502,0.643227672584421,-0.0062944199889898,-0.0149742225185036,-0.0056848470121622,-0.0125529766082763,-0.0096487030386924,0.0242825746536254,0.0220956169068813,-0.0013667540624737,0.0233738613247871,0.0330315083265304,0.2100131620064377,0.0734323159575462,148
1733382822272759600,0.1773380961120128,0.0003191489517688,0.0483086883559823,7.635090389537811,-5.930007888618111,-1.6464380042493345,0.0278429724276065,-0.032859805971384,-0.0329454727470874,0.0469379813108818,0.5678053902977059,-0.5114117892289084,0.643313068523207,-0.0234901849180459,0.0048738373443484,0.0192483998835086,0.0001941323280334,-0.0159587264060974,0.0158964991569519,0.0334695987403392,0.0026919040828943,0.0675268913060426,0.0339754149317741,0.1925230980232357,0.001767886455357,149
1733382822312759600,0.2128805341362953,-0.0551864651709795,0.0371228390835225,7.643394107502698,-5.919544362270832,-1.6455775880277157,0.0417081676423549,-0.0357760936021804,-0.0330440700054168,0.0467287616512457,0.5686580889769164,-0.5104204972141849,0.6433625874730453,-0.0674453899264335,0.0078118899837136,0.0414740107953548,-0.0002920031547546,-0.0143595710396766,0.0112770199775695,0.03563978895545,-0.008620286360383,0.0747159260272979,0.0578192174434661,0.202059791849181,0.0319204481348395,150
1733382822352759600,0.1509627148836851,-0.0024783728122711,0.0872086201146244,7.646950923201441,-5.914789861220121,-1.6461327376924455,0.0450087562203407,-0.0247829779982566,-0.0080517660826444,0.0462292989619764,0.5693797700654384,-0.5096431022085615,0.6433764882203853,-0.0499369725584983,0.0188949014991521,0.0345741622149944,-0.0044630765914916,0.0002904385328292,-0.0036573410034179,0.0337160900235176,-0.0179498139768838,-0.0008446341305971,0.1178944334387779,0.1745852172072976,-0.0003247019097208,151
1733382822392759600,0.1392202546417713,0.1298643972754478,0.0524608395993709,7.647322094601392,-5.915901621854305,-1.6404149445675311,0.0446868054568767,-0.0226322989910841,-0.0057227872312068,0.0455713899693571,0.5697366164390769,-0.5089578322816357,0.6436500608038969,-0.0651052668690681,0.0044781444594264,0.0349166393280029,-0.0093054771423339,-0.0005253925919532,-0.0090097188949584,0.0271566957235336,-0.0189433265477418,0.0205751705169677,0.1716017127037048,0.1718758851833641,-0.086564184731245,152
1733382822432759800,0.1940858172953128,0.1111351468861103,0.0428616749964654,7.646476875948905,-5.9173740324944255,-1.6390464326933023,0.0351293869316577,-0.0265659298747777,0.0003339133108966,0.0448981655841068,0.5701490910878161,-0.5084271079357825,0.6437515818918459,-0.0880161747336387,0.0154903158545494,0.0364775210618972,-0.0127434134483337,0.0062394514679908,-0.0085415840148925,0.0055702794343233,-0.0365407243371009,0.0726689303696155,0.2057912349700927,0.202190797817707,-0.1762380259156227,153
1733382822472759800,0.2770090151757001,0.0916898571819067,0.0653669367931783,7.644657259306311,-5.919626195335388,-1.6394048907421528,0.0332269929349422,-0.0286702252924442,0.0011112701613456,0.0442494833924059,0.5705171857215285,-0.5080320123940871,0.6437823352941442,-0.071422554552555,0.014000597409904,0.0234600566327571,0.0107190608978271,0.0119929388165473,-0.0231044888496398,-0.0075943702831864,-0.0669224709272384,0.0631628508776426,0.2555287182331085,0.1754105621155351,-0.0976283073201775,154
1733382822512759800,0.2953419597238302,0.0651560705214738,-0.0068296998895704,7.646974888598918,-5.916735150068998,-1.6390347422555087,0.0401230528950691,-0.0310862679034471,-0.0230132713913917,0.0437732251313934,0.5710788599101905,-0.5073819587322697,0.6438295705004389,-0.0569253750145435,0.0085355238988995,0.0143931237980723,-0.0061678290367126,0.0109011307358741,-0.0168409422039985,-0.0020493776537477,-0.0592162907123565,0.025240824240446,0.3106148242950439,0.1410085993632674,-0.0426215826302766,155
1733382822552759600,0.2791454426825046,0.0105798462033271,-0.0486347054399549,7.647907785534858,-5.91438244946301,-1.64316775040701,0.0473436303436756,-0.060335349291563,-0.0066914660856127,0.0430314260974752,0.5718851345466465,-0.5066809978598661,0.6437159198814043,-0.0231423750519752,0.0057916156947612,0.0086099356412887,-0.0080009698867797,0.0098066255450248,-0.0282731615006923,-0.0036939098499715,-0.0462096482515335,-0.0853904647767543,0.3306847810745239,0.1405618785090744,0.0026797406032681,156
1733382822592759600,0.1506692848950624,0.1834492724686861,-0.0087666593015193,7.644402407762408,-5.918310436561703,-1.645327120397985,0.073343425989151,-0.0471271276473999,0.0046449988149106,0.0417810995793879,0.5726430851594229,-0.5059330343973267,0.6437126631157793,-0.0178040694445371,-0.0330162867903709,0.0049148672260344,-0.004809558391571,0.001886211335659,-0.0300618410110473,-0.0061077671125531,-0.0404007919132709,-0.1378957280397415,0.3279489576816559,0.1616528895936906,0.0296878667771816,157
1733382822632759600,0.1089145482271909,0.2374912437796592,-0.1193884498380124,7.643659480440616,-5.91952974922359,-1.6443895472869277,0.043533269315958,-0.054791871458292,-0.0186229366809129,0.0406932641412931,0.5734014475681121,-0.5050260497980712,0.6438194734333935,-0.0658267214894294,-0.0846123695373535,-0.0092213917523622,-0.0052396059036254,-0.0049053952097892,-0.0277516767382621,-0.0099226841703057,-0.034294418990612,-0.0940519101381301,0.2964794635772705,0.1702413427840918,0.0709665103659033,158
1733382822672759600,0.1926677671909332,0.1316495271265506,-0.087522800630331,7.643703904104233,-5.915591825252771,-1.658298976304382,0.025363303720951,-0.0827386826276779,-0.0129805551841855,0.0398965219151251,0.574511777857209,-0.5044659930955324,0.6433184110208783,-0.0983638912439346,-0.1275191009044647,-0.0187198221683502,-0.0011293292045593,0.0007347762584686,-0.015805535018444,-0.0106659913435578,-0.051218569278717,-0.0046755905956029,0.2365582734346389,0.2025578775644302,0.1401131118282675,159
1733382822712759800,0.2582078685939312,0.1778635812908411,0.0175005853772163,7.6417597842991345,-5.913472348880768,-1.674737193147093,0.0409569256007671,-0.0748409479856491,-0.0264097545295953,0.0388754290142762,0.5757185934932948,-0.5039205673038959,0.6427292783420439,-0.1005607321858406,-0.1521351635456085,-0.0478061996400356,0.005585491657257,0.0062232464551925,-0.0015198662877082,-0.0038086920976638,-0.0509497486054897,0.0327653745263814,0.1840157806873321,0.169751001983881,0.1970028737857937,160
1733382822752759800,0.2853407901912927,0.1057096147060394,-0.0593289718031883,7.64859459875524,-5.900425820302963,-1.6894854110762476,0.0026448681019246,-0.0685179084539413,-0.0592106021940708,0.0385275928705333,0.5770894629309784,-0.5030979405547638,0.642164960868957,-0.0639430657029151,-0.1380572766065597,-0.0562282465398311,-0.0101354718208312,0.0096571668982505,0.0076985880732536,-0.0052407528273761,-0.0555744208395481,0.0289624751120805,0.147232636809349,0.2041642167825251,0.2573778475105762,161
1733382822792759600,0.2121469591647386,0.1340466513961553,0.0596032586999237,7.659391302579641,-5.880580133104324,-1.7096578460112213,-0.0174936242401599,-0.0451974608004093,-0.0690419673919677,0.0388382408225944,0.5784764350967098,-0.502526918494396,0.6413450722227366,-0.0046152966096997,-0.1220388859510421,-0.0570145472884178,-0.0085941553115844,0.0038836225867271,0.0193935632705688,-0.0001007271930575,-0.0525050200521945,0.030990766069293,0.124376356601715,0.192705834178999,0.2927402527928352,162
1733382822832759600,0.1551268488258123,0.0634685558259487,0.0731999685063958,7.675407786878943,-5.853993739473819,-1.728940200238675,-0.0503359884023666,-0.04138058796525,-0.0850640684366226,0.0398424766064807,0.5797418964677334,-0.5020465593265884,0.6405162404364338,0.0140436086803674,-0.0708030834794044,-0.0408311821520328,-0.0116186141967773,-0.0075055211782455,0.0276525616645813,0.0038477219641208,-0.041685651987791,0.0460047953277826,0.0927965864539146,0.2144629079569131,0.277292800553143,163
1733382822872759600,0.1214759236365556,-0.058852001941204,0.2770259663105011,7.692599744698405,-5.823551839458943,-1.7551465085104108,-0.0462112799286842,-0.0431198552250862,-0.0781875401735305,0.0411533135030866,0.5811223249031313,-0.5017812398355112,0.639389451477992,0.0208019129931926,-0.0291108153760433,-0.0254277251660823,-0.0045307278633117,-0.0146129205822944,0.0263217687606811,-0.0033267471008002,-0.020736614242196,0.0400432565748691,0.0624694377183914,0.2116295111618936,0.2519552379399538,164
1733382822912759600,0.0737269149899482,-0.1181435643434524,0.2820117918990552,7.706531823939085,-5.800772436895966,-1.769409719401598,-0.0162438508123159,-0.0079455161467194,-0.0483176819980144,0.0421047286384546,0.5820868868226837,-0.5013877193788575,0.6387585422550107,0.015359210781753,0.0017593768425285,-0.009022120386362,-0.0086762905120849,-0.0201331079006195,0.0213809087872505,-0.0209735389798879,-0.0101596610620617,0.0645581046283245,0.0268361903727054,0.2098235577184707,0.2156175578847527,165
1733382822952759800,0.0501467174381017,-0.0882522839486598,0.2136031493224203,7.717091796398162,-5.78562162951529,-1.7729761797115209,-0.029008213430643,0.0052819801494479,-0.038678653538227,0.0429115946599886,0.5824950078288741,-0.5010949933271004,0.6385623759412336,-0.005424365401268,0.026424616575241,0.0139980427920818,-0.0035801529884338,-0.0155325159430503,0.0130288004875183,-0.0326387137174606,0.006122906692326,0.0425000020772218,0.0011448208242654,0.1827806524921208,0.2303805349916219,166
1733382822992759800,0.0203068749696016,-0.1321212362915277,0.2312861055292189,7.724335776177048,-5.775570775622129,-1.774199437896162,-0.0079357037320733,0.0197404213249683,-0.0099314823746681,0.043677082459855,0.5825660196554363,-0.5010746709059999,0.638461622825116,-0.0173025950789451,0.0356438420712947,0.0177900530397892,-0.0042681694030761,-0.0075008124113082,0.0037635564804077,-0.0266786627471447,0.0147478161379694,0.0845791483938693,-0.0040410556830465,0.1854532327022403,0.2536103116706013,167
1733382823032759600,0.0514911177843809,-0.065582771500945,0.1120071074150502,7.724428130635618,-5.77866406546235,-1.763707562237233,0.0211493000388145,0.0266596786677837,0.0198855493217706,0.0436859916808605,0.5821916866939695,-0.5009759471041301,0.6388799387302292,-0.0452002771198749,0.0345148742198944,0.0144442580640316,-0.0135574340820312,-0.0050903186202049,-0.0026015043258666,-0.0340011455118656,-0.0017255144193768,0.0356938291937112,-0.0189820863306522,0.1614054176386445,0.1820776918545365,168
1733382823072759600,0.1267068100273609,-0.0817681826263666,0.1073262561224401,7.71849464893341,-5.788964510202407,-1.755883444482833,0.0322718881070613,-0.0099267633631825,0.0351469814777374,0.0431261918597706,0.5818374016164927,-0.5009894034088992,0.6392300199623451,-0.0626927092671394,0.0189395882189273,0.0097281979396939,-0.0064579844474792,0.0003324076533317,-0.0089069679379463,-0.0439255461096763,-0.020697996020317,0.1281324589163064,-0.0202636327594518,0.1762148642357438,0.1814189356848597,169
1733382823112759600,0.2159171253532171,-0.0326823724180459,0.0246234229944646,7.710088639637827,-5.8043818595647805,-1.741863979219645,0.0419366471469402,0.0135817127302289,0.0310078281909227,0.0421607753271502,0.5813678314844551,-0.5008211191398889,0.6398532590587375,-0.0911326110363006,0.0124559625983238,0.0004368950612843,-0.0078572034835815,0.0038001239299774,-0.0099738910794258,-0.0555624440312385,-0.0093879699707031,0.018088614398241,-0.026292884722352,0.1372152714949101,0.1254410278752446,170
1733382823152759600,0.1742383765310049,-0.0159527714133262,-0.0200431094668805,7.698194788226485,-5.822756305167078,-1.7331114945739508,0.0425765290856361,-0.0078042447566986,0.081533096730709,0.0411258744220071,0.5808421035731552,-0.5009855773594097,0.6402690918441668,-0.0545003004372119,0.0119981653988361,-0.0096261259168386,-0.0047292113304138,0.0134926363825798,-0.0104346871376037,-0.0504311472177505,2.70307064056e-05,0.0888712926298379,-0.0415986962616443,0.1802851824145764,0.0558306082934141,171
1733382823192759800,0.1778857931226491,0.2450222238063812,-0.0130922674156725,7.680334137365222,-5.850297807565331,-1.7195612542577088,0.0535690896213054,4.74182306788e-05,0.0624947026371955,0.0394875159505988,0.5801098561497098,-0.5011444662373029,0.6409115362794272,-0.0594905279576778,0.0167372599244117,-0.0194062516093254,-0.0042694211006164,0.0005463361740112,-0.0106694623827934,-0.0273689944297075,-0.0093632349744439,0.0512824434697628,-0.0109366923570632,0.1806248626977205,0.0774944508299231,172
1733382823232759800,0.2050783359527588,0.2158791314303874,0.0116705640494823,7.6693012866973875,-5.866045411795377,-1.7151448991201816,0.0180096048861742,-0.0216938685625791,0.0329912118613719,0.0384149364618091,0.579848360347238,-0.5012224347065635,0.6411523033253014,-0.0552379973232746,0.0037974941078573,-0.017747301608324,-0.0031971931457519,0.0075634121894836,-0.00795329362154,0.0027497746050357,-0.0157353989779949,0.0435457117378711,0.0650928765535354,0.1931225252211093,0.0577098461687564,173
1733382823272759600,0.2501402974724769,0.108593645709753,0.118267482984066,7.662696189343928,-5.874130518573522,-1.7169960799448192,0.0126846199855208,-0.0158950705081224,0.0184892397373914,0.0377137774946593,0.5798979978979727,-0.501259162359545,0.6411203334328373,-0.0050350110977888,0.0261058881878852,-0.0268025826662778,-0.0026107430458068,0.0082171484827995,-0.0056878849864006,0.0148111460730433,-0.0226642284542322,0.0212532159090042,0.1234001442790031,0.2695700973466038,0.009807985047996,174
1733382823312759600,0.2022282072186469,0.1691086124271154,0.1634746981933713,7.65928141246438,-5.879577678063511,-1.7135700510188936,-0.0030259767081588,0.0214243326336145,0.0013222752604633,0.0374855258685196,0.5796641689504866,-0.5013553709959734,0.6412697774623841,0.0509555526077747,0.0397357903420925,-0.0059969024732708,-0.0070173740386962,0.0050774440169334,-0.0041869953274726,-0.0043343724682927,-0.0155327841639518,-0.0277326410561799,0.137708768248558,0.2368190070739015,0.0351879254981875,175
1733382823352759600,0.1073205570340156,0.0324742826253175,0.2081073283851146,7.661265279757976,-5.8777679982930415,-1.7109173445530237,0.0177030451595783,-0.0066120787523686,0.0062516331672668,0.0376233050511023,0.5796317659102591,-0.5012579412511035,0.6413672567117173,0.0503795109689235,0.0338400825858116,0.0028384001925587,0.008112609386444,-0.001865766942501,-0.01013595610857,-0.0154673280194401,-0.0005113752558827,-0.0195984344393014,0.1496206521987915,0.2541109181364998,0.1299132048532366,176
1733382823392759600,0.1585550697088241,0.1496042860120534,0.2174715151883661,7.661205658525228,-5.880424650281667,-1.7020260359585284,0.0051299724727869,0.0401078648865222,-0.0059933713637292,0.0374182038799358,0.5794730167098386,-0.5009892194605381,0.6417324849281052,0.0301615931093692,0.0061453897505998,0.0035295570269227,0.0093005299568176,-0.0089712738990783,-0.0100375935435295,-0.0227427128702402,-0.0028466891963034,-0.0082996263116598,0.1368426531553268,0.2512297732096165,0.1702232956707477,177
1733382823432759800,0.2508832247942686,0.1556833136647939,0.1322878250300884,7.675420646360516,-5.866153548344969,-1.6871723118282853,-0.1577910929918289,0.1672811508178711,-0.0502899028360843,0.0395923407627666,0.5784656662296198,-0.5013973681656669,0.6421920493548139,0.0347901657223701,-0.0217810496687889,0.0363465584814548,0.0168491601943969,-0.0105620324611663,-0.0182058736681938,-0.0257038585841655,0.0010104486718773,-0.0048322424620389,0.1122732833027839,0.2318692391794174,0.1956571582652628,178
1733382823472759800,0.3358814753830432,-0.0798363377809524,-0.0242623345971107,7.706840451496839,-5.830849010729789,-1.6661933828160165,-0.3431922197341919,0.3551516830921173,-0.0541339851915836,0.0458460880766648,0.5755403025363787,-0.5036919513885678,0.6426086958979454,0.0112885683774948,-0.0889773443341255,0.0574752800166606,0.0273752212524414,-0.0113455504179,-0.0238713026046752,-0.0077377017587423,0.0105971228331327,0.0179459910571575,0.0670582801103591,0.2137726241378113,0.1243608314231038,179
1733382823512759800,0.2046031196564436,-0.1263122577518224,-0.0344715939223766,7.747737694552541,-5.7854205539852375,-1.6345865306749938,-0.5019965767860413,0.4677060842514038,-0.0656665936112403,0.0557096556063671,0.570251811068706,-0.5080881733768806,0.6430830509908076,-0.1670588105916977,-0.1641162037849426,-0.0010735169053077,-0.0121834874153137,-0.0270619466900825,0.0001114681363105,0.0018328223377466,-0.0018763402476906,0.0128822779268026,-0.018041081726551,0.2261573643386364,0.1018234209224581,180
1733382823552759600,-0.100630119484663,-0.1286029990375042,-0.008701046719402,7.791253595674037,-5.736591933408379,-1.5994547192782165,-0.4982629120349884,0.515322744846344,0.0013767555356025,0.067251543848055,0.563759133206132,-0.5135417552546236,0.6433721347964877,-0.2825864553451538,-0.1814917176961898,-0.0237035937607288,-0.0217017531394958,-0.0082631707191467,0.0172939896583557,0.0150813832879066,-0.0267386063933372,0.0051046296626329,-0.0819625630974769,0.2237199811238795,0.1242429041318595,181
1733382823592759600,-0.0254845698684453,-0.0594897153228521,-0.2380396714426577,7.817565264016389,-5.715025998288393,-1.5474370934017,-0.42413330078125,0.4472451508045196,0.0300286412239074,0.0772097679393535,0.5564349806626618,-0.5189194983119586,0.6443146938469221,-0.189375028014183,-0.1035667806863784,0.0340648293495178,-0.0077542066574096,0.0149942934513092,0.016190767288208,0.0340733006596565,-0.0327732749283313,0.0041156186252832,-0.0956334695219993,0.2201895054427906,0.1842828006833791,182
1733382823632759600,0.1760392884731292,-0.0513128386080265,-0.421019426703453,7.827178311014175,-5.708088892501593,-1.5242689837820826,-0.3370160460472107,0.2502130568027496,0.0840144157409668,0.0844722988087159,0.5506909757998024,-0.5238850469818066,0.6443200944490586,-0.0455392971634864,-0.0659789219498634,0.0674530789256095,-0.0087982416152954,0.0196119472384452,0.0139966607093811,0.0501351691782474,-0.0407733134925365,0.0133761989235877,-0.0836225748062133,0.2318478675978258,0.1920673170797526,183
1733382823672759600,0.3425415177941322,0.4357850341588258,-0.2787478216670453,7.816298605081439,-5.720386064016819,-1.5339622564092277,-0.2085763365030288,0.0908607840538024,0.0498811528086662,0.0879308087725939,0.5471717678032759,-0.5280278092817307,0.6434732543026791,-0.0419091396033763,-0.0333063043653965,0.0822348222136497,0.0040687918663024,0.0059077888727188,0.0133734792470932,0.0425401218235492,-0.0531602799892425,0.063889411586523,-0.0838446244597435,0.2553539404675364,0.2303241286292672,184
1733382823712759800,0.6192904207289218,0.0549433040648698,-0.3887560103498399,7.8261057133466,-5.697028569304943,-1.5704482588939368,-0.2242525964975357,-0.0297048799693584,-0.0823549330234527,0.0909585193381499,0.5467410318156256,-0.5302309147396198,0.6416041737413765,-0.0522808209061622,-0.1093642637133598,0.0909949541091919,0.0579810142517089,0.0032761394977569,0.0070728659629821,0.047834113240242,-0.0539694838225841,0.0994973160624504,-0.1107020825147628,0.3109413511222228,0.1530149712383747,185
1733382823752759800,0.5730518166452646,-0.0533235939085483,-0.2733152752242982,7.842116936948895,-5.656098593023419,-1.6371080119766297,-0.2118345499038696,-0.0694195330142974,-0.0858362168073654,0.0938571881347309,0.5479582364869025,-0.5321757677122594,0.6385307432155672,-0.1328462362289428,-0.1118909195065498,0.0725364536046981,0.0394092798233032,-0.0103373154997825,4.7266483306884766e-05,0.0695580840110778,-0.053022488951683,0.0376952321439981,-0.1554612070322036,0.2909901211898774,0.1643348221540451,186
1733382823792759600,0.3110200058490038,0.1966197196871042,-0.0942670141935348,7.856649320170283,-5.6151469894319765,-1.706921552915126,-0.2519814074039459,-0.0626045390963554,-0.0863872244954109,0.0966271221816383,0.5492688791599493,-0.5341652128611278,0.6353223244239645,-0.2331230491399765,-0.226879134774208,0.0302601046860218,0.0482868552207946,-0.0214517265558242,0.014789879322052,0.0858405977487564,-0.0459049083292484,0.0709714788019657,-0.1564524620771408,0.2665045722961425,0.1631491195008158,187
1733382823832759600,0.4756365675538778,0.020337854629755,0.1796095481753349,7.893595195251703,-5.538074855667352,-1.7864179912172258,-0.3925413489341736,0.0309461764991283,-0.2489787340164184,0.1019889599558214,0.5508889664147817,-0.5362866003741916,0.6312815185832603,-0.4262144863605499,-0.3152582049369812,-0.0496252700686454,-0.0007898211479187,-0.033108003437519,0.0217978358268737,0.093352697789669,-0.048183724284172,0.0355623117685318,-0.1675101667642593,0.2707096227705478,0.1014537108272314,188
1733382823872759600,-0.0860182412862777,-0.2059516116559505,0.5471899378970265,7.953214089912175,-5.434337417817115,-1.8397594130434087,-0.4948631227016449,0.2349062263965606,-0.1829922944307327,0.1112875420518621,0.5505574396738542,-0.5391550123787638,0.6275454710393567,-0.5104912519454956,-0.2293265163898468,-0.0222453139722347,-0.0484079718589782,-0.0422219261527061,0.0114030241966247,0.0820546820759773,-0.0146017037332057,-0.0373661463201046,-0.1767041832208633,0.2403721329782158,0.118185357658565,189
1733382823912759600,-0.2185030501931905,-0.4024082497358321,0.4740029750026762,8.004595902103185,-5.352952681550383,-1.8554570406518875,-0.4374057948589325,0.2999113500118255,-0.0895564258098602,0.1213475626246736,0.5475418166909743,-0.5429548208739116,0.6250382070631789,-0.370659589767456,-0.2403273433446884,0.0623844861984252,-0.0222275257110595,-0.0183989778161048,0.0129593759775161,0.0713261067867279,0.0055187754333019,-0.0546995584368705,-0.1838761568069458,0.2293288705142215,0.0787228235810995,190
1733382823952759800,-0.4851765493154525,-0.2479389880359172,0.3793525144495069,8.02721046949327,-5.321871314588189,-1.847147769729048,-0.2185094505548477,0.1543706655502319,0.055832352489233,0.1280340507651372,0.5437449748461656,-0.5463695891380834,0.6240423883780857,-0.2851228713989258,-0.0935281068086624,0.1330521255731582,-0.0808650255203247,-0.015501819550991,0.0327240377664566,0.0538531318306922,0.027158498764038,-0.0593161123216152,-0.2104895263910293,0.2486815134989097,0.0459945661947131,191
1733382823992759800,-0.3838812439203262,0.0810311005234718,0.3318935747906565,8.008067962127923,-5.351417727068066,-1.8448804093189537,0.1711442917585373,-0.1097708269953727,0.1292369961738586,0.1274017967594594,0.5422627661084964,-0.547735166499784,0.6242644793058187,-0.148859292268753,0.0340710282325744,0.1893509477376938,-0.0551256537437438,0.0145738795399665,0.0382464528083801,0.0433159954845905,0.0361902229487896,-0.0490922399491071,-0.2302776724100113,0.2381347293149679,0.0737169781178236,192
1733382824032759600,-0.085331428065896,0.4476654415667057,0.0594634118378162,7.969886407771706,-5.410845483070611,-1.836858430904895,0.4432092607021332,-0.2496076822280883,0.0936366394162178,0.1202802894857614,0.5443491664268819,-0.5452868061154721,0.6260023423677139,0.0090198218822479,0.1301628947257995,0.208030566573143,-0.0612159371376037,0.0456291660666465,0.043975219130516,0.0384414792060852,0.0125765148550271,-0.0284726457685232,-0.2336288541555404,0.2666158871835097,0.1079278752774,193
1733382824072759600,0.2957119620800018,0.5344891540169715,-0.4210813860237598,7.934356244707107,-5.467891312372684,-1.821687603649497,0.3510542511940002,-0.2240582704544067,0.0857854709029197,0.1120074307978324,0.5474705773783065,-0.5414389930644565,0.6281513699374185,0.1207391619682312,0.2670211791992187,0.2176442444324493,-0.0196425318717956,0.0663274824619293,0.0375745892524719,0.0432668663561344,0.0341340936720371,-0.0713853202998638,-0.1701253205537796,0.2062250217698514,0.1765653581738472,194
1733382824112759600,0.4631429966837167,0.747841397318244,-0.3360100701987743,7.901599053487181,-5.515295453104376,-1.8211657717324792,0.1434139758348465,-0.1267106682062149,0.0618524476885795,0.1062927939867581,0.5491427656109202,-0.5397182914933355,0.6291647540274427,0.1764839142560959,0.3139748871326446,0.1254615187644958,-0.0471579432487487,0.0716274604201316,0.0215088203549385,0.0333110950887203,0.0655732005834579,-0.1545680458992719,-0.1097413003444671,0.1298158819586038,0.0978919266924262,195
1733382824152759600,0.1099772090226411,0.8131412602245807,0.4066751134000718,7.89428902273476,-5.520141724091768,-1.838109161618352,0.1658301055431366,-0.1643773317337036,-0.1007275730371475,0.10339957058507,0.5514702699231464,-0.5381431257785846,0.6289603768471534,0.1345308721065521,0.2887713313102722,-0.0271324161440134,-0.0467276573181152,0.0646115466952323,0.0057323053479194,-0.002377912402153,0.1341305375099182,-0.1667412987738847,-0.1026531383395195,0.01398278651461,-0.028446926805377,196
1733382824192759800,-0.0248205530017614,0.270215117251873,0.5760368238054215,7.92942755613327,-5.474162647727131,-1.8243134221084407,0.220721960067749,-0.022684957832098,-0.2958341240882873,0.1023678228899236,0.5553117845717715,-0.5335193718328675,0.6296878615556598,0.1782751530408859,0.3245802819728851,-0.0764032900333404,-0.0281844735145568,0.0510676205158233,-0.0393701195716857,-0.0105398474261164,0.1582642942667007,0.0642225890636444,-0.0454083010554313,0.1723521974582225,0.2211059261679649,197
1733382824232759800,0.3418552890956401,-1.0315560476124286,-0.407148576130718,7.985925688424706,-5.399269027045369,-1.8009036126874387,0.1553149223327636,-0.1091320738196373,-0.1225056573748588,0.1034979126362561,0.5590880398535295,-0.5284326761890635,0.6304503113142934,0.1573861241340637,0.1628968566656112,-0.0768713429570198,0.0626795291900634,0.0218064337968826,-0.0481592342257499,0.0103227151557803,0.0659907758235931,0.1410971544295549,-0.0066309422254562,0.1729281707152724,0.0966848889902234,198
1733382824272759600,0.4511474384635686,-0.2989987286657095,-0.1461534149058163,7.963272542589903,-5.431223085188865,-1.8051199152082205,0.2369128763675689,-0.1341272890567779,0.1213376820087432,0.0989958497801245,0.56079000360305,-0.526830211846451,0.631002500304316,-0.1073938682675361,0.0716459974646568,-0.1524148881435394,0.0237506628036499,-0.0183427706360816,-0.0526236295700073,0.0137462262064218,0.0556199550628662,0.0414192211031913,-0.0251258965581655,0.125563850537315,0.0618500147134065,199
1733382824312759600,0.2208481520146131,0.3379471757411956,-0.2885106523990631,7.954003778985142,-5.4539072106838224,-1.7773855205863711,0.111233040690422,0.0365740917623043,-0.0566576570272445,0.0959483239645919,0.56148918054933,-0.5247393068210273,0.6325918629266956,-0.1276959478855133,-0.0071977921761572,-0.1932493448257446,0.023259699344635,-0.0121006518602371,-0.0571305081248283,-0.0033404920250177,0.0433018766343593,-0.0199345345258712,-0.0310049448162317,0.1004975060809403,0.0599102788224816,200
1733382824352759600,-0.2061953572839498,-0.1269125617325306,-0.3049871554255485,7.973882783931494,-5.427933980515599,-1.76779263959378,-0.0777127891778945,-0.0082612680271267,-0.0654414817690849,0.0973027777543375,0.5619571631989685,-0.5237714107815654,0.6327715010510048,0.0221907515078783,-0.0317795686423778,-0.1850186437368393,-0.0083903670310974,-0.0197738707065582,-0.0567768141627311,-0.0108054112643003,0.0216206330806016,0.0275076001286506,-0.0150659512728452,0.1681573761168867,0.0817018393918871,201
1733382824392759600,-0.1289794311344623,-0.2620622059345245,0.0109258831620216,7.968344439026713,-5.428655865049362,-1.7904159748122097,0.0268219169229269,-0.076098620891571,0.0895556733012199,0.0972309478282771,0.562250041738881,-0.5245576232667417,0.6318705701098487,0.0717473849654197,-0.0717354565858841,-0.0916188657283783,0.031735360622406,-0.0407945737242698,-0.0349722430109977,-0.0039149676449596,-0.0057036262005567,0.044931613138318,-0.0310342423617839,0.199321525991708,0.0528010313391685,202
1733382824432759800,0.1711234593808651,0.0430377622157335,0.0524115936301648,7.940582571876049,-5.463061992520093,-1.8090074241660528,0.1438329368829727,-0.1804126352071762,0.059456568211317,0.0936828194904818,0.5631564948499722,-0.5244887718306299,0.6316564655359911,0.0006963778287172,-0.0819870755076408,-0.0100856535136699,-0.0068062543869018,-0.0404247716069221,0.0008050873875617,0.0099372919648885,-0.0411866977810859,0.0355202261924743,-0.0488560944795608,0.2395386047635227,0.0711395288452506,203
1733382824472759800,0.2832528780013322,0.074570380076766,0.1210905775807797,7.920480279567837,-5.482922292765974,-1.8368354884207247,0.1204805597662925,-0.1619899570941925,0.0075794849544763,0.0898631187443562,0.565359085178035,-0.5234707774157644,0.6310881043960064,-0.0495369657874107,-0.0784031525254249,0.0210287887603044,0.005230963230133,-0.0129396170377731,0.0269396901130676,0.0254277810454368,-0.0451213605701923,-0.0032885201513767,-0.0344380289316177,0.2482647128589451,0.0530403930529952,204
1733382824512759800,0.2309773318409919,0.0110468791931867,0.1333075234666466,7.915292063274979,-5.484939477807283,-1.8530925034776329,0.0528046078979969,-0.0717918872833252,-0.0253929961472749,0.0878454047562866,0.5671008837978333,-0.522377266282539,0.6307152116866924,-0.0163305420428514,-0.0182018149644136,0.0441091395914554,-0.0144088268280029,0.0153661742806434,0.0382768511772155,0.0263750441372394,-0.059194266796112,-0.0131517425179481,-0.0139572117477655,0.2519468354377895,-0.0030070728614926,205
1733382824552759600,0.1179319674193859,-0.0626964024096727,0.1285091832742095,7.919254537165164,-5.47673863569498,-1.8604149553202087,-0.0323797762393951,0.0101281348615884,-0.0313064903020858,0.0877840284125037,0.5677843117026965,-0.5219920891979086,0.6304278527178362,0.0062290951609611,0.0073710838332772,0.0439663976430892,-0.0088342428207397,0.0286674946546554,0.0310020893812179,0.0141549445688724,-0.0213527232408523,-0.0734469290047884,0.0072690490633249,0.2758584569010883,0.0067436290413141,206
1733382824592759600,0.0015863924086093,-0.2248638173967599,0.1010191188022494,7.925616473412513,-5.466902301335335,-1.8622538611851631,-0.0578626655042171,0.046236228197813,0.0124868145212531,0.08895455980708,0.5674858581114942,-0.5224062804812032,0.6301893768065847,0.0017280864994972,0.0396499820053577,0.0449220016598701,-0.0213924050331115,0.0312369912862777,0.0315076783299446,-0.0065961088985204,0.0029486902058124,-0.0766314042598009,-0.0007258141413331,0.3004916706372052,0.0694677962407469,207
1733382824632759600,-0.0387462025016546,-0.0598147094935178,0.0773918672382831,7.9230019069999456,-5.473783877542615,-1.8531410187944768,-0.0139310639351606,0.0501421764492988,0.0364068038761615,0.0894826776304846,0.5664807607496539,-0.5230520479937626,0.6304831617284683,-0.0478021837770938,0.0281945001333951,0.0194604527205228,-0.0119968056678771,0.0304045230150222,0.0166839361190795,-0.0226258020848035,0.0415892302989959,-0.0606856471091508,-0.0734660476446151,0.2768069532649591,0.0296636091187596,208
1733382824672759600,0.0247422270685434,0.0395031583487987,-0.075890815025568,7.917274177002906,-5.4857133847892285,-1.8423133353099224,-0.0360907763242721,0.0462336689233779,0.0452650599181652,0.0896689604514866,0.5654035957309367,-0.5236894217557775,0.6308943652276379,-0.0459795147180557,0.0306072700768709,-0.0110756838694214,-0.0050887465476989,0.036154568195343,0.0051048323512077,-0.0338872037827968,0.0571682602167129,0.0143833301395177,-0.1719837188720703,0.273343624535948,0.0279568052008748,209
1733382824712759800,0.1852501844108104,0.03646072191298,-0.099667704193294,7.910591922760009,-5.4961377481698985,-1.8399344773493709,-0.0667642429471015,0.0397021509706974,0.0508119463920593,0.0901757888483582,0.5642624753675136,-0.5248032140265096,0.6309180833343921,-0.0322013869881629,0.0100052170455455,-0.0417463108897209,0.0007171034812927,0.0234602391719818,-0.0068169832229614,-0.0388694629073143,0.0476480349898338,0.0261088392466306,-0.2719153165817261,0.279135871136561,0.0610287614583969,210
1733382824752759800,0.2079758109599351,0.1859574558973312,0.0071406655348837,7.902681003504991,-5.507219698676467,-1.8407995697461068,-0.0398676320910453,0.0371528342366218,0.0400006398558616,0.0906101149758382,0.5631749605362323,-0.5260119981459868,0.6308209711076056,-0.0027332410681992,-0.001081789843738,-0.0504210889339447,-0.0065512657165527,0.0115465745329856,-0.0107179284095764,-0.0340998731553554,0.0347489714622497,0.0131453127771615,-0.3111343085765838,0.2413360095743089,0.1098325398549437,211
1733382824792759600,0.2150105319023132,0.2411538579404354,0.0207094644211232,7.900586077052354,-5.5116901220887895,-1.836411710050702,-0.0192375089973211,0.0161347854882478,0.0017500144895166,0.0909993110338665,0.5624993263826347,-0.5265220294055813,0.63094234424992,0.0003674775362014,-0.0167348925024271,-0.0417299307882785,-0.0038395524024963,-0.0047511607408523,-0.0141582489013671,-0.0213580094277858,0.0226572882384061,0.0122328741073608,-0.2829433083534241,0.2409161036618053,0.066839785824716,212
1733382824832759600,0.2569803726255893,0.1357920337587594,0.024169541747123,7.904106652393937,-5.505987526533008,-1.8383761419914664,-0.0093435086309909,0.0067009082995355,-0.0183192789554595,0.0914117444168048,0.5625589355305544,-0.5265534593902897,0.6308034351004713,0.0041371821425855,-0.0262774787843227,-0.0219793319702148,0.0057392716407775,-0.0087344571948051,-0.0094380378723144,-0.0203590337187051,0.00473846308887,0.0655477001875639,-0.1911825239658355,0.2340034016638994,0.0380710797190666,213
1733382824872759600,0.2297849071860313,0.0744908850997686,0.0472924970507621,7.908705086100101,-5.501397860655188,-1.8323196184314787,0.0453071072697639,-0.0036699650809168,-0.0270667746663093,0.0915140096736001,0.5627055777627543,-0.5261033509078952,0.6310332038872197,0.0105743082240223,-0.0137600880116224,-0.0055174669250845,0.0013058185577392,-0.0086409524083137,0.0014830157160758,-0.0170257166028022,-0.0256108827888965,0.0647322921514511,0.0033132135868072,0.2843243066251277,0.0783481450498104,214
1733382824912759600,0.0555178890824317,0.1028407812714576,0.0731331868804991,7.915077543741464,-5.493983785006404,-1.8270359789401287,0.0421185046434402,-0.0133271198719739,-0.0362213924527168,0.0912641889741606,0.5633415817301495,-0.5251658555646083,0.6312827217595911,0.0229774489998817,0.0021769073791801,0.0087564773857593,0.0062877535820007,-0.0085573345422744,0.0117862746119499,-0.0031384918838739,-0.0815077722072601,0.0557820929765701,0.2045886218547821,0.2904162668246776,-0.0252560218095779,215
1733382824952759800,0.0521948821395635,-0.1110462995588779,0.0787700237236917,7.922592741677165,-5.485101390370726,-1.82115072029382,0.0024980998132377,0.0125583820044994,-0.0201846938580274,0.0914357395972147,0.5637152190657037,-0.5244787856014771,0.6314956402899713,0.0118118794634938,0.0287898760288953,0.0280399601906538,-0.0103291869163513,-0.0077342391014099,0.0105313062667846,0.0302100013941526,-0.0650912970304489,-0.0363186830937862,0.3298062086105346,0.2376685000427067,-0.0203854931637644,216
1733382824992759800,0.0403396091729402,-0.1688900012403726,0.1686018319487571,7.922176562091708,-5.488608521708846,-1.8123704708583648,0.04243840649724,0.0328317284584045,0.035365879535675,0.0914338379373142,0.5633758712943204,-0.5244166333906229,0.6318502258642149,0.0144761065021157,0.0527284443378448,0.0463750921189785,-0.0087369084358215,-0.0089264512062072,0.0050891712307929,0.04877869784832,-0.041621908545494,-0.1000245548069477,0.3773585259914398,0.2221107192963361,-0.0531289481192827,217
1733382825032759600,0.0619371084749698,0.0822948368489742,0.0300755509205162,7.915545161253213,-5.505312403750419,-1.7905631281979382,0.0688546448945999,0.0115248477086424,0.0273747611790895,0.0904053769500697,0.562850325443766,-0.5239206272507536,0.6328773717625751,-0.0093389451503753,0.0511740669608116,0.0636626705527305,-0.0008003711700439,-0.0073841884732246,-0.0008129999041557,0.0534719191491603,-0.0079735927283763,-0.1116822593748569,0.3510061800479889,0.1961549517195671,0.0033192075505852,218
1733382825072759600,0.1349485686719417,0.0835252554267644,-0.0676011255860328,7.912561761528253,-5.514471861761808,-1.7754855321839451,0.0076067708432674,0.0315965488553047,0.0205300208181142,0.0899723448472865,0.562411729287697,-0.523657916798268,0.6335459166144274,-0.0298404935747385,0.0248073861002922,0.0546549931168556,-0.0003378391265869,0.0012266263365745,-0.0065925121307373,0.0612506233155727,0.0226763114333152,-0.0656979223132133,0.2428990006446838,0.1823071897614747,0.0187131760373711,219
1733382825112759600,0.2669797885924577,0.0950181248217821,-0.064194385882467,7.9101149528980255,-5.520727415025234,-1.76692067906484,0.0013809809461236,0.0207308288663625,0.0146566070616245,0.0899892089473914,0.5618748988915092,-0.5238172194089072,0.6338879722994696,-0.0226640719920396,0.008328010328114,0.0365543514490127,-0.005471646785736,0.011392168700695,-0.0101029276847839,0.0533277429640293,0.0372420959174633,-0.0230184720158576,0.0623151361942291,0.1950522511746734,0.0210699682965874,220
1733382825152759600,0.2913122658163309,0.2010480575233697,-0.0322140242539346,7.911670365646481,-5.521711749887466,-1.7568534585587678,0.0008081586565822,0.0386436730623245,-0.0169374793767929,0.090213652311868,0.5614961555203462,-0.5237333886471008,0.6342608317516498,0.0104459440335631,-0.0109600396826863,0.0164345689117908,-0.0029470324516296,0.0149690955877304,-0.0132083222270011,0.0409486852586269,0.0526368804275989,-0.0002747252881526,-0.1016976684331893,0.1514425342898815,0.0934980756476521,221
1733382825192759800,0.2423176410228013,0.1412047064572572,-0.1155531094588339,7.92191118915379,-5.509155050653219,-1.750127949696034,-0.0390096567571163,0.0237607341259717,-0.0463739484548568,0.0912562701419909,0.5613803010639398,-0.5235301818794906,0.6343821742553695,0.0165539029985666,-0.0341567583382129,0.0103632947430014,-0.006546676158905,0.0065797418355941,-0.010066382586956,0.0278349760919809,0.0624829046428203,0.0287339270532131,-0.2193547487258911,0.167946071453765,0.1541755394503474,222
1733382825232759800,0.1195084229558706,0.0646966363161802,0.0495066659688949,7.937877989092469,-5.48501955730617,-1.753580135976523,-0.0117838764563202,-0.0066961152479052,-0.0575266778469085,0.0926203983799804,0.5618915027856755,-0.5231497325124475,0.6340455748045078,-0.015439448878169,-0.0473330169916152,-0.0058953030966222,-0.0087427496910095,0.0024335384368896,-0.0018765851855278,0.0209515206515789,0.0489074662327766,0.0421060343235731,-0.2767406702041626,0.1784273526534438,0.1570186539217829,223
1733382825272759600,0.1250479369044304,-0.0476765279322862,0.0710381142973899,7.949846074783801,-5.466319533011317,-1.7577537683993576,-0.0033797982614487,-0.0088717946782708,-0.0556328110396862,0.0933133767950517,0.5626039983664765,-0.5225870643461209,0.6337761113773676,0.0040223998948931,-0.0419168919324874,-0.0107764778658747,-0.0071783661842346,0.004699669778347,0.0049417540431022,0.0211212337017059,0.0556431040167808,0.0357359147697687,-0.1935881376266479,0.1447878987062722,0.1519967341065406,224
1733382825312759600,0.0798316616058349,-0.1302256318032741,0.1277637717343867,7.960345841488242,-5.449610390272737,-1.7621055338680742,0.0082095619291067,-0.0162015818059444,-0.0473418980836868,0.0938320049062801,0.5633290708773813,-0.5220179492268173,0.6335243801304656,-0.0041202148422598,-0.0241381600499153,-0.0113206952810287,-0.0035316348075866,-0.0036006495356559,0.0156376883387565,0.0124697107821702,0.0375566110014915,0.0507528666377067,-0.0487807542085647,0.1460851719751954,0.0235632464170455,225
1733382825352759600,0.0482002595454454,-0.2366062776386737,0.1812823036931455,7.966091691663861,-5.4406444090068335,-1.763849308795482,0.0387059859931468,-0.0249090641736984,-0.014332965016365,0.0937840590720253,0.5639783107848162,-0.5214017204722916,0.6334613814747192,-0.0102843679487705,0.0086330492049455,-0.0007614609785377,-0.0057310461997985,-0.0089892894029617,0.0185084342956542,-0.0130070690065622,0.0500966943800449,-0.012210077753663,0.0602854564785957,0.0889331058196723,-0.0941314051151275,226
1733382825392759600,0.0294382759302854,-0.1389957982361316,0.2472318626798689,7.962705556356906,-5.44667609038651,-1.7605162188500163,0.0983530059456825,-0.0468350425362587,0.0181747339665889,0.0926072585167983,0.5645084569014235,-0.5206645264903625,0.633768514399895,0.0120006976649165,0.0558716654777526,0.0255672819912433,-0.0150471329689025,-0.0097933188080787,0.0122848749160766,-0.0463222414255142,0.0130208656191825,0.0550882654935121,0.1231144964694976,0.1251193216402083,-0.0580932925283908,227
1733382825432759800,0.1566851841837167,-0.0267079741835594,0.0959106897473335,7.957862792500853,-5.4576598412156105,-1.7483593325883149,0.1093720942735672,-0.0280116498470306,0.000582373002544,0.0907844453635408,0.5651271357552275,-0.5193966065157666,0.6345208326197004,0.0640007853507995,0.0923133492469787,0.0611538402736187,-0.0089610815048217,-0.0024831220507621,-0.0030574202537536,-0.0629326701164245,0.0045595541596412,-0.0253495453119277,0.167356789112091,0.1021701885335147,0.0545610267490148,228
1733382825472759800,0.2013426565557718,0.0303185658961534,-0.079254300109297,7.957050307074189,-5.462313219979405,-1.737496139398962,0.0123505061492323,0.0251410361379385,0.0032744102645665,0.0899596026170334,0.5653544049348197,-0.5186155087211368,0.635074599812372,0.0455693081021308,0.0800152420997619,0.0570989772677421,-0.0135779380798339,-0.0066627189517021,-0.0033265873789787,-0.06480123847723,-0.0236880108714103,0.0601338584452867,0.1528012007474899,0.1756619065281003,0.0335179464593529,229
1733382825512759800,0.0853062936246395,0.036458968347311,-0.0691641371190548,7.962952224594354,-5.458427902978658,-1.7225960919089611,-0.0903573185205459,0.1061172410845756,-0.0077143437229096,0.091250999136409,0.5643549054476298,-0.5189715785671306,0.6354882298460115,0.0371968634426593,0.0641333237290382,0.0526695400476455,0.0046613812446594,0.0094396471977233,-0.012588620185852,-0.0450517460703849,-0.039672814309597,0.0117833767741918,0.1032791435718536,0.2059969121024012,0.1768611262500286,230
1733382825552759600,0.007661328408122,-0.0911404066056013,-0.0254125275455415,7.970715259811282,-5.450837301719188,-1.7106828051447869,-0.0732181072235107,0.0812535807490348,0.0035457487683743,0.0933607378042139,0.5629677492037516,-0.5198921662822753,0.6356596044730626,0.059979673475027,0.0407683998346328,0.0210221987217664,-0.0051177740097045,0.013217270374298,-0.01320081949234,-0.0164043754339218,-0.0211473032832145,-0.0714291594415903,0.0246877819299697,0.142691437883675,0.1874921181187033,231
1733382825592759600,0.0558183333337306,-0.1861146922856569,-0.1072328787505626,7.966403241831064,-5.458066083928943,-1.7077213249906895,0.0045429980382323,-0.0194602217525243,0.0626815035939216,0.0938159961225959,0.5620841767799061,-0.5207023461841426,0.6357114016242075,0.0141946095973253,-0.0065028136596083,-0.0152506548911333,-0.0105324387550354,0.0072890892624855,-0.0184327438473701,0.0069541931152343,0.025556992739439,-0.0871884541094303,-0.0780910179018974,0.1924717331621795,0.116702717885375,232
1733382825632759600,0.1731546729475259,0.1196808569133281,-4.530044645e-06,7.948424517548084,-5.481944387644529,-1.7149923389069734,0.1026372462511062,-0.0861347466707229,0.0486852452158927,0.0916622043428595,0.5623813631467561,-0.5207374360676149,0.6357339775983473,-0.0098052648827433,-0.0331467278301715,-0.0282787047326564,-0.0087217092514038,0.0069902464747428,-0.0043973848223686,-0.0058631170541048,0.0356863811612129,-0.0387169764071702,-0.1515379101037979,0.1971620829354971,0.0997574283033609,233
1733382825672759600,0.2023398508995771,0.2543307348996401,-0.0392765099860727,7.93854551309049,-5.4952387535035605,-1.7182174384333193,0.0356093421578407,-0.0458790585398674,-0.0042675863951444,0.0897135150681111,0.5631481125837481,-0.5200662603533533,0.635882798790075,0.0409777536988258,-0.018559955060482,-0.0350279547274112,-0.0075247287750244,0.0126819983124732,0.0002828761935234,-0.0069086463190615,0.0289338734000921,0.0488432336241006,-0.0866973921656608,0.2345961068600416,0.1447843185096979,234
1733382825712759800,0.1744073033571243,0.0160673377037048,0.1147184122003614,7.939242263182997,-5.49055848673284,-1.729906853313744,-0.0615811832249164,0.0050921053625643,-0.0060563357546925,0.08987435203181,0.5634776105358713,-0.5202823111583725,0.6353911389448895,0.0982429087162017,0.0083469720557332,-0.043787557631731,0.0060736536979675,0.0037131160497665,0.0161640048027038,-0.0012715011835098,0.0028312373906373,0.051925417548418,-0.0011055320501327,0.2391820464108139,0.0716299427106976,235
1733382825752759800,0.1323497843503951,-0.0405120431303977,0.2793092549420893,7.939850165948271,-5.488596831271052,-1.7333381429366763,0.0105115938931703,0.0090166619047522,0.0047609871253371,0.0903804143682234,0.5632367117396514,-0.5207111054210587,0.635181612359478,0.1079884842038154,0.0188798271119594,-0.0300085619091987,0.0160629153251647,-0.0146198645234107,0.0171243026852607,0.0044439192861318,-0.0033375634811818,-0.0147796359807252,0.0433222129940986,0.1880540628504008,0.0226394095703959,236
