frame,pose_x,pose_y,pose_z,ori_x,ori_y,ori_z,ori_w,phone_acc_x,phone_acc_y,phone_acc_z,phone_gravity_x,phone_gravity_y,phone_gravity_z,phone_gyro_x,phone_gyro_y,phone_gyro_z,phone_ori_w,phone_ori_x,phone_ori_y,phone_ori_z,watch_gyro_x,watch_gyro_y,watch_gyro_z,watch_acc_x,watch_acc_y,watch_acc_z,headphone_gyro_x,headphone_gyro_y,headphone_gyro_z,headphone_acc_x,headphone_acc_y,headphone_acc_z
0,0.028576,0.249486,0.759144,0.13228,0.063372,-0.663778,0.733406,-0.7732208993770182,12.56861062131524,-3.3444097963809964,-0.0770200382512062,9.685943891692162,-1.5319811655946074,-0.6608269810676575,-0.7184522747993469,0.4663947820663452,-0.2118931278273477,-0.2537472538836003,0.7167437705901495,0.6139968268177639,0.6987953782081604,0.9828087687492372,-0.5582646131515503,-1.06692373752594,0.963485062122345,-0.6579880714416504,0.0911642163991928,0.0271969027817249,0.3198135531574487,0.0294263008981943,0.1161835163168609,0.1727029836572706
1,0.026643,0.240746,0.763216,0.1303,0.069672,-0.658891,0.737584,1.939216250964999,10.797243922626972,-5.312050762319564,0.023729743824061,9.761167767241597,-0.9431002039156854,-2.345813035964966,-0.2091145515441894,-0.0621279813349247,-0.2157127224209232,-0.2358534797127623,0.7017534212455658,0.6366972447508034,1.899805188179016,1.1478431224822998,-1.2094720602035522,-0.7505945563316345,0.6883931159973145,-0.1593179106712341,0.0820266529917717,-0.0131890513002872,0.5330629206061362,0.0107349026948213,0.2426235651668161,0.293003579904139
2,0.026917,0.187113,0.75782,0.108924,0.059977,-0.670337,0.731565,1.103272572628036,3.0308254930019376,-4.047954955855012,-0.2094870557731017,9.80344155934751,0.1379246436069719,-2.9394779205322266,0.0024017156101763,-0.8697515726089478,-0.2210888872820907,-0.2322097842180706,0.6626057776213716,0.6768691612430476,1.8202275037765503,0.8538461923599243,-1.6848362684249878,-0.2098267078399658,0.3258053660392761,0.2270621657371521,0.0256546922028064,-0.0156201012432575,0.2338870818078517,0.0797531977295875,0.1313414110254496,0.4272581749625503
3,0.028189,0.155118,0.75124,0.08981,0.044918,-0.679584,0.726692,0.2432263168329372,-5.923030450820923,-2.126157018811256,-0.4943180332787334,9.72457260529399,1.165632874951139,-2.1463634967803955,-0.5082648396492004,-0.6733307838439941,-0.2184372070133829,-0.2258250189494802,0.6241572896744975,0.7153431476343836,1.3299366235733032,0.5936700701713562,-1.645903706550598,0.4714650511741638,-0.1423342823982238,0.6358208656311035,-0.0111188106238842,0.0188803225755691,-0.2039578074902296,0.0653118044137954,-0.0195366212494671,0.100855744934082
4,0.029489,0.127701,0.744135,0.0669,0.01756,-0.685933,0.724371,0.231939454871416,-12.992967668008804,-2.275643377532065,-0.6952172569159418,9.598736148360372,1.8844903890430929,-1.693718671798706,-0.3020481467247009,-0.5173130631446838,-0.2125128588531679,-0.2186162758958649,0.5967618089341056,0.7422401357798865,1.322330117225647,0.4136545360088348,-1.1269973516464231,1.0173933506011963,-0.5752182006835938,0.7360200881958008,-0.0478923171758651,0.0533807426691055,-0.6415051751464605,0.0508704110980033,-0.1703610236410051,-0.2255984152816235
5,0.031692,0.092139,0.732338,0.023328,-0.030571,-0.689207,0.723544,1.364328158803284,-15.01143164321184,-0.1558060632616281,-0.8883308681782335,9.455686106297373,2.443615533275157,-1.035868763923645,0.2854105532169342,-0.4987920522689819,-0.2111106102113431,-0.2181782226013641,0.5725456731795747,0.7615917653761114,0.4709092378616333,0.3367770612239837,-0.4857302010059356,1.2534632682800293,-0.6690386533737183,0.821355938911438,-0.0560606345534324,0.1392268240451812,-0.8244318850457668,0.014391828328371,-0.1985005649976432,-0.2454913026228547
6,0.032411,0.082891,0.729676,0.014281,-0.042565,-0.687963,0.724356,1.1839223456837236,-14.397199674916267,0.668410717728734,-1.0778292846180495,9.39586204445362,2.593539698891341,0.1041110008955001,0.3148981928825378,-0.1857563555240631,-0.2114444811610056,-0.2268401725332806,0.5624142700450466,0.7665017743171115,-0.3332772552967071,0.3883599936962127,0.4462305903434753,1.1364543437957764,-0.6138544082641602,0.5076184272766113,-0.0366348512470722,0.0818137228488922,-0.4952887780070305,-0.0245999284088611,-0.0693400782078504,-0.0258515034846961
7,0.033469,0.077326,0.727331,0.00752,-0.047189,-0.689608,0.722605,0.2899362282227725,-9.763543264201283,0.9229302531987428,-1.0471025763124229,9.443169154551624,2.429102000884712,0.6542516350746155,0.2144963890314102,0.4457152187824249,-0.2139917882019812,-0.2302165868056722,0.5684633551411145,0.7603008328706299,-0.7392591238021851,-0.0372117683291435,1.0393788814544678,0.735212504863739,-0.3956736922264099,0.2729255557060241,-0.0172090679407119,0.0244006216526031,-0.1659293978691101,-0.063591681420803,0.0598122252754867,0.1938337422303855
8,0.035015,0.074447,0.72664,0.00443,-0.049211,-0.693078,0.719168,-0.0215878546908497,-1.6419897926688194,1.605919239117205,-0.828802939736843,9.55123614603877,2.0633447349369525,1.2788339853286743,0.2499086260795593,0.6983779668807983,-0.2225642933620404,-0.2311355862656302,0.5842730866044278,0.7454305026910976,-1.0002073049545288,-0.7984952926635742,1.2969363927841189,0.0772977471351623,-0.1028911471366882,0.1545441150665283,0.0448525920510292,0.0152033427730202,0.1361766491621732,0.0341194942593574,0.0581721299182623,0.4755473549004644
9,0.036878,0.07135,0.726382,0.002449,-0.050303,-0.697351,0.714959,-0.0921972952473908,4.743983163827657,1.240477030467987,-0.6510527556926011,9.680782563406227,1.4244193471506237,2.0937423706054688,-0.1619555354118347,0.3076849281787872,-0.2226097871003726,-0.2338068901994562,0.6104991079169462,0.7232358695112312,-2.0842411518096924,-0.5754122138023376,0.9458900690078736,-0.5580475330352783,0.2958899736404419,-0.002130389213562,0.083478070795536,0.0096478872001171,0.1366173786669969,-0.0120295248925685,0.1303510117486119,0.3568821778357028
10,0.036979,0.070513,0.727153,0.001673,-0.049486,-0.698183,0.714206,-0.5340392548250034,5.996425941899418,0.0155927789945155,-0.5316799783477559,9.776725401857496,0.5507857704319059,2.13338565826416,0.0042144106701016,0.1930779218673706,-0.2144635318527733,-0.2380810647343955,0.6443874209341214,0.6943254290764971,-1.4840792417526243,-0.5857332944869995,0.6418675780296326,-0.5396268367767334,0.330399751663208,-0.215716540813446,0.1221035569906234,0.00409243023023,0.1370680450439453,-0.0581785477697849,0.2025168879669159,0.238171481128782
11,0.036621,0.069811,0.727664,-0.000465,-0.049055,-0.698053,0.714364,0.4520693390814587,1.0153022474259137,-0.6676642832756042,-0.4070284934150054,9.770127318766711,-0.7411739022530615,0.0750852972269058,0.0433696247637271,0.2603434026241302,-0.2029693364097537,-0.2478787474710593,0.6901778602393035,0.6488560326069931,-0.0143634602427482,0.027382830157876,0.2392588853836059,-0.0595632791519165,0.0852108597755432,-0.025734931230545,0.0607395879924297,0.0389068461954593,0.1319452312706504,-0.191546231508255,0.0153119984249118,-0.1940625642838887
12,0.033914,0.078574,0.725063,-0.005184,-0.051392,-0.696022,0.71616,0.6053489891380072,0.332547362524271,-0.4779892681598663,-0.3385450685691088,9.770534730523824,-0.7696898026414215,0.039951391518116,0.0115372743457555,0.1073590442538261,-0.2051938133401479,-0.2460897461983503,0.6918692751113902,0.6470334210452497,-0.0493251718580722,0.0592821724712848,0.1374563574790954,-0.0023522973060607,0.0033799409866333,0.0047580897808074,0.0695811063051223,0.0264889393001794,-0.0001852934390306,-0.0718977227807045,0.0069167205858975,-0.1450029296964406
13,0.033187,0.099078,0.726286,0.005432,-0.042953,-0.696501,0.716249,-0.2296001252036541,12.592936084276436,-2.6089409739017486,-0.348449791989848,9.767410461023449,-0.8041434955809265,-0.8182684779167175,-0.1284999251365661,0.0470662340521812,-0.2066873077391449,-0.2492216161475074,0.6920176975771531,0.6451979235269623,0.8868153691291809,0.6477977633476257,-0.47356116771698,-0.9249542355537416,0.8121179938316345,-0.7230919003486633,0.0805880725383758,-0.0232403799891471,0.2690097235174849,0.1250905096530914,0.2539845152778551,0.3352724401066079
14,0.030276,0.133975,0.73147,0.028986,-0.014483,-0.694347,0.71891,1.162740003053844,12.072981651568412,-4.794920739382505,-0.3756465360710397,9.79820132060647,-0.1567374258276075,-2.4830989837646484,0.2362389415502548,-0.25187948346138,-0.2146135519688251,-0.243906934260453,0.6697020170910741,0.6677947532488018,2.334242582321167,0.8508159518241882,-1.1580442190170288,-0.8568008542060852,0.9153115749359132,-0.4698389172554016,0.1733674854040146,0.0313334614038467,1.036781454110518,0.1516354084014892,0.30104749615537,-0.0931903522721957
15,0.022483,0.217346,0.75585,0.097103,0.054516,-0.675278,0.729108,0.4582002430519089,2.2437597542762755,-3.996117216590047,-0.5624976894050836,9.741015790572762,0.983164064887166,-3.077237606048584,-0.0421948693692684,-0.6138874888420105,-0.2241710046620484,-0.2392394327908777,0.6266075932575854,0.7070182880833129,2.455472946166992,0.6825039982795715,-1.497414231300354,-0.2800731658935547,0.3282786011695862,0.13996222615242,0.0511555969715118,0.0060761962085962,0.4551531669735908,0.2130198329687118,0.1488490471979603,-0.0746437375739216
16,0.019616,0.246355,0.766719,0.120831,0.075834,-0.662962,0.734936,0.5973595978192985,-7.507048531514406,-1.538567558247596,-0.8105930370464921,9.562918985047936,2.0159115142412483,-2.137343168258667,-0.2185364365577697,-0.7864214181900024,-0.2248866402305004,-0.2328539945755146,0.5856587179877594,0.7431075618621965,1.9119659662246704,0.5384480953216553,-1.0992133617401123,0.5076742172241211,-0.2573944926261902,0.6913001537322998,-0.0710562989115715,-0.0191810745745897,-0.1261491761445999,0.2744042575359344,-0.00327997151874,-0.0561591095954179
17,0.01804,0.26134,0.774991,0.134591,0.096563,-0.656584,0.735839,0.1784190962817519,-13.275731301188468,-0.9463640280172227,-1.0737012449026109,9.367946448045968,2.694280877535045,-1.5561319589614868,0.242691695690155,-0.4147101938724518,-0.222606563205535,-0.2326677824757544,0.5554238116350735,0.7666919435071359,1.6586686372756958,0.3420111835002899,-0.4652740359306335,1.012562274932861,-0.4898842275142669,0.6915618181228638,-0.0820436850190162,0.0651837363839149,-0.3272282133281231,0.2295155078172683,-0.0495895584793761,-0.115900753852725
18,0.018371,0.259704,0.777993,0.139661,0.107387,-0.659523,0.730748,0.7732206801813095,-15.640094287919997,-0.6224988613814115,-1.08970428519845,9.22872210175097,3.1326693721905348,-0.6744186878204346,0.1411291807889938,0.4102510809898376,-0.2315554656353688,-0.2307172988799862,0.5357684611795962,0.7785266753855871,1.078754186630249,0.5490227341651917,0.3975112438201904,1.1835172176361084,-0.6143150925636292,0.7922606468200684,-0.093031071126461,0.1495485305786132,-0.5274456652462483,0.1846267580986023,-0.0954072337372228,-0.1756895982526242
19,0.019752,0.213183,0.769268,0.120092,0.092276,-0.672056,0.724847,1.445614403131604,-13.714457064974308,-0.8002090056762099,-0.8989879443362355,9.253010739833115,3.121536860540509,0.6179282665252686,-0.0361332483589649,0.5008334517478943,-0.2397861155201615,-0.2255581175755844,0.5384881192120476,0.7756652930857298,-0.3882185220718384,0.7999742031097412,1.0435088872909546,1.032854676246643,-0.7113906741142273,0.8958176970481873,-0.0414657406508922,0.0991299152374267,-0.2642927414655685,0.0717518180608749,0.0478903533460572,-0.0480865700379014
20,0.01857,0.18075,0.762167,0.098943,0.075762,-0.673705,0.728418,1.601722956471145,-7.52966368342638,-0.7038277758076786,-0.7832054831009357,9.377689258903263,2.7596991061240432,1.282435417175293,0.2559697031974792,0.1649140417575836,-0.2421032583697068,-0.2282217855535383,0.5542646726515849,0.7629492890853843,-1.5150725841522217,0.4581156969070434,1.3132234811782837,0.6013891100883484,-0.3745318949222564,0.5991775989532471,0.0130529478192329,0.02389907091856,-0.1450882698923349,0.045743104070425,0.0256178408592939,0.1504729586053639
21,0.016645,0.149552,0.754793,0.07532,0.052899,-0.671853,0.734944,1.4685311683386564,1.440129834240675,0.9277864610582588,-0.8285310639929026,9.53085036061406,2.155646148145944,1.8333137035369875,0.2121267020702362,-0.257136732339859,-0.2370599217188622,-0.2404142600752054,0.5764491475759896,0.7441169114480204,-1.913162350654602,-0.3289337754249573,1.3354390859603882,-0.0549493432044982,-0.0278963446617126,0.1639348864555359,0.0675716325640678,-0.0513317734003067,-0.0258686007499694,0.0197343900799751,0.003349639221467,0.3490352637276053
22,0.015849,0.108274,0.743094,0.025392,0.015199,-0.671859,0.740088,-1.1889406853023916,5.248544212570786,0.6627418783120811,-0.9680850806336848,9.659250530555845,1.3899866239339111,2.066015720367432,0.2126533091068267,-0.2569210231304168,-0.2242160723068793,-0.2558139699056566,0.6030668422830362,0.7215238588913861,-2.041979551315308,-0.1680261790752411,0.9445100426673888,-0.4500188827514648,0.5257014632225037,-0.2480314373970031,0.0759432390332222,-0.0116957202553749,-0.0227881703913211,-0.0493029654026031,-0.1632704077929258,0.080608345066756
23,0.01517,0.095731,0.737655,0.008982,0.003626,-0.67269,0.739861,-1.6527477719180286,5.486263419887424,0.1081658487517386,-1.0133457795958964,9.732480601939558,0.6498983249604702,1.613962173461914,0.4822522103786468,0.0361730493605136,-0.218109245017454,-0.2705354556743812,0.6274352349686627,0.6968243025829203,-1.3486162424087524,-0.3509104251861572,0.5710307955741882,-0.4796265363693237,0.4072122573852539,-0.3931429982185364,0.0972027480602264,-0.0745269581675529,-0.0049549920588731,-0.0434409976005554,-0.0786032888546586,0.0843530845530331
24,0.01497,0.088023,0.735216,0.002889,-0.006679,-0.673668,0.738998,0.6386205596208572,4.484118175676465,-0.4175082037121057,-0.9925134194474666,9.7555452511847,0.1209268109869677,1.072738528251648,0.1474107801914215,0.0652518644928932,-0.2168045981009117,-0.2807924697454588,0.6441972039544857,0.677614386682461,-0.8705399036407471,-0.5087489485740662,0.3311445415019989,-0.1989805698394775,0.2657164931297302,-0.3968005180358886,0.1184622645378112,-0.1373581886291504,0.0129044897586107,-0.0375790260732173,0.0061081806819885,0.0881184284359216
25,0.01508,0.081905,0.732987,-0.003672,-0.010828,-0.676797,0.736081,-0.499002830094099,3.271597658148408,-1.0421756413042544,-0.9608617052514106,9.757797414025664,-0.1803634900814853,0.4825719594955444,-0.1723000258207321,0.1173643320798873,-0.2123376025314562,-0.2818779311480168,0.655546192329561,0.6676202700915814,-0.4726386070251465,-0.3427962362766266,0.2605853676795959,-0.2389720678329467,0.2365831136703491,-0.2807028889656067,0.1229012012481689,-0.1026904135942459,0.0262993933826684,-0.0506239905953407,0.0318238193599507,0.028187691347301
26,0.015038,0.080488,0.733505,-0.00414,-0.010119,-0.676725,0.736155,-0.2393644903056323,1.983528855422139,-0.6152373459458351,-0.9013228170245884,9.760478031411768,-0.3017422552201896,0.2012591958045959,0.1545290797948837,0.1546910554170608,-0.2124567782164232,-0.2810332451474948,0.6606094828098912,0.6629309583480116,-0.0168042480945587,-0.1642215400934219,0.1635227054357528,-0.124271273612976,0.201011061668396,-0.0662975907325744,0.1273401379585266,-0.0680226311087608,0.0397504111081361,-0.0636689513921737,0.0576282688325271,-0.0316812325514853
27,0.01512,0.079223,0.734236,-0.004691,-0.008477,-0.676733,0.736165,0.419034609561786,0.816622672599554,-0.7271195118069649,-0.8666005362767726,9.762156778278946,-0.3459314524933695,0.0062152333557605,0.061608076095581,0.0012338929809629,-0.2146949536833396,-0.282037906306278,0.6618853493864317,0.660506168626805,0.0419927574694156,-0.0033568670041859,0.1396926790475845,-0.0657210946083068,-0.0070950388908386,-0.0322021842002868,0.1214787811040878,-0.0345568135380744,0.0019400281518697,-0.0597382858395576,0.0078521382724866,-0.1679169184245169
28,0.014762,0.078456,0.730839,-0.005257,-0.007161,-0.678419,0.734622,0.0763387779887765,0.0563058245897293,0.0449965316006913,-0.8742064812358469,9.761865686377885,-0.3348449354095384,-0.0465924143791198,0.1031985059380531,-0.0143530927598476,-0.2152945634715823,-0.2828709931748269,0.6611023688206076,0.6607389143709641,0.1128818467259407,0.0693208500742912,0.1438532769680023,-0.0039665699005126,0.0343126058578491,-0.0278065800666809,0.102228432893753,-0.0345297120511531,-0.0077998600959777,-0.0387124978005886,0.028652459314838,-0.185865539830178
29,0.016596,0.089678,0.731651,0.002083,-0.003154,-0.684971,0.728561,-0.1352185447197407,0.5430950697988272,0.1690122028479352,-0.8414660219550132,9.765289231085776,-0.3184999498082325,-0.0518550872802734,0.0592486336827278,0.1751478612422943,-0.2180051620807476,-0.2829482719215579,0.6604386826709915,0.6604806859202726,0.1071488559246063,0.064811535179615,0.1398547291755676,-0.0098032355308532,0.0776253342628479,-0.1012453436851501,0.0887310877442359,-0.0603092685341835,0.018245266264677,0.0337455905973911,0.0345980698462575,-0.0752804280422627
30,0.018743,0.11362,0.7296,0.017549,0.005466,-0.685805,0.727553,-0.4360058373026549,3.594343757626414,0.0326361951887607,-0.7450836961079388,9.773980487063527,-0.2907615365983918,-0.1293824464082718,-0.0551626905798912,0.2929769456386566,-0.2214044709529378,-0.2791196619104226,0.6609969187781471,0.660420585790218,0.2999641299247741,0.306210309267044,0.1115310192108154,-0.2498813867568969,0.299285352230072,-0.303324282169342,0.0752337425947189,-0.0860888287425041,0.0443389079421758,0.1062036901712417,0.0405090474557131,0.0353629898041486
31,0.018051,0.150801,0.733863,0.039815,0.021829,-0.683927,0.728137,-0.1503800196249038,-2.3031004165172577,-2.200679321962595,-0.8137350613992661,9.65524480204582,1.5114482267841696,-1.7779909372329712,-0.0615551061928272,-0.213388592004776,-0.2308401632606013,-0.2489585225213695,0.6007971683175639,0.7237231924952086,1.5590438842773438,-0.3074415028095245,-1.6951993703842163,0.2307881116867065,-0.0015693306922912,0.4329884648323059,-0.1438299715518951,-0.0846580564975738,0.004967109471641,0.2617349922657013,0.0817095295079983,0.3113471919767558
32,0.016642,0.234158,0.748764,0.084598,0.062617,-0.675189,0.730097,0.6711709762223065,-10.531606780815125,-1.6157782237000762,-0.8227537957657128,9.535019170731305,2.139360053125024,-1.4658362865447998,0.3048416972160339,0.0204985216259956,-0.2403247110085558,-0.2429601018896873,0.5761018863898324,0.7425099375981279,2.132194995880127,-0.269718736410141,-1.181297779083252,0.7004320621490479,-0.5771410465240479,0.7314274907112122,-0.1341849416494369,-0.1286146640777588,-0.7224898792449385,0.3691232204437256,0.0434269487629877,-0.0558398921449901
33,0.016187,0.263027,0.757051,0.098962,0.084031,-0.672632,0.728499,0.5231420497681946,-4.851749126541614,-0.7600567357689142,-0.8035629192139953,9.618155719101429,1.736591591774672,1.3549991846084597,0.2728738784790039,0.4798175990581512,-0.2381232071497512,-0.2491780709272115,0.591074243087763,0.729272841357603,-1.457881212234497,-0.5817822217941284,1.002629637718201,0.2998377680778503,-0.1778730750083923,0.1768193244934082,0.0901130810379982,-0.0598316937685012,-0.2043150782289914,-0.3010275959968567,0.102824268528074,0.1612678540651686
34,0.014923,0.276755,0.762895,0.109945,0.100688,-0.665538,0.731323,0.54246254404895,3.093900665596127,-0.2809142059206962,-0.6693553051024675,9.703256845542787,1.2526606586061415,1.137747287750244,0.3387429416179657,0.2637097537517547,-0.2423741389073772,-0.2556707756156432,0.6089043715235539,0.7107198474652378,-1.7370171546936035,-0.3928849101066589,0.9671676754951476,-0.4416088461875915,0.2808054685592651,-0.1310135722160339,0.0747476667165756,0.0659592300653457,0.08176869408302,-0.1562970578670501,0.0772868359612301,0.9369607513125984
35,0.015709,0.257254,0.758632,0.102995,0.08265,-0.667779,0.732551,-0.9699475865699352,6.437260076141357,0.8734253407955169,-0.5901742528924718,9.759663792419431,0.7556796166632324,1.4179434776306152,0.249933660030365,0.2304463982582092,-0.2419265442584451,-0.2622533477874705,0.6266532088732617,0.6928207365011758,-1.2479777336120603,-0.5052427649497986,0.586677074432373,-0.4613627195358276,0.4151366949081421,-0.19778573513031,0.0872476622462272,0.0418678894639015,0.1058785415321588,-0.2220512330532074,0.0829878606144338,0.5851187596011906
36,0.016827,0.228698,0.751747,0.084355,0.066255,-0.674373,0.730558,0.6395598862975835,6.261909938976168,0.3822416600197553,-0.5493283381652087,9.789865453937647,0.1648334375922568,1.5076134204864502,0.1812154054641723,-0.0067052720114588,-0.2390161887262385,-0.2716705674269671,0.6463674934466831,0.6717704000087138,-1.2396897077560425,-0.4947837889194488,0.2549068331718445,-0.3739555478096008,0.3291605114936828,-0.3163084387779236,0.0997476503252983,0.0177765525877475,0.1305453652769327,-0.2878054082393646,0.0888924084831029,0.2331765954509377
37,0.018787,0.196699,0.7445,0.064764,0.054023,-0.681097,0.72732,-0.8243028518386185,-0.5135112479180097,0.911331585341692,-0.5584979157118126,9.785355283036829,-0.3244534513851627,-0.2117211818695068,0.8680376410484314,0.2859779596328735,-0.2527126041969861,-0.2989450905041083,0.6535857668699065,0.6477605327078879,0.8155702352523804,0.0773041546344757,0.1873985528945922,-0.0259279012680053,0.0387173891067504,-0.0432089269161224,-0.0019298904808238,0.0599764250218868,-0.0285988020319957,-0.0587902553379535,0.0008485916406178,-0.238667082626
38,0.019766,0.166185,0.738676,0.046755,0.04369,-0.685145,0.72559,-0.0448537986617535,-0.5878998416870832,0.0739735466947779,-0.3274447421556338,9.797646609333157,-0.2632652981139719,-0.1465191841125488,0.9043099284172058,0.5681623816490173,-0.272778945887163,-0.3020743588331575,0.6497490873244838,0.6420038673586047,0.8217895030975342,0.0175968836992979,0.2322449833154678,0.0634585618972778,-0.0485380887985229,-0.0267496407032012,-0.0536883883178234,0.0719078779220581,-0.2421767164484597,-0.0564688183367252,-0.0514696092054713,-0.1767539578148163
39,0.020621,0.124983,0.724389,0.007085,0.013829,-0.689085,0.724514,0.7818572102971375,-0.1730921291053295,-0.9673837274312972,-0.0254389474782976,9.802719674813746,-0.2764037244926207,0.5576440691947937,-0.5997298359870911,0.33961883187294,-0.3018934542278246,-0.3122019152261051,0.6454631146918358,0.6283052890535376,-0.817120373249054,0.1084213256835937,0.1047803685069084,0.0093274712562561,-0.0495997071266174,0.0296505689620971,-0.049482449889183,0.0993522182106971,-0.0679226354582468,-0.0429487414658069,-0.0053150016023486,-0.1321424708758015
40,0.020803,0.114225,0.719235,-0.008638,-0.001423,-0.687929,0.725725,0.6597649083279072,0.4257201517403125,0.4622445134740323,-0.0607658818716648,9.781661104694008,-0.6970266444254666,0.5154423117637634,-0.2863613963127136,-0.2914633452892303,-0.2839745076584782,-0.309056407869842,0.6633419973020787,0.6195322600698283,-0.915755569934845,0.0385432317852973,-0.0130406077951192,-0.0433589816093444,-0.0104527473449707,0.0341787934303283,-0.0127433883026242,0.0253660306334495,-0.0405785461950814,-0.0842056646943092,0.000191133520528,-0.0020539625421195
41,0.021259,0.108131,0.716293,-0.016108,-0.008539,-0.687501,0.725955,-0.15594949032031,-0.0352723889112472,-0.3897450944524258,-0.189862884104345,9.766504452094436,-0.8658636003043502,0.1680633425712585,-0.2708903551101684,-0.2253416925668716,-0.2731697423566968,-0.3115098021130215,0.6686616485962512,0.6174394583332389,-0.8588483929634094,-0.0788179039955139,0.0276480987668037,0.0124951601028442,0.0099115967750549,-0.1206603944301605,-0.0295107923448085,0.0830027684569358,-0.0549200236539822,-0.088768869638443,-0.0601399000270059,-0.126209856823273
42,0.020667,0.104595,0.713654,-0.025108,0.010252,-0.686209,0.726899,0.3559682413285598,-0.165398067471385,0.242521639162302,0.0048080921181826,9.746993111416696,-1.080042942079529,0.280131995677948,0.499145895242691,0.0932857692241668,-0.2833625946909965,-0.316162938701541,0.6746168265312006,0.603853287480294,-0.1323319226503372,-0.0349708795547485,-0.0034234006889164,-0.0083647370338439,-0.0205162763595581,0.0209065079689025,0.0454182662069797,0.0043576778843998,-0.0476673125793691,0.0010080729844048,-0.0025315066511946,0.0037814359303418
43,0.021641,0.103688,0.711681,-0.034396,0.023679,-0.686661,0.725778,0.2388414528122171,-0.0596510433644056,0.0527416293021291,0.092456430240767,9.733870010471344,-1.1889397354543207,0.2244848310947418,0.7172028422355652,0.1586436331272125,-0.2912061424520254,-0.3225345183112966,0.675714836427679,0.5954660160342528,0.056830558925867,0.0423794612288475,-0.0049623749218881,-0.0038833022117614,0.0162708759307861,0.0308734774589538,0.0323953069746494,-0.0053538801148533,-0.0367138198912143,-0.0135410251095891,0.0111435445006936,0.0129509592488408
44,0.024559,0.102992,0.708372,-0.043779,0.035949,-0.69046,0.721149,0.2477062021933495,-0.0757686499506235,-0.2226736138761043,0.1491327503770124,9.728441555681824,-1.2270150529570878,0.0465930290520191,0.6270485520362854,0.0418974868953228,-0.30081571808154,-0.3308562031254787,0.6731229689277736,0.5890242149666347,-0.1577272862195968,0.001546811312437,-0.1069732308387756,0.0244994759559631,9.465217590332033e-05,-0.0156227052211761,0.0193723440170288,-0.0150654399767518,-0.0257464356750249,-0.0280901230871677,0.0248332663528621,0.0221221076980233
45,0.027641,0.099012,0.703627,-0.059256,0.062027,-0.691181,0.717573,-0.8950609801508486,0.2578670923322439,-0.189714908734709,0.2906744245705194,9.719370944997667,-1.2726933928094804,0.2577520906925201,1.4807552099227903,0.4404652416706085,-0.3157934127461976,-0.3399332699168788,0.6703243083191144,0.5791246311901713,-0.5742166638374329,-0.0873260125517845,-0.1333475708961486,0.0203818082809448,-0.0504159927368164,-0.0337397158145904,0.0154111236333847,-0.0154246212914586,-0.0272808056354522,-0.0276877786964178,0.0345023178542032,0.0371738386183977
46,0.030008,0.096544,0.702932,-0.061727,0.06716,-0.691669,0.716431,-0.2376292274782434,0.0252250421494245,-0.3215994136609137,0.5689268091371282,9.695983055147527,-1.3544915321826934,0.3422614336013794,1.6568678617477417,0.525897204875946,-0.3419927354621257,-0.3546031692560013,0.6658201272021815,0.5603403176518573,-0.7307212948799133,-0.0688364878296852,-0.1198385581374168,0.0231509208679199,-0.0199043750762939,0.0055003762245178,0.0114499032497406,-0.0157838016748428,-0.0287976399391889,-0.0272854343056678,0.0441820003474131,0.0522252772778272
47,0.032402,0.094491,0.701026,-0.064711,0.063029,-0.69497,0.713342,-0.5690474763747304,-0.1524666897058486,-0.1660707060359418,0.8979510025039315,9.656997783192992,-1.4513620068728923,0.3744561970233917,1.973599553108216,0.6912298202514648,-0.3689618760748785,-0.3685824961302222,0.6619258356310553,0.538394089013593,-0.6243687272071838,0.0106824124231934,-0.1164127364754676,-0.0077146291732788,0.0063716769218444,0.0224514007568359,0.0069306241348385,-0.0218296945095062,-0.0160983173638582,-0.0364895798265934,0.0667098393021151,0.068282531978935
48,0.036425,0.090576,0.696988,-0.065255,0.038408,-0.702044,0.708096,0.5206345239266753,0.1571113006412982,-0.283119022488594,2.3143992246448994,9.511723050817846,-0.5840304894404486,-0.7963204383850098,0.660347044467926,0.5087854266166687,-0.4918741812164,-0.3873926335113818,0.6162014408807492,0.4777893122014849,0.0148295788094401,-0.139524295926094,-0.0787186175584793,-0.0008091330528259,0.0063978433609008,-0.1147859096527099,0.0221181586384773,-0.0065098125487565,-0.0232919962941901,-0.0715400353074073,0.1055644066822249,0.0681098422931507
49,0.036843,0.089121,0.696546,-0.068912,0.038342,-0.701099,0.70869,0.6524991551086307,-0.1412082135885954,0.3465887473583221,2.492883275921643,9.483083816310764,-0.1644798749142326,-0.910903811454773,1.342265009880066,0.37977334856987,-0.5147787316219824,-0.383209381729691,0.6012792275531006,0.4760428393650199,0.0188616048544645,-0.1862304955720901,-0.0071286563761532,-0.0089825391769409,-0.0365850329399108,-0.0136371850967407,0.0192941930145025,-0.0078302407637238,-0.0441623823314905,-0.0946587696671485,0.095637425763905,0.0066091890066862
50,0.036973,0.08798,0.696606,-0.068939,0.037521,-0.69945,0.710358,0.8083546104699373,-0.18513912525177,1.399683257561922,2.6041309432715174,9.450551081496476,0.2756595002628862,-0.580062985420227,1.3214823007583618,0.2417772859334945,-0.5398371785063121,-0.3841412965441512,0.5817050296233953,0.4718374973253887,-0.2326561212539672,-0.1724845916032791,0.0378057956695556,-0.0186629295349121,-0.0513623356819152,0.0177657082676887,0.014283837750554,-0.0049650538712739,-0.0582318242162466,-0.0927180349826812,0.0937327246537432,-0.0191406076692044
51,0.036966,0.08742,0.695131,-0.069093,0.03237,-0.698516,0.711516,-0.58619011515975,-0.0493698878467082,0.2376180850297212,2.7993299825057387,9.377778106230496,0.6256410318646579,0.3420906960964203,0.2786829471588135,0.2754056453704834,-0.5867346079165577,-0.4111909689815286,0.5468301114723445,0.4331759423012576,-0.1734937280416488,0.008506822399795,-0.0503821186721324,-0.0044159293174743,-0.000689685344696,-0.0015151500701904,-0.029771514236927,0.0364362522959709,-0.0579367685261182,-0.0573643110692501,0.0250771626779111,-0.0586804812991991
52,0.037524,0.085883,0.693594,-0.071132,0.016336,-0.694913,0.71538,-0.3950365519240498,-0.0952583633184433,0.4322446581382304,2.892188883467018,9.355732278639078,0.5252863683205098,0.3862018287181854,0.4244488179683685,0.3017524480819702,-0.5893165639759513,-0.415041317604182,0.5485968950427418,0.4236605581732558,-0.0164726842194795,0.0301864445209503,-0.0271156150847673,0.0076321959495544,0.016764760017395,0.0011077970266342,-0.0260344222187995,0.0317075364291667,-0.0422638552337884,-0.0530432313680648,0.024117227037996,-0.0321552798040211
53,0.037827,0.086115,0.692538,-0.066313,0.011975,-0.697051,0.713848,-0.2209717783942818,0.063193830537796,-0.2569628369688987,3.004679828876257,9.32566797976494,0.4173744212646037,0.3419884741306305,0.1089754179120063,0.2754819393157959,-0.5918835142482686,-0.4183652266004851,0.5510810869849209,0.4134659294784906,-0.0699745267629623,0.0595818310976028,0.0044817933812737,0.0061897635459899,0.0030158162117004,-0.0005494952201843,-0.0191818885505199,0.0276204012334346,-0.0036439094603061,-0.046795267611742,0.0497216238938272,-0.0169090492248535
54,0.038146,0.085686,0.691786,-0.063549,0.004165,-0.699498,0.711792,0.4988201670035719,0.3844464765876531,-0.4304974856773391,3.0755729817450046,9.307280090159177,0.2928309450172819,0.3616781532764435,-0.0681906417012214,0.1264185011386871,-0.5908379853819306,-0.4204784012508403,0.5552185974821785,0.4072353194340455,-0.0371569246053695,0.0194025076925754,0.0359781347215175,0.0310719609260559,0.0145990848541259,-0.0228941440582275,-0.015641413629055,0.0230393633246421,-0.0533972436666488,-0.0425529330968856,0.0073586556671187,-0.0074821724489331
55,0.03777,0.085965,0.69011,-0.072332,0.008084,-0.702198,0.708251,0.1049663951233029,0.2150958720982074,-0.9920184024721383,3.116581283959746,9.296019275954365,0.2032787026522681,0.1113010793924331,0.1645567566156387,0.1353713124990463,-0.5900305515015848,-0.4225457431644336,0.5577551125036823,0.4027756338587523,-0.1286844462156295,-0.0113382004201412,0.015204545110464,0.0226513743400573,-0.0088307857513427,-0.0166370868682861,-0.012468134984374,0.0207698494195938,-0.0325058468073606,-0.037171147763729,0.029804113567993,-0.0149387720651924
56,0.037657,0.085737,0.689151,-0.081117,0.013264,-0.703985,0.705443,-0.0694867932021617,0.1301572427421808,-0.4547287675490603,3.1865877171218395,9.271125657716391,0.2495760511858388,-0.0619877688586711,0.5965535640716553,0.2772894501686096,-0.5960163892887386,-0.4237322059814775,0.5547307275206368,0.3968493308488113,-0.2056529968976974,0.0053559308871626,-0.0005326058017089,0.0053721666336059,0.0162462592124938,0.0470062494277954,-0.0198944397270679,0.0161215253174304,-0.0528472085684537,-0.03963128849864,0.0129249114921316,-0.0289325183652341
57,0.037455,0.08553,0.687866,-0.090365,0.015924,-0.704763,0.703484,0.020177403371036,-0.2011807439923286,-0.065637168569304,3.466678039439022,9.161330235001444,0.4717534425102174,-0.0372516363859176,0.4039998054504394,0.2104098200798034,-0.6190503042097315,-0.4251998491926698,0.543279261682787,0.375272481946643,-0.1094425693154335,0.0804952085018158,-0.0849492847919464,0.0023407340049743,-0.0196753740310668,0.0138887241482734,0.0144390035420656,0.0098991198465228,-0.0149566445069562,-0.0575976110994815,0.0382979221613262,0.0311337364702485
58,0.036975,0.084205,0.687222,-0.107472,0.024364,-0.70549,0.7001,-0.0710877986580133,-0.0606435615330934,0.2434550840875133,3.893729732044041,8.986825316488742,0.4962031894382089,0.4008736312389374,0.6793338656425476,0.4385719299316406,-0.6432418863925885,-0.4348596300404964,0.5344134914518867,0.3339748358697833,0.1852204799652099,0.1778197437524795,-0.0229136794805526,0.0546380877494812,-0.0502558350563049,-0.0117563158273696,0.0623190179467201,0.0114299561828374,-0.0585600652233464,-0.1514984965324401,0.0600717210284667,-0.043110128765623
59,0.036312,0.083967,0.68623,-0.105631,0.019814,-0.705495,0.700519,0.0636325142160058,-0.04144026389122,-0.0127045102071017,4.0289565331354735,8.926922344189881,0.4979790034716949,0.3450469970703125,0.9328023791313172,0.4265839457511902,-0.6516828558055077,-0.4404821026690798,0.5297033649364264,0.3173318110212333,0.1856316775083542,0.1283554583787918,0.0313100777566432,0.0102538466453552,0.0337442159652709,0.0101552009582519,0.0630247518420219,0.0241091139614582,-0.0682891078501939,-0.1607114672660827,0.0415992173125967,-0.0416372477680444
60,0.035354,0.083621,0.686058,-0.100938,0.008981,-0.706066,0.700858,-1.50250474961102,-0.4030044620633125,-0.0198463082531467,4.204510376179218,8.840918715950846,0.5750020008649677,0.3247691690921783,1.207406520843506,0.7891184687614441,-0.6638374924662624,-0.4447433302052224,0.5223853234770858,0.2977191248220239,-0.1560995578765869,0.1812726259231567,-0.0932070165872573,0.0137701034545898,-0.0992360711097717,0.0050896406173706,0.0637304931879043,0.0367882698774337,-0.0775298144042491,-0.1699244379997253,0.0232835161602124,-0.0403369788244366
61,0.034633,0.083142,0.685538,-0.094253,0.000103,-0.706568,0.70134,-0.9283601692929864,-0.0138946698397397,0.646539662182331,4.535374607922137,8.67057968494594,0.6494715509157627,0.7718632817268372,1.853783369064331,1.2955816984176636,-0.6807163493040584,-0.4499274486942438,0.5142484386585325,0.264081634290907,-0.2944302558898926,0.1821836978197097,-0.0560170337557792,0.0414985418319702,0.0025011301040649,-0.0590633675456047,0.0342208370566368,0.0401838161051273,-0.0716699824601411,-0.1585996448993683,0.0477409714706242,0.0283799990490078
62,0.032822,0.083605,0.687627,-0.086762,-0.002395,-0.704123,0.704754,-0.9223428086996078,0.3234510328769683,-0.4942996939044445,4.95567536496222,8.434690031144022,0.6838902456071227,0.7878178358078003,1.2350996732711792,1.385706663131714,-0.6970253820255736,-0.4558327640646082,0.5072945831950535,0.221414725475603,-0.528861939907074,0.1497549265623092,-0.0735899060964584,0.004911720752716,-0.0454787611961364,0.0089092329144477,0.0274304170161485,0.0569621101021766,-0.0831593447238206,-0.1567374318838119,0.0244714838357642,-0.0061743047207593
63,0.03116,0.083883,0.687591,-0.085546,-0.004165,-0.701683,0.707323,-0.4377198016136884,0.0238636906683444,-0.2239321625698357,5.385486585408449,8.172236195543407,0.6176289172574877,0.8894646167755127,0.946837306022644,1.366077184677124,-0.7051851545596992,-0.4572909478658121,0.5093080383640913,0.1849436835903592,-0.3952729701995849,0.1447340101003646,-0.0079323314130306,0.0297111272811889,0.0167571902275085,-0.0139753818511962,0.0206399969756603,0.0737404078245163,-0.0943354032546281,-0.1548752188682556,0.0012217786136083,-0.0408259313851594
64,0.029397,0.084142,0.686664,-0.087734,-0.005649,-0.699492,0.709212,-0.5579004247426986,-0.3961895213514566,-0.490104945628345,7.242811319628357,6.32498160443902,1.9252796416796745,-0.4926882684230804,2.0647242069244385,1.8294814825057983,-0.7733751248654824,-0.4124511533241908,0.4813752240723321,0.0072809258379753,-0.2572978138923645,-0.0461017228662967,0.0285747461020946,0.0066019296646118,0.0306425690650939,-0.0398761592805385,0.1050553694367408,0.0438663847744464,-0.0202553228788776,-0.1245472133159637,-0.0027834949511539,-0.1359239073769655
65,0.025932,0.084964,0.684787,-0.092547,0.010275,-0.696242,0.711742,-0.4890881698012351,-0.1674889022707939,0.4510080299928784,7.497963307783007,5.751814052459597,2.6206027701228853,-0.5870512127876282,1.6230332851409912,1.635239601135254,-0.7953879380139283,-0.3869425608155641,0.4654695468915396,-0.0311697049822653,-0.0981776639819145,-0.0761234313249588,0.0436032302677631,-0.0052235126495361,-0.0142197608947753,-0.0624725297093391,0.0905525460839271,0.0505220256745815,-0.0703958891374059,-0.1961832493543625,0.1115324025753885,-0.2063654348875395
66,0.024954,0.084867,0.683254,-0.09188,0.017622,-0.696923,0.711018,0.9163859461218118,0.0162450323581695,0.474966705468297,7.95682468162477,4.065869090469182,4.04079690079391,0.3331663608551025,0.2360971719026565,1.052832007408142,-0.824711213360404,-0.3345795295046095,0.4266535355871135,-0.1608561980228439,0.1866540610790252,-0.2453265786170959,0.0479234792292118,-0.0177100896835327,-0.0149114727973937,-0.0521212816238403,0.0637160390615463,-0.005900272168219,-0.0343767506791977,-0.0411381609737873,0.0727783272945322,-0.1178233102799858
67,0.024593,0.083558,0.680645,-0.093146,0.017044,-0.697266,0.71053,0.771028796160221,-0.3034957478240132,2.3118977632179853,8.07764068004787,3.896443959438801,3.9673444188311695,0.861237645149231,0.1558240801095962,0.8197653293609619,-0.8186011942744726,-0.3367538789425485,0.4293233649914916,-0.1793607936653638,0.0797401368618011,-0.2545084655284881,0.0412952005863189,-0.009870707988739,-0.0493832230567932,-0.0096654891967773,0.0694914832711219,-0.0398110896348953,-0.1097477659146301,-0.0601553320884704,0.0648652526150457,-0.1030557300632353
68,0.024348,0.082182,0.676228,-0.094062,0.014899,-0.697743,0.70999,0.0333382059782743,-0.2806114235818386,-0.796489985153079,8.23862969890535,3.038732028342783,4.365945969760418,0.0633270889520645,1.930824875831604,0.8674376606941223,-0.8001246731301922,-0.3384223162734848,0.4035703633231929,-0.2870573425356186,0.1787338256835937,-0.1072286665439605,0.1781728863716125,0.0046765208244323,0.0351516008377075,-0.0118482075631618,-0.0268809925764799,0.0578230619430542,-0.0014385888564429,-0.0946227610111236,-0.0254001840871991,-0.1079008868057746
69,0.025069,0.080618,0.677753,-0.093157,0.019258,-0.697841,0.709908,-1.3906278444468974,-0.5161708225160837,-0.3530938914686441,7.93921829778552,2.6368352352604267,5.117255919972062,-0.1291502863168716,1.974677562713623,1.45239520072937,-0.811082706692998,-0.314081354171196,0.3747605430004282,-0.3210177269123063,0.1767947673797607,-0.172359898686409,0.1132110059261322,0.0091727375984191,-0.0015668272972106,0.0048404932022094,-0.007632527500391,0.0469485074281692,-0.0301321034133434,-0.0643391832709312,-0.0304922122798743,-0.0817778272375464
70,0.025271,0.080397,0.676902,-0.092433,0.019585,-0.697245,0.710579,-0.269912919434905,-0.661085927798599,0.1652665500462055,7.712588055238127,2.0902748274385927,5.684814984419941,0.1269027888774871,1.8223477602005005,1.9058679342269893,-0.8129898813935454,-0.2884371296930897,0.3563132163367638,-0.3590158953338994,-0.2325389385223388,-0.3491714894771576,0.0798710957169532,0.02677583694458,0.0018975138664245,0.0240510124713182,0.0116159375756978,0.036073949187994,-0.058771922442317,-0.0340555980801582,-0.0355825508389621,-0.055676002253592
71,0.02552,0.080388,0.675907,-0.091525,0.017104,-0.696492,0.711498,0.0458931516468524,0.3557756048332899,1.3076613919466733,6.119176123255491,-0.0217844070261227,7.663262591055035,-0.4354057312011719,1.951278567314148,1.837429165840149,-0.8017821098983882,-0.1733847962873082,0.2814605931860938,-0.4978584100157249,0.2165592312812805,-0.019923061132431,0.1348459273576736,-0.0131749510765075,-0.0023499727249145,0.0516573190689086,0.0151724694296717,-0.00363201322034,-0.1775906095683574,-0.047288030385971,-0.0070746579438331,-0.1090162185033783
72,0.026889,0.079645,0.675391,-0.087915,0.015534,-0.696882,0.711608,1.6604823116928338,0.2414589418342337,1.4917898788511752,5.478877401289344,-0.5296608205450698,8.116141383355856,-0.1738973408937454,1.7831575870513916,1.5567328929901123,-0.7955143498066135,-0.1385268817170046,0.258847942138468,-0.5300614246266565,0.2905541062355041,0.053714781999588,0.1852754801511764,0.0134773850440979,-0.028027594089508,0.0178965330123901,-0.0236463882029056,0.0096526201814413,-0.0833130739808082,-0.0248573198914527,0.0249146724424441,-0.0823188022464513
73,0.027589,0.079377,0.674947,-0.085866,0.014426,-0.697643,0.711135,2.555740714111924,0.526992953042686,1.511667714753747,5.022356453093886,-0.7511500104095786,8.389403613218665,0.4850873649120331,0.7203269004821777,0.9663468599319458,-0.7876470079185065,-0.1205054363525139,0.2402870903019351,-0.5543940770242857,0.0038829213008284,-0.0090274829417467,0.1654482334852218,0.0134332776069641,0.0177654027938842,0.0076807737350463,-0.0621592700481414,0.0380817651748657,-0.1090764607906341,0.0032433792948722,-0.0546666882137302,-0.0592751957893371
74,0.027376,0.077526,0.674893,-0.084859,0.014966,-0.698668,0.710238,3.540457853659987,0.7078557892147451,0.3515659512490034,4.886084234602749,-0.6309419878169894,8.479296650111674,0.707353949546814,0.116283394396305,0.1080783680081367,-0.7817493488326899,-0.1244611665469039,0.2284416646526539,-0.5667377982545503,-0.3028197586536407,-0.0476435832679271,0.1326136738061905,-0.026294469833374,-0.0129894018173217,0.0410796403884887,-0.069935455918312,0.0312596261501312,-0.068251698449254,0.0018509115325286,-0.026381676255085,-0.0297156315669417
75,0.027519,0.076612,0.672722,-0.082651,0.008805,-0.699548,0.709735,0.4385620976567268,0.1856526277318596,-0.860642431589961,4.87521884945631,-0.4687670836431905,8.49605080103576,0.5533267855644226,-0.2996427714824676,-0.171756699681282,-0.7811714504536186,-0.1313648704659219,0.2226325024682458,-0.568286098389628,-0.437483549118042,-0.1289914399385452,-0.0057528675533831,-0.0044113397598266,0.0277128219604492,-0.0379837788641452,-0.0777116417884826,0.0244374852627515,-0.0274094004511833,0.0004584438866004,0.0019248665445338,-0.0001309329032897
76,0.02625,0.076046,0.672654,-0.081078,0.004645,-0.697357,0.712108,-0.7796849808245897,-0.2643848584621213,-1.3754396276652812,5.071291456654667,-0.2744600248126313,8.389103753489255,0.1095075532793998,-0.3423922955989837,0.01049130782485,-0.7791471418033634,-0.1460695450327768,0.2256954232135826,-0.5662641869131559,-0.1669231802225113,-0.2245695292949676,-0.0539845786988735,0.007231593132019,0.0193550586700439,-0.0358603037893772,-0.0498920306563377,0.0218841955065727,-0.0058610009878873,0.0064997295849025,-0.0067772693035454,0.0535574026644229
77,0.025908,0.076207,0.673203,-0.077834,0.003283,-0.694761,0.715009,-0.4491384367287159,0.1215899419376626,-1.0129361028164623,5.0916445088535545,-0.350984278903529,8.373909106966853,-0.3378221392631531,0.1595091074705124,0.3001312017440796,-0.7774200342354235,-0.1440518878791644,0.2286886975604783,-0.5679512933357801,-0.1302634328603744,-0.1572838425636291,0.017643067985773,0.027481198310852,-0.0401864051818847,0.0196214988827705,-0.0363975502550601,0.0077741090208292,0.0014759177714586,0.0057711647823452,0.0088733961951802,0.021555705986917
78,0.026516,0.075867,0.673875,-0.07304,-0.01498,-0.690417,0.719559,-0.5929132859349251,0.2988376928851008,0.2520037532567978,4.961134214890003,-0.5488821287676692,8.441342474770545,-0.3373625576496124,0.5248377919197083,0.3931398093700409,-0.7763300355441357,-0.1322827030643111,0.2282818397696856,-0.5724512960124654,-0.0903594270348548,-0.1002772375941276,0.0669409111142158,0.0035867094993591,-0.0343186259269714,0.0209814235568046,-0.0229030698537826,-0.0063359793275594,0.0088169281840324,0.0050426004454493,0.0245337491167476,-0.010447744256258
79,0.026936,0.07561,0.673926,-0.069189,-0.02258,-0.690666,0.719502,3.785417533624172,0.6439652085844427,-2.612496620556712,4.801087737579644,-0.7237219052579253,8.520338854596018,-0.4440022110939026,0.3255148231983185,0.1012860760092735,-0.7741974364185347,-0.121060310870261,0.2256723849798497,-0.578821957084315,0.2019677758216858,-0.0611029863357543,0.1382126212120056,0.0041310787200927,0.0295248627662658,-0.0112665891647338,-0.0102740544825792,-0.0198333263397216,-0.0227583597749471,0.0066278642043471,0.0251082930351141,0.0489247744277119
80,0.027457,0.075063,0.673907,-0.069321,-0.026351,-0.691204,0.718844,0.4159907848864793,-0.1735717293158173,0.2647007377445697,4.689344980189204,-0.9093556090936064,8.564666072100401,-0.438838392496109,0.3433001339435577,0.1674820929765701,-0.7759358665916771,-0.1092427029020007,0.2266927263530504,-0.5784462853070113,0.6127902269363403,-0.066263236105442,0.1509370058774948,0.0065875649452209,0.0428043007850647,-0.008471131324768,0.0155521593987941,-0.0254466254264116,-0.0129167647182941,0.0109996972605586,0.0353710772124817,0.0382248089760541
81,0.029001,0.073043,0.676104,-0.071626,-0.021976,-0.69297,0.717063,-0.1041878119662404,-0.4183936082445085,0.4845686465501785,4.561891735708714,-1.0497009953077885,8.617288239741326,-0.1512476056814193,0.3075638115406036,0.2374209612607956,-0.7753373380528689,-0.0998233485482488,0.2251130233151368,-0.5815595304488654,0.8078643679618835,-0.1336906403303146,0.1744308173656463,0.0361275672912597,0.0320587158203125,-0.0188803672790527,0.0413783714175224,-0.0310599245131015,-0.0030675708770751,0.0153715293854475,0.0456263630699831,0.0275265970900654
82,0.03049,0.069963,0.678132,-0.081823,-0.01113,-0.698112,0.711211,0.5678524944365024,0.0082464348196983,-0.2221872916638851,4.308238169418275,-1.4821768318533897,8.684044146674871,-0.3430434763431549,0.1900477409362793,0.1251492351293563,-0.7718276849486534,-0.0753904043412682,0.227053447150844,-0.5891052958514015,0.2979688942432403,-0.459954172372818,0.2070785015821457,0.0595922172069549,-0.0088493824005126,-0.0381324291229248,0.0682270526885986,-0.1071965396404266,0.0228887515388312,0.1216032654047012,0.0653230200196383,0.0897169953395146
83,0.030406,0.067517,0.680701,-0.088258,-0.012161,-0.700066,0.708498,0.269892461168766,-0.4398375244200229,0.4673784422963857,4.300189302997291,-1.605708518975973,8.666051978388428,-0.2361522614955902,-0.0298663023859262,0.0957230702042579,-0.7711536828303179,-0.0701285470568825,0.2307299466215313,-0.5892093405447509,0.8443323373794556,-0.4789659976959228,0.3269038498401642,0.0481269359588623,-0.0052077770233154,-0.0215129852294921,0.0863659307360649,-0.113485150039196,-0.0628078314614715,0.0883781537413597,0.0040115018053271,0.0355928621704224
84,0.02963,0.065357,0.68136,-0.091073,-0.015626,-0.700688,0.707458,0.0281572962090373,-0.2753320218741893,0.2536222943693399,4.312829588861764,-1.6647193647406997,8.648618028506636,-0.0289937797933816,-0.1730986535549163,0.0596574507653713,-0.770028023292044,-0.0684018081427274,0.2331617091532577,-0.5899269481960723,0.58008873462677,-0.4575782418251037,0.4376648366451263,0.0246956646442413,-0.0267569422721862,0.0118958987295627,0.0881479755043983,-0.0893309935927391,-0.0839309136182069,0.0443174503743648,0.0093241744532715,0.007202478724718
85,0.027955,0.060492,0.684292,-0.091642,-0.035647,-0.700269,0.707075,-0.386315485329926,0.0667328183189034,-0.3218687321215868,4.440447083993256,-1.657679967623204,8.585156486943363,0.0425267592072486,-0.5299493074417114,0.0095002613961696,-0.7679490028202152,-0.0732054886804767,0.238578709405743,-0.5898943652878212,1.0053670406341553,-0.3125881552696228,0.4937848448753357,0.0013532936573028,0.0345118641853332,-0.0330554842948913,0.0899300202727317,-0.0651768445968627,-0.104973701646924,0.0002567544579505,0.0145924245792441,-0.0211181913524866
86,0.025711,0.058731,0.686239,-0.087782,-0.052608,-0.695784,0.710923,-0.6429556662157178,0.1825483781062066,-0.3275865252465009,4.660874672508239,-1.6786251404963433,8.463383041664958,-0.0980716347694397,-0.7121650576591492,0.1132150068879127,-0.7641090757331285,-0.0802124499248782,0.2491054629277868,-0.589618232208915,0.9432831406593324,-0.2119822353124618,0.5230001211166382,-0.0334519147872924,-0.0190909504890441,0.0873712450265884,0.0917120575904846,-0.0410226918756961,-0.1259358256548643,-0.0438039489090442,0.0198163880389183,-0.0493669652372598
87,0.024021,0.056548,0.689187,-0.080397,-0.071538,-0.692041,0.713791,-0.3424289973303675,0.2035413356438279,-0.0696557200282812,4.837542029751837,-1.755283140502125,8.347906650704145,-0.1465226262807846,-0.404627650976181,0.2942316234111786,-0.759157068024153,-0.0840863897618527,0.2594314582065667,-0.591020512571122,0.4680953323841095,-0.1335305869579315,0.4696173071861267,-0.0312362015247344,-0.0139610171318054,0.0276732891798019,0.1015702411532402,-0.0224362686276435,-0.1093453408598899,-0.102321557700634,0.034163276891876,-0.0459127331301569
88,0.022288,0.050519,0.700958,-0.05839,-0.112299,-0.688711,0.713903,0.1362090901270508,0.288835354308784,-0.1140127481490373,4.889669107352197,-1.8805305455014107,8.29006177997887,-0.1785313338041305,-0.0781913995742797,0.4271679222583771,-0.7538205368985791,-0.0825251984301269,0.2655448467106582,-0.595340344229942,0.3930314779281616,-0.1962079107761383,0.3665755689144134,-0.0050078332424163,0.027772307395935,-0.0271636247634887,0.1114284247159957,-0.0038498416543006,-0.0925754078447818,-0.1608391553163528,0.0487016879952512,-0.0425426721751689
89,0.021897,0.046755,0.70597,-0.047059,-0.125502,-0.68977,0.711514,0.463972433245182,0.1834682694301009,-0.0795166043072938,4.861180387231707,-2.0219157230921088,8.27352156406641,-0.1526751965284347,0.0041013369336724,0.3912425339221954,-0.7490493404029637,-0.0777238007679318,0.2685643238138772,-0.6006306849733521,0.4490201771259308,-0.2394122779369354,0.2873608469963074,-0.0015972554683685,0.028853416442871,-0.0036907643079757,0.1127994209527969,0.0120276547968387,-0.0540226820886135,-0.1442661881446838,0.0609433207978028,0.0024567455023527
90,0.021027,0.04277,0.713886,-0.039508,-0.136207,-0.690464,0.709328,0.5594947081968188,0.1196500233836471,-0.2143856780022382,4.841524961908162,-2.121501740351319,8.260100356957317,-0.0772892236709594,-0.0837223082780838,0.2395220249891281,-0.7451466566885834,-0.0746016982599924,0.2707151345452358,-0.6049003835311579,-0.0206245519220829,-0.1755829602479934,0.2781617641448974,-0.0022189319133758,-0.0428600907325744,0.0384911149740219,0.0966793820261955,0.02289311401546,-0.0075257193297147,-0.1171232312917709,0.091799336305214,0.0298389656856656
91,0.020161,0.03874,0.718076,-0.034993,-0.146018,-0.690899,0.707186,-0.0481949988484382,-0.1006410792700946,0.2026256821036338,5.398038023945689,-2.449034051192552,7.812412703558802,-0.3111713826656341,-0.5946905016899109,0.1356309652328491,-0.730370647555108,-0.0835460096480274,0.3077301718347071,-0.6040536619021454,0.5326381325721741,0.0562794059514999,0.3256981670856476,-0.0502220094203949,0.0098817348480224,0.0194159597158432,0.0601564981043338,-0.0391106754541397,0.0428804025298217,0.0206112302839756,0.1029764999477192,0.1001366094798315
92,0.018669,0.030622,0.729338,-0.028928,-0.163527,-0.690463,0.704047,-0.1283890640258789,0.0604737579241395,0.3194745304614305,5.485265641021728,-2.5856083213701844,7.706936897608637,-0.2236981689929962,-0.1784520745277404,0.3514556884765625,-0.7257465178372167,-0.0823959321902599,0.3166488297568372,-0.6051747948157359,0.3476347029209137,0.0197453089058399,0.2719683051109314,-0.0366068184375762,-0.0354283452033996,0.0055266618728637,0.054561648517847,-0.0130515769124031,-0.0278629894375801,-0.0011203456670045,0.0637270423653535,0.0117208329319953
93,0.017326,0.027532,0.732877,-0.025451,-0.169327,-0.690261,0.703008,0.6273503930658102,-0.0796530901685357,0.1903974841713905,5.440753130078315,-2.730989728990197,7.688321044465899,-0.1810252815485,0.2169832289218902,0.3980737030506134,-0.721220806859417,-0.0770526682306813,0.3194802110449791,-0.6097833559987793,-0.2609900236129761,-0.0552560165524482,0.1978754252195358,-0.0156849920749664,-0.064440369606018,-0.0162463337182998,0.0489667952060699,0.0130075253546237,-0.0986053356587886,-0.0228519216179847,0.0244770733263343,-0.0767179134994745
94,0.016212,0.024762,0.735449,-0.02311,-0.171787,-0.691121,0.701646,0.1326081430256366,0.0866530320584774,0.0170732998758554,5.076126621726155,-3.1614062218531966,7.772311579316854,-0.1742706000804901,0.2019350826740265,0.1327319294214248,-0.7160300074543474,-0.0500696468496594,0.3181436969715593,-0.6193372047562571,-0.1359173357486724,-0.0469259172677993,0.1279737055301666,-0.0031899511814117,-0.0205726027488708,-0.0001914501190185,0.0126347122713923,0.0992670282721519,-0.0682822579842992,-0.067460611462593,-0.005190435649408,0.0089321817442891
95,0.016584,0.021877,0.741537,-0.023078,-0.172525,-0.691452,0.70114,0.1485731893986463,0.0041992052555084,0.0552127686560153,5.039961083367467,-3.4608278521060942,7.667584545907378,-0.2139868736267089,0.1146551296114921,0.0627407506108284,-0.713901864892061,-0.0367046782392714,0.3281992796656932,-0.6174804930423707,0.1473604440689087,0.0422035343945026,0.0751993730664253,0.0039033889770507,-0.0029972195625305,0.0018245726823806,-0.0037869475781917,0.0239527989178895,-0.0631276014677481,0.0405873768031597,-0.042125606673723,-0.0963412357848603
96,0.015857,0.019906,0.742811,-0.019608,-0.169354,-0.691914,0.701563,0.2480646602421999,-0.1801037614330649,0.4620166230022907,4.9911967601984735,-3.518937803508341,7.673031120875478,-0.0441374666988849,0.1438688039779663,0.0662512928247451,-0.7140094719379096,-0.0326042900253115,0.3282091324389305,-0.6175808311027267,-0.1082444116473198,0.0039899954572319,0.0636634901165962,0.0169565975666046,-0.0195605158805847,0.0073881298303604,0.0005312603898346,0.0174627229571342,-0.0363876566767692,0.0016122199594974,-0.0158513568654656,-0.0832151665642857
97,0.016749,0.019353,0.746268,-0.016952,-0.166349,-0.693189,0.701092,0.1112608190923929,0.2205541375041008,-0.2713894217282533,4.980757199248671,-3.5267969925761222,7.676206243780255,-0.0135408379137516,-0.0807690471410751,0.097506046295166,-0.7130604671876478,-0.0324494377763543,0.3279777929981481,-0.618807182280297,-0.1779497414827346,-0.0212549082934856,-0.001775303389877,0.0130292773246765,-0.0041386485099792,0.0018089264631271,0.0084976200014352,0.0235384553670883,-0.0286760593861341,-0.016463428735733,0.0040449188760947,-0.0327417013898491
98,0.0174,0.014456,0.747076,-0.013754,-0.166547,-0.694726,0.699592,-0.4325122960984706,-0.0590887333065271,-0.37307577226758,5.01052514552474,-3.591320610412955,7.626758614522219,-0.3009438514709472,-0.2381428629159927,0.0433553680777549,-0.7115726966868878,-0.0311721946494689,0.3319214184760092,-0.6184827436908398,-0.0300018079578876,0.0081655122339725,0.0278093535453081,0.0107471942901611,0.0299282073974609,0.017579436302185,0.0092430058866739,0.0341369546949863,-0.0477449169933795,-0.0321220234036445,0.0077352156282402,-0.030403321570158
99,0.018977,0.012155,0.749911,-0.013457,-0.170545,-0.695276,0.698087,0.2430564766913652,0.0346343832686543,0.5361135403484105,5.085688230797648,-3.6889343046858905,7.529802215114236,-0.2154705077409744,-0.0307935029268264,0.062808521091938,-0.7091526617386286,-0.0301790361866928,0.3393761165564153,-0.617264542671985,-0.146510049700737,0.0062799942679703,0.0163289979100227,-0.0028825998306274,-0.0364047288894653,0.0065512061119079,0.006267094053328,0.0488119944930076,-0.0691495240718126,-0.0528138503432273,0.0059133339633233,0.0024058920979499
100,0.020382,0.009391,0.751502,-0.009395,-0.172848,-0.697732,0.69513,-0.1130892035633325,-0.1721031180679798,1.1323106702595949,5.005939571300149,-3.7362814545333385,7.55983845693767,0.1008235588669776,0.3796606957912445,0.2222615033388137,-0.7089187358805134,-0.0258437461030361,0.3374723808190636,-0.618771967099427,-0.0426520891487598,-0.0138533441349864,0.0085975090041756,0.0029110312461853,-0.0005283951759338,-0.0395769476890563,0.0046447999775409,0.0603242740035057,-0.051427404898405,-0.0530402772128582,9.6007720381e-05,0.0660056730881333
101,0.023371,0.004223,0.757148,-0.002112,-0.162473,-0.704945,0.690399,-0.0606353782266378,0.2193053064867854,0.1177589489400386,4.911885907596349,-3.689700320622325,7.643942973557114,0.3821220695972442,0.0672161653637886,0.1892750412225723,-0.7075180127743109,-0.0259934478673819,0.3310463699788701,-0.6238195464644443,-0.0976556837558746,-0.0672879070043563,0.0228169932961463,0.0158610045909881,-0.0255345106124877,-0.0235000848770141,0.0074372626841068,0.0642211958765983,-0.0453115523666143,-0.0458126030862331,-0.0074394658183678,0.0844262959197163
102,0.023772,0.002556,0.758173,2.5e-05,-0.156735,-0.706471,0.690169,-0.0612993950933217,0.0050227965980768,-0.8375076397180556,4.885466102704405,-3.638672728696465,7.68522366297245,0.1180769205093383,-0.0543086156249046,0.1747718751430511,-0.7052031464599193,-0.0287345427499133,0.3276231961362076,-0.6281129210886677,-0.1177399158477783,-0.01877704821527,0.0253651048988103,0.0076870322227478,0.0038769841194152,0.0237280279397964,0.0040318979881703,0.0557457543909549,-0.0128466220915317,0.0161460079252719,0.0089417966727167,0.1205181845203041
103,0.023608,0.001138,0.757538,-0.002185,-0.156163,-0.705718,0.691065,0.490101146236062,-0.1119827036261558,-0.579384526798129,4.875753394724429,-3.682378014910221,7.670560931369661,-0.148907259106636,0.0433657020330429,0.131624162197113,-0.7030682959663366,-0.0275968153746118,0.3288596183504542,-0.629908519916766,-0.1595137417316436,-0.039391566067934,0.0909303948283195,0.0422888994216918,-0.0200875997543334,-0.0144555419683456,0.0006265335250645,0.0472703129053115,0.0196685770660638,0.0781046152114868,0.0253245935337617,0.1566042279019951
104,0.023479,-0.002354,0.75881,-0.007942,-0.158379,-0.703714,0.69256,0.3682069971874356,-0.0711839525088667,-0.3585971650600433,4.821524376408756,-3.760885442174971,7.666748095083236,-0.1903348714113235,0.1247387677431106,0.1288252770900726,-0.7021858214916042,-0.0229078586175284,0.329514592504791,-0.6307379691667676,-0.1928266882896423,-0.0215746462345123,0.1132469549775123,0.0183618664741516,0.0009931921958923,-0.0071207880973815,-0.0066713504493236,0.0435196682810783,0.0079909987539052,0.1139471977949142,0.0190410562848672,0.1101616256788372
105,0.02239,-0.004522,0.756512,-0.016931,-0.163505,-0.700113,0.694853,0.3552136601015925,0.0179053667858242,-0.1273942077696323,4.761344925256073,-3.841595055659115,7.664341033941507,-0.2015762627124786,0.1349906772375106,0.0908745154738426,-0.7017964570686014,-0.0176717625554182,0.3300228207799848,-0.6310739724504394,-0.1751406341791153,-0.0182740315794944,0.1031874641776084,0.0035853683948516,-0.021658718585968,-0.0035145133733749,-0.0139423739165067,0.0394787639379501,-0.0363595996260643,0.0771064683794975,0.0134888837841339,0.0312213599547743
106,0.023039,-0.007684,0.75986,-0.016296,-0.156657,-0.70163,0.694916,0.265535727263987,-0.054127896028757,0.1218301439017057,4.710812423370778,-3.926382001584768,7.652591559436916,-0.2409437149763107,0.128073051571846,0.0702974945306778,-0.7016201120250056,-0.0124135134355126,0.3311681006990036,-0.6307954646481929,-0.2025898396968841,-0.0274292342364788,0.0856974869966507,-0.0007877945899963,0.0092653036117553,-0.0332218408584594,-0.0193659476935863,0.0421193875372409,-0.0585772766530513,0.0175865180790424,0.0124122127296403,0.0005889058038592
107,0.023687,-0.008972,0.762731,-0.01156,-0.1482,-0.704486,0.693976,0.2560843005686998,-0.0209866739273071,0.4689917227119207,4.687942127653956,-3.9942388554975374,7.631489734697341,-0.118137739598751,-0.0281101241707801,0.0280280746519565,-0.7014564424553124,-0.0087280757627413,0.332905568887632,-0.6301242416722211,-0.0615831688046455,-0.0669899061322212,0.0943666100502014,0.0024076104164123,-0.0062875747680664,-0.0312644690275192,-0.0161218214780092,0.0375398993492126,-0.0480465302884578,-0.0220419876277446,0.0174350823929533,-0.0260460031434893
108,0.025429,-0.013349,0.771249,0.003891,-0.142305,-0.711932,0.687668,0.3379816625326872,0.0963441127285361,0.0795844088464975,4.703758413206041,-4.009217813442647,7.613883350858091,-0.0060057905502617,-0.0377783179283142,-0.0257381834089756,-0.7010067615126439,-0.008752139873187,0.3342504906535187,-0.6299124051090429,0.0361204855144023,-0.1171966716647148,0.0733705833554267,0.0215296745300292,-0.0077239274978637,-0.0245901346206665,-0.0069456966593861,0.0135963819921016,0.0081125793069601,-0.0196024235337972,0.0676135101435706,-0.01132043543756
109,0.026452,-0.01571,0.773347,0.007572,-0.146364,-0.715458,0.68311,0.1104337206184864,0.0622962971761822,-0.0673679013520479,4.713882624596357,-4.00270331698209,7.611048419693112,-0.0150381568819284,0.0055566355586051,-0.0466154739260673,-0.7015365146148973,-0.0090693708032361,0.3344581625587407,-0.6292074483017995,-0.2441580444574356,-0.1795987337827682,0.0757222846150398,0.0245099663734436,0.0162364244461059,0.0360307097434997,0.0046592159196734,0.0028648190200328,-0.0254477449893951,-0.0066098682582378,0.0649005979230627,-0.0423985875293612
110,0.027258,-0.017603,0.773645,0.005588,-0.150982,-0.717952,0.679498,0.0901639627888798,-0.1376136962279677,-0.1561141062974929,4.720983981034159,-4.008245461279153,7.603726698502898,-0.0574470534920692,-0.004191180691123,-0.0044443132355809,-0.7017879295987797,-0.0088920950989036,0.3350205235728083,-0.6286301902955881,-0.2671842575073242,-0.1704573929309845,0.1510546505451202,0.0154954493045806,0.0112748146057128,0.0123848468065261,0.0102911498397588,-0.0017055631615221,-0.023390812459588,-0.0121091464534401,0.0762296002595685,-0.0310845818325877
111,0.025411,-0.018492,0.773976,-0.003956,-0.160172,-0.716827,0.678593,0.1872849051088094,0.0158168700739741,0.0054968438506126,4.708408577099442,-4.028947765307128,7.600582555258273,-0.0693564489483833,0.0658361092209816,0.0026394291780889,-0.7020218171831113,-0.0074456390273592,0.3352949423683107,-0.6282414230550134,0.1382439136505127,-0.3184002041816711,0.341631531715393,0.0482607781887054,0.0072670578956604,-0.0327177792787551,0.0159230828285217,-0.0062759458087384,-0.0230026899248361,-0.0176084246486425,0.0863504506490193,-0.0238064075231552
112,0.024708,-0.018796,0.773529,-0.007467,-0.162126,-0.715046,0.679977,-0.0518561517044901,0.0123375035256147,0.0005430208355188,4.697654835633934,-4.045669475266338,7.598353773292898,-0.0316879712045192,0.0238769613206386,0.0329412370920181,-0.7021890617852247,-0.0062702138838912,0.3354883707789286,-0.627963987803593,1.034969925880432,-0.4378460347652435,0.5606396794319153,0.0475358068943023,0.0315018892288208,-0.0401405245065689,0.0219403840601444,-0.0169467814266681,-0.0218996971189975,-0.0219979062676429,0.0912769837983883,-0.0013832710519433
113,0.023778,-0.019214,0.774212,-0.009123,-0.157412,-0.714216,0.681933,0.2636433376461267,-0.0258683084890246,-0.0763747991502284,4.677390338501334,-4.068515805585682,7.598657140153646,-0.0542801767587661,0.0476511120796203,0.0523660592734813,-0.7017161531691926,-0.0048731778123956,0.3354885386017172,-0.62850480613551,0.7310265898704529,-0.4498598873615265,0.6788789629936218,0.0075694471597671,-0.0506359934806823,-0.0077376812696456,0.0180104672908782,-0.0156123824417591,-0.0329670345783233,-0.028232330456376,0.0745405146614648,0.027363223221898
114,0.02438,-0.020836,0.775905,-0.007356,-0.155505,-0.718137,0.678265,0.1962549780279397,0.1419356510803103,-0.0427957701534032,4.660383089599013,-4.085036147753894,7.600242948040366,-0.0231472961604595,0.0390566512942314,0.0054048467427492,-0.7017243942025044,-0.0036054627180948,0.3353840410686248,-0.6285597890603563,0.8852869868278503,-0.1727068424224853,0.8081877827644348,-0.0500182211399078,0.0619241595268249,0.0657037943601608,0.0096065569669008,-0.0139559134840965,-0.025073066458106,-0.0228580497205257,0.074391224117577,0.0609077654272317
115,0.025325,-0.024649,0.780378,-0.000664,-0.140496,-0.729359,0.669549,0.0505561750218272,0.0408005046829581,-0.1411041686922311,4.635046111507713,-4.1024139835342766,7.606374582663178,-0.0605662129819393,0.0713973343372345,0.01538011059165,-0.7020500613544055,-0.0018819581497256,0.3349317779554356,-0.628444785338592,0.9307021498680116,0.1305288225412368,0.6778735518455505,-0.0797994285821914,-0.0310093760490417,0.117052212357521,0.0036484161391854,-0.0039901798591017,-0.0533791234880685,-0.0243997871875762,0.0517981744395568,0.0769113902449607
116,0.026467,-0.02713,0.782865,0.003582,-0.133739,-0.73739,0.662086,0.1089127946615219,0.0566585835501551,-0.088343469363451,4.616493094468116,-4.126202855400741,7.604789943820237,-0.0638618990778923,0.0275201722979545,0.041269976645708,-0.7020460324867357,-0.000238411572858,0.3350575590652856,-0.6283850886427477,0.3249238133430481,0.4507651329040527,0.2421122640371322,-0.0599458590149879,0.0134966969490051,0.0499895960092544,-0.0009479699656367,0.0057205958291888,-0.039373979011178,-0.0352401360869407,0.0488882418096065,0.1051242160335183
117,0.027693,-0.029997,0.78513,0.00735,-0.130042,-0.7457,0.653427,0.2231137588590383,0.0077691726967692,-0.1638502535074949,4.599556280453503,-4.155872894260287,7.598893871518969,-0.0865526273846626,0.0451556406915187,0.0281146112829446,-0.7018099327995327,0.0015068719035606,0.335502572575822,-0.6284095410711766,-0.4304330945014953,0.4809572398662567,0.031368400901556,-0.0544632300734519,-0.0106451511383056,0.0403807163238525,0.0045692096464335,0.0163066945970058,-0.0360275911927223,-0.0440419912338256,0.044360790980421,0.1130529632061719
118,0.025399,-0.032546,0.786332,0.006376,-0.12631,-0.744811,0.655181,0.1909656394481658,0.0182324067831039,-0.1105535476058721,4.582922541038692,-4.188931698775291,7.5907871374309055,-0.0974475294351577,0.0490703657269477,0.0227393191307783,-0.701811972681419,0.0035297370697111,0.3361028089347801,-0.6280782444129502,-1.1438937187194824,0.2712682485580444,-0.2496973574161529,0.0215039029717445,-0.0270156860351562,-0.0311812758445739,0.0129568986594676,0.0211461279541254,-0.0441454311966896,-0.0672615617513656,0.0617227168056182,0.0975137410297989
119,0.023683,-0.032695,0.784721,0.000952,-0.129434,-0.738577,0.661627,0.0708858463451266,0.0776002492919564,-0.1597732133269309,4.564588135185837,-4.224806437493861,7.581947997415066,-0.1219094023108482,0.062381986528635,0.0049688965082168,-0.7020084059842447,0.0058412492027181,0.3367404247643972,-0.6274998550132498,-1.9806692600250244,0.0650684759020805,-0.4988082647323608,0.0400604158639907,-0.0588272213935852,-0.0626989305019378,0.0236745364964008,0.0193786174058914,-0.0369733476102352,-0.0899228453636169,0.0666884129215963,0.085381696948409
120,0.021689,-0.034753,0.78305,-0.005572,-0.132768,-0.732386,0.667797,-0.0290428468719124,-0.0083884736388921,0.0242231716305017,4.526251390267908,-4.258827072778344,7.585896442779898,-0.076861023902893,0.1993770450353622,0.0529920309782028,-0.7024962162130969,0.0088160634605478,0.336376576648187,-0.62711410866674,0.2980410456657409,-0.1843410730361938,0.0284935198724269,0.0480853021144866,0.147129476070404,-0.122628167271614,0.0253974217921495,0.0111296502873301,0.0020686229676008,-0.1041792631149292,0.0751670307956635,0.0171200616270303
121,0.019645,-0.040612,0.78172,-0.016493,-0.135233,-0.724274,0.67592,0.2234349536374211,0.1467562031045556,-0.1900689828693866,4.442864374268055,-4.293064565683901,7.615835069447756,-0.0615718364715576,0.1592798978090286,0.0679691657423973,-0.702977891871083,0.0131289462874221,0.3339582553138531,-0.6277910835514773,0.8334269523620605,-0.0533505268394947,0.3345595598220825,0.0160287022590637,0.0225188732147216,0.1191260814666748,0.0199671741575002,0.0147408787161111,-0.0247761293381452,-0.1006046459078788,0.056956945442222,-0.0549231380596756
122,0.020237,-0.045601,0.782879,-0.016873,-0.134327,-0.723045,0.677405,-0.0040571664363145,0.1528089272722601,-0.1783399666309356,4.417468651726842,-4.330091981568932,7.609642644548415,-0.1688887923955917,0.0114104682579636,-0.0051024858839809,-0.7032684009714707,0.0157621731807261,0.3343168427339244,-0.6272140428397018,0.5357875823974609,-0.0166314989328384,0.3291472196578979,0.0410708785057067,0.074609100818634,-0.0017356276512145,0.0114013971760869,0.0194579940289258,-0.0706301180183887,-0.0877894237637519,0.0318502324428409,-0.0778749745801091
123,0.020715,-0.050453,0.784757,-0.017055,-0.133161,-0.723153,0.677515,0.1270361881121993,-0.014664485168457,0.281416310223937,4.401446029947698,-4.387374249975383,7.58607939813137,-0.1346854716539383,0.0834827721118927,0.0854185596108436,-0.7028787916465444,0.0187111613390475,0.3359575642080593,-0.6266926961340787,0.2425780445337295,-0.0744601190090179,0.0490981973707675,0.0043624863028526,4.601478576660156e-05,-0.0200375169515609,0.0088184140622615,0.0249203033745288,-0.0530336710512638,-0.0637152269482612,0.0219768540084362,-0.065761927460134
124,0.021198,-0.055118,0.786182,-0.018542,-0.132518,-0.723565,0.677162,0.3383116251394152,0.110167763158679,0.266419816622138,4.3556703672006725,-4.428409732457995,7.5886565551429985,-0.0534336566925048,0.071277379989624,0.0303537435829639,-0.7027073103835699,0.0218975673389732,0.3355691992276216,-0.626989826855918,0.4915865361690521,-0.1160349994897842,0.0840625762939453,-0.0110760852694511,0.0873951315879821,0.0638751685619354,0.0148100182414054,0.0331164747476577,-0.0446048654019832,-0.0480187609791755,0.0032450098032131,-0.0664423109397292
125,0.019927,-0.064385,0.787456,-0.020109,-0.131829,-0.721447,0.679508,0.1107578380063176,-0.0692015465199947,0.2327215451598167,4.343504713110626,-4.437733441120386,7.59018274179697,-0.0010819428134709,0.0020546917803585,0.0008130244095809,-0.7028568477024792,0.0227752142684561,0.3353948027652162,-0.6268842757365819,0.578977644443512,-0.0444396957755088,0.1104300022125244,0.0141034126281738,-0.0637150406837463,0.078395664691925,0.022167831659317,0.0229930132627487,-0.0360743529438972,-0.0315834581851959,0.0092537486987188,-0.0428501306891441
126,0.01902,-0.066646,0.788745,-0.018963,-0.129704,-0.718948,0.682591,0.1098641040369868,-0.0487090858504176,0.1125052661955356,4.3563694553807375,-4.425006353755295,7.590240024942159,0.0741746723651886,-0.062523066997528,-0.005689428653568,-0.7027097365704342,0.0217180962887239,0.3354605444008939,-0.627051460582226,0.7362434267997742,-0.2634198069572449,0.0273883081972599,0.0387456268072128,-0.0438414216041564,0.0667525231838226,0.0295256450772285,0.012869550846517,-0.0275146143913269,-0.0151481516659259,0.0152699037156999,-0.0192772396609187
127,0.017561,-0.071303,0.789645,-0.016907,-0.126382,-0.716113,0.686239,0.1292436350286006,0.0555924156233668,-0.2800093660354614,4.3784392483696335,-4.406754365488887,7.588159711536765,0.0182133708149194,-0.0497325770556926,-0.0010639075189828,-0.7022859134955963,0.0199821956130056,0.3357264190308259,-0.627441603706141,0.5209023356437683,0.1764161437749862,0.0285004451870918,-0.0364088788628578,0.0864335894584655,-0.0270842313766479,0.0270750429481267,0.0043125227093696,-0.0372539181172847,-0.0082971155643463,0.0050494288766756,-0.0311357274979352
128,0.014829,-0.078497,0.795112,-0.002392,-0.112809,-0.708649,0.696481,0.1296633217453956,0.2089575154736637,-0.1255915422618389,4.379216662482917,-4.413175338447093,7.583978041937947,-0.0331836752593517,0.0306460242718458,0.0070521249435842,-0.7022310798524036,0.0202316710765595,0.3360288641219505,-0.6273330733283375,-0.2086392045021057,0.2079385966062545,0.0840314105153083,-0.004258818924427,0.0191664695739746,0.0756960213184356,0.0205588899552822,0.0159680284559726,-0.056934770143032,-0.0215279143303632,-0.0199012898433953,-0.0301873407319188
129,0.011886,-0.084281,0.799319,0.009027,-0.103859,-0.704872,0.701632,0.0609022124692797,0.1687801111251115,-0.1908241851508617,4.359991153009236,-4.423725374034047,7.588907899555563,-0.0379327163100242,0.0611271783709526,0.0282078851014375,-0.7023465759460142,0.0213567053848103,0.3355849885817861,-0.6274041384202104,-0.6097480058670044,0.4234760999679565,-0.2766073942184448,-0.0204299688339233,-0.1281495690345764,0.0031087696552276,0.0169039610773324,0.0193183291703462,-0.0221264916121959,-0.0337220355868339,0.0068699953673407,-0.0104430680811405
130,0.010972,-0.088921,0.802721,0.021437,-0.096053,-0.702284,0.705062,0.1457251064911484,-0.1789598520949482,-0.0919721812546253,4.3493885104522105,-4.447086668138206,7.581334249430895,-0.0869954973459243,-0.030683921650052,-0.0114810690283775,-0.7024182733477502,0.0228076275417344,0.3360645069452217,-0.6270160119620464,-0.7886812686920166,-0.1945869028568267,-0.0468266680836677,0.1149336099624633,-0.0028079152107238,-0.1492802202701568,0.0099845435470342,0.0052971504628658,-0.0024415479332208,-0.0324325859546661,0.0205109827069565,-0.0046937107741832
131,0.011396,-0.096044,0.80553,0.038357,-0.091461,-0.703057,0.704183,0.134405255575478,-0.1451230489447713,0.1836614539146423,4.353375826522708,-4.467605724553764,7.566967870426177,-0.0545594394207,0.0225234273821115,0.0194186456501483,-0.7024042340465098,0.0236510635672668,0.3370944165685557,-0.6264473077928887,-0.9947358965873718,-0.078085646033287,-0.3378424644470215,0.0560210049152374,0.0312209725379943,-0.2331402003765106,0.0058123562484979,0.0053845583461225,-0.0159171155780553,-0.0229375325143337,0.02678027223479,-0.0032309447452425
132,0.011804,-0.098466,0.804839,0.035016,-0.095052,-0.704441,0.702497,0.2166676514595747,0.1132955397903919,0.1338613579571247,4.344436148741841,-4.482414294368028,7.563347341841458,-0.0373069606721401,-0.0036648395471274,-0.0341329239308834,-0.7024577082261587,0.0246428633986294,0.3372971046816755,-0.6262400486370772,-0.1999338567256927,-0.1309212744235992,0.0047992425970733,-0.0704831853508949,0.0047463178634643,0.1492642015218734,0.006185099016875,0.0084893871098756,-0.0381236866891384,0.0048491694033145,0.0029641470352187,0.0175473471283912
133,0.012025,-0.100147,0.803536,0.029187,-0.100427,-0.705302,0.70115,0.0033285599008202,0.155396021156013,0.147087334755063,4.347085494206845,-4.478426393775641,7.564187299796939,0.0450835116207599,0.0030966675840318,0.0190642308443784,-0.702596272649751,0.0244509930310104,0.3372475899130908,-0.626118701717725,0.9179424047470092,-0.0537798814475536,0.1886657476425171,-0.0121281817555427,0.0138884186744689,0.0924348831176757,0.0058008469641208,0.0205517411231994,-0.0147995097249746,0.0149208148941397,0.0196640104888007,-0.033333237542212
134,0.011957,-0.101962,0.801877,0.025302,-0.103988,-0.70513,0.700955,0.2998532996684313,0.0341793329775333,-0.0549731146812438,4.344598938088119,-4.470635301508009,7.570222488307952,0.0089970622211694,0.029985211789608,0.012756161391735,-0.7025095602875885,0.0241090164910411,0.3368157317218692,-0.6264616647926475,0.8557226657867432,0.1100818663835525,0.0652768388390541,-0.0374437123537063,0.0232989788055419,-0.0084777772426605,-0.0083613153547048,0.0182256046682596,-0.0237105459332466,0.0247427485883235,0.0166727927835658,0.019601064787805
135,0.011879,-0.104048,0.800815,0.020481,-0.107265,-0.70501,0.700739,0.3760176709383726,0.0859855080604553,-0.0300350727796554,4.340110686758161,-4.468571646976471,7.574014866328239,0.0109568890184164,-0.0248217619955539,-0.0535102896392345,-0.7028364002586605,0.0243191376112292,0.3365134505406089,-0.6262494706622023,0.5949060320854187,0.3736379444599151,0.0180331543087959,-0.0420854166150093,-0.0375084280967712,0.1409649550914764,-0.0225234776735305,0.0158994682133197,-0.0326133988350629,0.0345646813511848,0.01368679924272,0.0725341980740428
136,0.011174,-0.105105,0.799503,0.021041,-0.106884,-0.705013,0.700778,-0.0060825347840785,0.0699699005439877,-0.1953840404123067,4.366970928893983,-4.447169085724652,7.571171167334914,0.031980313360691,-0.0369232147932052,-0.0507101230323314,-0.7033325666025985,0.0227856807506906,0.3368360123364773,-0.6255762542493732,-0.1739470064640045,0.4681551158428192,0.1452158689498901,-0.0234324634075164,-0.031147301197052,0.0731870532035827,-0.0242073033004999,0.0160726998001337,-0.0065519058614969,0.0372592024505138,0.0545544508777558,0.10803045886904
137,0.010762,-0.106125,0.79923,0.022929,-0.105152,-0.705255,0.700737,-0.021977146269381,0.1250958676993847,-0.1405722537726163,4.300564858311414,-4.479699774712324,7.589981081745028,-0.0101612620055675,-0.0296150762587785,-0.0486271381378173,-0.7055041102441447,0.0274389061844885,0.3350608342767018,-0.6238952477022595,0.5216184854507446,-0.3432285785675049,0.4470713436603546,0.1234151646494865,-0.1105639338493347,0.0735127329826355,-0.0177933722734451,0.0253952220082283,-0.0924094675601925,0.0183159969747066,0.0631100658110575,0.0900751611274201
138,0.010121,-0.109932,0.800583,0.028585,-0.102538,-0.712669,0.693377,-0.0545426143094897,-0.023700316800177,-0.1121264960110187,4.313827075466514,-4.4796433683499695,7.582484588509797,0.0042057777754962,-0.0268634334206581,0.0275250021368265,-0.7055007996493836,0.0270468536126875,0.3356625410917437,-0.6235926015359721,-0.271418422460556,-0.1199240684509277,-0.1109093129634857,-0.023885354399681,0.0361154675483703,-0.0335137844085693,-0.0431607812643051,0.0376342870295047,-0.0788832931061275,0.0487647764384746,0.063046357491659,0.0907598189233336
139,0.010853,-0.111831,0.801705,0.033704,-0.099749,-0.719818,0.686132,0.4707309675946831,-0.0036021161451935,-0.3459726612865925,4.314230687831342,-4.487920198307931,7.577359500581026,-0.0498447567224502,0.0272955168038606,0.0151428803801536,-0.7050504045089029,0.0271855436426414,0.336040379270098,-0.6238924988109464,0.2205976396799087,0.2658776044845581,-0.1764292120933532,-0.1009367406368255,0.1194504499435424,0.0997472405433654,-0.0619528591632843,0.0364000499248504,-0.0229974292278289,0.0328487120568752,0.0650546925062313,0.0647401831969618
140,0.011142,-0.113036,0.802238,0.035035,-0.096656,-0.723369,0.682764,0.3459165471851825,0.0709919370681047,-0.0436480030685663,4.294196200062334,-4.515228768733143,7.572514398637414,-0.120329312980175,0.0941914767026901,-0.0238468740135431,-0.7055272841981254,0.0293263554771204,0.3362278646414726,-0.6231549488759288,-0.1520073562860489,0.3667138218879699,0.0415784269571304,-0.0518289804458618,-0.0140007734298706,0.0907702594995498,-0.0524924546480178,0.022717460989952,0.0212894562661647,0.0310639068484306,0.0910713964900001,0.0675347823515534
141,0.008673,-0.115235,0.80084,0.033793,-0.098381,-0.723435,0.682511,0.0294730549827218,0.0260062556549906,0.2925356701314449,4.277845369242131,-4.535634720163047,7.5695730844885105,-0.0283855311572551,0.0376448184251785,-0.030889855697751,-0.7063157351591883,0.031201775404996,0.3362820544970777,-0.6221405638859738,1.160213828086853,0.3287372589111328,0.1442161798477172,0.057430125772953,0.0261067152023315,-0.1263433396816253,-0.0304624009877443,0.0067569017410278,-0.0117202484101057,0.0453792475163936,0.0765531879244372,0.0688122549414634
142,0.008362,-0.115468,0.800843,0.033227,-0.098778,-0.723766,0.682131,0.0536234536379575,0.0919020386278629,-0.25298808811903,4.289906978435814,-4.523569019316136,7.569967052242159,0.0356087237596511,-0.0954513028264045,-0.025670563802123,-0.7064078745688308,0.0303246368111821,0.3363324448832877,-0.6220520108963072,-0.2949841916561126,-0.2489057630300521,-0.1202464923262596,0.1829701662063598,-0.176437497138977,-0.0653336346149444,-0.0377139709889888,0.0016496246680617,-0.0196884508103132,0.0418358817696571,0.0626835429280996,0.0102782329082489
143,0.007843,-0.115094,0.801752,0.033719,-0.098896,-0.724099,0.681736,0.1488403159022331,0.0461596936285495,-0.2439619010984897,4.302130207931995,-4.528553821991384,7.56004362412095,-0.0875767916440963,0.069820299744606,0.0027933828532695,-0.7065273777425797,0.0302724589673556,0.3370884515920892,-0.6215094953249247,0.8422878384590149,-0.2728727757930755,0.0871705487370491,0.0402722731232643,0.1282235383987426,-0.013025939464569,-0.0449655391275882,-0.0034576524049043,-0.0276116450250148,0.0382925160229206,0.0488406398082152,-0.048282969392836
144,0.006998,-0.115586,0.801911,0.03289,-0.100632,-0.724114,0.681507,0.185760179759562,0.1717743245050311,0.2277642150133848,4.266706135590375,-4.555108359178901,7.564164503443241,-0.0532956719398498,0.1062601879239082,-0.0038125216960906,-0.7071456539660715,0.0329061664659351,0.3365295173715488,-0.6209750678607046,1.01069438457489,0.3303009867668152,0.3043025732040405,0.0120343789458274,0.0673050880432128,0.1166583895683288,-0.0406005531549453,0.0056810788810253,-0.0497229390680789,0.0478778518736362,0.0099886753771454,0.0061754737645387
145,0.006579,-0.117719,0.801796,0.03181,-0.102612,-0.724029,0.681352,0.1022477838143706,0.0736515116661787,0.2811006684035063,4.254600687254965,-4.557093395516276,7.569785850456356,0.0228152424097061,0.0022347595077008,-0.0130757391452789,-0.707550623172169,0.0335715613188111,0.3360376223817385,-0.6207445622783923,0.5780929327011108,-0.4930777847766876,-0.0067856414243578,0.019897274672985,-0.0450026392936706,0.0244991183280944,-0.0265738293528556,0.0124458651989698,-0.0133820441424846,0.0441168844699859,0.0090440880034118,-0.0059451721400022
146,0.006144,-0.118601,0.801629,0.029821,-0.103919,-0.724316,0.680939,0.2778717694848776,-0.0094207392960786,0.2400625555723905,4.255848641489446,-4.537916401359438,7.580597167327999,0.0961719378829002,-0.0106914108619093,-0.0032699173316359,-0.7076747856421944,0.0326841263802002,0.3353041164874581,-0.6210469946598995,0.9109111428260804,-0.3293564021587372,0.126991868019104,-0.031003288924694,-0.0531950592994689,0.0478911399841308,-0.0153192151337862,0.0137195559218525,-0.0279687878996133,0.0476537942886352,-0.0264697815135121,0.0051011225312948
147,0.005673,-0.119597,0.80175,0.029309,-0.105758,-0.725146,0.679794,0.2919730678126215,0.2434206338286399,-0.1847457420200109,4.285890436270833,-4.500760098397731,7.585821623978019,0.0835248529911041,-0.1417663395404815,-0.0757952481508255,-0.7077560832937099,0.0300807814356113,0.3351505384488272,-0.6211687484566207,-0.104423314332962,0.0644843876361846,-0.025552736595273,-0.0619343966245651,-0.01919686794281,0.0086815357208251,-0.0191237814724445,0.002010085619986,-0.0098597152352333,0.0613095313310623,-0.0368123483622446,-0.0041878070786595
148,0.004138,-0.122638,0.799131,0.023385,-0.11024,-0.724323,0.680189,0.0167404146596789,0.2449322074353694,-0.1670674619883299,4.329184511335193,-4.479975669044256,7.573530297681689,0.0059373038820922,-0.056707639247179,-0.002518864814192,-0.7075787965458249,0.0277380245387602,0.3362856222345088,-0.6208661262682832,-0.4434916377067566,0.3704840838909149,-0.2949041128158569,-0.0616842433810234,0.103420078754425,0.1301329433917999,-0.0324523448944091,-0.0011928849853575,0.0018283844709396,0.0854211449623107,-0.0625448285771533,0.0014081132322549
149,0.003393,-0.123763,0.798414,0.02017,-0.112988,-0.722873,0.681382,0.2032946674063801,0.1642974127531051,-0.0151426240742206,4.330126176099479,-4.487477422976494,7.568549586659669,-0.025205623358488,0.0279451049864292,0.0515026040375232,-0.7071150812503847,0.0278173336576652,0.3366564332685764,-0.6211900327175229,0.4101609289646148,0.2631442248821258,-0.183750495314598,0.0119167268276214,0.0733841657638549,-0.0230188369750976,-0.0343327075242996,-0.0208254139870405,0.0455517908632755,0.1141000911593437,-0.037495910179615,0.0190288178578019
150,0.002763,-0.12465,0.797499,0.017762,-0.115337,-0.721721,0.682277,0.4837561611235141,0.1119265895247459,-0.1061135193318128,4.324848235696554,-4.502144246232509,7.562854589888453,-0.0215256810188293,-0.0397761277854442,0.0317483358085155,-0.7062746744281354,0.0282147152260205,0.3370543738062354,-0.6219119275024922,-0.8358655571937561,-0.131201222538948,-0.5290687084197998,0.1520803123712539,-0.198557436466217,-0.1353037357330322,-0.0187604241073131,-0.0560671091079711,0.0583458059847354,0.1441554129123687,0.0007630567943677,0.0542234653577208
151,0.002337,-0.125351,0.797194,0.017185,-0.117813,-0.720835,0.682804,0.4181006166473031,0.0559282234489917,0.1474579216331243,4.324663234518468,-4.508993673735857,7.558878671994805,-0.0127547420561313,0.0172755047678947,-0.0032665277831256,-0.7062455517191377,0.0285311902007362,0.3373283428178909,-0.6217819509084257,0.4189547002315521,-0.2995778918266296,-0.0196513067930936,0.160730555653572,0.0272691845893859,0.0225842595100402,-0.0038919989019632,-0.0733204036951065,0.0185030404180288,0.1889951527118683,-0.0545136439433321,0.0630041531845927
152,0.000796,-0.125636,0.797271,0.018325,-0.117389,-0.720624,0.68307,0.409793976072967,0.237417009499669,0.3276058144688606,4.333718063111603,-4.492212634804845,7.563682857406139,0.0842804685235023,-0.0558647625148296,-0.0819767713546752,-0.7067573632783677,0.0277452378718985,0.3370307147215001,-0.6213972271660353,1.0255959033966064,0.0794314891099929,0.3692131638526916,-0.0139876753091812,0.055679440498352,0.0449088811874389,0.0135907270014286,-0.1128757745027542,0.0721878688544035,0.2279686778783798,0.0070590151334181,0.1064782609909772
153,0.000504,-0.12567,0.797327,0.018752,-0.117102,-0.720437,0.683306,-0.0044505496680736,0.162341310249269,0.1960702691107988,4.372521841019392,-4.444520617042482,7.569522815605998,0.1369639933109283,-0.0698544532060623,-0.0775902643799781,-0.7073330974233442,0.0246602207924881,0.3368287467485973,-0.6209817289293714,2.349730968475342,0.0429706834256649,0.3652128875255584,-0.0062377750873565,0.0192266106605529,0.0566932559013366,0.0377300903201103,-0.1418487131595611,-0.0061135144442319,0.2524852454662323,-0.0339448666345328,0.1332245213583111
154,-0.001351,-0.127452,0.796014,0.017595,-0.120368,-0.719289,0.683978,0.0229866155728697,0.3681245796009898,0.1473445243865251,4.411673409451544,-4.376317433910072,7.586525388333201,0.209765613079071,-0.1161360740661621,-0.0374001897871494,-0.7075241816936382,0.0203909943114647,0.3358259322483875,-0.6214617475736627,3.514265298843384,0.0496889874339103,0.484965056180954,-0.0382202118635177,0.0748879313468933,-0.0943546295166015,0.0580106601119041,-0.1575793623924255,-0.0014168810606002,0.2516743540763855,-0.0289659091781824,0.0926549028217792
155,-0.00142,-0.127683,0.795983,0.018034,-0.121063,-0.719291,0.683841,0.2442924482271075,0.3078685560807585,-0.2074117473363876,4.439813462264835,-4.327134593068063,7.598312272238731,0.0832951888442039,-0.019364396110177,-0.0209538713097572,-0.707406728142536,0.0171865263898943,0.3351097067706946,-0.6220786519704751,4.373020172119141,-0.0812351033091545,0.8613176345825195,-0.0855754092335701,0.0812812447547912,0.1785101890563964,0.0717481449246406,-0.1728245615959167,0.0113239425688982,0.263853907585144,-0.0280691064689308,0.0771697489202022
156,-0.00142,-0.12768,0.796084,0.018797,-0.121498,-0.719085,0.68396,0.3685831370234489,0.3347811129257083,-0.2397381459236144,4.456331758606433,-4.307210579936206,7.599962962055206,0.0241177212446928,-0.1052485555410385,-0.038128837943077,-0.7075332653602119,0.0158356870141896,0.3350507015465022,-0.6220024062013532,4.390971660614014,-0.2044438570737838,0.5576769113540649,-0.0695246681571006,0.1437216997146606,0.0140398144721984,0.0800690054893493,-0.1963808983564376,0.0328121362775564,0.3244940936565399,-0.0205555433678906,0.1170750583291053
157,-0.000793,-0.127567,0.795925,0.019147,-0.122262,-0.718974,0.683931,0.5138260129556059,0.3325549613088369,-0.0054366380959749,4.504570596596598,-4.2832869757741685,7.585030181339382,0.1010412573814392,-0.1278331279754638,-0.0640936717391014,-0.707203040759918,0.0131307323142899,0.3363014660881959,-0.6217658545669424,3.295130729675293,-0.2990074455738067,0.4402630925178528,-0.0272181928157806,-0.1304526925086975,0.0381112694740295,0.0713396072387695,-0.2378259003162384,0.0651478872150182,0.4355175793170929,-0.0107201542897382,0.1731622717320919
158,-0.000572,-0.128009,0.795317,0.018708,-0.124997,-0.718528,0.683918,0.3914376506492495,0.4430298907205462,-0.0296159705847501,4.568898984122276,-4.220631489896774,7.581676194736361,0.1826460063457489,-0.2150898575782776,-0.1436689645051956,-0.7074518431363431,0.0084556942151645,0.3367055014050941,-0.6213451064188216,3.653732299804688,-0.274068683385849,0.5879368185997009,-0.0247464999556541,0.0624900162220001,0.0758963823318481,0.0626102089881897,-0.2792709171772003,0.1009521910458803,0.5465410351753235,-0.0018616337199928,0.2285802075713872
159,-0.000369,-0.128814,0.794551,0.018233,-0.126288,-0.718289,0.683944,1.6420473680749534,0.8515507781177759,-0.0124924018263816,4.731467088864743,-4.087015046611428,7.555125456941127,0.2712324261665344,-0.5158973932266235,-0.5736491680145264,-0.7092886981386045,-0.0014917677038103,0.3388120273036094,-0.6181535864052895,3.153333902359009,-0.2531428337097168,0.546340823173523,0.0445852652192115,-0.1403870284557342,-0.0532480478286743,0.0587668716907501,-0.2988751828670501,0.076330960008502,0.6489468812942505,0.0245019611724186,0.2664429052367806
160,-0.00021,-0.129373,0.794004,0.017818,-0.127643,-0.717947,0.684063,0.7341700148403644,0.3803393335297703,-0.340130364999175,5.016103237918019,-3.9090930131316175,7.465124283498525,0.0306659024208784,-0.5425529479980469,-0.7209814190864563,-0.7135748991812171,-0.01549468859232,0.3451731626075308,-0.6094474366887151,2.4733564853668213,-0.4313654005527496,0.3276443779468536,0.0320579633116722,-0.068442054092884,0.1390314698219299,0.0559392347931861,-0.2812420129776001,0.0109428342968225,0.6845521926879883,0.0486620501046068,0.3168354141294956
161,-0.001196,-0.131297,0.792938,0.015959,-0.130291,-0.715903,0.68575,0.3934259018570184,0.3038181116461754,0.5465513477325439,5.2354918387740845,-3.742639591388404,7.3995046871185295,0.146205723285675,-0.2372919470071792,-0.7092840671539307,-0.7198234014836487,-0.0257716929809733,0.3493795707426917,-0.5992696839203586,1.9844560623168943,-0.3600211143493652,0.3306888043880462,-0.013207584619522,0.0735049024224281,0.0439953804016113,0.0531115978956222,-0.2636088728904724,-0.0459469276607036,0.7201575040817261,0.07147621345371,0.3657223407648503
162,-0.00116,-0.131851,0.792659,0.013412,-0.128276,-0.716894,0.685149,0.1311515144765377,0.235949275034666,0.2080401083678007,5.428035687324404,-3.5216917783916,7.369159233215451,0.2968011796474457,-0.3696637749671936,-0.7294232845306396,-0.7260128174176023,-0.0377377054866725,0.3505043654505416,-0.5904473162129488,0.7018428444862366,-0.1294131726026535,0.0669492334127426,-0.0347901135683059,-0.0099026262760162,-0.1577304005622863,0.039103016257286,-0.1996847987174987,-0.1736176142841577,0.7000827789306641,0.0351898617269471,0.3621358605802059
163,-0.000935,-0.131621,0.793506,0.018933,-0.130167,-0.716058,0.685535,-0.0912146408855915,0.0123243517830967,-0.0028700024783611,5.643368875309824,-3.2802599802926182,7.318652450293302,0.2286633998155594,-0.4172509908676147,-0.7380589246749878,-0.7316684647126858,-0.0513823136762178,0.3524378369752153,-0.5812132242553316,1.027879238128662,-0.315722107887268,0.0089136930182576,-0.0093149244785308,-0.1044611558318138,0.1514362096786499,0.0264395847916603,-0.156426653265953,-0.1773515401154756,0.635961651802063,0.1231464871972799,0.3055032882541418
164,-0.00111,-0.134283,0.790894,0.013522,-0.138485,-0.714075,0.686102,-0.0249754513025283,-0.1644490961834788,0.1852840866804122,5.8831380008935925,-3.026273528786003,7.238835401734709,0.3459930121898651,-0.5928430557250977,-0.7847388386726379,-0.7365461635092223,-0.0664718660225393,0.3556734389500582,-0.571469719445259,-0.3763599991798401,-0.0611514560878276,0.0510508269071579,-0.0243568122386932,-0.0756378173828125,0.047231376171112,-0.0107428506016731,-0.0983391925692558,-0.1959738229990005,0.5796263217926025,0.1050064348727464,0.2564005269110203
165,-0.00119,-0.134919,0.790608,0.013128,-0.140117,-0.713445,0.686434,0.3560229306578636,-0.1921381903588771,-0.1520505101203918,6.172516083776951,-2.6924258973181248,7.128903785419464,0.4693696498870849,-0.760770320892334,-0.9968698024749756,-0.7411335394022099,-0.0864709908907537,0.359235044937195,-0.5605301418023079,-0.5721920728683472,0.1319658607244491,0.1400953531265258,0.013902261853218,-0.0503415763378143,-0.0437933802604675,-0.0675625950098037,-0.0434420071542263,-0.1809504413902759,0.5719819068908691,0.206286908024922,0.2961775337651371
166,-0.001679,-0.134831,0.790511,0.012623,-0.140014,-0.7135,0.686407,0.8031038503348827,-0.4447961697407067,-0.8086188143640756,6.51761722292602,-2.2768127135723826,6.964709833040833,0.2458909451961517,-0.7515605688095093,-1.4080567359924316,-0.7475809898985647,-0.1100213503889941,0.3644089935509205,-0.5442648571761121,-1.9601938724517824,0.3033601939678192,0.1195424050092697,0.0462392419576644,-0.2064724862575531,-0.0456509590148925,-0.1487834155559539,0.0325422771275043,-0.2884381716847419,0.6149875521659851,0.1513289178475737,0.2917086812553927
167,-0.001952,-0.134817,0.790511,0.013382,-0.13988,-0.713356,0.68657,0.3334358357965946,-0.3804616447351873,-0.4429559487015008,6.805923292663693,-1.8521312572300432,6.813178378358483,-0.0628634318709373,-0.3820464611053467,-1.6145883798599243,-0.7596441727435203,-0.1282546694096438,0.3690194119426353,-0.5199193372468305,-2.5200514793396,0.6753905415534973,0.1229413300752639,-0.029006503522396,-0.0961248874664306,-0.041444182395935,-0.2481994926929474,0.1154638826847076,-0.2534709031999111,0.6107348799705505,0.1610244920296594,0.1752816385062411
168,-0.001565,-0.13441,0.791447,0.014738,-0.139773,-0.715298,0.68454,-0.1971703393071889,-0.413016737511754,0.0147246909230947,6.942832932275533,-1.420941588037461,6.778523244562745,0.2267919927835464,0.1717427521944046,-1.369495511054993,-0.7738639517138307,-0.1416394194116519,0.3665102733648137,-0.4967323270706181,-1.8807964324951167,0.5921134948730469,-0.1903262436389923,-0.0378307476639747,0.0299077481031417,0.0715686678886413,-0.3169784843921661,0.1666491478681564,-0.1224567513674497,0.5599666237831116,0.2299767399637028,0.2145123183229006
169,-0.002366,-0.134476,0.791143,0.013618,-0.139612,-0.714299,0.685638,-0.3742342946529388,0.0126021458111703,-0.2542974171519279,6.855337604174018,-1.0120316282574089,6.939057505390047,0.3228475153446197,0.7927382588386536,-0.9184001088142396,-0.7879940045826465,-0.1499249769308576,0.3517513737900253,-0.482554583333437,-2.3063809871673584,0.577164351940155,-0.442167729139328,-0.0300003662705421,0.0640107691287994,-0.0899632573127746,-0.3068619072437286,0.1850023120641708,-0.0491986229330301,0.4690805077552795,0.2072986423507332,0.3276225098753347
170,-0.002751,-0.134641,0.790745,0.012926,-0.140098,-0.714049,0.685813,-0.5069014743894338,0.2030769330024719,-0.5708627821683884,6.655061700066923,-0.7827730099678039,7.160154079207778,-0.0317611657083034,0.653739333152771,-0.450287252664566,-0.799408658910129,-0.1495926529778194,0.3354933186190093,-0.4754073146048864,0.0970645323395729,0.2419802397489547,-0.0765653848648071,-0.0152516476809978,-0.0463317334651947,0.0609934329986572,-0.2194590270519256,0.1360444873571396,0.0832195504784584,0.3296380639076233,0.2813893856843933,0.3635323564399033
171,-0.002402,-0.134725,0.791553,0.014185,-0.138126,-0.715665,0.684502,-0.1614402697563171,-0.0595146305684,-0.5345733251690864,6.533907263469696,-0.7405975636698305,7.275297877213358,-0.2591303884983063,0.2479541301727295,-0.2890145480632782,-0.806022405714811,-0.1449795674113706,0.3287004091703433,-0.4703880543934511,-2.074545383453369,0.0695260763168335,-0.2686520516872406,0.1123823970556259,-0.1748859882354736,-0.0458556413650512,-0.1262271106243133,0.1004881188273429,-0.0275935248464345,0.1887189149856567,0.1845759018784389,0.3909762436825781
172,-0.002818,-0.1347,0.791537,0.013301,-0.136569,-0.715662,0.684836,-0.0160188223868608,-0.0833009451515972,-0.2416045243173837,6.513582852843403,-0.7471877557151019,7.292827688685059,-0.3160173892974853,0.0039513148367404,-0.3280919194221496,-0.8105117543814586,-0.1411696669702711,0.3289990860028995,-0.4635746853536169,0.068990021944046,-0.0964926183223724,-0.0869972556829452,-0.0074812993407249,0.3041098117828369,-0.0786617398262023,-0.0759354010224342,0.0983111634850502,0.0842722744017839,0.0745964497327804,0.225634947899729,0.4530143283139914
173,-0.003766,-0.134887,0.79181,0.014017,-0.138573,-0.71465,0.685475,0.0125169517457485,0.0210243755891919,-0.1084890162914991,6.511681987658143,-0.7529019686434417,7.293936526709794,-0.243188202381134,0.1365628987550735,-0.2450979650020599,-0.8142064091437851,-0.1382161567348845,0.3301651320680343,-0.4571160967158154,-0.2914842665195465,-0.0365377776324749,-0.2164499163627624,-0.0545114278793334,-0.1177192628383636,0.1134065985679626,-0.0256436914205551,0.0961342006921768,0.1963409027457237,-0.0395260229706764,0.2667648672001436,0.5151303004872053
174,-0.004507,-0.134907,0.791194,0.014607,-0.141623,-0.713996,0.685521,-0.0842436328291893,0.273510651665926,-0.5608627816796302,6.459403518888354,-0.782278504449129,7.337201667940616,-0.3291181921958923,0.2059636265039444,-0.1200416609644889,-0.8178693689894143,-0.1333493921244285,0.3288232900472307,-0.4529712145034621,0.4991179704666137,-0.1140272989869117,-0.0230332557111978,-0.0262083038687706,0.0356553494930267,-0.0106422901153564,-0.0339094996452331,0.0846488177776336,0.1692874761253595,-0.1082964688539505,0.2559168898462318,0.5811057245675474
175,-0.005528,-0.134979,0.792082,0.015827,-0.139589,-0.714504,0.685382,0.3884755859732627,0.3567280832525342,-0.4829080198615789,6.40941111522913,-0.8843501279789954,7.369380182489753,-0.4883795976638794,0.1512735784053802,-0.0863383188843727,-0.820921627699238,-0.1253734239302168,0.3294657530008341,-0.4492456692393865,1.6397371292114258,-0.3012388944625854,0.0345565415918827,0.031384602189064,0.0449570715427398,-0.0728170275688171,-0.0421753078699111,0.0731634348630905,0.1424269417285919,-0.1770669221878051,0.2450445452360436,0.6471041641972959
176,-0.006359,-0.134656,0.792137,0.016271,-0.137794,-0.71426,0.685989,0.5384089578092098,0.4229395811110735,-0.4112362838357686,6.41465135397017,-0.9749526283156126,7.353373050540685,-0.3597952425479889,-0.2204076647758484,-0.233297049999237,-0.8233748832629095,-0.1191236546662201,0.3330043056057588,-0.4438146111019292,1.3404414653778076,-0.1559077501296997,0.0864059552550315,-0.0973722040653228,-0.0902514457702636,0.1007897853851318,-0.0514669045805931,0.0254944264888763,0.1637619907021522,-0.2100871056318283,0.3436689143888652,0.7112862751200795
177,-0.006818,-0.134587,0.791761,0.016404,-0.137644,-0.714172,0.686108,0.5814560723751783,0.551892051173374,-0.4177864361315965,6.5582023312926285,-0.9767131351821124,7.225399581578373,-0.2065264880657196,-0.6076084971427917,-0.3588443100452423,-0.8235206027630434,-0.1207056956474078,0.3421071222408767,-0.4361269582292029,0.9290560483932496,-0.0889595448970794,0.0628533586859703,-0.0951306596398353,-0.0230879932641983,0.0325883030891418,-0.0264906082302331,-0.0402030348777771,0.1193669686585664,-0.2015855461359024,0.4000832773869857,0.8139815835062414
178,-0.006427,-0.135573,0.790453,0.012422,-0.136976,-0.713706,0.68681,0.0997328783839941,0.6142391286887228,-0.2710883929550647,6.758308139529824,-0.9199486801046878,7.046229593864083,-0.0877566188573837,-0.6972607374191284,-0.37203249335289,-0.8226907680049967,-0.1263774682566169,0.3532293826292644,-0.4271272812483844,0.3053415715694427,-0.1062495335936546,0.1389951258897781,-0.0943207219243049,-0.1224504113197326,0.0164783000946044,0.0260166805237531,-0.0655810832977294,0.0007405892342329,-0.1705929487943649,0.400079222266376,0.7622391943745315
179,-0.004859,-0.135487,0.790542,0.015305,-0.136914,-0.717774,0.682511,0.6771510735452174,0.9730639650247992,-0.4606020800292492,7.1131316312700505,-0.7131434472940862,6.713059131005406,0.5606809258460999,-1.3952536582946775,-0.6403537392616272,-0.817640957264118,-0.1441767693353761,0.370057159417117,-0.4168140636914181,-0.6991140842437744,-0.0737231224775314,0.4142833054065704,-0.0494984835386276,-0.1710236668586731,0.02381432056427,0.0690464675426483,-0.0730243697762489,-0.0723883598625659,-0.1632752865552902,0.4326279949000105,0.6388277726307511
180,-0.005959,-0.135076,0.790773,0.018523,-0.135497,-0.716428,0.684126,1.363693660292029,0.5045934166427701,-2.112227131527662,7.456994168534875,-0.2347966526671312,6.364629139694571,0.4499112665653229,-0.9831002354621888,-1.5215702056884766,-0.8148649177510532,-0.1729075491131799,0.3815720317233324,-0.4006257824430429,-1.1574782133102417,-0.0224721319973468,0.5494658946990967,-0.0767418220639228,-0.1010483503341674,0.1251171231269836,0.0952893048524856,-0.0860205292701721,-0.1021989762365817,-0.1421635150909423,0.472422537410818,0.5547247173160315
181,-0.007139,-0.135746,0.789518,0.016158,-0.135295,-0.714788,0.685939,-0.8712824835479259,1.063833054099977,-2.137962461286783,7.788579992550611,0.2754233716857619,5.952524256330729,-0.5223744511604309,-1.2671194076538086,-1.922695517539978,-0.8187978960158624,-0.1945934537545177,0.3982952637601271,-0.3647796999087777,-1.3070753812789917,0.0238597337156534,0.6011608242988586,-0.0587265342473983,-0.1248231828212738,0.2404257655143737,0.0954690426588058,-0.0898953378200531,-0.1229810675024986,-0.1045820266008377,0.5145902753263711,0.448382942186296
182,-0.005742,-0.136512,0.788883,0.016135,-0.138064,-0.715476,0.684669,-0.5838333229005337,1.6982829039074478,-2.032616419196129,7.976828774255513,0.737667793828249,5.656540491572022,-0.6282830238342285,-0.9947746396064758,-1.916670560836792,-0.8262438587757589,-0.2071489379613221,0.4107140480137443,-0.3251531065463888,-1.48741352558136,0.2340261787176132,0.8205595016479492,-0.0266206935048103,-0.0654124319553375,0.2516283988952636,0.0897554978728294,-0.1006077527999877,-0.1910340285092592,-0.061192650347948,0.584909573829919,0.4189014847014099
183,-0.00536,-0.136886,0.788194,0.016433,-0.139449,-0.715197,0.684674,-1.6612760924190282,1.170847394729033,-1.0368360338419675,8.161234324535727,1.220810499228537,5.298514988920092,-0.5365170240402222,-1.4388822317123413,-1.8184717893600464,-0.8307119328729513,-0.2200207899760545,0.4259598268522382,-0.2829606830332311,-1.482080578804016,0.587002694606781,1.495818018913269,0.1219148337841034,-0.152046263217926,0.0985499620437622,0.1150929108262062,-0.0472404658794403,-0.1886409958928823,0.0210152529180049,0.5058466315742581,0.475366335777752
184,-0.004675,-0.136795,0.788278,0.018902,-0.137843,-0.715483,0.684635,-1.88221952150166,1.3566060401186346,0.814468709436059,8.437243222758173,1.6163937252499163,4.729753562945128,0.035845935344696,-1.8923922777175903,-0.7722041606903076,-0.8236965536732055,-0.2368994681002595,0.4502536231440795,-0.2503480870225787,-1.9410227537155151,1.2201517820358276,2.394760131835937,0.0780602246522903,-0.363029420375824,0.2715465426445007,0.1956833451986313,-0.0552131086587905,0.0824707779377698,0.0755929499864578,0.5521536247190088,0.5360867984719574
185,-0.003608,-0.137231,0.787624,0.020761,-0.141702,-0.715407,0.683874,-1.6254560064971446,1.1817165062025188,1.681981611317396,8.696133228397368,1.7059902634143829,4.199674334324896,0.2055208086967468,-1.2595704793930054,0.2486501634120941,-0.8098566053972547,-0.2484973329019501,0.4734187023061947,-0.2413633210476128,-2.245023727416992,1.3235085010528564,3.384860038757324,0.1729100048542022,-0.2554717659950256,0.3106255531311035,0.3138400614261627,-0.0902307629585266,0.3539747659564018,0.1129777878522872,0.5089453647745773,0.5853138803144916
186,-0.002738,-0.137823,0.786051,0.019586,-0.145165,-0.715387,0.683203,-1.2198925076007845,0.2008550191693008,1.1555006994500756,8.949573736459016,1.626669473940134,3.664626377381384,0.3920478820800781,-1.6622096300125122,0.4370217323303222,-0.7924449792240967,-0.2568863091642508,0.4971573977474281,-0.2426418720370415,-2.380584478378296,1.8965599536895752,4.1512532234191895,0.1363898515701294,-0.2029855251312255,0.0759840607643127,0.3674021661281585,-0.0603439286351203,-0.2656687059938907,0.1402027457952499,0.0696142189741134,0.3487084429260343
187,-0.002744,-0.137816,0.784782,0.020665,-0.144186,-0.713207,0.685652,2.1515321369558573,0.5703109935045242,2.9569924872890114,9.368768870344756,1.3659997452773154,2.555507489877939,0.6221287250518799,1.1569727659225464,0.3314918875694275,-0.745905923960502,-0.2884685844971146,0.535248774042344,-0.2718807154394468,-3.1749367713928223,0.7288459539413452,3.863873243331909,0.3543527126312256,0.1698428392410278,0.0637311041355133,0.2000142186880111,0.1086796224117279,-0.1269432217322755,0.4747439622879028,-0.4806364216677844,0.7217321927454322
188,-0.002286,-0.137504,0.784726,0.020317,-0.14014,-0.714879,0.68476,1.0037655388891695,0.9515274021297692,1.908349988058209,9.225461054128408,1.4603316414006051,2.9880913899078965,0.7934760451316833,1.175123691558838,-0.2956638634204864,-0.7553291229492737,-0.2924664343123816,0.5119698491777032,-0.2860563403618341,-5.295971870422363,0.8578301072120667,3.3241384029388428,0.4214738011360168,0.1543324887752533,-0.1030095219612121,0.0089041274040937,0.3305615782737732,0.0291204170365934,0.4517232179641723,-0.9357945570774376,0.0074016870954917
189,-0.002523,-0.136401,0.782743,0.022686,-0.137972,-0.714945,0.685057,0.395467052295804,0.9961058179162442,1.9745327712789176,9.065221976855396,1.635870286875218,3.363938672715425,0.7127113342285156,1.0946775674819946,-0.0083008706569671,-0.7634754556140538,-0.2997253504406725,0.4885197816895086,-0.2976886085873799,-7.887689590454102,-0.1006921529769897,1.8725236654281616,0.4255032539367676,0.2023405730724334,-0.0280586928129196,-0.28543621301651,0.2570970058441162,0.0234217921197414,0.3866670727729797,-0.8067766205634921,0.0230984784495085
190,-0.002158,-0.136414,0.78101,0.020989,-0.138461,-0.715442,0.684493,-0.9673574239462612,0.6577788490772247,0.416108858308196,8.951421410152316,1.6054899077892302,3.66944634488374,0.339070975780487,0.9156530499458312,0.5918459296226501,-0.7676134156978094,-0.2992425921553238,0.4726141848440088,-0.3128247701127334,-5.499824047088623,-0.6777968406677246,1.4506373405456543,0.2282695174217224,0.3392008244991302,-0.1784847378730774,-0.5115042924880981,0.0767130702733993,0.0256909060955047,0.4815270900726318,-0.6269251533910631,0.4236019905425608
191,-0.002484,-0.136123,0.775293,0.016853,-0.137769,-0.714448,0.685784,-1.5127204386770725,0.2474288465566933,-1.2595657618194818,8.841223251855373,1.3294525141246616,4.029358391934633,-0.2088136076927185,1.149821162223816,0.9942581057548524,-0.7714057067544345,-0.2864137143127333,0.4610066012506444,-0.3322250822881761,-1.6646790504455566,-0.6396922469139099,1.6598604917526243,0.0106119513511657,0.243798166513443,-0.1504638791084289,-0.2547898888587951,-0.1603099703788757,-0.0294955590754747,0.611638069152832,-0.6414189581677318,1.1755405940465629
192,-0.001889,-0.135198,0.775093,0.022351,-0.135438,-0.714803,0.685721,-1.613301458323002,0.1542456090118736,-1.854157210099697,8.684426423990725,0.8800493620451539,4.469522956351936,-0.7276254892349243,1.174214482307434,1.0319784879684448,-0.777980650296066,-0.2609805249017758,0.4516712426303428,-0.3501833891865814,0.9974529147148132,-0.5624462366104126,2.349247455596924,-0.0229397416114807,0.3419249057769775,-0.0040422081947326,0.20123291015625,-0.1721800714731216,-0.211493463692069,0.6821568012237549,-0.8824133877627551,1.0648848281752317
193,-0.000886,-0.134467,0.774197,0.022776,-0.130483,-0.717997,0.683327,-1.512883520284295,-0.4731096794247627,-2.3212638497173783,8.523105981221795,0.4032288454037159,4.833679216843843,-0.6942429542541504,0.8051716685295105,0.9302324056625366,-0.7835690626209255,-0.2334679322173835,0.4461430999804265,-0.3639623662139793,1.165580153465271,-0.2379196286201477,2.385673999786377,-0.1054632663726806,0.2719602584838867,-0.0044479370117187,0.6572557091712952,-0.1840501725673675,-0.3851835586905479,0.7526755332946777,-1.1266741987425832,0.9565773789957164
194,-0.002053,-0.13206,0.769259,0.026347,-0.122615,-0.715798,0.686953,-1.6178431934058666,-0.9690709498658776,-3.220402892962098,8.439820964291691,0.0262043606265331,4.99390718820095,-0.5093622207641602,0.0212330594658851,0.5468400716781616,-0.7847551716232757,-0.2138189891663974,0.4468366967889999,-0.3725287295070931,0.6787154078483582,0.0951801985502243,1.9687434434890747,-0.1218047142028808,0.3143397569656372,-0.0245390534400939,0.7126513123512268,-0.1533178985118866,0.0775134477913379,0.6916308403015137,-1.0816330608151852,0.3518468140169978
195,-0.003754,-0.1313,0.767548,0.026428,-0.116908,-0.713382,0.690449,-2.9413948129236696,-2.1037403120808302,-4.363370566314458,8.552056765896081,-0.2069636017100885,4.794776070214808,-0.3242891430854797,-1.2640949487686155,0.5365873575210571,-0.777835712014705,-0.2076827605370192,0.4608712742957153,-0.373412891105133,0.293894499540329,0.3151324689388275,1.7143112421035769,-0.0468222498893737,0.4822604358196258,0.0134580209851264,0.4819541573524475,-0.1544652432203292,0.477794037848711,0.5130836963653564,-0.9969244408227502,0.0283268075570464
196,-0.005934,-0.130481,0.764807,0.027299,-0.111124,-0.711444,0.693364,-3.645665364062786,-4.480611044338345,-5.415270313775539,8.991468173858523,-0.6666234689857811,3.8573932210326194,-0.3570305109024048,-3.016136646270752,1.3941644430160522,-0.7449212747737446,-0.2114200400668951,0.5085560454451636,-0.3765162654096303,0.1220694854855537,0.4956876039505005,1.0256448984146118,0.1164534091949462,0.5204620957374573,-0.0060203745961189,0.2266275286674499,-0.0857185572385788,0.7431254747122525,0.348429411649704,-0.7735973314739764,0.0556176961950957
197,-0.009219,-0.128555,0.760019,0.027301,-0.097409,-0.710403,0.696486,-2.8697768529117105,-6.803368347483873,-4.27474301931262,9.343248644641042,-1.439718476960808,2.607929458771646,-0.5620289444923401,-3.367063045501709,2.5240302085876465,-0.6962469205575272,-0.2089913986473454,0.5686432925628884,-0.3849774303976361,-0.0789376571774482,0.3681828677654266,-0.0070598139427602,0.0649581551551818,0.5512376427650452,-0.0860543251037597,0.0473943054676055,-0.0859021171927452,0.830494546085596,0.2358791828155517,-0.5380600713063031,0.3039762248173356
198,-0.011612,-0.128985,0.758132,0.026464,-0.090878,-0.711466,0.696317,-1.426899181267619,-8.115824572491645,-4.284019381701946,9.328064519512653,-2.6589810160949825,1.444795780225098,-0.9786840081214904,-2.463738441467285,3.705129623413086,-0.6393753709797725,-0.1855246863788862,0.6260323509124017,-0.4060336853441509,-0.1782384216785431,0.3054442703723907,-0.6128048896789551,0.1698989868164062,0.5191997289657593,-0.190275490283966,-0.0761521756649017,-0.1133297979831695,0.9161100517898796,0.1927220523357391,-0.1040384666234254,0.4391061414055526
199,-0.012724,-0.128185,0.755507,0.028583,-0.08556,-0.711982,0.69638,1.0758932019889351,-9.117688077151774,-4.8286517440706485,8.851066600477695,-4.194671995992958,0.4834748234314843,-2.420473098754883,-1.6122102737426758,4.251799583435059,-0.5849230125839749,-0.1290341428527056,0.6772738256951795,-0.4272183319005086,0.6544268727302551,0.1590397655963897,-0.8632122278213501,0.2220375537872314,0.5147655010223389,-0.1931201219558715,-0.1564713269472122,-0.1102072969079017,0.2832721672236919,0.0755572840571403,0.1166461653925478,0.1337505910590291
200,-0.013865,-0.127235,0.752902,0.031553,-0.079307,-0.712562,0.696398,2.472771923524141,-8.24869691941142,-2.542137136173248,8.010838011363148,-5.6242047406345606,-0.6042925388876348,-3.373966693878174,-1.3483535051345823,4.267353057861328,-0.5333074893287947,-0.0482533194664074,0.7269676482833772,-0.4298520026927104,2.101416826248169,0.0271863956004381,-1.1388336420059204,0.1181275248527526,0.5105718970298767,-0.2679219841957092,-0.2367904782295227,-0.1070848032832145,-0.3490326333791017,-0.0416074842214584,0.3377319986205548,-0.1718621489189565
201,-0.018566,-0.127396,0.74476,0.033676,-0.072491,-0.711782,0.697838,4.182503711554408,-6.154616269949078,-0.4177670007787644,6.933174877092242,-6.699552583700418,-1.7937268529258668,-3.2044825553894043,-1.0484594106674194,3.85127305984497,-0.4801327342317837,0.0363684599186341,0.7682004654732706,-0.4219216782943334,2.3809194564819336,0.0510137490928173,-1.3266226053237915,-0.0311461687088012,0.3077018558979034,-0.0765426754951477,-0.2879708409309387,-0.048148788511753,-0.3464017003536224,-0.153875932097435,0.4718858367182314,-0.0731933926351368
202,-0.021061,-0.126894,0.740295,0.032522,-0.066558,-0.711709,0.698557,4.393343679773808,-5.821213167378306,0.3057026102185249,5.939431550523638,-7.261901804545522,-2.85627556630373,-3.16621994972229,-0.2627896666526794,2.913002252578736,-0.4373903803437862,0.1119223078479482,0.7956776541352715,-0.4038070022464954,2.5407543182373047,-0.0898640602827072,-1.5172039270401,0.0624259114265441,0.2731944024562835,0.0432631969451904,-0.29574054479599,0.0247752144932746,-0.2931020718425512,-0.3247309923171997,0.5867303595162928,-0.211027307485044
203,-0.024724,-0.126137,0.736615,0.033589,-0.055875,-0.712043,0.699103,3.312415406227112,-5.430619858598709,1.4478914081528782,5.130736748313904,-7.454075066217779,-3.779245274730026,-3.072319746017456,0.1668075025081634,2.7343006134033203,-0.4068511895955762,0.1826256829622373,0.8119949166192291,-0.3765425009448568,2.8999061584472656,-0.3324023485183716,-1.337967872619629,0.1213587522506713,0.396704614162445,0.0279175043106079,-0.3369883000850677,0.1416688561439514,-0.398469741243124,-0.5480325818061829,0.5019331113923341,-0.401233652998507
204,-0.030558,-0.125891,0.72921,0.037431,-0.042421,-0.711269,0.700639,3.768379012800753,-3.1398540229976177,3.1555911058336497,4.332702456328272,-7.49743548451662,-4.602886593919992,-2.602333307266236,0.1293099224567413,2.703700065612793,-0.3769074483299254,0.2507228580681943,0.8196462356390721,-0.3510825925625209,2.036141395568848,-0.2501833438873291,-1.9290587902069087,0.0866597294807434,0.2798511087894439,0.2358842492103576,-0.4323562085628509,0.2678564190864563,-0.7697206361711024,-0.6464294791221619,0.3912205007672309,-0.2589068106435239
205,-0.033235,-0.126261,0.72424,0.036589,-0.038437,-0.712122,0.700047,4.613134431689978,-1.7451871322929855,3.954536082923412,3.610948563207686,-7.428645441406965,-5.286460393989086,-2.16658616065979,0.1927217692136764,2.3414528369903564,-0.3491534843084391,0.3106065414508891,0.8204011562941997,-0.3294804621895753,1.825828433036804,-0.1436556130647659,-2.294384717941284,0.0725020766258239,0.1736001968383789,0.2347319573163986,-0.5578128695487976,0.3604380488395691,-1.010581648644805,-0.5993444323539734,0.4266029259242117,0.0202655200459063
206,-0.035939,-0.126239,0.719174,0.039579,-0.036909,-0.71136,0.700741,5.054935949659347,-0.7668523872584104,4.422132551884651,3.022501316770911,-7.270481416842341,-5.845933767136931,-1.8141775131225584,0.1760484129190445,1.9438961744308472,-0.3250320206753226,0.3598382571079587,0.8176650350442587,-0.3103134298534845,1.6570132970809937,-0.2456834465265274,-2.359193086624145,0.0892137289047241,0.0451553165912628,0.3652926087379455,-0.653886616230011,0.3673630952835083,-0.9144201990067958,-0.5273303389549255,0.5264060565328225,0.2115377412252128
207,-0.040956,-0.129849,0.704985,0.030514,-0.043671,-0.711317,0.700849,5.521186849230528,-0.0554810642033815,4.697190432992577,2.5734593261539933,-7.051407873284816,-6.31073329885602,-1.6360933780670166,0.2375265061855316,1.5148837566375732,-0.3049258491051843,0.40009907043235,0.8134362922156457,-0.2919972911925835,1.6014282703399658,-0.294179767370224,-2.3327836990356445,0.0407535433769226,-0.0856624245643615,0.3857028484344482,-0.5712407231330872,0.2068449556827545,-0.4513192878991365,-0.411442220211029,0.6764703247394412,0.5069434138350188
208,-0.043893,-0.13169,0.697522,0.023556,-0.045349,-0.711344,0.700984,5.380933159887791,0.3909533742636442,5.640061650457978,2.26375303325206,-6.771950880435109,-6.722091163244843,-1.4299088716506958,0.1545044630765915,1.171554684638977,-0.2879070569266536,0.4319296401702508,0.8100420083501907,-0.2727238808873264,1.6675117015838623,-0.3102337121963501,-2.093705177307129,0.0784733295440673,-0.2229498028755188,0.3787577152252197,-0.4885948598384857,0.0463268160820007,0.0153618197828531,-0.2955541014671325,0.8228967113677412,0.80558923740983
209,-0.04731,-0.13336,0.68995,0.016513,-0.046766,-0.710772,0.701672,6.235202549314499,0.6487362954437732,5.862322591879964,2.0189573116779327,-6.544757743307947,-7.018573525175452,-0.8734130859375,0.0606937780976295,0.8079211711883545,-0.273838431838843,0.4551411233574242,0.8066562027016958,-0.2591620291163816,1.482077717781067,-0.111752264201641,-1.445556402206421,0.0869630575180053,-0.3421408534049988,0.3768458366394043,-0.3378122448921203,-0.1325550824403762,0.6953904945909977,-0.1680333167314529,0.9201453717205672,0.9480379525788128
210,-0.0509,-0.134655,0.681759,0.013928,-0.051665,-0.709494,0.702677,6.8084723926246165,-0.5296627567738295,5.707777342334389,1.9110607083216309,-6.419807421559095,-7.16270434821248,-0.2772601246833801,0.1799599975347519,0.3442324101924896,-0.2675241235681201,0.4678188634868166,0.8039538486033475,-0.2514649955250807,1.4977037906646729,0.1112191379070282,-0.6030743718147278,0.1720963716506958,-0.3992394804954529,0.3693305552005768,-0.1652596592903137,-0.3213571906089782,1.353854403322935,-0.0288599729537963,1.1202931194033474,1.0463626446653156
211,-0.054585,-0.137902,0.665911,0.00412,-0.057427,-0.712742,0.69906,7.229194297686218,-1.175078383362293,5.507757458814979,1.9353610368415712,-6.473947592547535,-7.107234389925003,0.6308726072311401,0.3047627508640289,0.043156336992979,-0.2719673022274296,0.4713501377255497,0.8001232194479515,-0.252320704602385,1.2240206003189087,0.3745108544826507,0.0024311596062034,0.1995313763618469,-0.463514506816864,0.4223976135253906,0.0102775543928146,-0.4066751301288605,1.886270258197188,0.0663743093609809,0.9994302130986004,0.8445845193017274
212,-0.058214,-0.134805,0.659865,0.014988,-0.059481,-0.708909,0.702628,8.224339307746291,-1.2861094853520392,4.127235997840762,2.054717045714706,-6.778460116198659,-6.782406223475933,1.6122320890426636,0.2240944057703018,-0.438737541437149,-0.2878393641008471,0.4636838067373909,0.7942315854450296,-0.2670994723454306,0.7183725833892822,0.9655470848083496,0.5247658491134644,0.2127965092658996,-0.5035858750343323,0.3461834490299225,0.1635199785232544,-0.3560722172260284,0.8605559223502874,0.0230936184525489,0.3892612564582377,0.1878065178301185
213,-0.059451,-0.134881,0.652825,0.014987,-0.056955,-0.71102,0.700702,7.793875760871171,0.3968821797907352,3.061149904116988,2.3301555967032908,-7.215119010582565,-6.219550222152471,2.2388477325439453,0.1612248122692108,-1.1980671882629397,-0.3130169308754704,0.4403158624887043,0.7894496529313118,-0.2913958917082282,0.750009298324585,1.3548698425292969,1.1179815530776978,0.2169402837753296,-0.4132295846939087,0.2578589916229248,0.2523507177829742,-0.1081810146570205,0.1010299324572086,-0.0883311405777931,-0.3421109443571418,-0.2905905274130403
214,-0.062639,-0.132595,0.638382,0.020786,-0.052089,-0.710005,0.70196,7.530224824440479,-0.0194470432698726,1.6967314366817474,2.840558649472892,-7.591869087448716,-5.519523299932479,2.3955771923065186,-0.1658757925033569,-2.23295259475708,-0.343695215325651,0.3986302925350016,0.7889938296834459,-0.3169483472984926,-0.0420829728245735,1.4169692993164062,1.3430684804916382,0.1345715522766113,-0.4707450866699219,0.3484848737716675,0.291369765996933,0.0707709640264511,-0.5429097763597965,-0.133600115776062,-0.6021959319345652,-0.42307771094013
215,-0.063761,-0.131918,0.630973,0.022649,-0.048693,-0.709078,0.703083,6.441072327905893,-2.105571180769801,1.425164904820919,3.631783261443674,-7.729509963944554,-4.820291912004351,2.593787670135498,-0.6883969306945801,-3.4886624813079834,-0.3737673572613149,0.3328986846983834,0.796834335578094,-0.3384250213014721,-1.081299066543579,1.1936421394348145,1.2793024778366089,0.1320221424102783,-0.4445488750934601,0.3187831938266754,0.3477391004562378,0.1098344773054122,-0.1465899066269397,-0.1287474781274795,-0.4497860139172523,-0.3583444689406082
216,-0.064402,-0.131711,0.622697,0.020399,-0.044344,-0.709302,0.703213,4.022261127150059,-4.903384621232748,0.5638850521102547,4.717322828178108,-7.553047481623292,-4.107152994754911,2.876500368118286,-0.7643080949783325,-4.377691268920898,-0.4053437006749852,0.2430340419907218,0.8064372140659809,-0.3553729168532591,-1.7895959615707395,0.9760189056396484,1.464686155319214,0.1925262808799743,-0.3655082583427429,0.2998377680778503,0.4212209582328796,0.0183315649628639,-0.146078449973464,-0.1578620374202728,-0.289886178535968,-0.3590198474515229
