time_imu,phone_acc_x,phone_acc_y,phone_acc_z,phone_gravity_x,phone_gravity_y,phone_gravity_z,phone_gyro_x,phone_gyro_y,phone_gyro_z,phone_ori_w,phone_ori_x,phone_ori_y,phone_ori_z,watch_gyro_x,watch_gyro_y,watch_gyro_z,watch_acc_x,watch_acc_y,watch_acc_z,headphone_gyro_x,headphone_gyro_y,headphone_gyro_z,headphone_acc_x,headphone_acc_y,headphone_acc_z,frame_imu
1733384553202901500,4.625107485817373,16.305383074235916,0.619403817975521,0.1200505761417094,9.805779646906256,0.0515708639231277,-0.4375644624233246,0.604593813419342,-1.490729808807373,-0.5760066782223375,-0.5679090950064479,0.4181505439622784,0.4133348664344441,0.0808572024106979,0.0032350537367165,-0.0093164416030049,-0.0202778577804565,0.0303208380937576,-0.0087503194808959,-0.0369094237685203,-0.0073501542210578,0.0456207644462585,0.0087229572236537,0.1744844602465629,0.0479092407096177,0
1733384553242901500,5.185112481623888,9.308760099583864,-1.7595143483310938,-0.7616751307509839,9.776317990100384,0.1175410227398853,-0.0046836789697408,-0.996803343296051,-2.850029945373535,-0.5574115304863541,-0.5830224646772414,0.3925453875383854,0.4419108427475597,0.1083980202674865,-0.0071338573470711,-0.0096310945227742,-0.0062584280967712,0.0032570958137512,-0.0009766221046447,-0.0490742921829223,-0.0278891026973724,-0.0155500358313322,0.0266521759331226,0.1848124871132895,0.1580003949681296,1
1733384553282901500,2.1635468382678926,-3.1270342889130114,-0.8977110562682151,-1.887016692650318,9.62010919125676,0.2511270617538131,-0.32240891456604,-1.3408230543136597,-2.600412607192993,-0.520606182859698,-0.5902041626090212,0.3726327003905442,0.4917043599700381,0.0928419604897499,0.0119889173656702,-0.0095698414370417,-0.00984787940979,0.0041218698024749,0.0110734701156616,-0.0289255939424037,-0.0394036136567592,-0.0432633876651525,0.015834305435419,0.1957002302220091,0.1752314792215824,2
1733384553322901500,2.368094282214344,-12.2847971868217,-0.3076571783524006,-2.6212816922977566,9.4365962059021,0.4999412434553727,-0.7058432698249817,0.0398796312510967,-1.3647526502609253,-0.5029261622455753,-0.5932512004059832,0.3500901361447228,0.522068321214008,0.0705430507659912,0.0125970244407653,-0.0163807421922683,-0.0061510205268859,-0.0051141828298568,0.0025877058506011,-0.0328551903367042,-0.0142126306891441,-0.0629348873406648,-0.022713404148817,0.1898786113964393,0.1194627937158569,3
1733384553362901800,1.993228703920543,-15.621246964108945,0.4176665360789746,-3.00373144211024,9.310580300748349,0.6790276810720562,-0.368847519159317,0.3031770884990692,-0.7298668622970581,-0.5008722076317803,-0.59733268958212,0.3295039942350721,0.5326798203716002,0.0537536777555942,-0.0077419099397957,-0.0164003167301416,-0.0073741674423217,-0.0098230689764022,-0.0012893676757812,-0.046134490519762,0.0045128688216209,-0.0361544324427843,-0.0323091968894004,0.2019830550848506,0.1049606229696422,4
1733384553402901800,0.0560015809461474,-14.856105472421644,0.3678459818553179,-3.1647222145333886,9.250531197977066,0.7632644457690417,-0.0197019390761852,-0.4040592014789581,-0.094634011387825,-0.4984046357544131,-0.5975693575002565,0.3224828789828481,0.5389883048192725,0.041830439120531,0.004911673720926,-0.018759811297059,-0.0117046236991882,-0.0083363801240921,0.0092648267745971,-0.0485981218516826,0.0015397523529827,-0.0004448211580514,0.0088915042579174,0.1917854313984513,0.116450094831176,5
1733384553442901500,-0.4789888005912304,-9.93643490229845,0.0694511373668909,-3.0515611147776243,9.287158508628606,0.7791437866199761,0.2336679250001907,-0.4554508626461029,0.4738043248653412,-0.4964335496981405,-0.5916454237798967,0.3320096629995208,0.5415524858534192,-0.0048539731651544,0.0186585914343595,-0.0083539094775915,-0.0019634962081909,-0.0128447413444519,0.0167745500802993,-0.0345996767282485,-0.0041770595125854,0.0123731593608856,0.0051523903384804,0.1738999018242582,0.0930801059639081,6
1733384553482901500,-0.6404167953878641,-5.633748814049363,0.3596884674280882,-2.776408248862624,9.381572237816451,0.6693694797582924,0.5683651566505432,-0.1806844174861908,1.0584757328033447,-0.4976106847575109,-0.587483895646933,0.3474684537327296,0.5352681932694235,0.0010590436868369,0.019541747868061,0.0122277326881885,0.0039929151535034,-0.0071223676204681,-0.0050946325063705,-0.0136374253779649,-0.0031685142312198,-0.0254728794306516,0.0030405987054109,0.1767829829799011,0.115545510674268,7
1733384553522901500,-0.5344770251877605,-0.10233283174932,0.1952145290642976,-2.2094277149550616,9.539527588066456,0.5350169772833585,0.1105106621980667,0.2619114220142364,1.896286368370056,-0.5087033500405674,-0.5799496315059187,0.3692968329249982,0.5181691371836836,0.0268405731767416,-0.0058713057078421,0.0075843115337193,-0.0006693601608276,-0.010712906718254,-0.0076394975185394,0.0087973158806562,-0.0033532208763062,-0.079335402521491,0.0114786392077803,0.1754584381115622,0.1310078682221472,8
1733384553562901500,1.467080969530344,1.8290104938834904,-0.4130062526503578,-1.4907234186634422,9.685003395971655,0.3857717703746631,0.5324159860610962,0.3975816965103149,1.797748565673828,-0.5283165271910149,-0.5737485900798783,0.3887720007561048,0.4904594409683171,0.0144438249990344,-0.0159233529120683,-0.0016848212108016,-0.0077413916587829,-0.006364569067955,0.0068376660346984,0.0199983827769756,0.0006013950332999,-0.0685135642558336,0.0014069527387619,0.1741497301331721,0.1167069191364571,9
1733384553602901800,2.31769402840659,4.987040809562802,-0.0759141959011554,-0.8594757989633828,9.767077283546328,0.18948928328529,0.4059576392173767,-0.2215798199176788,1.33884859085083,-0.5384599763476873,-0.5664241217035221,0.4117067521776083,0.4687453572884644,-0.0769374817609787,-0.0212477594614028,-0.0118926502764225,-0.0025708675384521,-0.0185825377702713,0.0079357028007507,0.033106867223978,0.0063494672067463,-0.0452367335647344,-0.011723406612873,0.1656902736173011,0.1034401719367131,10
1733384553642901800,0.2511376014141365,5.106932678878307,-2.022201408165693,-0.4287576197400689,9.797272515323758,-0.0049393498192803,0.4467929005622864,0.0041636824607849,0.985550820827484,-0.5415771462332863,-0.5612069185120058,0.4304632752923725,0.4543593779491223,-0.1016694605350494,-0.021937783807516,-0.015475601889193,0.0015543103218078,-0.0050165951251983,0.0032428503036499,0.0405775010585784,-0.0007689483463764,-0.0115600894123315,-0.0169470682740211,0.182402594693657,0.0762587715551257,11
1733384553682901500,2.21601892991364,5.020702256146073,0.1182476092398166,-0.1285744122638367,9.805690799579024,-0.0477684942317893,-0.1000081971287727,0.0127050010487437,0.4391185045242309,-0.5484266828866675,-0.5569019051844226,0.4385154310909073,0.4436131960450851,-0.1044652462005615,-0.0199681110680103,-0.0065528131090104,-0.0018883347511291,-0.0121103227138519,-0.0047347247600555,0.0291962251067161,0.0035131252370774,-0.0239519534736871,-0.0004847105592489,0.1765867114891298,0.0557437702601775,12
1733384553722901500,0.0793775246301665,3.1181197455734013,-0.0784042591512203,-0.044511994920182,9.806229728761314,-0.0791645942655391,0.2087592482566833,-0.084198884665966,0.1492573171854019,-0.5481467311507482,-0.5546071943563855,0.4432235675563954,0.4421526304917214,-0.0215125773102045,-0.0176437553018331,0.0112671302631497,-0.0099782347679138,0.0061566680669784,-0.0139945000410079,0.0194103568792343,0.0057358527556061,-0.0333884748607873,0.0082629602402448,0.1846005248630419,0.0467193368053063,13
1733384553762901500,0.6277057823747396,1.2993991750359537,-0.2228150864397175,-0.0058119645104132,9.805807119435071,-0.1285341807181481,0.0296745579689741,0.065333105623722,0.0020686197094619,-0.5478274699947286,-0.5553193070654129,0.4451672570865265,0.4396951029756171,-0.0185532718896865,-0.0225513223558664,0.0123373214155435,-0.0043691396713256,0.0045290887355804,0.0010284781455993,0.0140718463808298,0.0072689289227128,-0.0279044904917478,0.0189797170460224,0.1809961071629077,0.0594514291390776,14
1733384553802901500,-0.3087651395943016,-0.1123439381539821,0.3495885136961936,-0.0330069692964898,9.80571710306406,-0.1311174569433089,-0.0072644427418708,0.0939037874341011,-0.0700087994337081,-0.5476434817512909,-0.5565123605088775,0.443823300749149,0.4397742839236795,-0.0159598868340253,-0.0268717687577009,0.0087622944265604,-0.004727303981781,0.001717671751976,-0.0041259378194808,0.019339807331562,0.0010649915784597,-0.0163052381128072,0.0329344496130943,0.2016509918525814,0.1036009154563769,15
1733384553842901800,-0.6642420537419617,-0.4830377837210893,0.9703858318567276,-0.0239413201985298,9.805610135558249,-0.1407950479441322,0.0756632536649704,0.3239625990390777,0.1256460100412368,-0.5494607348903763,-0.5584874306023834,0.4418940363598725,0.4369374782975223,-0.0072175282984972,-0.0136761255562305,-0.0008346735266968,-0.005213975906372,0.0037375390529632,0.0063365697860717,0.0185218919068574,0.0032075073104351,-0.0388210213035345,0.0257109031081199,0.1986113501620479,0.1012149336352944,16
1733384553882901800,-0.6937646469548344,2.283272849497199,0.8709738559901714,0.0992544563504401,9.804152922487258,-0.1977547698653303,0.1935444176197052,0.5089430809020996,0.4547142386436462,-0.5540138754347641,-0.5608531669445468,0.4421836862393675,0.4277685194361606,-0.0107938880100846,-0.014367482624948,0.0047262730076909,-0.0073283314704895,-0.0039066672325134,0.0012168437242507,0.0178802479058504,0.0077103041112422,-0.0500894342929124,0.0047041662037372,0.195973293276038,0.1154666002191603,17
1733384553922901500,-0.4326292735416442,10.658448030877112,-0.5259656558215617,0.2156545106279663,9.8013507245481,-0.2395800510187633,0.0267260670661926,0.8398287892341614,0.0087766237556934,-0.5605549109726388,-0.5648910238408761,0.4394465995619491,0.416608902806828,-0.0090021127834916,-0.0138032110407948,0.0128325363621115,-0.0017038583755493,-0.0018807500600814,-0.0039016902446746,0.0082682548090815,0.0166413076221942,-0.0475982019990682,-0.010565017350018,0.1929655993600375,0.1136998462749645,18
1733384553962901500,3.1593346762761474,15.127840346586703,-1.787382598465681,0.12640775401555,9.804479085701704,-0.1631433108145371,-0.4644294083118438,0.4244067072868347,-0.7336975932121277,-0.5678605893460889,-0.571947255603452,0.4256692734532927,0.4113592648992499,0.0056737689301371,-0.0061595132574439,0.0033241854980587,-0.01187264919281,0.0053706318140029,0.0047162771224975,-0.00124585442245,0.0186704844236373,-0.0277390707969665,-0.0052264579571783,0.178789957154449,0.1041556997949257,19
1733384554002901500,5.224242715007066,8.677028130432962,-1.6435130567133425,-0.4285074078386649,9.79708079214394,0.0630405442388029,-0.6438168883323669,-0.3546907305717468,-2.0813655853271484,-0.5629147755701434,-0.5775152005915294,0.4040569512847137,0.431672492294422,0.0204431284219026,-0.0036085241008549,0.0053514502942562,-0.0052332878112792,0.0013289302587509,0.0034927278757095,-0.0082046454772353,0.0120420306921005,-0.0076882164150476,0.006350424606353,0.1690261035091243,0.0984173753386363,20
1733384554042901500,3.611842589437961,-4.288694972297549,0.0213244910469278,-1.3743112081572413,9.704676649212836,0.3176047910667955,-0.319517433643341,-1.7083005905151367,-2.5614399909973145,-0.5383791968026514,-0.5806482312428937,0.3829546894756264,0.4757531242840222,0.0249787587672472,0.0052822791039943,0.0142747713252902,-0.0045195817947387,-0.0056363046169281,0.0046833902597427,-0.0149473622441291,0.0056631308980286,-0.04007891241014,0.0212283078581094,0.1684481574906967,0.1200324833625927,21
1733384554082901800,1.36255924943462,-13.3999913025856,0.4402191806813701,-2.147408042763173,9.5581942946136,0.4471315904183313,0.0742592066526413,-0.8818423748016357,-1.3833552598953247,-0.5075221207588522,-0.5809464321150823,0.3737698174609805,0.5149937625081511,-0.0044084256514906,0.0103905405849218,0.0122857894748449,-0.0078389048576354,-0.000476136803627,0.001416265964508,-0.0114471344277262,0.0080320378765463,-0.0549018030107021,0.040966622531414,0.1681816520416177,0.1299207305725664,22
1733384554122901800,2.653992121766508,-16.089968053185938,-0.74533087580204,-2.4822081526502964,9.476583932897448,0.4509938918696716,-0.0423957183957099,0.0734985470771789,-0.6136742234230042,-0.4955808363241279,-0.5852949439067262,0.3666545240544634,0.5266820724348945,-0.001654451014474,0.0091266054660081,0.0066321641206741,-0.0070169568061828,0.0003611147403717,0.0014271885156631,-0.0034592496231198,0.0166837181895971,-0.047210663986206,0.0420255176723003,0.1649758234713226,0.1419406925816088,23
1733384554162901800,0.3404673418685793,-14.063501973313093,-0.7469751358777285,-2.6728686716720462,9.420546403855084,0.5286538719922304,-0.2567580044269562,-0.3967380225658417,-0.3166036307811737,-0.491039890634219,-0.5858434772733122,0.3603242630652488,0.5346342068865765,0.0167421326041221,0.0120661491528153,0.0105545343831181,-0.0062215924263,-0.0048795789480209,0.00269515812397,0.003159187734127,0.0212768577039241,-0.036205285847187,0.0399151965975761,0.1586830982689745,0.1456365148922428,24
1733384554202901500,-1.7830045295119286,-8.4629668620795,0.7097960365623235,-2.678141351377964,9.410621806690097,0.6619320962991565,-0.1969467401504516,-0.151831567287445,0.2528394758701324,-0.4911761959361631,-0.5798958249079409,0.3605158637818345,0.5408282106877024,-0.0112146669998765,0.0045072990469634,0.0078098811209201,-0.0043627619743347,-0.0047049671411514,-0.0018605589866638,0.0142131084576249,0.0130893196910619,-0.0069002809077501,0.0224686544388532,0.1612701556201092,0.1101156676452606,25
1733384554242901500,-2.3091830974318084,-2.742953723028302,0.7130272735685109,-2.432832565715164,9.47918914695978,0.6298205095063895,0.3001857995986938,-0.0073467367328703,1.0759077072143557,-0.4972207247854844,-0.5760339427084514,0.3688807222908035,0.5337447282766042,-0.0663538128137588,-0.0063726725056767,-0.002468988765031,-0.0041303038597106,-0.0018083155155181,-0.0016674399375915,0.0160365812480449,0.0092660998925566,0.0023918635725975,-0.0078398939222097,0.1609292514942586,0.0973397361697629,26
1733384554282901500,-0.0382176485829055,1.5243530088037252,1.924852794569731,-1.8840267170540987,9.608684126400949,0.5422223420849069,0.2788308560848236,0.4847490191459656,1.5967390537261963,-0.5112390296142912,-0.5686162616087923,0.3860439107595151,0.5160234792843063,-0.0447206981480121,0.001017972244881,-0.0044223507866263,-0.010189950466156,0.0039785653352737,-0.006254956126213,0.0087790209800004,0.0147431809455156,-0.0173737441271543,-0.0307120382785797,0.1358340097369626,0.0421790264945477,27
1733384554322901500,0.4727100125826895,4.056495989707112,-0.6154413440853357,-1.2753661191500725,9.71929145002067,0.2814503586240112,0.8408049941062927,-0.0516319461166858,1.605787754058838,-0.5225168289069438,-0.5655193318545743,0.407232011022914,0.4912496221786022,0.0277250092476606,0.0020290678367018,0.003465998917818,-0.010329246520996,0.0165942758321762,-0.0135793983936309,-0.0112006608396768,0.0131682967767119,-0.0030909517526626,-0.0442000478506088,0.1403767677331343,0.0092520681982859,28
1733384554362901800,1.4212841178648172,4.749161443248391,-0.3859375919282436,-0.7534512000240385,9.777655960705877,0.0106466255459352,0.5485100746154785,0.16048663854599,1.0656075477600098,-0.5272539581014042,-0.561330505400464,0.4293777321789064,0.4717477951803469,-0.0163883883506059,-0.0190297719091177,-0.0007658973336219,-0.0035040974617004,-0.0036430060863494,-0.0051318854093551,-0.0332551002502441,0.0156668610870838,-0.0134592010319232,-0.0244174506515264,0.1399426140995696,0.025756847471185,29
1733384554402901800,1.369070238763839,4.380379568782448,-1.0823813949644563,-0.3905899843113496,9.797783387455343,-0.1458442758914083,0.2702243626117706,0.1313111186027526,0.7665725350379944,-0.5331075690292145,-0.5591213630346408,0.4413833821395259,0.4564650635315854,0.0188433676958084,-0.0138081647455692,-0.0128053156659007,-0.0129327774047851,0.0069207102060317,-0.0004354119300842,-0.0364607498049736,-0.0033526718616485,-0.0076683426707983,0.0125796068459749,0.1595589860543608,0.0549258049407973,30
1733384554442901500,1.2326717635445297,3.0078450149089098,-0.1982674868941307,-0.2149865117059089,9.802181330153346,-0.203509844527021,0.083641767501831,-0.0801921114325523,0.1924513131380081,-0.5354373462941524,-0.5566200318735657,0.4478283764647415,0.4504783953169343,0.0039704116061329,0.0010621806140989,-0.0120765417814254,-0.0081912875175476,-0.0082904249429702,0.0094344019889831,-0.0376064665615558,-0.008583091199398,-0.0123293202191591,0.0313263908028602,0.1691885092629119,0.0789664596112444,31
1733384554482901500,0.3497290912106633,1.5413140804767609,-0.4658277057230472,-0.1649266505673527,9.80286171363294,-0.216968260107655,-0.0384663045406341,0.1785985231399536,0.0640414282679557,-0.5368468033024898,-0.5564864710795712,0.4487595233280028,0.4480325170830128,0.0033693357836455,0.0032708467915654,0.0048658894374966,-0.0035599470138549,-0.0071339607238769,-0.0028045773506164,-0.0387521833181381,-0.0138135105371475,-0.016973346632719,0.0500731728971004,0.17883776008524,0.1030016709215939,32
1733384554522901500,-0.2546060629759915,0.5621241799175739,0.1663280417978763,-0.1387912521073594,9.80342285464704,-0.209872895019222,0.0576474703848362,-0.0240012537688016,0.1066750660538673,-0.5383815742977555,-0.5564330674074774,0.4484225471485316,0.4465924763603031,0.0017293612472712,0.0018742850515991,-0.0046799452975392,-0.0021044015884399,0.0060908645391464,0.0010499954223632,-0.043278694152832,0.0038186628371477,-0.049146600484848,0.0406867265701293,0.1716610368562862,0.090784396242164,33
1733384554562901500,0.0537684744321042,0.9421715447634458,0.7341711838841438,-0.0741192844415549,9.802857037457825,-0.2625138404258527,0.2031902372837066,0.193086102604866,0.2068458050489425,-0.5388237316365517,-0.5568705411229675,0.4508654805896445,0.4430402299629212,-0.0045122895389795,-0.0097973374649882,-0.0144560765475034,-0.0108460783958435,-0.0019076466560363,-0.0014544427394866,-0.0622460432350635,0.0162633415311574,-0.0568050062835216,0.0226729698479175,0.1795953004542738,0.1040771546659991,34
1733384554602901800,0.1977304574079811,5.374347936278581,-0.4431552341332659,0.0030831503262306,9.80084978928864,-0.337204942539148,0.1161337122321128,0.2769932150840759,0.1165206879377365,-0.5407709388098926,-0.559554450097931,0.4517648561872981,0.4363187683413695,-0.0156546887010335,-0.0015497412532567,-0.0021240427158772,-0.007085382938385,-0.0066841095685958,0.000832512974739,-0.0720170587301254,0.0231996662914752,-0.0327209508627653,0.0049732644110918,0.19541810707869,0.132219070642814,35
1733384554642901800,-0.3030564613576046,13.215908992910384,-1.930101801139116,-0.0369204118466004,9.801648246189952,-0.3110206999687477,-0.3182002305984497,0.3927002251148224,-0.3897638320922851,-0.5433195962307051,-0.5625193056117,0.4465754948322439,0.4346795430411081,-0.0090852035209536,-0.0041905315592885,-0.0057867551222443,-0.0022287964820861,0.0054933130741119,0.0045616179704666,-0.0646997168660163,0.0128322672098875,-0.0234907657027244,-0.0154403150081634,0.2130143896490335,0.1624146312138065,36
1733384554682901500,3.7848993549689647,12.95511636852026,-1.4430606269955637,-0.4015928416997194,9.798178524252773,-0.0693269447316415,-0.7975281476974487,-0.1692818105220794,-1.594778060913086,-0.5438285137998397,-0.5657045389755007,0.4283842493313422,0.4480132090858194,0.0215549990534782,0.0064778253436088,1.0680407285690308e-05,-0.0065473914146423,-0.0031287521123886,-0.0040514320135116,-0.03607077896595,0.0011134995147585,-0.0183949038684368,-0.0062691625207662,0.2221487314854748,0.21283782750573,37
1733384554722901500,3.923566944164037,3.683531276598573,-1.4963772066414356,-1.223206965911016,9.725345927754043,0.3030174445214681,-0.89398193359375,-1.286970138549805,-2.4539780616760254,-0.5276907997987309,-0.5665323682041971,0.4044644432154613,0.4868183717051213,0.0128275519236922,0.007093814201653,0.0060689062811434,-0.0049025416374206,-0.0079615861177444,0.0006835013628005,-0.0185907650738954,0.0084078125655651,-0.0246399357378482,-0.0033516900148242,0.1898561073036864,0.1475606513552367,38
1733384554762901500,1.3436720320045947,-6.223399883317947,1.2807728004992007,-2.1054773650065064,9.556728313714263,0.6374317882277071,-0.3937542140483856,-0.3944877386093139,-2.003875970840454,-0.5034089179566096,-0.5671366799164599,0.3819109991933259,0.5282798326521795,0.0143839037045836,0.0213191956281662,0.0091295428574085,-0.0042569041252136,0.0004573464393615,0.0095450431108474,-0.0117141436785459,0.0077033378183841,-0.000736497581005,-0.005227530375123,0.189032844754681,0.1805737170323729,39
1733384554802901500,2.0563900934934614,-12.473657378423214,0.2456909168481826,-2.637582254235446,9.41775881896317,0.7206688743628561,-0.0749580562114715,0.058914940804243,-0.9259119033813475,-0.490388134687905,-0.575074761734181,0.3640674846056522,0.5443007953816469,-0.0077589489519596,0.0097610773518681,0.0041518956422805,-0.0028632283210754,-1.1608004570007324e-05,0.0016348659992218,-0.0104750087484717,0.0089704617857933,-0.02353635841012,-0.0079507464542984,0.1952178535325452,0.1817809008650481,40
1733384554842901800,2.8802827570959924,-15.539964519172909,0.279705999174714,-2.9479192462563515,9.327011795589328,0.6978763200573623,0.2438329309225082,-0.2902345657348633,-0.7939294576644897,-0.4799317307231011,-0.5811808320487434,0.355875050008192,0.5524920245161754,0.0128682982176542,0.0186078865081071,0.0060372808948159,-0.0093370676040649,-0.0046982765197753,0.0025833398103713,-0.0046792454086244,0.0089167850092053,-0.0092471362948417,-0.0291816592216491,0.1749834227446466,0.1436337967677041,41
1733384554882901800,-0.0510325603619217,-13.909577486014364,-0.2365063974607735,-3.1078166704848407,9.276946326693892,0.6709042150449007,0.0819926261901855,-0.229763776063919,-0.0446275137364864,-0.470269536543355,-0.5823425179871892,0.3559081304752113,0.5595114531460593,0.0082716830074787,0.0163623075932264,0.0122805964201688,-0.0010302066802978,-0.0027220845222473,0.0058899521827697,0.0198039766401052,-0.0056068114936351,-0.0199509011387825,-0.0349919460713863,0.1936305478084832,0.1824117095818743,42
1733384554922901500,-0.3642462768629193,-9.096452396899462,0.8991390432447195,-2.980303804771602,9.319562064105272,0.6587384148243814,0.1699660718441009,0.2119370251893997,0.6373643279075623,-0.4730013222447768,-0.5797341310792556,0.3610014203257315,0.556647153438663,-0.0123052317649126,0.0157436020672321,0.0039670723490417,-0.0103373527526855,-0.004467025399208,0.0012339353561401,0.0036670956760644,0.014565547928214,-0.0290413855671882,-0.0412616543471813,0.1810261004423722,0.1084883952369913,43
1733384554962901500,-0.5646849703162908,-2.17174315033555,-0.4934615625798701,-2.651924960103631,9.428269107061624,0.4954065957004204,0.2288078665733337,0.5084852576255798,1.213618516921997,-0.4829722229436047,-0.5811077087551385,0.3702095682612989,0.5403670865970589,-0.0542135350406169,0.0089100375771522,0.0079216668382287,-0.0067984461784362,-0.0075177252292633,0.0036708861589431,-0.0046866666525602,0.0123059786856174,0.0077747256547212,-0.0575867109000682,0.1526108108842745,-0.0003007365122437,44
1733384555002901500,-0.2400267536066472,3.9084886174976825,2.0491426065832377,-2.098061243531108,9.571466448640823,0.3944396454768255,0.3223826885223388,-0.0049378392286598,1.5957413911819458,-0.4975592773120525,-0.5742212256092306,0.3875037530608612,0.5220591405634947,-0.0363280102610588,0.0088881989941,0.0034359719138592,-0.0044248700141906,0.0059265345335006,1.7762184143066406e-05,-0.0107992701232433,0.0136661576107144,0.0222813899129629,-0.055925540626049,0.1465763164930045,0.0426458402886986,45
1733384555042901500,0.1296716511823236,5.344164394938946,0.6768003604114056,-1.4810489968672391,9.692918991401791,0.1556333370432257,0.7789795994758606,0.5715572237968445,1.5708667039871216,-0.5100663761717013,-0.5702750372191301,0.4084743446043614,0.4977624752564267,0.0091665051877498,-0.0009164414950646,-0.0026392980944365,-0.0016369223594665,0.0072770565748214,-0.0025668144226074,-0.0012349328026175,-0.0110446093603968,0.0099257662087678,-0.038995549082756,0.1471312469620257,0.0063393225567415,46
1733384555082901800,0.8473706428889185,5.239016505768895,-2.214009928178787,-0.952416240728274,9.759160519072411,-0.148617969255289,0.577967643737793,0.1164996027946472,1.1599420309066772,-0.5183805008491413,-0.570450130216371,0.4268068142609734,0.4729739384523296,0.0059065297245979,0.0102436421439051,0.0044628866016864,-0.0042054653167724,-0.003329649567604,-0.0042555630207061,-0.0088926069438457,-0.0379890091717243,0.0057516953945159,-0.0208047162741422,0.1967886465132236,0.0473152568718418,47
1733384555122901800,1.7785652318902312,4.528492739453911,-1.4532090960443018,-0.5922384554132819,9.785092832708358,-0.2676237490518018,0.0082927336916327,-0.0114102428779006,0.6462101340293884,-0.5234824649025154,-0.5655940676369798,0.4401685639314912,0.4607832689839738,0.012866168282926,0.0080540971830487,-0.0010748906061053,-0.0049071311950683,0.0039589554071426,-0.0017707049846649,-0.0335057117044925,-0.0420292019844055,-0.0592693505704402,-0.0202353969216346,0.147051642387174,-0.0379326941616833,48
1733384555162901800,1.4597231541134417,3.284534296610951,-0.9205565098047256,-0.4005879755061119,9.79528864803016,-0.2494597313297912,-0.010321008041501,0.0028247712180018,0.3428958058357239,-0.5288070104442143,-0.5610809619431036,0.444867464316745,0.455679935913419,0.0277678873389959,0.0089718224480748,-0.0126074440777301,-0.0101587176322937,0.0008118152618408,0.0022826790809631,-0.0291365198791027,-0.0201232600957155,-0.0091314009606838,-0.0282128509134054,0.1746056024082005,0.0117900987759232,49
1733384555202901500,1.4243474509581924,1.4605787480294703,-0.2400888773237355,-0.358030069229193,9.797856452691557,-0.2103206387867219,-0.1335766613483429,-0.1083465963602066,-0.1178927198052406,-0.53015019000377,-0.5583078617337641,0.4461117572845317,0.456308612914276,0.0307594146579504,0.0065661892294883,-0.0036184755153954,-0.0030288696289062,-0.0016828477382659,-0.0017702579498291,-0.0166046917438507,0.0083130039274692,-0.0120896662443876,0.0052098911255598,0.2154383836592547,0.117443343652226,50
1733384555242901500,0.2557262078460305,0.3206640325069427,-0.4087199171006679,-0.4308021311797201,9.795884860357642,-0.1594538451794535,-0.1605850756168365,-0.0413916893303394,-0.2265993505716323,-0.529122103116994,-0.5578334865397545,0.4437923898546108,0.4603258235334457,0.0282773487269878,0.0122357923537492,-0.0024260454811155,-0.0024321675300598,-0.001231774687767,0.0023712664842605,0.016874261200428,-0.002532067708671,0.0211018247395753,0.0192369259893894,0.1425068750970065,0.0365875266304239,51
1733384555282901500,-0.159809965140745,-0.2917641012370586,0.2792354590535164,-0.496201143611595,9.793601717856523,-0.097574750502035,-0.1425984352827072,-0.0001567127765156,-0.1020076274871826,-0.5291250211450121,-0.5574317891118848,0.4407320365321416,0.4637366757807544,0.042247224599123,0.0289463829249143,-0.0037821936421096,0.000443696975708,0.0025820881128311,-0.0018126368522644,0.020599115639925,-0.0066010472364723,0.0549339517146348,0.0186635963618755,0.2066684181557968,0.0335985374148935,52
1733384555322901500,-0.1225833734218031,-0.2198135482698678,-0.2729810748338699,-0.5518334528539329,9.791083597555756,-0.0234506848540855,-0.255336195230484,0.0239662658423185,-0.1729541271924972,-0.5301612770306453,-0.5569087417796706,0.437090729144042,0.466619097071685,0.0826926529407501,0.0210916548967361,0.0031827718485146,0.0003536343574523,0.0080473273992538,-0.0140695571899414,0.0034291911870241,-0.0127217434346675,0.0081599255800247,0.0170375276356935,0.1651958228975534,0.0015698796652257,53
1733384555362901800,-0.4695117645306512,-0.1328255851686,0.8026555220454931,-0.5818423317464069,9.789240600037576,0.0513260131834307,-0.0689591243863105,0.0718432441353797,0.0263858716934919,-0.5316167430353634,-0.5555939317978594,0.4343943882639172,0.4690422605623678,0.0934528931975364,0.0088173598051071,-0.0068295821547508,-0.0095425248146057,-0.0034847408533096,-0.0044043958187103,-0.0077272960916161,-0.0026317834854125,0.0140431383997201,0.0452981665730476,0.1920915016729384,0.109287473192811,54
1733384555402901800,0.121342287319526,-0.1765074905067682,-0.3726215987592935,-0.5517000722652301,9.791022807279228,0.0434190211848588,0.0338061340153217,0.1819709837436676,0.072320319712162,-0.5332706813116045,-0.5562153638337233,0.4340630311940612,0.4667292220375527,0.0496068708598613,0.0050199581310153,0.0066677844151854,-0.0140480399131774,-0.0076344162225723,0.0104157924652099,-0.0041128396987915,-0.0043337382376194,0.036762919729948,0.0653765350580215,0.1810282741331495,0.1569497899366542,55
1733384555442901500,-0.1433619940889999,-0.021374796462059,-0.6321358737766742,-0.5391350435940548,9.791812496352197,0.0111400624855305,0.1338526308536529,0.8465575575828552,0.0692465975880622,-0.5364162524617201,-0.5603304437375757,0.4306527704612578,0.461330247167721,0.0263209920376539,0.0197529904544353,0.0141646489500999,-0.0052223205566406,0.0003458112478256,0.0197980403900146,0.0182886980473995,-0.0265554189682006,0.02034720697999,0.1025243699550628,0.1676117979981005,0.1892043288640678,56
1733384555482901500,-0.3746839381165802,0.0609293927371501,-1.9198633157193656,-0.4504178090147673,9.79629811733365,-0.0071696159222658,-0.229794904589653,1.0398850440979004,0.3342792987823486,-0.5474266986531935,-0.5678022753083358,0.4218603143489886,0.4471671356430952,-0.005193792283535,0.0169284418225288,0.0153431640937924,-0.0072247982025146,-0.0147259831428527,0.0060256123542785,0.0386652313172817,-0.0389439947903156,0.0085597385525703,0.1192178800702095,0.1932478321012109,0.1522765008959919,57
1733384555522901500,0.2564527320222929,0.0438654452115297,-1.9241548754334448,-0.3216947272615507,9.798847217294574,0.2224756618849001,-0.939099133014679,0.8345955014228821,0.289637953042984,-0.5650876795814957,-0.5661683987939821,0.4100124909092915,0.4381997908130691,0.0129734929651021,0.0206035505980253,0.0275018252432346,-0.0138608813285827,-0.0081238001585006,-0.0071639418601989,0.0196803417056798,-0.0319553054869174,-0.0461854125916957,0.1094371825456619,0.1756293011664413,0.1293630966898054,58
1733384555562901500,0.1233549971151165,0.2631201905548572,-0.965525678474456,-0.2761346617602743,9.787886262819171,0.539806768843159,-0.6628611087799072,0.2818144559860229,0.0158289857208728,-0.58071369314746,-0.5610054313772214,0.3971780721855692,0.4362269620852992,-0.0453249663114547,0.0128380935639142,0.0242940485477447,-0.0060382485389709,-0.003693550825119,0.0091555118560791,0.029271325096488,-0.044741652905941,0.0088110829651355,0.0916765481233596,0.2066408725617453,0.1182106382302939,59
1733384555602901800,-0.082616396953538,-0.0491097756057977,0.0161473441373556,-0.30928445076067,9.773457924494148,0.744460595773533,-0.4225544035434723,0.4641282856464386,-0.0641911551356315,-0.5881559798274908,-0.5576523166899883,0.3886733438697739,0.4382115192494812,-0.0527653060853481,0.0172345992177724,0.0232622735202312,-0.003139317035675,-0.0005174577236175,0.0031885802745819,0.0531845465302467,-0.0428639911115169,0.0801759449988603,-0.0245022550225257,0.2102098901549354,0.2671510535061359,60
1733384555642901800,-0.4035240289580076,-0.7308931851267815,-0.1449414818327873,-0.3264082752473652,9.762720841902494,0.8678406725309789,-0.3226567506790161,1.2800003290176392,0.1385048329830169,-0.5989630747619574,-0.5609717102922807,0.3755837833066807,0.4306866171298872,-0.0173085108399391,0.004210090264678,0.0174837466329336,-0.0026767253875732,0.001028224825859,-0.0228010267019271,0.0758600309491157,-0.072763442993164,-0.1173392622232437,-0.0420027785003185,0.2156475876968354,0.2203543771483004,61
1733384555682901500,-0.837808230099827,-0.8553536775320768,0.1286169544976204,-0.3042257243326865,9.755348851829767,0.9544598753850908,-0.1824012547731399,1.5979150533676147,0.2358123064041137,-0.6144440604204133,-0.5687113658883535,0.3576359488689608,0.4136693823115272,-0.048183336853981,-0.0265860669314861,-0.0056641162373125,-0.0102006196975708,0.0013837367296218,-0.0170765817165374,0.0909502133727073,-0.0572643801569938,0.0089203885585069,-0.0439362004399299,0.2083189435754902,0.1323986649934202,62
1733384555722901500,-1.5042963092029094,-1.007282022577524,-0.2569739428848028,-0.2383831876507028,9.75674235201478,0.9589238690566272,-0.0441779606044292,1.899721503257752,0.4772549867630005,-0.6305368558164187,-0.5800633417022611,0.338577922461141,0.3889920328932763,-0.0281526371836662,-0.0127686271443963,-0.0087312795221805,-0.0064761638641357,0.008844718337059,0.0066604614257812,0.0846931710839271,-0.0279163345694541,-0.0341214653104543,-0.0332711711525917,0.1126020411008968,0.0992296050369739,63
1733384555762901500,-1.378086635042727,-0.8673182560920715,-0.4386819246441125,-0.0753433417772175,9.752648945221305,1.0249622023053466,-0.3399748504161834,2.039035558700561,0.7701239585876465,-0.6490901084435435,-0.5869496793297969,0.3212966647399208,0.3618571330448262,-0.0080843875184655,0.0077385655604302,0.0216021239757537,-0.0118876695632934,-0.0048387646675109,0.0008963644504547,0.0726492702960968,-0.069992646574974,0.0955564694821834,0.0089071132242679,0.1312921650562435,0.0405839393228292,64
1733384555802901500,-1.0837751874104142,-0.8866799591660499,-1.0906184774339198,0.1614090161015279,9.732955818235874,1.1890800207078456,-0.5156084895133972,1.911278247833252,0.8940425515174866,-0.673477452708161,-0.591330829976712,0.299502319322019,0.327191615638766,0.0011669016676023,0.0100862486287951,0.0298085901886224,-0.0048612356185913,0.0006108433008193,-0.014031171798706,0.0413579121232032,-0.107779636979103,0.0425970327109098,-0.0201514642685651,0.1178025140871293,-0.0633448929136619,65
1733384555842901800,-0.9857825768224896,-0.7214595863491297,0.2497919224262237,0.4630983538243919,9.69058791810572,1.4312367720805108,-0.5869477391242981,1.784912109375,1.1151858568191528,-0.6961438107636334,-0.5880453294870538,0.2850086387334881,0.2972484364609448,0.0358993150293827,0.0148233193904161,0.0141573250293731,-0.0106199383735656,0.0154315531253814,-0.0077463686466217,0.0139767732471227,-0.124458871781826,-0.1105816046565771,-0.0187661759555339,0.0792470483846031,0.1377806868253275,66
1733384555882901800,-0.1758187045250087,-0.6679115360349417,0.1517703780047595,0.7791576690148562,9.626115153673291,1.70328670354411,-0.5857506990432739,1.9981275796890257,1.091310739517212,-0.7201743431455145,-0.5846266655323447,0.2671482965014164,0.2611365069220717,0.0577361695468425,-0.0021356367506086,-0.0124769490212202,-0.011057436466217,0.0126530528068542,-0.0008131265640258,-0.036974012851715,-0.1271631270647049,-0.135153151333332,-0.0288393180817365,0.0174088519731536,0.2846747274979949,67
1733384555922901500,-0.0150528268989175,-0.4690677105575799,0.2625835994601249,1.0132853546455505,9.545486204209924,2.00682029916048,-0.6066928505897522,1.9157241582870483,0.9281778931617736,-0.7420800486745406,-0.5801224550264638,0.2472621670251365,0.2272367544989182,0.0272882506251335,-0.0028783923480659,-0.0224297139793634,-0.0152475833892822,-0.0037906914949417,0.0068673193454742,-0.0756934583187103,-0.1034056693315506,-0.1191658931285142,-0.0988946482539177,0.0082504260082263,0.1961530885560438,68
1733384555962901500,-0.2893513410069048,-0.1697054092764854,0.3672621175527572,1.2106701404210178,9.44948140643835,2.3263643877267834,-0.6986571550369263,1.2565462589263916,0.8573896884918213,-0.7609318929370017,-0.5727767188953135,0.2309009664156996,0.1989831434732006,-0.0061437422409653,0.0054389261640608,-0.0224678628146648,-0.0123023986816406,-0.0111842602491378,0.0087939500808715,-0.1618643999099731,-0.0573890842497348,-0.1140560027688741,-0.2495165467262268,0.0358806661358568,0.2382832344075664,69
1733384556002901500,-0.1395131001085043,-0.2733428938835859,0.6731690181717276,1.426097217234969,9.341230875077844,2.62259920463711,-0.5250065922737122,1.130615472793579,0.8978179693222046,-0.7766945537386106,-0.5637015102072557,0.2202845114064584,0.1745304134788498,0.0065976195037364,0.0127962818369269,-0.009952139109373,-0.0049588084220886,-0.0047820061445236,0.0073434114456176,-0.1670301109552383,-0.1165024563670158,-0.1258171677112579,-0.3968679010868072,0.2153276350274681,0.6217410287514329,70
1733384556042901500,0.3638908875539898,0.0710813689172267,0.936255598717928,1.6250922877512872,9.238621564474702,2.8596014958560465,-0.4747836589813232,1.2219688892364502,0.7863253951072693,-0.7892669344325208,-0.5562853680240522,0.2115360237158725,0.1511845286582635,-0.0042225373908877,0.0002339375787414,-0.0341067425906658,0.000795841217041,-0.0020272880792617,0.0005309581756591,-0.1225710064172744,-0.104009672999382,0.1121481233209371,-0.5269188284873962,0.2457466290907934,0.268042120594345,71
1733384556082901800,0.0937213630095124,-0.1038543422281742,0.768708828780055,1.7329048660859463,9.129994016495347,3.1321938636332747,-0.4497437179088592,1.5335001945495603,0.7367491722106934,-0.8025341198299749,-0.5495420191684885,0.1957194896793696,0.1250459621495698,0.0012641070643439,0.0378719642758369,-0.0550742745399475,-0.0170069336891174,-0.0023941099643707,0.0191004425287246,-0.2485257536172866,-0.0506137497723102,-0.2046703396737575,-0.724778950214386,0.2007701721637509,-0.1992345783606171,72
1733384556122901800,-0.0225505622431635,-0.1662181516826152,0.571555148346722,1.7911174010798334,9.015486178305745,3.418082350835204,-0.5215308666229248,1.813645362854004,0.7988995313644409,-0.8154510963002786,-0.5428342658124464,0.1762307145216098,0.0965045156059334,0.0453287698328495,0.0806505903601646,0.0073404321447014,-0.0062026381492614,-0.0046792179346084,0.0009592771530151,-0.3785702586174011,0.0074003860354423,-0.0736626175820827,-0.5933973789215088,0.2562629998701624,-0.2287599115198478,73
1733384556162901800,-0.5020591489247977,-0.3523544712781906,0.0861246242702007,1.8347313557483256,8.865537608900667,3.769138306735456,-0.7659412622451782,1.7170569896697998,0.9164034128189088,-0.8294067401883798,-0.5328180519798715,0.1547008340227057,0.0652467499705793,0.0925772413611412,0.0559212230145931,0.0054862727411091,-0.0155262351036071,0.0148545354604721,-0.0103684514760971,-0.4604173600673675,0.0696488916873931,-0.1551812093615532,-0.3722822070121765,0.1667870558780617,-0.3471197489624842,74
1733384556202901500,0.6236204127572477,-0.2984288198232651,0.6573205839157105,1.8736815563894809,8.658382466673851,4.206200813484192,-0.9094911813735962,1.7238097190856934,0.7565640807151794,-0.8445121035084928,-0.5170757846076562,0.1348186998862323,0.0354393912942793,0.107828103005886,0.0640146806836128,-0.0211898125708103,-0.0219753384590148,0.0150651484727859,-0.0031532347202301,-0.5468868613243103,0.0913020819425582,-0.0896376008272171,-0.2318496853113174,-0.0825673062479589,-0.4138017504096031,75
1733384556242901500,0.2891078876398503,-0.2323071191400289,0.573541645988822,1.7770881450749934,8.472251407775282,4.607959659400582,-0.7213431000709534,1.61417555809021,0.5494921207427979,-0.8572412041890669,-0.502758155347711,0.1108768487555112,0.0088351122816903,0.1464623212814331,0.0704679414629936,-0.0250627156347036,-0.0055258274078369,0.023193672299385,-0.0101811289787292,-0.5834143757820129,0.0882582366466522,-0.0562152236968278,-0.0659205019474029,0.0133805189056787,-0.113663642450422,76
1733384556282901500,0.1343617086946964,-0.742826199504733,0.5069838919758797,1.696753502383083,8.306108659416436,4.929499305698275,-0.5595352649688721,1.3066673278808594,0.5865633487701416,-0.8666836124470284,-0.4901143346261603,0.0919424925686968,-0.0139259385830507,0.1577019244432449,0.0209170579910278,-0.0819427743554115,0.0145257115364074,-0.0034778714179992,-0.0065246224403381,-0.5216183066368103,0.0156695917248725,0.1165250232309103,-0.0017566606402397,0.0007130938725313,0.1875811846416443,77
1733384556322901500,0.5518700585372746,-0.5059960499823093,0.0826549023330211,1.663813940333575,8.194226493555307,5.124135158091783,-0.2604767084121704,0.7410190105438232,0.4293748438358307,-0.871921478261754,-0.482066272253547,0.0797115087235048,-0.0317979690485662,0.0519914664328098,-0.0107255028560757,-0.1245293840765953,0.0086361169815063,-0.050644427537918,0.0132553279399871,-0.4809763133525848,0.009230145253241,0.0494780243963003,-0.0612709037959575,-0.0840547500604298,0.0991764866102486,78
1733384556362901800,0.1591534739933907,-0.3926350437402724,0.0367009604096412,1.6700167404964563,8.127851694893836,5.226801751840115,-0.1245568692684173,0.5967360734939575,0.5082995295524597,-0.8742839231514744,-0.4777977725964892,0.0722258446376307,-0.0460472203524176,-0.0839511826634407,-0.0056233122013509,-0.0702714696526527,0.0036967396736145,-0.0785819590091705,0.0356435924768447,-0.4027455449104309,0.0741555541753768,-0.0476940635889768,-0.0978641286492347,-0.0633410752550698,0.5393774375151843,79
1733384556402801200,0.4601540440008044,0.143292034125328,-0.2478337740957736,1.710788311345875,8.043679958257078,5.342544684782624,-0.3756821155548095,0.7477684020996094,0.476881593465805,-0.8767699075346518,-0.4723733240424007,0.0668540501239553,-0.0605671549874602,-0.2042432427406311,0.0008780497591942,-0.0180538073182106,-0.0149827003479003,-0.0653329640626907,0.0399792939424514,-0.2023695558309555,0.0240004025399684,0.1230621151157654,-0.1361497938632965,-0.1112889766077976,0.7734026856847107,80
1733384556442801200,-0.0693910777427256,0.2858937478989362,-0.2117132439225912,1.7197440634787082,7.909757225501536,5.536118460902571,-0.5454103350639343,0.403544932603836,0.5113884806632996,-0.8813541407441807,-0.4626665702997919,0.060631404169484,-0.0740161683851566,-0.350543200969696,0.0006904567126184,0.0035252543166279,-0.0208178758621215,-0.0537517815828323,0.0365161001682281,-0.0933416113257408,-0.0765400528907775,0.241807353413105,-0.2174311280250549,-0.0840879399439785,0.6462379027567804,81
1733384556482801200,0.6978430023096501,0.4333633599698543,1.031473045504093,1.834474019986391,7.766627688461542,5.699525062295794,-0.3380472064018249,0.0078393314033746,0.3851852416992187,-0.8852621180964949,-0.4532355320036174,0.0631081316991533,-0.0831022883935269,-0.4010545909404754,-0.0024561213795095,0.0103759691119194,-0.0112661719322204,-0.0241447836160659,0.0200867652893066,0.0010218545794487,-0.1640989631414413,0.1911065092235803,-0.3106801807880401,-0.0393050510939676,0.5198932771053165,82
1733384556522801200,0.4515919673606753,0.4931552731096744,0.7044739647567272,1.940215345004946,7.691273464530706,5.766304934626818,-0.2091863751411438,-0.1230817884206771,0.2804131209850311,-0.8866251630492611,-0.4489628818419594,0.0665778510167834,-0.088857806997003,-0.4428020417690277,0.0043276422657072,0.0183819644153118,0.0178537368774414,-0.0167027562856674,0.0143376439809799,0.060742862522602,-0.225433737039566,0.1599433091968297,-0.3521203994750976,0.1008298250415362,0.4418021024912595,83
1733384556562801200,0.297685746371001,0.6966033775120973,0.2517915718108415,2.071227012619376,7.615914564424752,5.820501804238558,-0.0922147259116172,0.0572840124368667,0.1657879203557968,-0.8880869877740508,-0.4447129245697038,0.0739418990887938,-0.0898025335445986,-0.4876768290996551,-0.0042330888099968,0.0269742552191019,0.0117799043655395,0.0037412792444229,-0.0014340281486511,0.0569212771952152,-0.2578280866146087,0.0427262120485305,-0.3387343287467956,0.1260841846169904,0.1633602049682289,84
1733384556602801400,1.2766829008370637,1.1157090795487166,0.9451754027545451,1.9563871659964325,7.6529048631697885,5.811710595017671,0.1593112796545028,0.3033651709556579,-0.1422464251518249,-0.8872828187343548,-0.446675771965202,0.06454433252411,-0.0951001016654066,-0.4630599021911621,-0.0057408642023801,0.0052539119496941,-0.0077219605445861,0.0121101737022399,-0.0083890110254287,-0.0577047578990459,-0.2492977827787399,-0.0496942974954843,-0.2482123523950576,0.2289035395079292,-0.1661665676258504,85
1733384556642801400,0.0666695438243448,0.4229010026663541,-0.1100339076459407,1.9203681965015829,7.682967993000149,5.783992567008734,0.0883276015520095,-0.1664237529039383,0.1885692626237869,-0.886633650815992,-0.448470496540238,0.063029149560034,-0.0937135613264167,-0.389323353767395,0.0218154489994049,0.0152498204261064,-0.0180392861366271,0.0187081694602966,-0.0127204656600952,-0.2710502743721008,-0.2577845156192779,-0.0501192449092864,-0.0818278938531875,0.2885587658571079,-0.5265297194451093,86
1733384556682801200,-0.95818875971511,-0.3385568320721387,0.5354688127040863,2.0646090557843446,7.671247744590044,5.749758873495459,0.0820317491889,0.1695409715175628,0.5350868105888367,-0.8846794046820483,-0.4498556761985229,0.0668860798690326,-0.1024618203717897,-0.2546648979187011,0.0650557056069374,0.0524232238531112,-0.0087202191352844,0.0219240486621856,-0.0160518437623977,-0.5539654493331909,-0.3007621765136719,0.0237356803745031,0.0851131975650787,0.3626152781276032,-0.5838515892095864,87
1733384556722801200,-0.5119730785652995,0.3969546605050563,-0.3335363735616207,2.218290674237907,7.617785034471749,5.763585738795995,-0.0669290721416473,-0.0289699137210845,0.6149142980575562,-0.8836682842416627,-0.4485761068084443,0.0701313027175261,-0.1139796382383743,-0.1389148384332656,0.1030996516346931,0.1099524274468422,-0.0079187750816345,0.040053367614746,-0.0271584838628768,-0.7958627939224243,-0.3496869206428528,0.0414484471976757,0.224606454372406,0.4085927835896611,-0.3936129488617181,88
1733384556762801200,0.5179524452358484,1.4901555556476116,-1.1342828471153974,2.4602844901338217,7.5048600815594195,5.813300494557619,-0.4020391702651977,-0.4084961116313934,0.5873812437057495,-0.8840696371825,-0.4439382984310244,0.0807647792986424,-0.1217239280462604,-0.113109603524208,0.0988620296120643,0.099665567278862,0.01011723279953,0.0568718165159225,-0.0406807661056518,-0.8455121517181396,-0.3488496541976928,-0.1123480298072099,0.2630850374698639,0.4746845275260508,0.2120714097104966,89
1733384556802801200,0.2864665793508291,0.9269394888401032,0.1715975066334009,2.721847514374554,7.304325818777084,5.950525191468,-0.5612688660621643,0.1565526127815246,0.927890121936798,-0.8866246122716488,-0.4337126159751793,0.0922008904623016,-0.1314880475624522,0.0546610169112682,0.058366697281599,0.0339524671435356,0.0029458999633789,0.0720611363649368,-0.0519568920135498,-0.5329204797744751,-0.2104353755712509,-0.567948356026411,0.3147459030151367,0.5804444111146032,1.1896067479956896,90
1733384556842801400,-0.1101321073234081,0.7363847682803869,-0.2543365801185369,2.953844836913049,7.0794865512996905,6.109505793112516,-0.3887909054756164,0.1503052860498428,1.0657933950424194,-0.8881306014386399,-0.4230146537190646,0.0977778083385477,-0.1507387889165761,0.2477247565984726,0.0619895011186599,0.0132531160488724,-0.0037721395492553,0.0450948923826217,-0.0321960300207138,0.0490169525146484,0.05156771838665,-0.6009177286922931,0.2563210129737854,0.6361516852892934,1.296200525125116,91
1733384556882801400,0.2572726335704327,2.9030180282562967,-0.5237275215059518,3.1872356596365568,6.858591053012013,6.242727099600434,-0.2097001373767852,1.0814049243927002,1.3219091892242432,-0.886922472637572,-0.4143551930810328,0.1000963511051382,-0.1779296793081156,0.2483378052711486,0.0616554878652095,0.0033325743861496,-0.0288156867027282,0.0179757475852966,-0.0025949925184249,0.5308171510696411,0.2627796828746795,-0.4354302293717861,0.072920948266983,0.5600944276556372,0.9639992726247756,92
1733384556922801200,-1.0723606439486146,1.7381185090810058,-1.2452835539668798,3.3369758469879627,6.594450871759653,6.445788250511884,-0.4599386155605316,0.7823569178581238,1.7940020561218262,-0.8854398043434853,-0.4026492619683078,0.0960720120621935,-0.2112817333522017,0.2761377394199371,0.0739442706108093,0.0238977037370204,-0.0069743990898132,0.019814446568489,-0.0014395117759704,0.8005019426345825,0.4020088016986847,-0.2352583701610565,-0.0615385025739669,0.5113192177664488,0.5783476214984431,93
1733384556962801200,-1.1099886560752987,0.933196795669198,-1.7014157951056956,3.6848031962305305,6.087351244449615,6.7480942040294405,-1.229520559310913,0.6579120755195618,2.261634588241577,-0.8837915932960223,-0.380833661609838,0.1044445591969231,-0.250937532512061,0.3236961960792541,0.0596701018512249,0.0378197096288204,0.0121189951896667,0.0272982120513916,-0.0094596594572067,0.9374977350234984,0.4231042265892029,-0.1281412267446517,-0.1000195816159248,0.3007251140668988,0.1487678351879119,94
1733384557002801200,-1.126213522428274,0.1383002171874046,-1.882829762354493,4.026489266239106,5.324220508062839,7.1840411507517095,-1.5141526460647583,0.7233142256736755,2.294088840484619,-0.883335467682707,-0.3463007658483844,0.1174377050988172,-0.2932622348444355,0.2943369746208191,0.0332862176001071,-0.0150439701974391,0.0010467171669006,0.0020312517881393,-0.0054823756217956,0.7840534448623657,0.4088166058063507,0.0482242249429225,-0.0688782334327697,0.1368952092276886,-0.4287142920549959,95
1733384557042801200,-1.2759200997710227,-0.6805459766805172,-1.9713111788839104,4.255952978646755,4.621701184505224,7.529749608144163,-0.6562375426292419,0.6551068425178528,2.092219114303589,-0.878957604099786,-0.3162372778772231,0.1268211133115914,-0.3336824500626829,0.2840076386928558,0.0160590801388025,-0.0237033702433109,0.0131857395172119,-0.0096335113048553,-0.0048539042472839,0.532712459564209,0.3167058825492859,0.1380833595663309,-0.0259942449629306,0.1208468684853985,-0.5213952061008662,96
1733384557082801200,-1.552876800237596,-1.5969599798530338,-3.107243546772003,4.451357185064256,4.200205372461676,7.6625114804267875,0.0123710706830024,0.2609862685203552,1.9379533529281616,-0.8677668499606541,-0.3031838025834147,0.1319099551662881,-0.371025654969509,0.2380050122737884,-0.0060057421214878,-0.0161706861108541,-0.0030577778816223,-0.0129117220640182,0.0047730803489685,0.3106120228767395,0.2535522580146789,0.1364443601876497,-0.0010755360126495,0.1160487109560519,-0.3875422506459057,97
1733384557122801400,-2.274298100402951,-1.920454559610784,-3.442681954562664,4.721621109893918,3.932930984836816,7.642560579288006,0.540335476398468,-0.0064203925430774,1.832534909248352,-0.8519710928847122,-0.3015455150229113,0.1393131611606826,-0.404731247390972,0.1821108609437942,-0.0150648048147559,-0.0111852483823895,-0.0054260492324829,-0.0094898641109466,0.0217936187982559,0.1722501665353775,0.1969654262065887,0.0913917510181665,-0.007418664637953,0.1928186469037085,-0.2171504665404558,98
1733384557162801200,-1.7608108178824184,-2.210759109689296,-4.363145525386929,5.071691854149103,3.8404625444978473,7.463187762477993,1.001429796218872,-0.5352219343185425,1.607469916343689,-0.831720041258029,-0.3125480581168893,0.147638205781933,-0.434463354937119,0.2014749646186828,0.0029446627013385,0.0098221655935049,-0.0032523274421691,-0.0055147856473922,0.0227667093276977,0.0985421910881996,0.1621978133916854,0.0166635500311851,-0.0058456193655729,0.259926454281155,-0.0708288554608821,99
1733384557202801200,-2.482662618419528,-3.055787500301004,-2.480581720492244,5.4381549302786585,3.882684606416523,7.177855740115046,1.517646074295044,-0.209533229470253,1.5659267902374268,-0.808721289202043,-0.3322770829743519,0.1536982311196158,-0.4603679213522534,0.1895517259836197,0.0147282984107732,0.0294839516282081,0.006874680519104,-0.005793422460556,0.016700342297554,0.0220718458294868,0.1866107285022735,-0.0284060102730989,0.0044769998639822,0.3204689483262598,-0.0173746209099888,100
1733384557242801200,-3.193254189273715,-3.2965982438921926,-3.5285271773695945,5.666614141818881,3.800876968562602,7.043663542768359,0.8635223507881165,1.2561514377593994,2.828391790390014,-0.7804471335026439,-0.3441986939620621,0.1496674757592453,-0.5000291015326469,0.1779320836067199,0.011192312464118,0.0129012446850538,0.0043575167655944,-0.0101342797279357,0.0065454989671707,-0.0236469469964504,0.1748606413602829,0.0044277533143758,0.0183196775615215,0.3394446112247183,-0.057191229122132,101
1733384557282801200,-0.5935907468050718,-4.797964929383993,-4.498981982809305,5.945529282876849,2.998423106569052,7.199342180258035,-1.3553775548934937,-1.1544170379638672,2.983368396759033,-0.7501398718492269,-0.3251375072060919,0.1649888263415636,-0.5516832677976667,0.1041124612092971,-0.0108523229137063,0.0040103485807776,0.0190189480781555,-0.0098479241132736,0.005790427327156,-0.0641709342598915,0.1954812854528427,0.0206827225446701,0.0128282122313976,0.3308368688119575,-0.0239169552255421,102
1733384557322801200,-0.3046235828101635,-2.249395568206161,-1.2839993613302707,6.722730045670271,1.8770972100518644,6.8885261725485325,-2.2838826179504395,-1.5328400135040283,2.028675079345703,-0.728162169667004,-0.3100117557563486,0.2295117256880995,-0.566565865255223,0.0519656315445899,-0.029494822025299,0.0010777425486594,0.0036643743515014,8.374452590942383e-06,-0.0017868876457214,-0.0523554757237434,0.1619890332221985,0.0740624305546283,0.063323400914669,0.3645498629193753,0.098591599394381,103
1733384557362801400,0.1393961957305669,-3.997911698791385,1.0505173531919718,7.220828620401025,0.7247389002807438,6.595814561328291,-1.3749051094055176,-1.9905134439468384,2.3839223384857178,-0.7074108086799805,-0.2863852669465973,0.2858155596059709,-0.5795367909370187,0.0773639380931854,-0.0622175633907318,0.0033735204488039,0.0043226480484008,0.0064484030008316,-0.0046566724777221,-0.0496192313730716,0.131176620721817,0.0254372235953807,0.1315435320138931,0.3385677918575704,0.1570514602128416,104
1733384557402801200,2.6379198156267405,-0.5666763267965987,-0.2464303370386362,7.797657032975554,-0.1734313527307473,5.944480650606751,-1.550106644630432,-2.1860501766204834,1.6951124668121338,-0.6757483918606926,-0.2839474798114197,0.341012701314742,-0.5885985778623212,0.0723260343074798,-0.0602258369326591,0.0142681803554296,-0.0085538625717163,0.0047119706869125,0.0162968635559082,-0.0036895982921123,0.0957093834877014,0.0058434653311967,0.205698162317276,0.3440476845733821,0.272375656286627,105
1733384557442801200,2.2501363035708666,-3.2902745938286184,2.474420275253057,8.232875665423274,-1.216660320746526,5.187473950058221,-2.503381967544556,-1.7203927040100098,1.6847254037857056,-0.6538356385699186,-0.2656862798457161,0.4061074082800821,-0.5805054662484064,0.0821978375315666,-0.0677199140191078,0.0099143106490373,0.0054355859756469,0.0069722086191177,0.0130921602249145,0.0314778126776218,0.1111995652318,-0.0280301626980304,0.2011150419712066,0.3056325223906896,0.202809075846523,106
1733384557482801200,2.835603949674964,-2.1818575709842145,2.77379572827667,8.389161036634444,-2.15538822786212,4.598549149237573,-1.8523521423339844,-1.177460551261902,1.5317939519882202,-0.6333028154784163,-0.2415010217840016,0.4552103935491859,-0.5773978285148293,0.0711020454764366,-0.0402175597846508,-0.0113985678181052,-0.0162551403045654,-0.0011196285486221,0.0277949571609497,0.0666452273726463,0.1266897469758987,-0.0610983195632696,0.1965319216251373,0.2671304308432154,0.1331487527083605,107
1733384557522801200,1.1838082177847624,-2.243672952775657,0.9184496006533504,8.439684770691395,-2.990949409687519,3.9995398845151056,-2.082125425338745,-1.314375400543213,1.528795838356018,-0.6144421769949484,-0.216120684020481,0.4993716722010524,-0.5712972083350099,0.0434730798006057,-0.0224083643406629,-0.0088853426277637,-0.0190569758415222,-0.0061374604701995,0.0326265692710876,0.0975330024957656,0.1154034584760665,-0.0088882398545742,0.2858774662017822,0.2028987634239718,0.1166000612284988,108
1733384557562801200,2.364216271737218,-2.5453242417767643,2.369012566103041,8.460866090407967,-3.804547181507945,3.179549489048123,-1.5138027667999268,-1.944005966186524,1.5281057357788086,-0.5865176967182997,-0.1956377186016449,0.5473700468331593,-0.564011316022155,0.0557047091424465,0.0017355342861264,0.0098485304042696,-0.0117751359939575,-0.0107131004333496,0.0314958691596984,0.1626751273870468,0.0508956611156463,0.1136269637018442,0.3319735527038574,0.1547103039141744,0.0647815746532753,109
1733384557602801400,3.217878342920541,-2.0696523106485603,3.318856545190513,8.484232352948188,-4.348454736733436,2.2976414204590023,-0.6477658152580261,-2.2063324451446533,1.0543203353881836,-0.5523119168250021,-0.1931613074920374,0.587827862351818,-0.5586580665842067,0.0879209712147712,0.0291309934109449,0.0406449921429157,-0.0026349425315856,-0.0131817162036895,0.0220477730035781,0.2319193035364151,0.0306003000587224,0.1039823525220155,0.2427825033664703,0.0966765595532953,0.0292350815083831,110
1733384557642801400,1.9235779523283243,-2.016634713949263,2.940143351557851,8.437629007205366,-4.764791850839555,1.5078344202011822,-0.1724261045455932,-1.991782307624817,1.3571646213531494,-0.5152804241560155,-0.1991248344810783,0.6192504688073023,-0.5580002199231098,0.0637282878160476,0.0157668776810169,0.0841414034366607,0.0042812824249267,-0.0150733441114425,0.0073465108871459,0.3501113355159759,0.0515447333455085,0.0054366380959749,0.1381389200687408,0.091117792914994,0.1941216923262924,111
1733384557682801200,2.7475574174314734,-0.835511497464776,2.497095632919669,8.23763893430233,-5.2453112219989295,0.8935429037380963,0.2310106009244918,-1.8359403610229488,1.4227715730667114,-0.4759049190726999,-0.2015744043550299,0.6432804591800374,-0.56486514199598,0.0384021550416946,-0.0122341299429535,0.0687811523675918,0.0005354881286621,-0.0148916244506835,-0.0039556622505187,0.5359554290771484,0.1090772897005081,-0.1925204676747322,0.0254439264535903,0.1694648054536432,0.5152165174659341,112
1733384557722801200,3.0929864733606576,0.4123445373386144,2.3159522993057964,7.926774411275982,-5.767125018838048,0.2772670998563059,0.9388258457183838,-1.857470989227295,1.2011994123458862,-0.4222437793913646,-0.214065101260113,0.6633546899970499,-0.5795228649533583,-0.0008443174883723,-0.031960591673851,0.0197726003825664,-0.021435797214508,-0.0151369571685791,-0.0052932500839233,0.7956934571266174,0.1737690716981887,-0.2362573180705308,-0.0530077069997787,0.0934553324844688,0.515686765326187,113
1733384557762801200,3.21368556740582,1.575969214272499,1.3306991531848906,7.686815316078066,-6.089488256478309,0.037287836369907,0.9333242177963256,-1.2421091794967651,0.9409457445144652,-0.3850940664403406,-0.2261196065509385,0.6685572324027594,-0.5946458803452489,0.0003069669473916,-0.0407088100910186,0.0126292034983634,-0.0081222653388977,-0.0145265161991119,-0.0002685189247131,0.8616125583648682,0.2230981439352035,-0.1626274337142705,-0.0058733634650707,-0.0118527887485921,0.189973450073041,114
1733384557802801200,2.232525828078389,1.7155939580619337,0.4613783250987529,7.450074013882875,-6.375757851952314,-0.1284349855268374,0.532649040222168,-1.119333267211914,0.9272021651268004,-0.3550789916496632,-0.2326538899122288,0.672622129799589,-0.6061110165994411,0.0336524061858654,-0.0511919148266315,0.0437404513359069,-0.0046942234039306,-0.0063025802373886,-0.0047768503427505,0.8025170564651489,0.186492770910263,-0.0181663558095693,0.0531681887805461,-0.0486230150021612,-0.1253328182604163,115
1733384557842801400,2.9966607730716466,1.8195225345700976,1.4729308646023274,7.282694417205453,-6.560790009698271,-0.2979756692282855,0.489743560552597,-0.7914459705352783,0.2471376806497573,-0.3323434538055891,-0.2393025827753341,0.6767028927861054,-0.6118458355213299,0.0041869264096021,-0.0588462129235267,0.037596471607685,-0.0229233503341674,-0.0129756331443786,0.0162027925252914,0.7322682738304138,0.1086245104670524,0.1153723460644483,0.0334299467504024,-0.0690237788002938,-0.3126747142534702,116
1733384557882801400,2.458221420124173,1.189551145350933,1.5351847839415071,7.2661273132860655,-6.578300531947613,-0.3157874759791418,0.7105994820594788,-0.4030086696147918,-0.0710482522845268,-0.320296034247006,-0.2507517888818114,0.6732192965128192,-0.6175027671108446,-0.019495764747262,-0.0319987796247005,0.032994195818901,-0.0109438300132751,-0.0055920928716659,0.0110871195793151,0.6467773914337158,0.084969937801361,-0.0061947629868984,0.0472013056278228,-0.0577879529062658,-0.2862017178695649,117
1733384557922801200,1.6075532700598238,1.0815455286622049,0.4252385057032108,7.27702923105061,-6.570252250048518,-0.2167936341931112,0.4160062670707702,-0.0502929352223873,-0.0481310375034809,-0.3153929955388288,-0.2574830036644033,0.6669002191159188,-0.6240783312435003,0.02365836314857,-0.0204846560955047,0.0428932979702949,-0.0095973014831542,0.0111612677574157,0.0075568109750747,0.5488545298576355,0.037641555070877,0.1199187573224306,0.0742717161774635,0.0214646667025983,-0.3545090189635753,118
1733384557962801200,1.8127812436163424,1.1708300782680512,0.420568175804615,7.332320910161733,-6.510498330831528,-0.1444871439277194,0.3843845427036285,-0.1584788560867309,-0.4443434178829193,-0.3154129571424536,-0.2632930256396009,0.661848605791526,-0.6270150826279471,0.0361091718077659,-0.0084816291928291,0.0068559367209672,-0.0035059452056884,0.0102372169494628,0.0117018520832061,0.4235461354255676,-0.0214861184358596,0.039442952594161,0.1219191178679466,-0.0514200253095477,-0.35682573494073,119
1733384558002801200,1.144361758059263,0.2295043366789817,0.5284533809840679,7.479402984219789,-6.341751537454128,-0.1054275920274201,0.6250717639923096,-0.3958392739295959,-0.6627702116966248,-0.3159510902443897,-0.2778882546530404,0.65433434054688,-0.6283308445636663,0.0374133214354515,-0.0138956233859062,-0.0318583026528358,-0.0040028691291809,0.0050315558910369,0.0056048035621643,0.1898768842220306,-0.0439503714442253,-0.0558756164789199,0.2258110642433166,-0.1728073208145797,-0.6259249633725732,120
1733384558042801200,0.179661570623517,-0.1164864447861909,-0.3311772432148456,7.631121485906839,-6.15886515956521,-0.0688044095617253,0.4405181109905243,-0.3305962681770324,-0.51260906457901,-0.3156391504363656,-0.2940495245802903,0.6457886076109632,-0.6299712775502654,0.0605599209666252,-0.0210409387946128,-0.0437329374253749,-0.0090795159339904,-0.0019912868738174,0.0017270445823669,-0.2785216569900512,-0.108670026063919,0.1607996337652206,0.4027798175811767,-0.0179393421206623,-0.8725818757086992,121
1733384558082801200,-0.6172551155090331,-0.0845218652486801,-1.245439621311426,7.71262020394206,-6.055257485574484,-0.1403545467681717,-0.0627825260162353,-0.5727354288101196,-0.1417501270771026,-0.3138673500118493,-0.3044241322805429,0.6438027942507133,-0.6279578556845163,0.0297151897102594,-0.0285731572657823,-0.0618233904242515,-0.025617241859436,-0.0177589207887649,0.0186927020549774,-0.4940457046031952,-0.256474882364273,0.0977922657102346,0.4662497043609619,0.0716195674471557,-0.3993335549982264,122
1733384558122801400,0.2285427981704473,-0.0045768063962459,-0.7890157037496567,7.736666849961876,-6.0120519655764095,-0.4118263586834073,-0.2973576188087463,-0.5976670384407043,-0.2834326028823852,-0.3081838392259273,-0.3131063077015246,0.6503550885184762,-0.6196978501749798,-0.036279808729887,-0.0051219989545643,-0.0509418509900569,0.0008295774459838,-0.0223162919282913,0.0216227769851684,-0.4801000952720642,-0.2085001617670059,-0.1482481952279806,0.3528499603271484,0.0118150140214711,0.1080249789763242,123
1733384558162801200,-0.032831425499916,-0.7311684949368238,0.293046542263031,7.830895870232582,-5.875630986264348,-0.5695767974784598,0.0561488047242164,-0.219217449426651,-0.4701626002788543,-0.3090067802092525,-0.3229213304143684,0.6517377911081655,-0.6127597332850013,-0.0151409646496176,0.0233421847224235,-0.0175074599683284,0.0029603242874145,-0.0160948187112808,0.0061567425727844,-0.3182157576084137,-0.1184025183320045,-0.1817068127155303,0.1939137130975723,0.1170990967918187,0.4591341629011556,124
1733384558202801200,-0.879501445838809,-1.0557003087878227,-0.313121362042427,7.913516285774111,-5.765230583393573,-0.5556742365932091,0.1453014761209488,0.1210165321826934,-0.2364837676286697,-0.3116122128408592,-0.3293382443992614,0.6479720849711854,-0.6120182790006143,-0.0434064269065856,0.0080709811300039,-0.0018589250976219,-0.0007588267326354,-0.0240803062915802,-0.005580186843872,-0.1405970305204391,-0.0707894638180732,-0.1392033035069704,0.1140719056129455,0.1751678394008427,0.5407662980576977,125
1733384558242801200,-0.9102876292467116,-0.7961153066217899,-0.6963889310438186,7.948942403942346,-5.7232963985055685,-0.4781167304644361,0.0544336214661598,0.1247042119503021,-0.0749968811869621,-0.315082124338192,-0.3294337449785087,0.644864773627433,-0.6134706036600033,-0.1030689552426338,-0.0499737337231636,-0.0133231673389673,0.0023574829101562,-0.0194865465164184,-0.0167050808668136,-0.0194354802370071,-0.0544201731681823,-0.0035182372540235,0.0606001764535903,0.1806341054501012,0.3250026462331414,126
1733384558282801200,-0.7119967614769935,-0.4640969364076852,-0.7287001320619135,7.971965552133321,-5.691694807061553,-0.4719926580935716,0.1608418524265289,-0.2219057232141494,-0.1717423647642135,-0.3150283200502026,-0.3320710270468036,0.6432680321753326,-0.6137526529061346,-0.1042236983776092,-0.0429740399122238,-0.0126637686043977,-0.0128906965255737,-0.0108085572719573,0.0006819516420364,0.0303658135235309,-0.0784408971667289,0.1067214220970869,-0.0050421878695487,0.2301526445198804,0.2560602621059865,127
1733384558322801200,-0.996036405941844,-0.7108610354453325,-0.430059715314582,7.998329242923855,-5.649485896885395,-0.5295665298577398,0.2370447367429733,-0.3722116947174072,-0.0821129009127616,-0.3111720486020037,-0.3392919051194756,0.6417798542745771,-0.6133283439212556,-0.1046737730503082,-0.0230326615273952,0.0137216988950967,0.005366563796997,-0.0041427612304687,0.0158375203609466,0.0919602364301681,-0.1037850901484489,-0.0080196403264999,0.0440962091088295,0.1930238140869885,0.2644602069869637,128
1733384558362801400,-1.0829653323322534,-0.6669628570079803,-0.6112380106439813,7.979313576808571,-5.671984728941321,-0.5740413026066497,0.0154048111289739,-0.1107949540019035,0.2046481221914291,-0.3061467120369768,-0.3425798229963087,0.6417998326543176,-0.6140082905438686,-0.0589667446911335,-0.000910529284738,0.022490557283163,-0.0090754032135009,0.0022545903921127,0.0003254115581512,0.0839735120534896,-0.1140856072306633,-0.0352408247292041,0.0674875378608703,0.1558347413668409,0.0620798779465258,129
1733384558402801200,-0.7826677960276603,-0.402453257921338,-0.4892973555725067,7.912599755451082,-5.758874492365122,-0.6296924992125481,-0.2036881744861602,-0.1262272298336029,0.3315114378929138,-0.3024906977446035,-0.3391592290802506,0.6458145255090894,-0.6135095858583564,-0.0687663704156875,-0.005980868358165,0.0035732574760913,-0.0144486427307128,0.0066269487142562,-0.0098918080329895,0.0635295510292053,-0.0825972184538841,-0.0948854383528232,0.0387090593576431,0.1514483795087784,3.7263270467e-06,130
1733384558442801200,-0.3871697640717029,-0.2903536499172449,-0.1621591586153954,7.832687429824471,-5.851970124691724,-0.7575132618311792,-0.1290292143821716,-0.4320468306541443,0.2870415151119232,-0.2962870264823214,-0.3374513282382334,0.6517277264654261,-0.6112213216706592,-0.0008661556057631,-0.011059196665883,-0.0061388248577713,-0.0200589299201965,0.0088223814964294,-0.0126625299453735,0.0358408093452453,-0.0525292977690696,-0.1292459731161594,0.058000061661005,0.2238062711678445,0.1382219643194228,131
1733384558482801200,0.063232993504405,-0.2070914293408393,0.3071323507606983,7.756977816584706,-5.9295467008471485,-0.916606457004696,-0.0312360785901546,-0.3717352747917175,0.2227536141872406,-0.2876664075446021,-0.3392481851674277,0.6569966443516126,-0.6086987584918523,0.0123476507142186,-0.0011156991822645,-0.0037360542919486,-0.0167436003684997,-0.0005834698677062,0.0005762875080108,0.0238476395606994,-0.0372078046202659,-0.0691851799070835,0.0851690396666526,0.2317007507447153,0.0945832405358552,132
1733384558522801200,0.2195095968872308,-0.1298392628341913,-0.0283048879861831,7.690483775457739,-6.002609014448523,-0.9977598687335848,-0.1532873660326004,-0.0547955334186553,0.2930134534835815,-0.282310235900614,-0.3382641569711059,0.6606428346895954,-0.6078069785158183,-0.0177434049546718,0.0155307622626423,0.0027274375315755,-0.0020311474800109,-0.0013221055269241,0.0098992586135864,-0.0174193382263183,-0.0212619099766016,-0.037417584246397,0.041548203676939,0.1894204558327794,-0.0120163818124681,133
1733384558562801200,0.3668313249200582,-0.0359410819530487,-0.1070211356960237,7.612442504400015,-6.091418932279944,-1.056261815128103,-0.3851265609264374,0.1059148833155632,0.3422520756721496,-0.2808303704729389,-0.3317293717635182,0.6661906555647058,-0.6060361437103365,-0.0174525883048772,0.0155978733673691,-0.004243919160217,0.0029299855232238,-0.0005785673856735,-0.0050875544548034,-0.0686880499124527,-0.0150103736668825,-0.0284042567074298,0.0194965507835149,0.1932032805734314,0.0072893532905727,134
1733384558602801400,0.5911100359052419,0.0885270092368125,0.5325942801810801,7.538999082526564,-6.172492118379473,-1.1109430341906843,-0.1231651231646537,-0.046062022447586,0.2501322627067566,-0.2796072287004984,-0.3254407234230461,0.6713647805395413,-0.6042990628850534,-0.020456900820136,0.0168556850403547,-0.0118835298344492,-0.0134210586547851,-0.0112783461809158,-0.0073273628950119,-0.1074441075325012,-0.0115051381289958,-0.056727849394083,-0.0092213749885559,0.1599186131469905,0.0251559955012053,135
1733384558642801400,0.6295283216267824,0.2997252893745899,0.3381131799578666,7.485468567869066,-6.229713888770341,-1.152740075630322,0.0600643493235111,-0.2044615298509597,0.1509960740804672,-0.275420505261894,-0.3245775232330786,0.6733667783197484,-0.6044585699338256,0.008138258010149,0.0118372775614261,0.0142134511843323,-0.0076857805252075,-0.0010738968849182,-0.0108042806386947,-0.1240797415375709,-0.0099645927548408,-0.0384556951224803,-0.0361089780926704,0.1500861329785548,0.0395737393669784,136
1733384558682801200,0.6807867996990681,0.3824211082398891,0.0726360510133206,7.446930455160141,-6.265573722180724,-1.2067390845824033,-0.0354887843132019,-0.1707263439893722,0.0907043889164924,-0.2711608119438811,-0.3255574073792499,0.6749362536344727,-0.6041070605595393,0.0027096709236502,0.0089696384966373,0.0171720907092094,-0.0004773736000061,0.0010544210672378,-0.0028636455535888,-0.1543075144290924,-0.0233531929552555,-0.0216629657536745,-0.0381606258451938,0.1524879882222041,-0.0068227586921304,137
1733384558722801200,0.7787748802423476,0.3350146294206381,0.3112766109585761,7.422562906622886,-6.285952493342757,-1.2501027908168731,-0.1307544112205505,0.0294608809053897,0.0666534975171089,-0.2697765670963241,-0.3248071589608509,0.6769326530543847,-0.6028956528990664,-0.0091927954927086,0.0172641072422266,-0.0093862833455204,-0.0062386393547058,0.0051930397748947,-0.0065696090459823,-0.1714282631874084,-0.0330530703067779,0.0064262336552143,-0.057344626635313,0.1841395197551697,0.0595115618284791,138
1733384558762801200,0.6587894874244928,0.2548398534655571,0.4673590069435536,7.416704243722558,-6.290622823241352,-1.26133613249287,-0.1168012619018554,0.0745990276336669,0.0141650652512907,-0.2711878291117805,-0.3226717819805793,0.6783753867766338,-0.6017865208355083,0.0223600715398788,0.0150300338864326,-0.0159797370433807,-0.0053383111953735,0.0059241950511932,-0.0109920352697372,-0.145674243569374,-0.0225853882730007,-0.0447375518709421,-0.0721608102321624,0.152098075589165,0.1074548509381711,139
1733384558802801200,0.6153676943272351,0.2349918281793594,0.5798140042565763,7.426756851181388,-6.278705590954423,-1.2615629269860684,-0.0001390469260513,0.0223388075828552,-0.0760166645050048,-0.2725430540445971,-0.322229976030635,0.6785938782525298,-0.6011643286032509,0.0140185179188847,-0.0022428552620112,-0.0117074288427829,-0.0059861540794372,0.0006753802299499,-0.0117758065462112,-0.1330916285514831,-0.0095107816159725,0.0041255554974079,-0.0549550019204616,0.1262460058488883,0.0619056173581629,140
1733384558842801400,0.4144797958016395,0.1615945835351943,0.4727497600711882,7.452865690428018,-6.249450270375609,-1.2528100039489567,0.0183199383318424,0.0405574850738048,-0.1141035482287406,-0.2739446956689732,-0.3234115289906662,0.6777023790670673,-0.6008982485901777,0.0656268522143364,-0.0028445166535675,-0.0211826227605342,-0.0068838000297546,0.008034735918045,-0.0104190707206726,-0.1530277132987976,-0.0363254398107528,0.0884860927045345,-0.0516662262380123,0.1930605659008026,0.0459048420846462,141
1733384558882801400,0.3875882817447185,0.082056351917982,0.441522262636572,7.48559365555346,-6.215102595093846,-1.228317221596837,0.0663089826703071,0.1002512127161026,-0.1364079266786575,-0.2758205778274867,-0.3246763518995407,0.6761745465821734,-0.6010792171644063,0.0849885642528534,0.0064173182472586,-0.0245359409600496,-0.0063974261283874,-0.0010370910167694,0.0060376226902008,-0.2134868204593658,-0.0252266265451908,-0.0409095180153846,-0.0568338334560394,0.1473123574162833,-0.0267880536824464,142
1733384558922801200,0.0689531247168779,0.0035778584867715,0.1476000335175543,7.52320997724235,-6.179719731545448,-1.1759097196199,-0.005044613033533,0.151390329003334,-0.1129537969827652,-0.2790761777219764,-0.3247515145976353,0.6741595994134516,-0.6017987788090104,0.0251856856048107,0.0040258527733385,-0.0103335697203874,-0.0033111572265625,-0.0171897411346435,0.0024099349975585,-0.232938140630722,-0.0329975970089435,0.1080915414065122,-0.1425338387489318,0.1397713857185095,-0.0868887770431116,143
1733384558962801200,0.067556117400527,-0.1144505550444126,0.1505973887026309,7.559322908630967,-6.141598382943868,-1.1435921619262546,0.0536859109997749,0.0119778579100966,-0.129695862531662,-0.2817791799237283,-0.3254559967593219,0.672595992250171,-0.6019082718020535,-0.0097968000918626,0.0009015388786792,0.0042109512723982,-3.337860107421875e-05,-0.0043927580118179,-0.0068431496620178,-0.2257155776023864,-0.0291315764188766,0.0014963760375976,-0.1791364848613739,0.1306545247398317,0.0874518542859703,144
1733384559002801200,-0.0177338096112012,-0.1332622230201959,0.2011608702480793,7.587750546213984,-6.109917881044745,-1.1248741635832935,0.1347646713256836,-0.0490517765283584,-0.1140614300966262,-0.2823504116470028,-0.3278101653674589,0.6707407230145226,-0.6024331386440885,0.0348700024187564,-0.0194879416376352,-0.0110777234658598,0.0030745267868041,0.0045735985040664,-0.0151222050189971,-0.1815647184848785,-0.0511515773832798,-0.0464449403107166,-0.1475812196731567,0.2151111792651936,0.2292977447235956,145
1733384559042801200,-0.0337654914796352,0.0345762233406305,0.0674643474638462,7.613508087804913,-6.083077804914116,-1.0959236711699516,0.1924534291028976,-0.0512783750891685,-0.1182702332735061,-0.2819518690601181,-0.3308828520574159,0.6681265555763214,-0.6038432114018494,0.0564626455307006,-0.0378436706960201,-0.0309071540832519,-0.0065342187881469,-0.0011685788631439,-0.0050825327634811,-0.1258600801229477,-0.0506560169160366,-0.1553366921842098,-0.104219764471054,0.1935358917949721,0.2453066667709499,146
1733384559082801200,-0.018206103298068,0.0636380671739578,-0.2029460000991821,7.641045498549937,-6.054379533696174,-1.0626881949137896,0.0746747180819511,0.0855782926082611,-0.0976984128355979,-0.2823171578395804,-0.3332751860126227,0.665664833057606,-0.6050744061838371,-0.0264711175113916,-0.0343388468027114,-0.0427746661007404,-0.0085570216178894,-0.0215262621641159,0.0177867412567138,-0.0737953931093216,-0.0257194656878709,-0.1083142442464828,-0.0617597959935665,0.1897574875011108,0.188917438214086,147
1733384559122801400,-0.2376847205251455,-0.1882856065839528,-0.3516635664045811,7.659260954198241,-6.035740884199738,-1.0372723794326186,-0.0410074666142463,0.0475268177688121,-0.0220072548836469,-0.2842889046425337,-0.3329380022073731,0.6648597293462916,-0.6052219604627354,-0.0359035022556781,-0.0190458577126264,-0.0175325591117143,-0.0056106448173522,-0.0125825107097625,0.01060551404953,-0.0601272843778133,0.0063339788466691,-0.0348334129720926,-0.0415468290448188,0.2095286664251238,0.1623499319471418,148
1733384559162801200,-0.1052905125111341,-0.2347726324707269,-0.0130091191768646,7.659893991404771,-6.032499125799537,-1.0513638870187103,0.073021188378334,-0.1177530512213707,-0.0024076923727989,-0.2836838336134861,-0.3337688169480483,0.6649834701497072,-0.604912286111378,-0.0289728920906782,-0.0013482995564118,0.0036082116421312,-0.0060980319976806,-0.0164372622966766,0.0058379769325256,-0.0652626752853393,0.0102419555187225,-0.0321913740307092,-0.0460845679044723,0.1919949824959039,0.1171614579709246,149
1733384559202801200,0.0249766203463077,-0.0697527506619691,-0.0812158094406127,7.65023535169959,-6.041297349283099,-1.070993228052929,0.1026884540915489,-0.1480243057012558,0.0145475603640079,-0.2809526597175733,-0.3358446997537525,0.6646907525662636,-0.6053595785497065,-0.0293433349579572,-0.003319198731333,0.0165716148912906,-0.0042015314102172,-0.0085259079933166,-0.0043460130691528,-0.0876975953578949,0.013978493399918,0.0069201546519994,-0.0954954177141189,0.1763110363529063,0.0816966152274981,150
1733384559242801200,0.0254822317808866,-0.0069897127568721,-0.2886717612449079,7.641648140618204,-6.049441492772102,-1.0861981767736375,0.0189126506447792,-0.0977063104510307,0.0188774615526199,-0.2788006060627381,-0.3373753830377427,0.6644987187701563,-0.6057139628637062,-0.0265086665749549,-0.0176301728934049,0.0088966507464647,-0.0008342862129211,0.0019875168800354,-0.0099852532148361,-0.1221383213996887,0.0233020521700382,-0.0114724111288785,-0.1475716829299926,0.1229173363502137,0.1297788013512268,151
1733384559282801200,0.086780457830429,-0.0636591099619865,0.0254968448281288,7.63197605690956,-6.058164897453785,-1.1054318695537746,0.0167850814759731,-0.035822857171297,0.0465700104832649,-0.2774410033311267,-0.3379524728140435,0.664943205873966,-0.605528895695954,-0.0484240874648094,-0.0319838151335716,-0.0080596962943673,-0.0033264756202697,0.005871444940567,-0.0034357756376266,-0.1924167275428772,0.0320604816079139,0.0839560480594635,-0.2516237497329712,0.0823042805307544,-0.0430116779264062,152
1733384559322801200,0.1569254226803779,0.0557914453268051,-0.103888244497776,7.613156790149212,-6.0788546342611305,-1.121493873495236,-0.019093882292509,-0.0781064480543136,0.065131552517414,-0.2760357291290987,-0.3375582532887498,0.6657587411861015,-0.6054948182039196,-0.0385722555220127,-0.0281789544969797,-0.0188246592879295,-0.0106688141822814,0.000174194574356,-0.00355926156044,-0.2776288986206054,0.0457458421587944,-0.0248673147529363,-0.4199987053871155,0.1186301422839984,-0.0164054379511158,153
1733384559362801400,0.2918774984836578,0.0534568648993968,0.1367429047428071,7.598664154416323,-6.091634036335349,-1.150088465142995,0.0204088669270277,-0.0756880417466163,0.0356155261397361,-0.2743244952899306,-0.3380820256662086,0.6665873824914561,-0.6050685659124628,-0.0650065243244171,-0.0369329266250133,-0.0089286854490637,-0.0160997509956359,-0.0017338395118713,0.000199943780899,-0.3218560218811035,0.0543708577752113,-0.05880348662436,-0.5337241291999817,0.2682929900828749,0.2724704401643015,154
1733384559402801200,0.4242208530932664,0.0650286447495222,0.1081213520228862,7.595007969996333,-6.094526250645518,-1.158876824819669,-0.0050435261800885,0.0267137568444013,-0.0101990578696131,-0.2736278400100199,-0.3385208248338273,0.6667007766940175,-0.6050136915512923,-0.0466400347650051,-0.0248404163867235,-0.0089127067476511,-0.0084180831909179,0.00918410718441,0.0035629272460937,-0.2403542101383209,0.0311947744339704,-0.2258265249490737,-0.3573011457920074,0.2478381762762553,0.6396073787011206,155
1733384559442801200,0.2886982839256525,0.1388742176830768,0.0330440453372895,7.603489382615685,-6.084874625203013,-1.1539791889712214,-0.0643920972943306,0.0534358918666839,-0.0560719221830368,-0.2748187824833635,-0.3380969000344736,0.6667286181413287,-0.6046802675404928,-0.0124977780506014,-0.0107225198298692,-0.0309678763151168,-0.0132905840873718,0.0090960264205932,0.0089508295059204,-0.1570271998643875,0.0466465502977371,-0.162052264174819,-0.1707913875579834,0.195809718478471,0.3530279500929638,156
1733384559482801200,0.0791939482241868,-0.0251250889062881,0.0981541578251868,7.625196772032976,-6.058241469821334,-1.1508544810794292,-0.052240889519453,0.0392258875072002,-0.0820675492286682,-0.2769248944854736,-0.3381318929143777,0.666591383352258,-0.6038504487386747,-0.0316818580031394,0.0171544384211301,-0.0370641835033893,-0.0125597715377807,-0.0111342370510101,0.0118517577648162,-0.1524484157562255,0.003059335052967,0.0853951409518718,-0.0210695415735244,0.145538516144175,-0.0170754187677055,157
1733384559522801200,-0.2333925762891769,-0.2611930218845605,0.1528361075401306,7.63746121032238,-6.042589727181196,-1.1518163118489086,-0.0109114274382591,-0.0116067128255963,-0.0067513659596443,-0.2779918559852322,-0.3383123894625008,0.6665365825995041,-0.6033193808810684,-0.0208768807351589,0.0367174856364727,0.0195338483899831,-0.0090660452842712,-0.0033295005559921,0.0019260048866271,-0.1716405302286148,-0.0591837912797927,0.1954419080793857,0.00617634691298,0.111698571188841,-0.1854986792791634,158
1733384559562801200,-0.0144897131234407,-0.1691015981644392,0.1709011949323117,7.634636216029524,-6.044450844877958,-1.1607543821945785,0.0376592762768268,-0.031027840450406,0.008188521489501,-0.2773599660515496,-0.338770216462466,0.6666458917186154,-0.6032325901502689,0.0248650405555963,0.047840442508459,0.0237741339951753,-0.0104463100433349,0.0148927718400955,-0.0096796751022338,-0.2132958769798278,-0.0995518714189529,0.0403910470992326,-0.0137282703071832,0.0983517444902099,-0.012841872851178,159
1733384559602801400,-0.0305056129008531,-0.0408171635568141,-0.0359679699599742,7.626708930161595,-6.05377279997468,-1.164275688188523,-0.0020665884949266,-0.0054330248385667,0.0504851974546909,-0.2764676637746026,-0.3389109214564255,0.6667090284735037,-0.6034932757678968,0.0501687973737716,0.003979779779911,-0.0155675467103719,-0.0008997917175292,0.0173916667699813,-0.017052412033081,-0.3543134927749634,-0.1520305275917053,0.1052045877933502,-0.0004356317222118,0.0955633924133144,-0.2272093941422179,160
1733384559642801400,0.1455512112289667,0.0348433498442172,0.0171522833961993,7.615252885645628,-6.0689791369348765,-1.1600843739785254,-0.0154724596068263,0.0437240824103355,0.0466229878365993,-0.276281412181779,-0.3378225654905186,0.6671010089610132,-0.6037555267413928,0.0637754201889038,0.0191811043769121,-0.028748195618391,-0.0098301172256469,0.0016016364097595,0.0070742964744567,-0.5263550877571106,-0.1910881996154785,0.0386146850764751,0.0616201721131801,0.0347817193174734,-0.191938503068313,161
1733384559682801200,0.0630599750250578,-0.0394084658026695,-0.0202466692149639,7.604370841625332,-6.082864454424381,-1.1587479377429932,0.053903441876173,-0.0611539296805858,0.0329217165708541,-0.2755471817112596,-0.3374280001353556,0.6672496138408339,-0.6041474006763033,0.0405310839414596,0.0235786736011505,-0.0101450178772211,-0.0132898092269897,-0.0125910192728042,0.0091275870800018,-0.7042890787124634,-0.2429799437522888,0.0068061728835105,0.0827156603336334,0.071865587230632,-0.1171883459778502,162
1733384559722801200,0.1189566342920064,-0.0555623127460479,-0.1171883094452321,7.592616106423735,-6.09379442923963,-1.178223768715933,0.037488654255867,-0.0891345664858818,0.0375395342707634,-0.2733631207949061,-0.3387099408795105,0.6673441917385129,-0.6043176111155218,-0.0105398222804069,0.0371090248227119,0.0040770610794425,-0.0118000507354736,-0.0113945752382278,0.0092658698558807,-0.7923228144645691,-0.1923477798700332,-0.1656950045913457,0.0480942577123642,0.1297846831027418,-0.0187541291022673,163
1733384559762801200,0.2243763261407613,0.0823784234791994,-0.0915397811867296,7.5768316773146385,-6.109033499425649,-1.2007303456868976,-0.0038078692741692,-0.0779982358217239,0.04769878834486,-0.2717445820705239,-0.3389589893315594,0.6680771028680624,-0.6040983674072384,-0.0229568090289831,0.0352520570158958,0.0107020735740661,-0.0080162286758422,0.0025030523538589,-0.003834068775177,-0.7840234041213989,-0.1897973418235778,0.0169002813965082,0.0406012013554573,0.1740500691509805,0.0558906679175794,164
1733384559802801200,0.340951033732295,0.1000520273357629,0.0129002519749104,7.567996044430136,-6.118177759867907,-1.2098514444492756,0.0237373188138008,-0.0159446112811565,0.0098853465169668,-0.2705966996234813,-0.3393403528810201,0.6682315334965027,-0.6042286505075244,0.0125063750892877,0.0416514202952384,0.0004603553097695,-0.0078529119491577,0.0100182443857193,-0.0030470490455627,-0.6990434527397156,-0.2021511048078537,-0.0362362655073404,0.0603657066822052,0.2065897451627068,0.3346672407550737,165
1733384559842642400,0.0905909560292959,0.1136293017894029,-0.1536543651204556,7.563820804572105,-6.122775609052181,-1.2126868140056728,-0.0247112866491079,-0.012429610826075,0.0149610834196209,-0.2703412710679946,-0.3391913287212856,0.6684153377871381,-0.6042232716504029,0.0291378162801265,0.0329457037150859,-0.0094888154417276,0.0090052485466003,0.0083054900169372,-0.0074711441993713,-0.6620305776596069,-0.1347566545009613,-0.110227037331555,0.0952029079198837,0.1778764042397961,0.1848456952631473,166
1733384559882642400,0.0818278038591146,0.1256634384542703,-0.1369815358042717,7.561661580711602,-6.123288234749436,-1.2235236306447534,-0.065507985651493,0.0016168756410479,0.0117538170889019,-0.2704168047176816,-0.3389647711379043,0.6689433661088525,-0.6037320809752159,0.0051776221953332,0.0202887654304504,-0.0114527633413672,-0.0015093684196472,0.0035113394260406,-0.0076498091220855,-0.5935251712799072,-0.1567738950252533,-0.0237976396948099,0.0804130956530571,0.1720735266473144,0.225015628691297,167
1733384559922642400,0.0847106658190488,-0.0810550659209489,0.1357503865741193,7.549950684651732,-6.133095927536488,-1.2465107576742769,-0.0294747781008481,-0.0330364257097244,0.0701811388134956,-0.2700549750879955,-0.3382847576187658,0.6701625067351257,-0.6029229494964938,-0.0445822104811668,0.0235299915075302,-0.0016063908115029,0.0068535208702087,-0.0090802758932113,0.0005212426185607,-0.5418969392776489,-0.1690384000539779,-0.0241401695221662,0.0663736313581466,0.1879002970607951,0.224968848673813,168
1733384559962642400,0.2889145570248365,0.0802501792788505,0.2136849823869764,7.5345876958251,-6.153142105743289,-1.2406477108597755,0.012709591537714,0.0481312945485115,0.0414627529680728,-0.269310492773304,-0.3373853984281447,0.6703928119415499,-0.6035034303036921,-0.0012350033503025,0.0128480531275272,0.002972315531224,-0.0036008358001708,-0.0042056888341903,-0.0065436959266662,-0.4311149418354034,-0.1601272672414779,-0.0836672942459583,0.0228661447763443,0.2552558503879234,0.3871203354394063,169
1733384560002642400,0.2166600526750087,0.195665195441246,0.006229980430752,7.538157955527305,-6.1510921874761575,-1.2290680399641394,-0.0760931670665741,0.061171006411314,-0.0310109071433544,-0.2704128319212165,-0.3364516595507768,0.6704217410937074,-0.6034996066483865,-0.0100050596520304,0.0078496197238564,0.0023625846952199,-0.0098563432693481,-0.004251942038536,0.0033318400382995,-0.2716522812843323,-0.0889521837234497,-0.1595592783153057,-0.0232798941433429,0.2457765127724036,0.4304689171699807,170
1733384560042642400,0.0767670133382081,0.0100794954657554,0.0982347487807273,7.548765274259447,-6.136542268598079,-1.2366776381850242,-0.06535355001688,0.012360748834908,-0.0325288921594619,-0.271911507972808,-0.3360063519581565,0.670934229373787,-0.6025040422300194,0.0480281487107276,0.0045178984291851,0.004797579254955,-0.0076047778129577,0.0057336539030075,-0.0072934478521347,-0.1351544559001922,0.0076347142457962,-0.0815314512610435,-0.1311364471912384,0.2649699831400066,0.3549198647867888,171
1733384560082642400,0.0126040455073118,-0.0114531219065189,0.1786965249836444,7.55202515283823,-6.13072159962058,-1.2456123475298284,-0.0375241786241531,-0.0276448540389537,0.0047499341890215,-0.2724737738016285,-0.3358108365400463,0.6713714582634173,-0.6018716454792459,0.0097103221341967,-0.0028342371806502,-0.0120272729545831,-0.0071075558662414,-0.0008637756109237,0.0003690719604492,-0.0152775719761848,0.0360917076468467,-0.062255672904849,-0.1518984884023666,0.2796877328656613,0.3530933434793725,172
1733384560122642400,0.2669400411039591,-0.0122580085486173,0.2117361864067614,7.551025035884976,-6.128868665230274,-1.2606954965017736,0.004147233441472,0.0118338903412222,0.0022672123741358,-0.2720471219398088,-0.3363039985647295,0.6716972530099043,-0.6014255446651217,0.0323506519198417,-0.0039420053362846,0.0026994079817086,0.0131230950355529,0.0047251135110855,-0.00726880133152,0.060467354953289,0.0671363323926925,-0.0896989756256341,-0.1518749743700027,0.2390785495037213,0.2529749546428211,173
1733384560162642400,0.2166413479745388,0.1171674127876758,0.0481644575797021,7.548055080163478,-6.132749306055903,-1.2596307898797094,-0.0640358105301857,0.034877959638834,0.0075650387443602,-0.2725677584078065,-0.3353877132162072,0.672114853444041,-0.6012351238936317,0.0493197813630104,0.0089834872633218,1.5673809684813023e-05,-0.0002617835998535,-0.0063992291688919,0.0003225207328796,0.0873452126979827,0.1048104912042617,-0.1610275973021984,-0.1159362941980362,0.1669378077266737,0.1738520806271582,174
1733384560202642400,0.209408474111557,-0.000274140766263,0.2358465453125536,7.554088515108823,-6.12723551107049,-1.2502397150695324,0.030890243127942,0.0153100164607167,-0.0289119835942983,-0.2734185741780633,-0.3350203893155881,0.6719418311020654,-0.6012468053820984,0.0500601418316364,-0.0088800387457013,0.0007861929479986,-0.0089830756187438,-0.0065520852804183,0.0004065483808517,0.1159420311450958,0.1154241785407066,-0.0994949779748916,-0.0704415440559387,0.1780138399491086,0.16862742304774,175
1733384560242642400,0.1400514447689056,-0.0325344883799552,0.1714379321575164,7.560749142041802,-6.119366677391529,-1.2485294040203094,0.0807258710265159,-0.0403726138174533,-0.0393073111772537,-0.2729861933497778,-0.3362195190779569,0.6712776786440179,-0.6015158538450698,0.0161650255322456,-0.0145977390930056,0.0032685254700481,-0.0088836550712585,-0.0020840764045715,0.0152696371078491,0.1398041844367981,0.1061047539114952,-0.023213702327013,-0.0626754090189933,0.1648635952685028,0.1487794525604695,176
1733384560282642400,0.0481874000638723,-0.0516050995528697,-0.039344168394804,7.564924966421723,-6.118252578669786,-1.2285348098702729,0.0070711723528802,0.0573378689587116,0.0101646650582551,-0.2729646582281411,-0.3365348828612223,0.670359693438593,-0.6023724305261332,-0.0124575644731521,0.0053150891326367,-0.0019775026012212,-0.0061559081077575,-0.0040624737739562,0.0124903470277786,0.1644067168235778,0.1132276579737663,-0.065325581869483,-0.0572108030319213,0.1627040426144376,0.175347104957886,177
1733384560322642700,0.1853109746873378,0.0371130483418703,0.0331388840138912,7.565168127527833,-6.120330553987622,-1.2166226190846412,0.0073575656861066,0.038815688341856,-0.0098642483353614,-0.2735851297949245,-0.3357731874673819,0.6702886360757874,-0.6025949874835446,-0.0238649472594261,0.0083156721666455,-0.0029032174497842,-0.0068144798278808,-0.0063627809286117,-0.0057007670402526,0.1476890444755554,0.0885245352983474,-0.018413024047017,-0.0225558578968048,0.16721863396205,0.0437497464099898,178
1733384560362642400,0.0832493610948324,-0.0221802676260471,0.0197065709888935,7.573257910481095,-6.1119140232980245,-1.2085778443168849,0.0650767907500267,-0.0238761883229017,-0.0434222072362899,-0.2736926084451748,-0.3364740922783443,0.6696308724133747,-0.6028864325432117,0.0140510080382227,-0.0144257517531514,0.0057257572188973,-0.0039736032485961,0.0059552788734436,-0.0073410719633102,0.0920138731598854,0.0486521646380424,0.020837620845437,-0.0098662506788969,0.150174943773169,-0.0003294876826927,179
1733384560402642400,0.034189269849658,0.0167412914425134,-0.1070050613440573,7.58311411858499,-6.101006844836473,-1.2018757893949747,0.0151904355734586,-0.0163723155856132,-0.046391773968935,-0.2737228602096158,-0.3374656563591531,0.6688763268536424,-0.6031561202725056,0.0679254308342933,-0.0015766392461955,-0.0006453894311562,-0.0057788491249084,0.0039794147014617,0.0115366727113723,0.0382998958230018,0.0063435845077037,0.0424433034539222,0.0060524400323629,0.1983166232654824,-0.0001730184793472,180
1733384560442642400,-0.0469844540148973,-0.1117658460050821,-0.041731355792284,7.593508671349286,-6.0886179033845655,-1.1990629969965665,0.0229303780943155,-0.0035921591334044,-0.0328978225588798,-0.2741263685899063,-0.3381355011159871,0.6684306863731869,-0.6030916844373038,0.0627754032611846,0.0157621912658214,-0.006072511896491,-0.0126354694366455,-0.0092976838350296,0.0197493731975555,-0.0028601549565792,-0.0074962154030799,-0.0449035560876131,0.0352130532264709,0.175565807476174,0.0988996789628639,181
1733384560482642400,0.143985861608386,-0.3490717963457107,0.2561561967611312,7.599460273230076,-6.086991178965568,-1.1692447818379847,0.1376051008701324,0.1065734773874282,0.0068226801231503,-0.2740058805444765,-0.3386761914301879,0.6670182375948617,-0.6044054461050197,0.0575004816055297,0.0077564092352986,0.0158766619861125,0.0039008259773254,-0.0153990238904953,0.0046380162239074,0.0413770228624343,0.0135750919580459,-0.0639683220416307,0.0471911467611789,0.1826462124574929,0.1409935479246079,182
1733384560522642400,-0.308151172414422,-0.076998484006524,-0.0787270613647997,7.582785032761096,-6.122188749074936,-1.0911402362857012,0.0555302649736404,0.1910832673311233,0.1468153446912765,-0.2743556799523379,-0.3358534904467297,0.6654585656067307,-0.6075330561515541,-0.061189416795969,0.0093071144074201,0.0106249079108238,-0.0099987983703613,-0.0225151926279068,0.0086804777383804,0.0856142044067382,0.0346464030444622,-0.0830056154668331,0.0591692402958869,0.1897141598160378,0.1830848596030846,183
1733384560562642700,0.0644645811259746,0.1741483601599931,-0.215045822411403,7.564062212112545,-6.152471659135818,-1.049989895251766,0.0580645501613616,-0.0090592047199606,0.0316055528819561,-0.2741294195276357,-0.3337638236672323,0.6649333029084404,-0.609359197711219,-0.0515375882387161,0.0152558172121644,0.0316481664776802,-0.0046119093894958,-0.0008116513490676,-0.0043317824602127,0.1365405321121215,0.0524561628699302,0.0092968206554651,0.0918176472187042,0.2180617179001681,0.1906896537846885,184
1733384560602642400,0.1375917766571044,0.1977934396415948,-0.315281901077181,7.563807945090532,-6.151575002557039,-1.0570451475255191,-0.0693201944231987,-0.0032435576431453,-0.0290850382298231,-0.2737363135439752,-0.3342173324683209,0.6649759992639963,-0.6092407037938897,-0.0105107938870787,-0.0088445646688342,0.0310006197541952,0.0100162029266357,0.0131482779979705,-0.0068408101797103,0.165679320693016,0.0307712759822607,-0.1128846209019422,0.1887727081775665,0.1817018808120861,0.218765902380459,185
1733384560642642400,0.1854658729881048,0.0106125794291496,-0.0842892255365848,7.573393519559502,-6.136027889335155,-1.078544374084845,-0.150838166475296,0.0531236380338668,-0.0304833054542541,-0.2754330857951823,-0.3335582807242533,0.6661301179207625,-0.6075740065045822,0.0935255959630012,0.0055950405076146,0.0008554351516067,-0.0116613507270812,0.0163335800170898,-0.0109429955482482,0.1849945038557052,0.0902415961027145,-0.2507826870292425,0.3123875856399536,0.1660902144540101,0.2348594705039635,186
1733384560682642400,0.1231646073758602,-0.1124982519328594,0.1946948891043663,7.578533220535516,-6.127389824849367,-1.0914734137628226,-0.044935330748558,0.0287170261144638,0.0004085065447725,-0.2769469042440318,-0.3325488574754945,0.6671288574243036,-0.6063421141240916,0.089771069586277,-0.002087699715048,0.0043421788141131,-0.0091886520385742,-0.0057608634233474,0.0046083331108093,0.1583492010831833,0.1194802075624466,0.0311088394910097,0.3123566806316376,0.177034217794612,-0.141973681535758,187
1733384560722642400,0.1649678593605756,-0.0364314958184957,0.184055421668291,7.576084658339619,-6.133276544800401,-1.0752974280528724,0.0599623024463653,0.0626258701086044,0.0151982279494404,-0.277015149623348,-0.3320908362983454,0.6667387695348463,-0.6069907728214375,0.0109076797962188,-0.0007469045813195,0.0157848503440618,-0.0073235630989074,-0.0153035819530487,0.0066899955272674,0.1344689428806305,0.0664142221212387,0.1374608437538146,0.2095891535282135,0.1990883748229593,-0.1320580896611325,188
1733384560762642400,0.2049351280897855,0.1248281566739082,-0.0971849474668502,7.582505046775936,-6.132329034817219,-1.034674325763434,-0.013629151508212,0.1381624788045883,-0.034479446709156,-0.2783524877459593,-0.3310373168557236,0.6657086481095634,-0.6080840759558112,-0.0038590158801525,0.0086580486968159,0.0263916216790676,-0.0027459263801574,-0.0008400976657867,-0.0014269649982452,0.1660658121109008,0.037020705640316,0.0224076466411352,0.1311084479093551,0.1653453143708407,0.057714905936364,189
1733384560802642700,0.3135059774458408,0.0621995588034391,0.1347219203092158,7.610252885401248,-6.104116501289606,-0.9970835769072176,-0.0126040242612361,0.1503651589155197,-0.1267579644918441,-0.281569825336693,-0.3302839931488157,0.6646424578632691,-0.6081786124781019,0.0334124565124511,-0.0260707959532737,0.010112116113305,-0.0051300525665283,0.0137432813644409,-0.013100728392601,0.2161924242973327,0.0289912950247526,0.0154185184061527,0.087302528321743,0.1758823443457484,0.1348664159469772,190
1733384560842642400,0.0264841022998094,-0.1496358501940965,0.263984113907814,7.637505049464106,-6.078430855891108,-0.9442368797954171,0.0896394699811935,0.1272318214178085,-0.0702931880950927,-0.2842538376834865,-0.3299921929521587,0.6627577513192519,-0.6091445318188385,0.0710439905524253,-0.0313148833811283,-0.0179754439741373,-0.0101218819618225,0.0098153799772262,-0.0027520954608917,0.2159981727600097,0.0255978833884,-0.0721884533762931,0.0317515395581722,0.1558164933240972,0.0636568221067776,191
1733384560882642400,0.2304915941506624,-0.1249777942776679,0.2600198864519596,7.67157098519504,-6.045628071963787,-0.8762274656694382,0.1809813231229782,0.0792348682880401,-0.1651090234518051,-0.2864457080063379,-0.3309237153938443,0.6596701174774279,-0.6109613316812594,0.055231999605894,-0.0213929545134305,-0.0201529785990715,-0.0118985772132873,-0.0070675909519195,0.014429748058319,0.1860160827636718,0.0615471005439758,-0.1309925245225429,-0.0505242384970188,0.1144595055358484,0.0546696473557967,192
1733384560922642400,-0.0587912116646766,-0.2277086854338645,-0.0247848971664905,7.708415153467655,-6.004847148764133,-0.8321894403699786,0.2717219293117523,-0.1954231858253479,-0.146820992231369,-0.2863701805205794,-0.3347665581587667,0.6560192094806441,-0.6128313682998022,0.0350612178444862,-0.0144927576184272,-0.0071108122356235,-0.0036446452140808,-0.0125044584274292,0.0097502171993255,0.1586281061172485,0.1079235970973968,-0.1635235057711601,-0.1205214411020279,0.0853278570024762,0.0931004911648109,193
1733384560962642400,-0.2432049452513456,-0.1545528483301401,-0.1682943003695458,7.725532877007127,-5.973256663236022,-0.8981728285610675,0.409165471792221,-0.7660058736801147,-0.154935210943222,-0.2798074246362561,-0.3440882446094565,0.6537563373190418,-0.6131179837305656,-0.0133140375837683,-0.0163457840681076,-0.0194030310958623,-0.0088679790496826,-0.0085247755050659,0.0107946395874023,0.1251663565635681,0.153545930981636,-0.1824152532458305,-0.1153974160552024,0.0542319272253895,0.2086631356369704,194
1733384561002642400,0.1497872413635254,-0.0651654228717088,0.3250970465183257,7.745691283416748,-5.923032788908481,-1.045153268875554,0.6837114095687866,-0.9184530973434448,-0.2656424939632416,-0.2669968130790154,-0.3611828460728188,0.6502575941554527,-0.612719154521444,-0.0149923609569668,-0.0044303759932518,-0.024192526936531,-0.0094715356826782,-0.0019655674695968,0.0041649937629699,0.0832030177116394,0.0919041335582733,0.1240904900491237,-0.0644683465361595,0.1384561566677875,0.1498022745358757,195
1733384561042642400,-0.0311047478377819,-0.1118131922781467,-0.155214088717848,7.753753593841195,-5.8958379079908125,-1.1352613367587328,0.5391021370887756,-0.5984699726104736,-0.1049631610512733,-0.2542844179485265,-0.3764674976083265,0.6451003366993705,-0.6143755823551011,0.084969125688076,-0.0027555138804018,-0.0076872529461979,-0.0017933845520019,0.0059706717729568,-0.0033636689186096,0.067434974014759,0.0160412639379501,0.1766694030702114,-0.0637866184115409,0.1717093695100396,0.19558201066982,196
1733384561082642400,0.0538420648247003,0.0902595321178436,-0.4086990204431116,7.754099630799889,-5.8921589272171255,-1.1518723528850825,0.2204797714948654,-0.1033459901809692,-0.0089041301980614,-0.2477179188002534,-0.3835763040404543,0.6415593229573285,-0.616365794421947,0.0755175650119781,0.0068858750164508,-0.0070383073762059,0.0030058622360229,-0.0064451992511749,0.008979856967926,0.0673263445496559,-0.0136051718145608,-0.0035872108370065,-0.0553760379552841,0.1908621242747642,0.1563947681360878,197
1733384561122642400,0.1344189918398857,0.1373994689553976,-0.6054406860094517,7.74639446325004,-5.906527059787512,-1.1299071162492036,-0.0904812142252922,0.0976901724934578,0.0441700555384159,-0.2472140532381315,-0.382981518257779,0.6410416410174481,-0.6174754727298049,0.0488044619560241,0.0240921862423419,0.0080976355820894,-0.0004196166992187,-0.0105485767126083,0.0033069252967834,0.0695554316043853,0.016087632626295,-0.0397287837982177,-0.0745953470468521,0.1834711555069312,0.1023188580228947,198
1733384561162642400,0.3660264382779598,0.0564490324527025,0.0280595349229872,7.757199350380897,-5.894709196221828,-1.1174210710983723,-0.0666977763175964,0.1200883239507675,-0.0847227126359939,-0.2497652401291513,-0.3813479844810662,0.641518770855249,-0.6169640390173835,-0.0256854835897684,0.0030605637002736,0.0001899113412946,-0.0022767782211303,-0.0068841725587844,-0.0053785145282745,0.066090427339077,0.0590282380580902,-0.1613029071122408,-0.091925099492073,0.1706675871058367,0.1639167428724467,199
1733384561202642400,0.1227875907570123,-0.1904191114813089,0.231538472855091,7.780621727022528,-5.870053478392959,-1.08387360628359,0.0704033821821212,0.0905775129795074,-0.0628760457038879,-0.2521311417238493,-0.381029796288013,0.6403736936470855,-0.6173878235861153,-0.0267137307673692,-0.0011354598682373,-0.0120244110003113,-0.0018913745880126,-0.0032593458890914,-0.002854585647583,0.0650091618299484,-0.0010043047368526,0.1013455742776393,-0.0022549107670783,0.2377988849567249,0.1049739208426326,200
1733384561242642400,0.2870160299271345,0.1894423754036426,0.2125567090094089,7.805834494212269,-5.846042488208413,-1.0310748399667442,0.1000766977667808,0.1082577258348465,-0.1573333442211151,-0.2537395025799861,-0.381480980909362,0.6379987841855175,-0.6189071733901159,0.0854567512869834,0.0371345356106758,0.0088606309145689,-0.0114936828613281,0.0054363161325454,-0.0077735781669616,0.0032183304429054,-0.0438669361174106,0.1077390747070312,0.0368877761065959,0.138110430236347,-0.0891857654064893,201
1733384561282642400,0.1643137793660163,0.1684405039072036,-0.0275542157493531,7.870774876156449,-5.769076152905821,-0.9690324444863944,-0.0612069740891456,0.1680707335472107,-0.2355595231056213,-0.2587419453116734,-0.3827262838194304,0.6347657009654123,-0.6193913172652423,0.058059211820364,0.0090206647291779,0.0188290420919656,-0.0008362531661987,-0.0030079036951065,-0.0044241994619369,-0.0562012419104576,-0.0509433485567569,0.0257177941024303,0.0255289822816848,0.0997907003853004,-0.0467227343387901,202
1733384561322642700,0.2511959440052509,0.2034194628298282,0.0918903481900692,7.948346191614866,-5.665041777935624,-0.949463163076341,-0.1569487750530243,0.0982893630862236,-0.3866558372974396,-0.2654912585731259,-0.3841841434053756,0.6330969075850866,-0.6173372311062549,0.0322358720004558,-0.010778552852571,0.0030935555696487,-0.0155489444732666,0.0095404833555221,-0.0082989335060119,-0.0972076803445816,-0.0391438975930213,-0.036792730346322,0.0165337063372135,0.1170346623866353,0.1052261237717233,203
1733384561362642400,-0.0570809006154537,-0.2511088502436876,0.4478386061765253,8.026329595005512,-5.557822343188524,-0.9268287219420076,-0.0147271268069744,0.1750612556934356,-0.240837350487709,-0.2717596574336631,-0.3862857989373748,0.6309028407314166,-0.6155416420970116,0.0345538854598999,-0.0030117100104689,-0.016245586797595,-0.0189204216003417,0.0079056918621063,0.0117948055267333,-0.0837931260466575,-0.0321031510829925,-0.0210153154999017,-0.0021096002310514,0.1806354754232801,0.1902469880511053,204
1733384561402642400,0.1737456245779991,-0.1545446650236845,0.3911468510091304,8.080714096143842,-5.490234661605954,-0.8542751615803689,0.035674400627613,0.2617371380329132,-0.1868999302387237,-0.276953546771267,-0.3863832366686001,0.6279043752694605,-0.6162311861449222,0.027784664183855,0.0139145962893962,-0.0144089385867118,-0.0139979124069213,-0.0028523504734039,0.0147267282009124,-0.0369806662201881,-0.0171886682510375,-0.0727577776968479,-0.0214329343289136,0.2023487283257767,0.2443893875292502,205
1733384561442642400,0.2131447380304336,-0.0566916090369224,0.1485680017668753,8.128252676910162,-5.434708589217067,-0.7522055838771164,0.0631296187639236,0.2824806869029999,-0.1704518944025039,-0.2823787822174812,-0.3852831212389431,0.624426719515537,-0.6179889338188309,0.0220913589000701,0.0106261251494288,-0.0071752606891095,-0.0041545033454895,-0.0074964314699172,-0.0031027197837829,0.0063613355159759,0.0149625800549983,-0.066071431800723,-0.0666075944900512,0.2290835539836436,0.2256221614833921,206
1733384561482642400,-0.1552519365102052,-0.0843090992808341,-0.2057995628993958,8.159666052305697,-5.398711393162608,-0.6664375910248607,0.079149916768074,0.1173295080661773,-0.0300702136009931,-0.2859297325890551,-0.3845047099568463,0.6213976091845073,-0.6198913677464615,-0.0117478314787149,0.0009420721326023,-0.0084729520604014,-0.001568853855133,-0.0085444450378417,-0.0035575032234191,0.0474201180040836,0.0564206726849079,-0.1420142692744732,-0.1504371613264084,0.2175267159743234,0.2571582134105265,207
1733384561522642400,0.0800911893248558,-0.0429600208044052,0.075624309576489,8.157907225939631,-5.408187662038206,-0.6086331984404474,0.1552923023700714,0.0989368557929992,0.0001776104327291,-0.2859584803314833,-0.3837509293527118,0.6194892092183034,-0.6222508159331949,0.0361331403255462,0.011582039296627,-0.004068549722433,-0.0053953528404235,0.0003606677055358,-0.0078718066215515,0.1168796271085739,0.0749263241887092,-0.0180851072669029,-0.2393528223037719,0.2240298873232677,0.2868613873546943,208
1733384561562642700,0.008640402573347,0.0376081383824348,-0.3049661126375198,8.161572762709856,-5.4100470261693,-0.5389902648285031,0.0886099189519882,0.1621091365814209,0.0198486037552356,-0.2865113326708125,-0.383017123344839,0.617072718091603,-0.6248442977464538,0.0409444086253643,-0.0162745714187622,-0.0181016772985458,-0.0060290098190307,-0.0011873692274093,0.0028288960456848,0.1147078350186348,0.0855050012469291,-0.0450093545496463,-0.3327194452285766,0.1781596781605854,0.1321563989364542,209
1733384561602642400,0.0020651158362627,0.0511900890111923,-0.5164542425673455,8.16201173864901,-5.413453035220504,-0.4964422223584726,-0.0831730738282203,0.0905171930789947,-0.017252255231142,-0.2880569998968008,-0.3811907253630661,0.6164455695331805,-0.6258686260702533,-0.000829137628898,-0.0124051589518785,-0.033472578972578,-0.0031872391700744,-0.0106980800628662,0.014294758439064,0.0797631591558456,0.1136554628610611,-0.0501484710037708,-0.2997145354747772,0.1549545975314453,0.0951482540074735,210
1733384561642642400,-0.0515904865056276,-0.0739881962746381,-0.180443076390028,8.168083752039074,-5.404543168056011,-0.4936737440258264,-0.0559874735772609,0.0341370664536953,-0.0208482258021831,-0.2896823139341101,-0.3802585130282092,0.616906653446063,-0.6252310424382892,-0.0584050826728343,-0.0164106599986553,-0.0180458854883909,-0.0089843869209289,-0.0188927501440048,0.0152299106121063,0.0654005110263824,0.0976962298154831,0.0145341367870569,-0.2250074595212936,0.1900299295006319,0.0970101754218339,211
1733384561682642400,-0.2129021614462137,-0.1246983928143978,-0.1775368335545062,8.166290438881516,-5.406655630165338,-0.5001717277429998,-0.020578509196639,-0.0402324870228767,0.0553828589618206,-0.2897418597474315,-0.3800464465097158,0.6173057267357137,-0.6249384582324519,-0.0384012795984745,0.0216035675257444,0.0139625826850533,-0.0076463222503662,-0.00965516269207,0.007780522108078,0.0453588478267192,0.0631660819053649,0.0087222356379032,-0.1605022400617599,0.1222412271869368,0.0148593501534312,212
1733384561722642400,0.0089016838580369,-0.0424450570195913,-0.0664601023247465,8.148292425376177,-5.431896454405784,-0.519819298553653,-0.0400550067424774,-0.0164824184030294,0.0992587059736251,-0.2883906336760783,-0.3794873182793817,0.6184600091562523,-0.62476187450278,-0.0380641259253025,0.0110534550622105,0.0151729891076684,0.0014300346374511,-0.0040701925754547,-0.0066175460815429,0.0123453065752983,0.0544538423418998,0.0477016623735427,-0.1444488167762756,0.1206360204800032,-0.0238252583540976,213
1733384561762642400,0.1228840368688106,-0.0196036951363086,-0.078908080487512,8.122147345772385,-5.469252663853764,-0.5370000773919746,-0.1093026548624038,-0.0043745799921453,0.1145701557397842,-0.287544137676779,-0.3774933465210013,0.6203854918058235,-0.6244509103614396,-0.0205293390899896,0.0070083802565932,0.0108115961775183,-0.004935085773468,0.0092551857233047,-0.0087018013000488,0.007963340729475,0.0417567938566207,-0.0103460374474525,-0.1470740139484405,0.2126935601968318,0.165349552154541,214
1733384561802642700,0.1328378601282835,0.044558688172698,0.2145113502085208,8.102018749979138,-5.495856593140959,-0.568553116986528,-0.0367233976721763,-0.0771751478314399,0.0609150230884552,-0.2866226060888674,-0.3763835444300736,0.6223532506960506,-0.6235859458320939,0.0022838313598185,0.0003065886849071,0.0069966847077012,-0.0096575021743774,0.0080467462539672,-0.0053721517324447,0.0459952689707279,0.0236436836421489,-0.0784539435118436,-0.0727524980902671,0.1968428974511101,0.2308344893041998,215
1733384561842642400,0.1573369260907173,0.0526437949508428,0.1336415777266025,8.096524244216084,-5.501846773466467,-0.5885401488846168,-0.0514384768903255,-0.0058094095438718,0.0168838202953338,-0.2860517460714279,-0.3764947400135667,0.6231042503049559,-0.6230307102599693,0.0179440174251794,0.0041367467492818,-0.0033512273803353,-0.0104774236679077,0.001690849661827,-0.0001169294118881,0.0747570544481277,0.0340765081346035,-0.0334925197571516,-0.0937431901693344,0.1646680726964026,0.1152547110341489,216
1733384561882642400,0.0102162735879421,-0.054898295879364,0.1049134958922863,8.089517580324411,-5.510573100757599,-0.6030575171999633,-0.0912767276167869,0.0079588396474719,0.0672999396920204,-0.2863048082643761,-0.3755669216080162,0.6242570501668632,-0.6223199915670412,-0.0295220334082841,0.0046848785132169,0.006314049474895,-0.0070253610610961,-0.0053435415029525,0.0066908001899719,0.0878702476620674,0.0332382097840309,-0.0432516972273588,-0.1013732999563217,0.1377573059497401,0.1035377505596727,217
1733384561922642400,0.3266957138866186,-0.0274707752496004,0.4070551256936043,8.07515704653859,-5.529471862494945,-0.622234219095856,-0.0477184057235717,0.0544584318995475,0.0473850965499877,-0.2861819516386361,-0.3742215357511073,0.6258461134515745,-0.6215905753063592,-0.0216105822473764,0.0080408873036503,0.0124013032764196,-0.0103005766868591,-0.0015348941087722,-0.0071286559104919,0.0650442317128181,0.02811074629426,-0.0093903441578149,-0.0596981570124626,0.1542612632387317,0.0755138714719563,218
1733384561962642400,0.1335357792645692,0.0761456665694713,0.0666460898835211,8.063312294965982,-5.547195150712132,-0.6180602944120764,-0.0393518507480621,0.0231597013771533,0.0324354916810989,-0.2861948110443189,-0.3728355083478579,0.6265029848351722,-0.6217557377364241,0.0224737878888845,0.0129567105323076,0.0077865114435553,-0.0057891011238098,0.0062041729688644,0.000634491443634,0.0516630075871944,0.0132800508290529,0.0242003752768039,-0.0288430862128734,0.1618731447482481,0.0808473414544016,219
1733384562002642400,0.159519530826807,0.0689876115083694,0.0401415293175727,8.063364901936053,-5.547219700631499,-0.6171445678066462,-0.0216997005045413,-0.024615179747343,-0.0039821988902986,-0.2865943859899265,-0.3724313814283924,0.6267060565861673,-0.6216091624544223,0.0361887998878955,0.0067832367494702,0.0120162107050418,-0.0021257400512695,0.0050055682659149,-0.0001654624938964,0.0520117543637752,0.0053449086844921,0.0219265851259231,-0.0539508908987045,0.1810598931141197,0.1206951485224068,220
1733384562042642400,0.1854091743648052,-0.0137298346668481,0.0389034388899803,8.065757934552432,-5.543361856159567,-0.6205450238998979,-0.0613582730293273,0.0844391137361526,0.0102412495762109,-0.2870692326555247,-0.3722500394084727,0.6269520713603758,-0.6212505538475832,0.0400716885924339,0.0120084648951888,-0.0036446412559598,-0.0033363103866577,0.00203637778759,-0.0048434138298034,0.0673289895057678,0.0039323326200246,-0.0305669876992702,-0.0629429668188095,0.1893713925266638,0.1328150637745857,221
1733384562082642400,0.6015209552824496,0.2908843957930803,0.1753133488187566,8.06967773834467,-5.541816964805125,-0.582177518517524,-0.1449130475521087,0.3259862959384918,-0.0416847057640552,-0.2901603210099011,-0.3692778217369516,0.6271496503351062,-0.621388874344445,0.0493653230369091,0.0093468483537435,-0.0047509185969829,-0.0084233283996582,-0.0054000169038772,-0.0045230090618133,0.0628755018115043,-0.0035368758253753,-0.0501806197077035,-0.0739739835262298,0.14380182854468,0.0180515703234821,222
1733384562122642400,0.1125812540411949,0.1587304262757301,-0.3529834168314933,8.08711110370457,-5.523088883459567,-0.5143165364189073,-0.2990248203277588,0.3305840492248535,-0.0273632686585187,-0.2969742227294735,-0.3639028021309942,0.6275329440192784,-0.620953713739496,0.0177994072437286,-0.0102290362119674,-0.0010264210868626,0.0009121298789978,-0.0105567872524261,0.0028831958770751,0.030273463577032,0.0161197613924741,-0.0197732064843177,-0.0835588946938514,0.1152608119813725,0.0314599179510027,223
1733384562162642400,-0.0592559065669775,-0.0992874727040529,0.0907400821764022,8.097337898686527,-5.507782593256235,-0.5175063089035451,-0.0653118640184402,-0.0635569542646408,-0.0467638373374938,-0.300790132172356,-0.3612202518046623,0.6292101458527094,-0.6189827986283787,-0.0416553989052772,-0.0035396553575992,-0.0043565705418586,-0.002827763557434,-0.0105711370706558,0.0158993154764175,0.0286866184324026,0.0083779115229845,0.002935468930006,-0.0562023296952247,0.2080821391449309,0.1415704710297286,224
1733384562202642400,-0.1389408531785011,-0.3201116593211889,0.4222597090881317,8.098466025933623,-5.500791711455583,-0.5714486192323267,0.292837530374527,-0.418120801448822,-0.0079983985051512,-0.2969700059787856,-0.3655780749550931,0.6288787188750956,-0.6186058218683708,-0.0247563067823648,0.0164582338184118,0.004634859971702,-0.0057917833328247,-0.0047082602977752,0.003166526556015,0.0619501173496246,-0.0157011393457651,-0.0039846857219934,-0.063835896551609,0.2001612099525518,0.121250444317609,225
1733384562242642400,0.1301081429034471,-0.0403635745704174,0.3921966523230075,8.090233619639276,-5.505056383162737,-0.6425405095435679,0.4554656744003296,-0.4787921011447906,-0.0471219308674335,-0.2882675778844957,-0.3739946459692789,0.6268081468337604,-0.6197913739097684,0.0026023455429822,0.004940275568515,0.010716987773776,-0.0089718103408813,-0.0043089240789413,-0.0100370943546295,0.054041214287281,0.0130324997007846,-0.0943219592511653,-0.0420314818620681,0.1646454955384135,0.1307999245598912,226
1733384562282642400,0.1117442186951637,0.0593494300693273,-0.1858019730746746,8.086900091302395,-5.506756757339835,-0.669376640151441,0.1720004677772522,-0.1470516622066497,0.0195277649909257,-0.2819689866398304,-0.3801944536300691,0.6241641527230165,-0.6215824815543107,0.0128248892724514,-0.0138265937566757,0.0029510101303458,-0.0034388303756713,0.0036058723926544,-0.0010136663913726,0.0505444668233394,0.0215812139213085,-0.0238870715439319,0.0016603767871856,0.2056420707827433,0.1566886182498186,227
1733384562322642700,0.0979155998289585,0.0941021790206432,-0.1499356368582695,8.079329363787174,-5.518764590519666,-0.6618483635384589,-0.1186306402087211,0.1154904812574386,0.0455122403800487,-0.2818112106582353,-0.3794277796876973,0.6243231807573798,-0.6219626107235616,-0.0220332257449626,-0.0013810032978653,0.0171029157936573,-0.0021487474441528,-0.00985848903656,0.013856828212738,0.0580821931362152,0.0121377129107713,0.0104378073841333,0.0363991893827915,0.2251973784663714,0.1284944971617311,228
1733384562362642400,0.1384194596529007,-0.1294949794411659,0.3237701818287372,8.077733034506439,-5.52321514018774,-0.6439948730703443,0.0228064302355051,0.06927190721035,0.0090456707403063,-0.2833293326682244,-0.3775651393669197,0.6247232710699677,-0.6220047896980769,-0.032140988856554,0.0152755780145525,0.0393936373293399,-0.0099364519119262,-0.0064334869384765,0.0052338391542434,0.0768643096089363,0.0174115877598524,-0.0023842647880315,0.0077750422060489,0.2272057043477892,0.1043505282472819,229
1733384562402642400,-0.0390700276285409,-0.1362643274456262,0.0172351393740624,8.073263780137896,-5.532457600307464,-0.6202745363954454,0.0827664881944656,0.0182593781501054,0.0509793646633625,-0.2828846315167574,-0.3773016677638437,0.6239139786758349,-0.6231783518930243,-0.0361021757125854,0.0233685504645109,0.0395660772919654,-0.0075758695602416,0.0111826211214065,0.0117488652467727,0.0996253490447998,-0.0013700686395168,-0.070629533496499,-0.011264631524682,0.2048347181889228,0.1077657435182481,230
1733384562442642400,0.1669061339467764,-0.0054302083551883,-0.1437327270975336,8.057774534583091,-5.55674857647717,-0.6043055810322985,0.095779575407505,-0.016323372721672,0.0427848696708679,-0.2813359538160655,-0.3769710620260607,0.6234611676082366,-0.6245310495299436,0.0101505424827337,0.0095485039055347,0.0171788819134235,-0.0133905410766601,0.0249175429344177,-0.0020592808723449,0.0509509220719337,0.007547010667622,0.0331225174009799,-0.0038961535319685,0.2499293033366091,0.0688620854325592,231
1733384562482642400,-0.0243050046950578,0.1047054060995578,-0.3560778026502579,8.046824686023593,-5.5748570646196605,-0.5830473966872319,0.0653664320707321,-0.0230588838458061,0.0793061405420303,-0.2798647849777457,-0.3770297355267339,0.6225557991593906,-0.626057882357364,-0.0129366675391793,0.0123102013021707,0.0183838959783315,-0.010977029800415,0.0024808347225189,0.0103259682655334,0.0128719098865985,-0.0071728136390447,0.011613280904293,-0.0313133709132671,0.2818095473252237,0.1084335597772151,232
1733384562522642400,0.2235381217509508,0.1212292553991079,-0.2642776169616729,8.0304732706815,-5.598115775132179,-0.5856636070676148,0.0368239544332027,-0.0338845960795879,0.0692118927836418,-0.2782319726822884,-0.3768526676619485,0.6227701021406274,-0.626678975047073,-0.0342246443033218,0.0226232409477233,0.0440055690705776,0.0016032457351684,0.0014148652553558,0.0046476870775222,0.0079285399988293,-0.0378932133316993,0.0680821871012449,-0.0443005487322807,0.3459498284002766,0.1695318062752485,233
1733384562562642700,0.4403051419317722,0.1909714846670627,-0.170997275717929,8.014968827557563,-5.619674695989489,-0.5915560261070728,0.0286635756492614,-0.0068802395835518,0.0310014188289642,-0.2767355878491074,-0.3766685191135085,0.62312261255255,-0.6271017012662334,-0.0267289113253355,0.0302668306976556,0.0399868600070476,-0.0007050037384033,0.0135912299156188,-0.0015124678611755,0.0032291337847709,-0.0335243493318557,0.0389554613381624,-0.0624990500509738,0.4170946910077706,0.1351635996621102,234
1733384562602642400,0.2835147438079118,0.2358539979666471,-0.2869242234578356,8.01493726337552,-5.620712222343683,-0.5820213415751233,-0.0343259945511817,0.0567949265241622,-0.0217162929475307,-0.2769996605818684,-0.3763204551301992,0.6229428108855578,-0.6273725377994077,0.0203030463308095,0.0298583563417196,0.0577629916369915,-0.0089064240455627,0.0180024206638336,-0.0078685879707336,-0.0550726093351841,-0.0369047150015831,-0.0498410124897956,-0.0596207976341247,0.5401565686615184,0.2539533529546112,235
