time_imu,phone_acc_x,phone_acc_y,phone_acc_z,phone_gravity_x,phone_gravity_y,phone_gravity_z,phone_gyro_x,phone_gyro_y,phone_gyro_z,phone_ori_w,phone_ori_x,phone_ori_y,phone_ori_z,watch_gyro_x,watch_gyro_y,watch_gyro_z,watch_acc_x,watch_acc_y,watch_acc_z,headphone_gyro_x,headphone_gyro_y,headphone_gyro_z,headphone_acc_x,headphone_acc_y,headphone_acc_z,frame_imu
1733108999157634600,0.2400818630610592,16.444847659027577,-7.467352480942011,0.0181925725296372,9.622471828734874,-1.8915818086087703,-2.6074087619781494,-0.227421760559082,0.8959096670150757,-0.2869974832729107,-0.3502099625042186,-0.688329003424154,-0.5667350331053252,1.5829352140426636,1.5980985164642334,-0.9133902192115784,-1.7203270196914673,1.0393911600112915,-1.0945144891738892,-0.0321924425661563,-0.001048395759426,0.5653421555833891,-0.4937739372253418,0.1663628025840036,-0.3338730581700802,0
1733108999197433600,1.0177311550732702,5.071557998636365,-3.6966520394563673,0.3358906816028058,9.776832953885195,-0.6863833775971084,-3.0175929069519043,-0.2782910168170929,0.6780828237533569,-0.3012062021446092,-0.3454213090884542,-0.644732451468919,-0.6117835390072623,2.27773118019104,1.059052348136902,-1.597618818283081,-0.9465380907058716,0.9140030741691588,-0.2197319567203521,0.0696646347641944,-0.149871215224266,0.8893716094028205,-0.5553908348083496,-0.0580058471403783,0.1172868196499533,1
1733108999237231600,0.459998634243384,-6.89962682775557,-4.700420500954985,0.4699991461887955,9.79167162657678,0.2695011602962389,-2.1418278217315674,-0.3622115850448608,0.0546309910714626,-0.3182271617130132,-0.3391998256570157,-0.6092640993057205,-0.6422399292294376,1.6583009958267212,0.7718445062637329,-1.7585654258728027,0.124806523323059,0.4561198353767395,0.6942870020866394,0.1249127760529518,0.1153932064771652,0.9669330610543488,-0.1625454276800155,-0.3715060022002086,1.159347438006103,2
1733108999277031000,0.2673503389379009,-13.752362140476702,-3.813718329957128,0.4138000699091702,9.723968794181944,1.2014945349924266,-2.695017576217652,0.1182249039411544,-0.307856798171997,-0.3379371612019812,-0.3236482495518018,-0.5779209625680374,-0.6686237380404977,1.8603795766830444,0.3248299360275268,-1.5277847051620483,0.9954663515090942,-0.1373152732849121,0.8089631795883179,0.1217227578163147,0.2595037817955017,-0.2434511933636851,0.4339965283870697,-0.0298128380138543,1.1955708440318702,3
1733108999316830200,0.6235018278788775,-15.771723941302298,1.2037176178693771,0.2919809223255142,9.573435702887178,2.105816972224414,-1.5482659339904783,-0.0896417945623397,-0.2716517150402069,-0.3551479017996302,-0.3024173038031232,-0.5487959456879575,-0.693712329902975,0.9581584334373474,-0.0383532047271728,-0.9761912822723388,1.4073152542114258,-0.4425386488437652,0.8712785840034485,0.0582591742277145,0.3065871000289917,-0.856193489357084,0.48387011885643,0.0434223410865291,-0.1016123080555815,4
1733108999356628200,0.4116256484795361,-16.706155831724406,0.2061542946211993,0.1944065371496602,9.510681432810426,2.3831746547073123,-0.2768630981445312,-0.198998212814331,-0.3788653910160064,-0.3669078996914958,-0.2973952506838656,-0.5385610209934669,-0.6977726362145099,-0.2122475951910019,0.3265065848827362,-0.2397393584251403,1.3915290832519531,-0.629849910736084,0.867740273475647,0.0154647296294569,0.1941982060670852,-1.078139227350056,0.2079971134662628,0.2830116531239822,-0.561600192576088,5
1733108999396427500,0.2174642817299812,-14.39238087645769,1.8274059812963008,0.0173170523537206,9.517636658775803,2.3631955503873527,0.5794292688369751,0.6335411667823792,-0.4417303800582886,-0.3704683379643191,-0.2907202406352038,-0.5431319339085589,-0.69515665080338,-0.2781882584095001,0.5236911773681641,0.6645675301551819,1.3567171096801758,-0.4897298514842987,0.7924691438674927,-0.0494454577565193,0.0319851823151111,-0.7186903408315032,-0.1217207461595535,0.2359329266880638,-0.5587751252179965,6
1733108999436225500,0.6761595782898366,-9.484557980516552,1.2848691299021244,-0.2302394460204988,9.635542322710156,1.8093370945118368,2.248387098312378,0.6248769760131836,-0.4835214018821716,-0.3597856476738552,-0.2849605847935489,-0.5714428665027007,-0.6802975827442719,-0.8872526288032532,0.4021577835083008,1.7111995220184326,1.0789179801940918,-0.3236763775348663,0.8388643264770508,-0.1051837429404258,-0.0230909883975982,-0.2473033204808831,-0.3205503821372986,-0.0259691179653978,-0.0682656447762157,7
1733108999476024600,-2.24798526301682,2.002580177372694,-0.4769494037181139,-0.31979598096814,9.77389923852086,0.7341769560378044,2.9956071376800537,0.0391827076673507,0.2450064122676849,-0.3430855057943415,-0.2984679789515964,-0.611133583980472,-0.647861854007315,-2.908322095870972,-0.7807762622833252,2.559528589248657,0.4407760500907898,-0.1619108617305755,0.1150779724121093,-0.0624939352273941,0.0490012727677822,0.6083924119545147,0.1169880852103233,-0.908502207134664,1.728763236236572,8
1733108999515823900,-0.593251870239526,10.140767388319968,-3.3126690887272354,-0.218382602151297,9.799640998020768,-0.2995821545768529,2.2270123958587646,0.5633841753005981,0.1871511042118072,-0.3201514883750379,-0.3158023869564156,-0.6446264740511087,-0.6182464711993121,-2.193100929260254,-0.8725465536117554,1.666355848312378,-0.7573637366294861,0.6303614377975464,-0.1610777378082275,-0.1165591031312942,0.2669881284236908,0.7734383415199816,0.738754391670227,-0.2034511183434166,1.081638540707901,9
1733108999555622000,0.3523517313318327,11.229848573184013,-2.34569701083675,-0.1136798355333972,9.751290516349671,-1.034317621280253,1.5877528190612793,0.354559987783432,0.2086293697357177,-0.2984389990507713,-0.3239876961456963,-0.6691543133316358,-0.5984970638232561,-1.1663264036178589,-0.7913784980773926,1.3940129280090332,-0.8616281151771545,0.6093109846115112,-0.4498879313468933,-0.0494220703840255,0.1989995241165161,0.0103335033345094,0.4272283613681793,-0.0652359399578068,-1.1357879909813404,10
1733108999595421200,0.7979546508781612,7.353928346335888,-3.118113315832615,-0.0975010733444709,9.678421679493784,-1.5776640354916451,1.0360753536224363,-0.2086909562349319,-0.0963226109743118,-0.2879667428768074,-0.3318140601188808,-0.6858118593320587,-0.580203973003453,-0.960034728050232,-0.5352292656898499,0.5628503561019897,-0.8082353472709656,0.5608465671539307,-0.5010644197463989,0.0249442346394062,0.0402317270636558,-0.0657130559502635,0.1435990035533905,0.0872924076742492,-0.1834238092338666,11
1733108999635219200,0.0813021268840413,3.4460803648293017,-2.110474881032854,-0.1508838409611955,9.645415481948852,-1.7645405059300363,-0.0323305279016494,-0.1902756839990615,-0.0038396585732698,-0.2892390306307888,-0.3361843394083896,-0.6906132171718274,-0.5712918176555183,-0.4388729929924011,-0.1530570387840271,0.1848469525575637,-0.4621708989143371,0.3168506026268005,-0.4215806126594543,0.0054444330744445,0.0202505234628915,-0.1936461472364142,0.0944337174296379,-0.028829352534993,-0.190353645029664,12
1733108999675018200,0.2572289040265604,0.7886784346193074,-0.7356042854271829,-0.124201129083056,9.674730423760414,-1.5982926897615193,-0.6914566159248352,0.0756413340568542,0.1080686151981353,-0.2918359465893723,-0.3352346785437273,-0.684914565724701,-0.5773573188187443,0.4676550328731537,-0.011135964654386,-0.1455512642860412,-0.1503349542617797,0.237451434135437,-0.2850998044013977,-0.032746821641922,0.0425093472003936,-0.267558647926338,0.0366013124585151,-0.0231856224434217,-0.2041895521531812,13
1733108999714817500,0.3169741650130599,-0.395507968828082,0.9219336433768271,-0.0892257138243876,9.709700614854691,-1.3726421059012412,-0.3770349323749542,0.0731299147009849,0.0116863371804356,-0.2935255546128143,-0.331719350485982,-0.6781943281076375,-0.5863936509432593,0.4136240184307098,0.1420826017856598,-0.1565751582384109,0.0149367451667785,0.0397148728370666,0.0155910849571228,-0.063574306666851,-3.60367121174e-05,-0.2890088111795484,-0.0074357539415359,0.0167372089224401,-0.1860056606869213,14
1733108999754615600,0.5088211173404008,-0.9674801735430956,1.0932723529435693,-0.123354467392154,9.715443542420864,-1.3286521575272083,0.134447768330574,-0.0370498560369014,-0.1949041336774826,-0.2950464488026719,-0.3295626524817342,-0.677591959624173,-0.5875416180193066,-0.0077314721420407,0.0911860913038253,-0.0432328209280967,0.0650809407234191,-0.0806556940078735,0.1403926610946655,-0.0828442722558975,0.0035761478357017,-0.1245567101882304,-0.0653496906161308,-0.0307801418261835,-0.2155338616566732,15
1733108999794414800,0.1659378734365105,-1.2879402079105375,0.5910849014639854,-0.2159170522879809,9.698770640039443,-1.434442290123552,0.358060210943222,0.0070826122537255,-0.2211251854896545,-0.2964709133682314,-0.3284311612496731,-0.682106423699831,-0.5822103118064766,-0.350192666053772,-0.1183215379714965,0.0590229108929634,0.1321135759353637,-0.0915618538856506,0.110722005367279,-0.0785234346985817,-0.0257280860096216,-0.1519487759121228,-0.0806031823158264,-0.0079012963350804,-0.2123328919245861,16
1733108999834213600,0.0931100079118274,-1.1454080522418022,0.4760195755220949,-0.27626625225069,9.671309217140076,-1.5999479096226392,0.4905354380607605,0.0422533825039863,-0.08940190076828,-0.2949821984741229,-0.3282466569399826,-0.6883522184825579,-0.5756829144275429,-0.3262772262096405,-0.2407599538564682,0.1441513895988464,0.1038697957992553,-0.0336878895759582,0.0394685864448547,-0.0405806899070739,-0.0409803204238414,-0.2253657573032192,-0.0453050062060356,-0.016515191069059,-0.2346316713637672,17
1733108999874014000,-0.0415480533809401,0.5728203459769488,0.2703754223801195,-0.2922933127429336,9.633959437432884,-1.808800065025687,0.6056445837020874,-0.0383308827877044,-0.0267681200057268,-0.2919015647547028,-0.330858853419157,-0.6948061290842595,-0.5679527158079631,-0.4251579940319061,-0.2766176760196686,0.2521600127220154,0.0678647756576538,-0.0368822813034057,-0.0022542178630828,-0.0253755524754524,-0.0691731944680213,-0.3205963010329753,-0.0346017256379127,-0.1098320009988266,-0.3539284791292622,18
1733108999913813000,-1.042713401442766,8.889267444056271,-0.5528859575815499,-0.3240760329075157,9.583792261728645,-2.0533513103194534,0.5806423425674438,-0.3743027746677398,-0.029891088604927,-0.2907053409589245,-0.3360363840059589,-0.7012640930412528,-0.5574930165676077,-0.6786834597587585,0.191740334033966,0.1353685408830642,-0.1903448104858398,0.1182217597961425,-0.1938598453998565,-0.0493263714015483,-0.1286313235759735,-0.8165181162465364,-0.1824969202280044,0.1010177031632978,-0.4889308603476732,19
1733108999953611000,-0.411898364473693,18.92360859383345,-5.635769506222009,-0.2928947127021849,9.59223100425005,-2.0183437098242343,-1.1332275867462158,-0.3834061920642853,0.3825905323028564,-0.2956312565685272,-0.3431768315358606,-0.6965174483356408,-0.5565027598475871,0.3823915421962738,1.2970255613327026,-0.4620333909988403,-1.3567755222320557,0.7748093008995056,-1.0380140542984009,-0.0293862540274858,-0.2962444722652435,0.1559291051194071,-0.2659813165664673,-0.2075300947527401,-0.2481309669440612,20
1733108999993410300,0.7683407991852611,14.197379697883129,-6.008188275885582,-0.1234026265159714,9.73820307123959,-1.15002570210509,-2.9764163494110107,-0.3625040650367737,0.5817763209342957,-0.3094140661934882,-0.3396922659136421,-0.665765842148888,-0.5879013260869383,2.148637533187866,1.1565823554992676,-1.5290918350219729,-1.39607834815979,1.1633546352386477,-0.9550402760505676,0.1870336830615997,-0.4059986174106598,1.0948297384534031,-0.4084661304950714,-0.0994493852674961,-0.3210558813687413,21
1733109000032823300,0.4007888683730736,0.5049772283285856,-4.622074109470844,0.0369012504884041,9.806398655587437,-0.0594876694962382,-2.3080642223358154,-0.315709114074707,0.2577331960201263,-0.3285178570757411,-0.332875815607947,-0.6262800638769245,-0.6237329806661971,2.106722116470337,0.5882826447486877,-2.2202301025390625,-0.5383635759353638,0.9620882868766784,0.1327927112579345,0.2363911122083664,-0.0562418587505817,1.2883445509277285,-0.2601397633552551,-0.2961702637741342,0.964547627222538,22
1733109000072607700,0.8081725319012999,-12.566890957915785,-5.982196925538778,0.0627184635444311,9.77929145295322,0.729318556221202,-2.0572378635406494,-0.1339480131864547,-0.1681604832410812,-0.3418838592433389,-0.3211895271555935,-0.599710254831026,-0.6483057209035711,2.0423078536987305,0.6213430166244507,-2.5887451171875,0.4265985488891601,0.4486511647701263,0.8994007706642151,0.0921178683638572,0.0930347964167594,0.1764195564949885,0.2877632677555084,0.1517982432592194,1.0550757471486925,23
1733109000112393200,0.3853782410124317,-18.26668899193406,-1.7205542108178138,-0.0377700326795689,9.668362642294168,1.6406475842796264,-2.246238470077514,-0.3182153105735779,-0.3548664450645447,-0.3634535834116909,-0.3047549370453148,-0.5687483458533694,-0.6719756229443636,1.6757404804229736,0.1305758953094482,-1.661491870880127,1.3887097835540771,-0.6349113583564758,1.0367704629898071,-0.0194534100592136,0.0736269801855087,-0.6855720612142234,0.4029819667339325,0.1778553431854583,-0.8057869519390165,24
1733109000152177400,0.3668007836513221,-18.58916621134281,0.1028463342294096,-0.1565597859720699,9.544768995851278,2.2457155645191667,-1.1854928731918335,0.1378443092107772,-0.3219160735607147,-0.3793262902738519,-0.2914930567210874,-0.5482081444887426,-0.6860109698755346,0.5803751945495605,0.4217035174369812,-1.0272221565246582,1.6187491416931152,-0.3936921060085296,1.050241470336914,0.0804046317934989,0.0467744134366512,-0.8963643908996134,0.3358053863048553,0.025983062009071,-0.3780303990002721,25
1733109000191962600,0.4110384231761098,-15.632119071257112,2.5363322492867706,-0.2836967858439311,9.44146118158996,2.636041162273288,-0.7437850832939148,0.7388894557952881,-0.0613890551030635,-0.3832176142483798,-0.2748637303888646,-0.5385621900845695,-0.6982442067505653,0.5756883025169373,0.4673701524734497,0.1621426939964294,1.396153211593628,-0.5845317840576172,0.7988623976707458,0.0406100340187549,0.0565927326679229,-0.765162680605799,0.4584733545780182,0.1754266364675015,-0.0369019834240549,26
1733109000231748000,0.0446853102270513,-10.37618474843502,4.4251656359702345,-0.3420153019629419,9.458307102450728,2.5678487927958367,1.2788419723510742,0.7592508792877197,0.1814384013414383,-0.372901362701366,-0.2656389132989846,-0.5463626211574898,-0.7013333857025462,-0.3579105138778686,0.165109321475029,1.150170922279358,1.1193703413009644,-0.454342782497406,0.818537175655365,0.0647001639008522,-0.0678049102425575,-0.4450296131704002,0.2038601040840149,0.0967756268804427,-0.4600325365129858,27
1733109000271532500,0.0618971783233806,-1.7735095559358596,2.1146325852341947,-0.3236134934296831,9.662405195194482,1.64426416734159,3.2528975009918213,0.0185991320759058,0.0402543023228645,-0.3550430927386618,-0.2804679857016788,-0.5809505753437857,-0.6765934190672297,-2.5513346195220947,-0.6304680109024048,2.181124925613404,0.6190192699432373,-0.3488420844078064,0.5293867588043213,0.158072292804718,-0.1206216812133789,-0.257920503019914,0.0311740841716527,0.0071644305737834,0.4063229389615356,28
1733109000311318000,-0.5712662849353626,7.592844069960713,-1.1584662712574003,-0.3463115378521382,9.789958392918107,0.4551693874560296,2.8008835315704346,0.5911424160003662,-0.0622455887496471,-0.3348992597086766,-0.2978631895737619,-0.6229529190733922,-0.641131580171048,-2.8469276428222656,-0.935171604156494,1.6598820686340332,-0.4741359353065491,0.2620935440063476,-0.07518070936203,0.1013588979840278,0.0010872767306864,1.0484741569265723,0.4882832765579223,-0.5619023173278197,1.4415385319948195,29
1733109000351103200,-0.4235995063245296,10.33159040442705,-2.611411163407564,-0.3075297160478308,9.783594703105091,-0.5975678702751174,2.436325788497925,0.3019259572029114,0.2810363173484802,-0.3099222505411859,-0.308848664644164,-0.6596059315724264,-0.6111307046097777,-1.4734588861465454,-0.867384672164917,1.2664680480957031,-0.7759221196174622,0.6008912324905396,-0.4818282723426819,0.1298225224018097,0.0488057062029838,0.3400805345080793,0.3914172947406769,0.0255693575084907,-0.0231648947492241,30
1733109000390887400,0.553944088332355,7.060115495875477,-3.359442530339956,-0.2127702969611622,9.708573072129488,-1.3670100913636385,1.4682652950286863,-0.0518569760024547,0.2223453670740127,-0.2946136057222341,-0.3241340487802523,-0.6816415722745292,-0.5860927471285092,-1.3528105020523071,-0.680931568145752,0.9521299004554749,-0.889132022857666,0.5084472894668579,-0.6547455787658691,0.0570186227560043,0.1420285105705261,0.6977355964124202,0.1669407039880752,-0.1843692916567437,-0.1037033529175445,31
1733109000430673000,0.7897071931451558,3.7504794912338255,-3.657125207971036,-0.1052647661485243,9.661388127106427,-1.6783528994262218,0.0576744601130485,0.123924121260643,0.3022677004337311,-0.2851200526349026,-0.331422368775752,-0.6897328429255518,-0.5771778648822222,-0.2886816263198852,-0.391499251127243,0.403154194355011,-0.4453234672546386,0.4278686046600342,-0.4606248140335083,0.0939575135707855,0.0448955930769443,-0.3522647837007418,0.1209267899394035,0.3222473561756312,0.0975544383663684,32
1733109000470457300,0.6170887459661811,1.7419114716231825,-0.0325692674323916,-0.012852002661192,9.677530868133902,-1.5860602540455755,-0.2400926649570465,0.0985426977276802,0.0712290257215499,-0.282246092026649,-0.3313579761068547,-0.6863442691765589,-0.5826409259159098,0.2513184547424316,-0.1947080194950103,0.0930800810456276,-0.2115275859832763,0.1857829093933105,-0.2579533755779266,0.0843312889337539,-0.0177765656262636,0.0406147226201603,0.1958377212285995,-0.1039468154177535,0.144988133986108,33
1733109000510242800,0.150117057839781,0.3329518516719341,0.4561154361344873,-0.0420787307581165,9.680646369805933,-1.566427040553838,0.0654881373047828,0.0361141078174114,-0.1743326634168625,-0.2827538328986393,-0.3292019474124303,-0.686652479638214,-0.5832535429661168,0.0010135499760508,0.1122448220849037,0.0418644286692142,-0.0977404713630676,0.0281636118888854,0.0499278306961059,0.0763986632227897,0.0572451017796993,-0.1165167577260639,0.1930126547813415,-0.1082797209223732,0.0347137686477974,34
1733109000550028000,0.412861145091243,-0.646890375316143,0.7855588412940502,-0.1081990386352874,9.67557447336912,-1.594350089615583,0.0966824069619178,0.0336998924612998,-0.1877039670944214,-0.283823221577861,-0.3267334693683428,-0.688864625496356,-0.5815111691459106,-0.0789518505334854,0.0089783575385808,0.0200629960745573,0.0106252431869506,-0.0337793827056884,-0.0019166469573974,0.0544500760734081,0.0088350987061858,-0.1340950297156814,0.0884817391633987,0.0027271034301753,-0.1641692380624823,35
1733109000589812500,0.1536085897499695,-1.3321037592858076,0.6356922510839998,-0.1857807476235553,9.661081837636232,-1.6731291734285652,0.3006127774715423,0.0011143092997372,-0.2069469392299652,-0.2847532949985924,-0.3250400487335843,-0.6925711628565521,-0.5775895610045131,-0.2626215517520904,-0.158901572227478,0.0812706872820854,0.0849230885505676,-0.0927093625068664,0.0608539879322052,0.0285686030983924,-0.0429084114730358,-0.2607297882869839,-0.0260143894702196,0.0637229187460849,-0.0792726851493585,36
1733109000629597700,0.0501039377423003,-1.3176011866807935,0.6969090824604034,-0.2567533772029914,9.633411740422249,-1.817095891945064,0.4643371701240539,0.1067348048090934,-0.1781583428382873,-0.2837398887860604,-0.3237472668809426,-0.6984510121565756,-0.5717040807200946,-0.3649117052555084,-0.2403024137020111,0.2007550746202469,0.1219001412391662,-0.0609493851661682,0.0741282701492309,-0.0248059350997209,-0.0271288491785526,-0.1000018771842587,-0.0201808400452137,0.0175045993986306,-0.0353458514396799,37
1733109000669383200,0.2052955041010864,-0.952443347930908,0.4987444714188575,-0.2962753315838053,9.591471125793456,-2.02145716566965,0.5871431231498718,-0.0161533616483211,-0.0579579882323741,-0.2808145768197813,-0.3245045339418791,-0.7055228122023394,-0.563983650781779,-0.4116874635219574,-0.2831568419933319,0.3321123719215393,0.0876979231834411,-0.0679625272750854,0.0338507294654846,-0.0355948917567729,-0.0306218136101961,-0.1284330584312323,-0.0407849363982677,0.1121698784950189,-0.554129162575677,38
1733109000709167400,-0.923144845797494,3.134009388622641,-0.2920437949612736,-0.3194458158235996,9.533413489100337,-2.2764858197055755,0.7244109511375427,-0.1164751723408699,0.0217939522117376,-0.2782450875702523,-0.3287801736110536,-0.7127215974702072,-0.5536345969985845,-0.6105230450630188,-0.2553834915161133,0.4541603922843933,0.0407403707504272,-0.0151870846748352,-0.0187572538852691,0.0037967329844832,-0.0511362887918949,-0.3332959889344871,0.0370443277060985,0.2291115014364942,-0.1345716890504118,39
1733109000748952800,-1.3080486376985907,14.047290843224523,-3.66745020263046,-0.2830478569485247,9.492797985595464,-2.444796413622796,-0.0176263190805912,-0.1905676126480102,0.2658119797706604,-0.2757682291220264,-0.3345572550383964,-0.7160456505471205,-0.5470848817483842,-0.3640317916870117,0.3617260158061981,-0.0308692958205938,-0.5145376920700073,0.3367571234703064,-0.4331225156784057,-0.0133021930232644,-0.0065670353360474,-0.117659945544973,-0.0411692112684249,0.0618865107988938,-0.3604108634185046,40
1733109000788738300,-0.5623611304786056,18.995277991771697,-9.901537776440382,0.0027164204934902,9.605704233807325,-1.975049342498928,-2.749856472015381,-0.1089966967701911,1.285003662109375,-0.2779636402199006,-0.3411279795941412,-0.6959390738135109,-0.5674827889069979,1.8737778663635247,1.3962546586990356,-0.6555283069610596,-1.638240933418274,1.2478618621826172,-1.398850440979004,-0.0728960707783699,-0.0455582924187183,1.0233357701472938,-0.1814611256122589,-0.5730214945722371,0.3317126652657985,41
1733109000828522800,1.648749203801155,9.515925763204692,-6.120419985836744,0.444232069584541,9.779244691202043,-0.5825966207124292,-3.7933461666107178,-0.2106657922267913,0.8744896054267883,-0.2897478759206612,-0.33712228825544,-0.6450214911614098,-0.6215641802692923,3.318202495574951,0.9871229529380798,-1.75978684425354,-1.2657487392425537,1.2821393013000488,-0.6086437106132507,0.0266172215342521,-0.1763462126255035,0.7490268077105283,-0.2328738272190094,0.0346811610028496,0.2021764222324825,42
1733109000868308000,1.418540225984156,-5.135270884612202,-5.425972909575701,0.6382285646285861,9.75862392797768,0.7295970078364015,-3.0816967487335205,-0.2409927546977996,0.067361019551754,-0.3094546150584091,-0.3268616142478053,-0.5966258374922818,-0.6644072346991591,2.690518856048584,0.5045532584190369,-2.3249852657318115,-0.3009291291236877,0.7842079401016235,0.5526214838027954,0.084500104188919,0.012132367119193,0.8249415150683372,0.1321738362312317,-0.056659154372313,1.3900554513864218,43
1733109000908092200,0.4833170755865052,-13.962392545878886,-3.129783879882097,0.5996103724207729,9.655224343779684,1.608568146190792,-2.910100221633911,0.0128077091649174,-0.3407394289970398,-0.3266138791240806,-0.312471477923702,-0.5659924252524204,-0.6894472529694274,2.3723416328430176,0.3192584216594696,-2.4176273345947266,0.7151806354522705,0.11701700091362,1.0280842781066897,0.0212982390075922,0.1031493097543716,0.1896140787087381,0.5351203680038452,0.1371322785197291,0.5278504101222381,44
1733109000947877600,-0.591863521153666,-18.530590103733537,-0.1180412730127573,0.4028711180072277,9.463448556992413,2.5399264743864536,-1.9097745418548584,0.1995364874601364,-0.5024380683898926,-0.3461141658509154,-0.2885866961258769,-0.5359267773910714,-0.7139364431010979,1.228981852531433,-0.6191511750221252,-1.5170561075210571,1.7456941604614258,-0.6608676910400391,1.1415801048278809,0.0853011086583137,0.3193842470645904,-0.9073177465904504,0.1833466142416,0.258420945089031,-0.9870139452483504,45
1733109000987663000,-0.6004359730573371,-20.66389860173464,0.8889116637408733,0.2543242320936173,9.356382851502298,2.9263980270609258,-0.1754596531391143,-0.1690928936004638,-0.2601231634616852,-0.3570507121493697,-0.2767916938161843,-0.5236235154001746,-0.722301574552051,-0.0641617253422737,0.1522946208715438,-0.4382010400295257,1.509697437286377,-0.5929597020149231,1.0745664834976196,0.0796640962362289,0.1932062655687332,-1.433456347826123,-0.1998100578784942,0.3115431164076551,-0.9122443893376736,46
1733109001027447600,-0.0482708953625522,-16.816859601455924,0.8763768840774894,0.1579551310542971,9.391392205563188,2.8190730861127373,0.6762261390686035,0.1531421840190887,-0.354554682970047,-0.3606492577998849,-0.2772281692212207,-0.5285941817135328,-0.7167041166487942,-0.7449072003364563,0.653039276599884,0.8836503028869629,1.5978376865386963,-0.5773494243621826,0.9763993620872498,-0.0704965963959693,-0.0244696661829948,-0.7762430967424064,-0.3303337097167969,0.0200771670001093,-0.339372422771342,47
1733109001067232800,-0.1536751887127757,-9.708478964105248,2.6429917120635507,0.0049354773617611,9.540435935083032,2.26946088950485,2.274002313613892,0.6749677658081055,-0.1489128619432449,-0.35155924417383,-0.278027457975964,-0.5540671703627699,-0.7015101183813576,-1.3523926734924316,0.3895931243896484,1.9998745918273928,1.0856553316116333,-0.2968588173389435,0.7585923671722412,-0.1262363791465759,0.0901116654276847,-0.3796636992905288,-0.590509295463562,-0.2424113106556236,-0.1123520849278196,48
1733109001106974500,0.6458621282469481,5.110036490112543,0.1877564681433141,-0.0492568102605175,9.729075177410245,1.23006011974141,2.82149624824524,0.5980203747749329,0.0420542769134044,-0.3278468131589757,-0.285992154409892,-0.5962322333173743,-0.6747088556500256,-2.3290836811065674,-0.984448790550232,2.3794941902160645,0.2562366127967834,-0.0401548147201538,0.0044363737106323,-0.1077380552887916,-0.0680494308471679,-0.2076395282102748,-0.1758815795183181,-0.1328343438637908,1.8372380778722464,49
1733109001146757000,-0.8382371230363845,10.828476096236706,-1.7105939578175544,-0.1134579820767976,9.805202723801136,0.1245854978912975,2.659218072891236,0.4125121235847473,-0.1559059917926788,-0.3070637903022176,-0.2958334048177938,-0.6372836918913983,-0.641922093992825,-1.7382410764694214,-0.51902836561203,1.5655670166015625,-1.468289136886597,0.8327757716178894,-0.427927017211914,-0.1601929068565368,-0.0888197794556617,1.0522697498172522,0.0274744313210248,-0.3811451700199395,0.0101472223731456,50
1733109001186541000,-0.0410864272185601,10.646673421931268,-3.5438428199231624,-0.1651141724960878,9.780655142521857,-0.6941936860218644,1.565952181816101,0.0910193249583244,-0.1244700774550437,-0.2918597896250864,-0.3021000994617694,-0.666430459998074,-0.6159738908291017,-1.427735447883606,-0.8214386701583862,0.8456016778945923,-0.9774895906448364,0.4403685331344604,-0.663894534111023,-0.0469895228743553,0.1444591283798217,0.6708115683253855,-0.3838705420494079,-0.4478812397418543,-0.4849740124806761,51
1733109001226324700,0.7420552151322365,5.906514784827828,-3.304904592205584,-0.1701406406222842,9.73450772385299,-1.1750965766061097,0.8815876245498657,-0.1443984806537628,0.0336458496749401,-0.2857895769190897,-0.3105073099612208,-0.6808072127472329,-0.5986746230806754,-1.0632612705230713,-0.4863013625144958,0.1707471758127212,-0.5413258075714111,0.4729519486427307,-0.4137647747993469,-0.0881287902593612,0.0166510567069053,0.259251349764876,-0.2582732141017914,-0.0845844182240311,0.2443805466356687,52
1733109001266108000,0.3883908302992582,1.7893319789677855,-2.7550293607473373,-0.1990990788800641,9.719894092088936,-1.286233111731708,-0.2511855959892273,0.0511585660278797,-0.0494453683495521,-0.285231646839481,-0.3115010302795095,-0.6845047433957601,-0.5941912522475932,0.0007933063898235,-0.0878978073596954,-0.0487835817039012,-0.298389196395874,0.3274054527282715,-0.3014677762985229,-0.0896863639354705,0.0094558121636509,-0.1757643439892679,-0.1438562273979187,-0.0587045106287579,-0.1389750842416658,53
1733109001305891800,-0.0026308051613159,0.2544377024054527,0.1422901636064052,-0.151047077832045,9.74165350395441,-1.117028637714684,-0.421158105134964,0.3471390902996063,0.217470183968544,-0.2839377854303224,-0.3078489084799924,-0.6798394383691324,-0.6020188537291716,0.5447152256965637,-0.0195961892604827,-0.1754026412963867,-0.010522723197937,0.2037850618362426,-0.1093879640102386,-0.0867494493722915,0.0272879265248775,-0.240653982126899,-0.0782480388879776,-0.0954412273383699,-0.0592083730642451,54
1733109001345675500,0.3754915281724184,-0.5013701437473297,0.4124281970340758,-0.0751688939591869,9.754958975729346,-1.002748836127296,-0.2524967193603515,0.2126600593328476,0.0395562835037708,-0.2802591514482148,-0.3053388328653365,-0.6766787718358663,-0.6085464779283555,0.4417371451854706,0.0078306412324309,-0.1970858871936798,0.0150103569030761,-0.0503154993057251,0.0780978798866272,-0.0904249176383018,0.0135313281789422,-0.2921097180706448,-0.0308530759066343,0.053030812373897,-0.1281209876742214,55
1733109001385458400,0.596137106819637,-0.1882464436173438,1.4404606736302374,-0.1407899790433701,9.758917942488193,-0.9560841155860572,0.0595046654343605,0.2624737024307251,-0.4182057380676269,-0.279945343614781,-0.2989629198632355,-0.677766846246175,-0.6106422212276397,0.1216728612780571,-0.0871349647641182,-0.1301898807287216,0.0619259476661682,-0.1017646193504333,0.1223484873771667,-0.0711254552006721,-0.0105695649981498,-0.0803580509669613,-0.0526102446019649,0.0664917761046439,-0.1600752467471174,56
1733109001425242000,-0.045416474045813,-0.0536550178200006,0.7810228052996099,-0.3478314408957958,9.74523486957252,-1.0391474525894968,0.4075284600257873,-0.0712893828749656,-0.5928468108177185,-0.2838594887901997,-0.2914990514528024,-0.6841126210182623,-0.6053446512769229,-0.2321656495332718,-0.1960651725530624,-0.0345588363707065,0.0282805562019348,-0.0991069078445434,0.0200360119342803,-0.0552846007049083,0.0064219790510833,0.1047171148036606,-0.0752644017338752,-0.0473189010004978,-0.0550349050381919,57
1733109001465025300,0.4652353293204679,-0.0461304675340652,0.7805997575819492,-0.4796005392814055,9.712420395207404,-1.2685675450511276,0.7158547639846802,0.1159016042947769,-0.1578524112701416,-0.2833714054886923,-0.2888773203754135,-0.6937065928773584,-0.5958369817487329,-0.2610646486282348,-0.1552581489086151,-0.0787715762853622,-0.0271762609481811,0.0198672413825988,0.0253106951713562,-0.088030532002449,0.0251643396914005,-0.0236877952453214,-0.0770320668816566,-0.0015510259801725,0.0662503183318534,58
1733109001504809200,-0.2968729686833918,-0.5708183585047721,-1.0413469353951512,-0.5196997638272122,9.685245972555876,-1.4478746031485497,0.1102221086621284,0.458327442407608,-0.1011500805616378,-0.2779199000196471,-0.285296493694522,-0.7017314100406286,-0.5907111155219811,0.0005347135011106,-0.3161808252334595,0.025050364434719,0.0761926174163818,0.01333749294281,-0.1117547750473022,-0.1511647701263427,-0.0104084871709346,-0.0939521395580843,-0.0895972102880477,0.0606699380833655,0.1090339550894685,59
1733109001544593000,0.0060329965539276,0.036930677512288,-1.0400023889183998,-0.5029794421074911,9.6868200900048,-1.4432333532139658,-0.1056596934795379,0.5047104954719543,-0.057663083076477,-0.2709505781345228,-0.2780932175355883,-0.7044491375750404,-0.5941392160982015,0.1890657395124435,-0.1201142743229866,0.0549597926437854,-0.0264378786087036,0.053185224533081,0.0329653620719909,-0.1802629381418228,-0.0049548163078725,-0.0349482966395909,-0.1358266919851303,-0.0006444308168021,0.0207141314630862,60
1733109001584375800,0.4205105638658628,0.6657260086894035,-0.4293899262942373,-0.4992200530413538,9.689196756008268,-1.4285112926393746,0.0160037484019994,0.1806478351354599,-0.0691311880946159,-0.2675603032051552,-0.2738982314877619,-0.705559041865994,-0.5963034221792429,-0.0467723496258258,0.0739684328436851,0.0496576391160488,-0.0367473363876342,0.0068717002868652,0.0494298934936523,-0.1574299931526184,0.0056042191572487,0.1096760980510618,-0.1058791205286979,-0.0653940439958125,0.116593019566359,61
1733109001624159500,0.297580057506822,0.3736182085812091,-0.4577086966753005,-0.5082698036005721,9.684722240942715,-1.4554079212628304,0.0656062439084053,0.160647764801979,-0.015531787648797,-0.2652487405235036,-0.2713173332819757,-0.7075253070745454,-0.5961861956583112,-0.0389881953597068,0.0611877664923667,-0.0992175266146659,-0.0342273116111755,0.0728989839553833,-0.0022840797901153,-0.1140483990311622,0.0710086077451706,0.1675330702060833,-0.0369287654757499,-0.1069417959826532,0.049091509296745,62
1733109001663943400,0.3543625962302088,0.0475672223389148,-0.4273803400374948,-0.523602835680358,9.684115507221222,-1.4540132520340383,-0.0978834703564643,0.0533515140414238,-0.0677868798375129,-0.2647596938892202,-0.2695739239809189,-0.7081411916079937,-0.5964632144867401,-0.0154176214709877,0.0316304601728916,-0.1264704465866089,0.0107264518737792,-0.0016243457794189,-0.0299152135848999,-0.059449091553688,0.0270290691405534,-0.2362310511181131,0.0002569969510659,0.1930147539976984,0.0944855157824233,63
1733109001703726300,-0.2487550171265378,-1.0137614477247,-0.2563863522551953,-0.5109548779660835,9.691993108728528,-1.4051890153713524,-0.1742428094148636,-0.1281939893960952,0.1867878586053848,-0.2651508389371624,-0.2694887308985014,-0.7064138491077859,-0.5983729831124319,-0.1000483483076095,0.0181734543293714,-0.1376239657402038,0.0106781721115112,0.0064372420310974,-0.0226228833198547,-0.0987617895007133,-0.0416337773203849,-0.0574175578244496,-0.0167653243988752,0.1082972200464457,0.0526088469350477,64
1733109001743510300,-0.5134154228607193,-0.6773357824623585,0.2377846737682819,-0.3978776571014896,9.705271692496538,-1.348994396071136,-0.1423097252845764,0.0869487896561622,0.3371976912021637,-0.2618216299933527,-0.2721131904504553,-0.7033732877499708,-0.6022208065700995,-0.1888309568166732,-0.0545518808066844,-0.0212253220379352,0.1080896258354187,0.0486255288124084,0.0085620284080505,-0.1355708986520767,-0.0189773067831993,0.0324987412131391,-0.0787214487791061,0.0314290364722604,0.0248150913753546,65
1733109001783294200,0.8918656912408769,-0.0557031825214624,0.9975403807640076,-0.3031911753868684,9.708226450648905,-1.3523317238003014,0.1226543262600898,0.2580779194831848,0.0014574646484106,-0.256977915977597,-0.2734251176641314,-0.7029853746367424,-0.6041627415024574,-0.3620613217353821,0.1944877803325653,0.0802546963095665,-0.0190093517303466,-0.0453920364379882,0.1002158522605896,-0.1420121937990188,-0.0009622325887903,0.0389361584160709,-0.0791432037949562,0.0342153883883147,0.0313351453604409,66
1733109001823076900,-0.2035137169845402,0.0577045854717493,1.0912078216291965,-0.3018122517164796,9.696271808961033,-1.4358232230879366,0.3674430251121521,0.1516398936510086,0.0965186133980751,-0.2528953069813862,-0.2712208244029687,-0.7068563310698979,-0.6023597437577447,-0.5369521379470825,0.0456700064241886,0.105663850903511,0.0406128168106079,-0.0330339670181274,-0.0411545038223266,-0.1189958080649375,0.0367448963224887,-0.0261454746127245,-0.086294025182724,0.0928679701837245,-0.027939735335065,67
1733109001862858800,-0.0276612380540929,-0.4031400711417198,0.631371611405909,-0.2472228208568878,9.664658527079224,-1.6442679667338729,0.6913930773735046,-0.1497412472963333,0.2082320153713226,-0.2483951594252934,-0.2760794499984407,-0.7124706829786829,-0.595369967627581,-0.8567320108413696,-0.1309539824724197,0.0832995548844337,0.0351964235305786,-0.0306171774864196,-0.0801686942577362,-0.093494676053524,-0.0017809654818847,-0.0527303681225981,-0.095337726175785,0.118986472307844,-0.0409868119021411,68
1733109001902642700,0.9003731150843203,-0.210829446825385,-0.1008662663280963,-0.1680468649471178,9.622436172899604,-1.884376407274604,0.5729396343231201,-0.2314901202917099,0.1317854672670364,-0.2450899967417373,-0.2852491059823981,-0.7174325109181545,-0.5863910630551988,-0.8960786461830139,-0.1757736057043075,0.1765209734439849,0.031980276107788,-0.0735571980476379,-0.0505189895629882,-0.0780670866370201,-0.0355309098958969,-0.036958430885605,-0.072144865989685,0.0968896543147042,0.0513506864003837,69
1733109001942425600,-0.6682840956743806,-0.3507996430516242,-0.5990580723002553,-0.1752232593825086,9.574313070243596,-2.1147696556173265,0.5047517418861389,0.7085152864456177,-0.1129480302333831,-0.2405099490934465,-0.2861978980323488,-0.7251992880428753,-0.578214391698881,-0.6340720653533936,-0.0317464917898178,0.1788783371448516,0.0168704986572265,0.0555292963981628,0.1335646212100982,-0.067422404885292,-0.0308294501155614,0.0479309821839677,-0.0338964015245437,0.0323384886005311,0.1217228658686391,70
1733109001982209500,-0.2190391115649603,0.3447837437629699,-0.2746984001457691,-0.1158499917798675,9.553294832134249,-2.21167958553508,0.1326275020837783,0.8563683032989502,0.0294761378318071,-0.2254743475851255,-0.2747647455724835,-0.7329860931666001,-0.579997463800112,0.2315151989459991,0.0534790866076946,0.1483130455017089,-0.0575496554374694,0.021698772907257,0.0214563012123107,-0.0797100737690925,-0.0064662829972803,-0.0013026892295572,-0.0356655567884445,0.0110179830339096,0.0247109049150953,71
1733109002021993500,0.9238627848085016,-0.3037076370090246,-0.3944691272996365,0.029777791816648,9.521084168881178,-2.349136922157556,0.4599456489086151,-0.1192263215780258,0.398699402809143,-0.214708680277928,-0.2764289262964212,-0.7371293644025858,-0.5780376170851445,-0.287539929151535,-0.0834694430232048,0.0924686193466186,-0.0012981295585632,-0.0086382627487182,-0.0454635620117187,-0.0669993534684181,-0.0072714509442448,-0.0942999574819114,-0.0832864716649055,0.1473106038506142,-0.0261150452251313,72
1733109002061776100,0.6155132402777671,0.0828928027421236,-0.3694286479368805,0.1543721032020635,9.494064644530416,-2.451390551190823,0.1063619256019592,0.1892727464437484,0.3221051096916199,-0.2109876733390953,-0.2844055953156063,-0.7376310653568329,-0.5748897051225993,-0.8769786953926086,-0.0806201845407486,0.0136961759999394,-0.017591655254364,-0.0577089190483093,0.0048829913139343,-0.0400175601243972,-0.0518534295260906,0.0054183261211495,-0.0480148680508136,0.0718051714134402,0.0202308825573651,73
1733109002101560000,-0.2962352553017437,0.2526291916787624,0.0578816956043243,0.2206682106041349,9.486983161836864,-2.4736317552238702,0.0717238113284111,0.7287386655807495,-0.0152017036452889,-0.2028466965557695,-0.2797880614561598,-0.7401613040930604,-0.57683026954858,-0.1177794113755226,-0.1189154833555221,-0.1147394999861717,0.0235454440116882,0.1199524998664856,-0.0271392166614532,-0.0109151843935251,-0.0240844879299402,0.0513634545504115,-0.0661099776625633,0.0366730083902133,-0.080451364406757,74
1733109002141176300,0.2458859644962474,0.1562812795579433,0.2356824407920241,0.3731646195948124,9.476790269124509,-2.494313016463816,0.1276866644620895,0.7240669131278992,0.2560360729694366,-0.1879746002774189,-0.2732616896274585,-0.7433051980840973,-0.5809398218740739,-0.1843363344669342,-0.1130877956748008,-0.0352097824215889,0.0168537497520446,0.0218316912651062,0.0408024191856384,-0.0015172704588621,-0.0175726730376482,-0.0471998411980923,-0.0762080922722816,0.0287774282682221,-0.0078963284698402,75
1733109002180953600,0.7356821729689836,-0.0116536129146814,-0.4587669735565781,0.4473525396926328,9.463364385840295,-2.532788585330546,0.0297456532716751,0.2071335762739181,-0.0965837016701698,-0.1797228915591638,-0.2696064753436134,-0.7459548400191123,-0.5818621108979484,-0.1727699637413025,0.021828269585967,0.0172050893306732,-0.0412325859069824,-0.03741055727005,0.0701098442077636,-0.020060384646058,-0.0043802820146083,-0.0708677079002372,-0.0978021994233131,0.0503572412165114,-0.0781503848548512,76
1733109002220731600,0.0111485860019922,-0.0535731847554445,0.054081426538527,0.4011030488887802,9.46742389036417,-2.5253458681091665,-0.029566653072834,0.0394926331937313,-0.1194177940487861,-0.180572354048329,-0.2668432992978427,-0.7466936890951918,-0.5819250507714036,-0.3799212574958801,-0.0069140028208494,0.0274898204952478,0.0071757435798645,-0.0529914498329162,-0.0057026743888854,-0.0285169947892427,-0.0272194612771272,-0.0905196626250632,-0.1120895892381668,0.0650044555897591,-0.0931402660527732,77
1733109002260509700,-0.0193466151027008,-0.0289104526638984,0.01300824239403,0.390896821770817,9.468349188515544,-2.523478905193508,0.030465917661786,0.1521681696176529,-0.0126820262521505,-0.1797034167651314,-0.264871507128245,-0.747331723805602,-0.5822757493606645,-0.2488780468702316,-0.0435519628226757,-0.0411820523440837,0.0246036648750305,0.0562030673027038,0.04775071144104,-0.0148007860407233,-0.0547396913170814,-0.0452458073537563,-0.0860944241285324,0.0122504542881797,-0.0449626841300167,78
1733109002300287000,-0.6903183058932423,0.046584056520462,-0.7979273244798183,0.4122916015749797,9.467973340940476,-2.521484224244952,-0.0181263480335474,0.7381027340888977,0.0192889235913753,-0.1745960491377556,-0.2599547996935023,-0.7489882594941631,-0.5839146334865385,-0.1450168937444687,-0.0751684755086898,-0.0574820637702941,0.0112853050231933,-0.0016684532165527,-0.0260999798774719,-0.0129125770181417,-0.010709973052144,-0.0352400164450285,-0.0793657079339027,0.0049891283655597,-0.1080050686994567,79
1733109002340065300,-0.4489892375163734,0.220149063834548,0.4486453925147652,0.6765878867045044,9.46035585167408,-2.4928444052159784,0.1571254879236221,1.9154822826385496,0.644096851348877,-0.1514062344348793,-0.2505697266390073,-0.7512086924724968,-0.5915880642177469,-0.2874163687229156,-0.1547425538301468,-0.0266152285039424,0.0426299571990966,-0.0095312595367431,-0.0241909325122833,-0.0053246961906552,-0.0525764487683773,-0.1129047686408273,-0.0660585835576057,0.0524354448632104,-0.0516008572025923,80
1733109002379843600,0.3708201753605157,-0.0214285724759101,0.482335188409686,1.111040941607207,9.410438266816737,-2.5257848440483213,0.3041620850563049,1.61054265499115,0.5125011801719666,-0.1129271100143871,-0.2373205569216067,-0.7566096321401407,-0.5987220936498929,-0.1562855243682861,-0.1150383427739143,-0.0133335776627063,-0.0180534720420837,0.0166374444961547,0.0211180448532104,-0.0072642499580979,-0.0414453260600566,-0.0556991411005845,-0.0674854293465614,0.0163966952389455,-0.1067469127313699,81
1733109002419620600,0.6464725882954895,-0.1068821656167507,-0.1260942310869693,1.3812665802530943,9.369000925534962,-2.5464339565843344,0.1119804009795188,1.316880464553833,0.2275263965129852,-0.0877269763126998,-0.2277500138371396,-0.760238073650849,-0.6020565205724733,-0.0248947478830814,-0.0382650010287761,-0.0790188461542129,-0.0332960486412048,0.0392535328865051,0.0502328276634216,-0.0029474720358848,-0.042910411953926,-0.0570018303301418,-0.0874563083052635,0.0274146794144995,-0.0820360123828519,82
1733109002459398700,0.4670478951677679,-0.303104410418868,-0.4362986827693879,1.5608407648541032,9.36829949926734,-2.443178018640727,-0.1584165692329406,1.3528969287872314,-0.0448765382170677,-0.0651699470573522,-0.2120567251572049,-0.7613142285075374,-0.6092499086843588,0.1541341245174408,-0.0578383803367614,-0.0896357372403144,-0.0160889029502868,0.0051028132438659,-0.0033073425292968,-0.0023468423169106,-0.0539217367768287,-0.0922617753183469,-0.0966423600912094,0.0092729682807752,-0.053536702369689,83
1733109002499177000,-0.8119163946047425,-0.1327466747134923,-0.4878516137436032,1.7070485402956603,9.38573870984614,-2.2725144318565724,-0.2475810050964355,1.5732390880584717,0.2487234771251678,-0.0446767980227596,-0.1957193082657978,-0.7599736448978381,-0.6181732513799274,0.3726662099361419,-0.0300607085227966,-0.0656031742691993,0.0319884419441223,0.0205656290054321,0.0370644927024841,0.0130449067801237,-0.0590386651456356,-0.04122989080986,-0.0799511075019836,0.0053178579964267,0.0103014893446059,84
1733109002538954200,-0.5692569544069469,0.1377922676652669,0.1785059708476066,2.032263806366175,9.363148107853531,-2.090874546897412,7.60126858949e-05,1.7656798362731934,0.6695513129234314,-0.0138304770485038,-0.1819450643143305,-0.7572984389582829,-0.6270596835603439,0.1305688768625259,0.0195167511701583,-0.0802677348256111,0.0007176995277404,0.0105862617492675,0.1142072975635528,0.0141327744349837,-0.0568796843290329,0.0637789460825268,-0.0405256487429142,-0.0476345976198557,0.0839857856106013,85
1733109002578732300,-0.0178925073042511,-0.0285597395300865,-0.5176432331562042,2.425711043272168,9.30160204452276,-1.940752959012985,-0.0966700911521911,1.4851247072219849,0.5800459980964661,0.021050839973229,-0.1702932860815947,-0.7549510293195055,-0.6329344802835171,0.0895527377724647,0.0136585962027311,-0.0808802619576454,-0.0147362351417541,-0.0048079490661621,-0.0247887074947357,0.014252652414143,-0.0281438529491424,-0.0558549618499586,-0.0811924785375595,0.0076480573637731,-0.1028543257396202,86
1733109002618510600,-0.3341612274616956,-0.0780903708964586,0.3455072357319295,2.727764629463852,9.259705269035695,-1.7284584080711003,-0.3137031495571136,0.9669030904769896,0.6419278383255005,0.044812867050672,-0.1648116158361573,-0.748975287538322,-0.6402070558900382,-0.0049564586952328,0.0405160412192344,-0.0736071020364761,-0.0062401294708251,-0.0154568552970886,0.0603571534156799,0.017809135839343,-0.0668900832533836,-0.0895485434374306,-0.1262895911931991,0.0133583550229319,0.0264383794449619,87
1733109002658287900,-0.17722206851691,-0.1229004034817218,0.945196445542574,3.035300300328433,9.196924695473909,-1.5407536701150235,-0.0151280593127012,1.127817153930664,0.6722305417060852,0.0674747133614096,-0.1620204661782663,-0.7431728917760633,-0.6456706675760561,0.1141840517520904,0.1166483610868454,-0.1850543320178985,-0.0396722555160522,0.0703676342964172,-0.0092560052871704,-0.0045658005401492,-0.0587571412324905,-0.0321870951478136,-0.1607566475868225,-0.0139317572969826,-0.0326002676421427,88
1733109002698065700,-0.1005114615410566,-0.0686275460243225,-0.2547543671391904,3.3474975332632657,9.11062880629003,-1.4003873141780494,0.0460624247789382,1.247556447982788,0.6543702483177185,0.0944051192310993,-0.1556613060384802,-0.7397090251058335,-0.6478331451559342,0.1083405390381813,0.1150963231921196,-0.1559258699417114,0.0262442231178283,-0.0103029012680053,0.0121864080429077,0.0060854880139231,-0.0771670192480087,-0.0347924736069282,-0.1691375821828842,0.0081042093416588,0.0168215421880478,89
1733109002737844000,0.1010772787302732,-0.3986035967558622,0.0647602030716836,3.6778713511407375,9.010099809092283,-1.2090392512835562,0.0223817657679319,1.5477374792099,0.7497231960296631,0.124533102531989,-0.1476624254581849,-0.7347378142689366,-0.6502674563334012,-0.1194934174418449,0.1355232000350952,-0.1256589889526367,0.0058851838111877,-0.0044518113136291,0.0324200540781021,0.0093004126101732,-0.0868302136659622,0.0,-0.160666286945343,0.0,0.0,90
1733109002777621200,0.4000304146885872,-0.2601081492573022,-0.027683102826029,4.022060636141896,8.889111376711726,-0.988506887219846,0.0279720313847064,1.6306074857711792,0.7630762457847595,0.1574678044548745,-0.1385449792440911,-0.7288381950388113,-0.6517700732719558,-0.2171046733856201,0.0644436404109001,-0.1544548720121383,0.0424649715423584,0.0317550301551818,0.0130054354667663,0.014404428191483,-0.0762306824326515,-0.0006513446147786,-0.1838352382183075,0.0055089915169548,0.0123554524575476,91
1733109002817399600,0.4490548500984906,-0.3509153783857822,0.083506039269641,4.316902537389099,8.777008261576295,-0.7062975269220769,-0.0355581529438495,1.7588934898376465,0.6038158535957336,0.1902005382687901,-0.126828209201436,-0.7210587747050312,-0.6540738197073683,-0.4947900772094726,0.0609188415110111,-0.2249297797679901,-0.0143130421638488,0.0211958289146423,0.0566637516021728,-0.0099647268652915,-0.0587953738868236,-0.0024495554264518,-0.1884716600179672,0.0307846056554582,0.0455292228384409,92
1733109002857174500,0.6957344857230782,-0.4188537731021642,-0.2554325586616993,4.493697612665593,8.70847774618566,-0.3734945822015404,0.01913907751441,1.926701903343201,0.157848984003067,0.2225604965888568,-0.1074323813211825,-0.7123911898791637,-0.6568287452767738,-0.6624062061309814,0.0499005988240242,-0.1734170615673065,0.0557981729507446,-0.0617254376411438,-0.0466693341732025,-0.031930599361658,-0.0331435613334178,-0.0196519547248259,-0.2044611573219299,0.0146472177981806,-0.0149898834812105,93
1733109002896951800,0.0062003159448504,-0.6297597922950983,-0.6882640037119389,4.537096317148208,8.693879896512627,-0.0400221909539541,-0.2669477462768554,1.273324489593506,0.0712598636746406,0.2460732041022505,-0.0881940886110835,-0.7030379552331291,-0.6613678807610247,-0.4455554187297821,0.0923436060547828,-0.026821956038475,0.0250164270401,-0.0690966248512268,-0.018297255039215,-0.0424636676907539,-0.0144926626235246,-0.0119118460090481,-0.2237692475318908,0.006415586109503,-0.0331807344112195,94
1733109002936729900,-0.1788619446784257,-0.0734796622306108,0.2751841561024077,4.584642496699095,8.66672008690834,0.1985685521999373,0.0145766213536262,0.8431543707847595,0.2390545457601547,0.2610697620815079,-0.0784869117650264,-0.695496675874907,-0.6648059006480244,-0.3406862616539001,-0.0489213727414608,-0.0394693724811077,0.0743200778961181,0.0471195578575134,-0.0731562972068786,-0.0416544340550899,0.023961579427123,0.0102975107141654,-0.2216400653123855,-0.0128948839633376,0.0656768155931029,95
1733109002976508200,-0.6993170203849672,-0.7162421439617872,0.2309294375786557,4.663965916521847,8.618605167558789,0.3707634767372161,0.3951375484466553,1.997084379196167,0.4143873751163482,0.2842645704401015,-0.0625959376853191,-0.6907807700229573,-0.6618892633360768,-0.7258831858634949,-0.0590761639177799,-0.0530387796461582,0.0438368320465087,0.0263894796371459,0.0015496611595153,-0.054284431040287,0.0251459907740354,-0.0483467051116982,-0.1952319741249084,0.0485440497481264,0.0129219888826832,96
1733109003016285400,-1.4581749017581342,-0.7955605953484773,-0.2467156567860394,4.856893503692746,8.49366653624773,0.6622592093616724,0.613635241985321,2.78225326538086,1.0515146255493164,0.3283895506200043,-0.0363479679480205,-0.6818452924919594,-0.6526301226694121,-0.7048642039299011,0.0336303859949111,-0.079775720834732,0.0058439970016479,0.0520470142364501,0.0598244071006774,-0.0378486663103103,0.0304705519229173,-0.0722981699616182,-0.2188117653131485,0.0121230296578723,-0.0463319951552664,97
1733109003056063700,-0.815098824033141,-0.7896522480875253,-0.9170563927292824,5.186312505063414,8.25043353394568,1.0967714471057055,0.2073246091604232,2.949134588241577,1.4523662328720093,0.3841918770005885,-0.0132330731661409,-0.6662620395717744,-0.6389964367308633,-0.4827581644058227,0.0611424930393695,-0.1214125752449035,0.0139427781105041,0.0476718544960022,0.0039297938346862,-0.0274687744677066,0.0164446458220481,-0.0194680792080354,-0.2166852205991745,-0.0171076941941573,-0.0156675726802204,98
1733109003095841500,-1.1811498122304678,-2.668538241252303,-0.6861848593503236,5.506724024114012,7.921416683635115,1.7599843039304015,-0.2921886444091797,3.46926212310791,1.6128500699996948,0.4436648586050934,0.0054261803926032,-0.6404969399386408,-0.6268139764512833,-0.361245334148407,0.0939714908599853,-0.1176825538277626,0.0186774730682373,0.0052019953727722,0.0203487873077392,-0.0416356138885021,0.0544233582913875,-0.0448780563201755,-0.2593991458415985,-0.0512593731214292,-0.0463180625280365,99
1733109003135618800,0.1221878712981939,-1.6946014389157291,-0.7034501746669412,5.6589107278347015,7.541091086369752,2.697969502919912,-0.4403085112571716,3.677547454833984,1.4013806581497192,0.5077985262825552,0.0273779822490644,-0.6014085851641456,-0.6161969821440051,-0.2470098286867141,0.1805703043937683,-0.1466470211744308,0.0057398080825805,0.0433092713356018,0.0298108011484146,-0.071585476398468,0.0731671303510665,-0.0776647476292215,-0.2676299810409546,0.0474463222058722,0.0564042114968644,100
1733109003175397000,-0.260658768877387,-0.4752303248405456,-1.40544956600368,5.623969762834906,7.127519637584686,3.706725981964171,-1.171790361404419,3.1034326553344727,1.4309580326080322,0.5667136815621887,0.0465021002102632,-0.5557401539486019,-0.6064866664335204,-0.3018672168254852,0.2263175994157791,-0.1365017890930175,0.0105241537094116,-0.0033318400382995,0.058720514178276,-0.1022222861647605,0.0258585531264543,-0.1809034239107742,-0.3009617328643799,0.1156267226843163,-0.053668749517831,101
1733109003215071700,-0.4307236591160297,0.15917817004323,0.3957677888080477,5.667590293374658,6.5200453268557785,4.640883731620013,-2.0370123386383057,1.508481740951538,1.5968196392059326,0.6082668083341862,0.0369751387255331,-0.511872654061734,-0.6055003036537384,-0.2667864561080932,0.3492235839366913,-0.1395448446273803,-0.052821934223175,0.0195292830467224,0.0702172517776489,-0.1113064736127853,0.0392472073435783,0.0252822042803163,-0.2777387201786041,-0.0151005156652769,0.0377579769155941,102
1733109003254845400,-0.5966740997731685,-0.031988544934988,2.48892577046752,5.79867575687766,5.762360580915212,5.416728111368418,-0.7841250896453857,1.571963906288147,2.4801480770111084,0.6503015705209175,0.0197506747003187,-0.4726876853086328,-0.5943770709448779,-0.3205096125602722,0.2822847962379455,-0.1024563908576965,0.0380793809890747,-0.0311018824577331,-0.0421130210161209,-0.092020109295845,-0.014659802429378,-0.1937863959573209,-0.269997239112854,0.1736883962317369,-0.2064281431265175,103
1733109003294620200,0.2033335381120443,-1.4232704693764446,1.509651698756218,6.097157768192887,5.067095758530497,5.772313235130905,0.0658498480916023,1.0443792343139648,2.687247037887573,0.6924198575254394,0.0056032199704538,-0.4535003212148884,-0.5611246113066268,-0.0868364050984382,0.2990328073501587,-0.096324399113655,-0.0028176307678222,-0.0099178552627563,0.0020137578248977,-0.0705732554197311,-0.0526880510151386,-0.0367546313922153,-0.3044034838676452,0.0882655726884957,-0.0858313769446685,104
1733109003334395000,0.6994839013844728,-0.8396911212369799,0.0502922633886337,6.381666783735156,4.438176216451823,5.978906067299842,0.1601488441228866,0.895219624042511,2.6139934062957764,0.7300427750025882,-0.0055404610791041,-0.4417351447535751,-0.5214183025744001,-0.0376488901674747,0.3774484395980835,-0.0488749928772449,0.0037570595741271,0.009580910205841,0.0117300003767013,-0.1001483723521232,-0.0203593485057353,-0.0164712583124986,-0.2445942312479019,0.0449785301531199,0.0533074282250367,105
1733109003374168800,0.1177946047753095,-0.2185086031511426,0.4127309063076972,6.544221152213216,3.832406371553242,6.217412041079998,0.0503277331590652,1.0924534797668457,2.3367512226104736,0.762687581601819,-0.0156998227723699,-0.4274970275750862,-0.4850850390390251,-0.0163723640143871,0.2821492552757263,0.0181907936930656,0.0096154808998107,-0.0253676176071167,0.0099762082099914,-0.1227549239993095,0.0117141874507069,0.0483186571941478,-0.1935746967792511,-0.0080404981681494,-0.0161368878170673,106
1733109003413943600,-0.8329793486386537,-0.6090688864439725,0.8579501237660646,6.614526860582828,3.2579534559383987,6.465613479444384,0.5051660537719727,1.2216413021087646,2.662757873535156,0.794530177636261,-0.0219718490721596,-0.4121440263609831,-0.4453945273391518,-0.1483578383922577,0.3521571457386017,0.0120248422026634,-0.0305094718933105,-0.0241768956184387,0.0527996569871902,-0.1305563598871231,0.0557212382555007,-0.0750674976776354,-0.1845454573631286,0.0890447495006024,-0.1327368748386856,107
1733109003453718500,0.8691670988291501,0.0185261290326714,-0.2647451614081859,6.636355246031284,2.662680162873864,6.7111331313788885,0.4655318558216095,1.1414037942886353,2.7313365936279297,0.8279927527360254,-0.0255186094379807,-0.3964545992671359,-0.3957278730620929,-0.2485459595918655,0.2703830003738403,0.032880924642086,0.0284379124641418,-0.0179404616355896,-0.0399955362081527,-0.1178905218839645,0.0259038228541612,-0.1668618016147054,-0.2044519484043121,0.1245636331193614,-0.1979513336170464,108
1733109003493492200,0.6895914529234171,0.1637609677888453,-0.1245639527797699,6.661954382190108,2.118960531435907,6.877409150728583,0.1085860952734947,0.2352174520492553,1.87545108795166,0.8507234962631897,-0.0342078559928911,-0.3849409443348838,-0.3562581514739896,0.0378136411309242,0.1970749795436859,0.1168319508433342,0.0103611350059509,-0.0314892530441284,-0.0015513896942138,-0.1025566086173057,0.0230302792042493,-0.1566920705822296,-0.1995895802974701,0.0624165625549852,-0.125167033239454,109
1733109003533267000,0.4882745153307914,0.2527992875486612,0.2683832256495952,6.71288494348228,1.7177784624941643,6.939509925332665,0.2444717288017273,0.5471449494361877,1.7058452367782593,0.8649879202800416,-0.041543951665304,-0.3800757164922089,-0.3249808792400094,0.0440206713974475,0.1452416479587555,0.161403551697731,0.0005774497985839,-0.0286594629287719,-0.0238885283470153,-0.0948449075222015,0.0580892786383628,-0.0807694173799827,-0.1584717482328415,-0.0407612549513811,-0.1419676810532342,110
1733109003573041700,0.2957797666192054,-0.0804061004929244,0.4521124841034412,6.615681875836849,1.2359076767258346,7.132718375271558,-0.20546954870224,0.8334231376647949,1.868996500968933,0.8814531961804549,-0.0506908207815039,-0.3657362688988091,-0.2944617519231674,-0.1886173784732818,0.0626716837286949,0.1155486330389976,-0.0365071892738342,0.0218517184257507,-0.0398157835006713,-0.0708140209317207,-0.010363932698965,-0.1747016283948905,-0.1209406927227974,0.0430395203479798,-0.1694381001098081,111
1733109003612815600,1.58702719938159,0.5828147204425186,1.3013280972719192,6.35498862016797,0.734295687046647,7.43271955897808,-0.1553548872470855,1.359095573425293,1.482974410057068,0.8987837050685119,-0.0600467755913008,-0.3426822813834567,-0.2667419038320324,-0.2339081466197967,-0.0472957268357276,0.1552276015281677,0.0096797347068786,-0.0279685258865356,-0.0717521905899047,-0.0655568242073059,-0.0043893880210816,-0.1724359484852291,-0.1269280910491943,0.0440098266848595,-0.2142896337492391,112
1733109003652590300,1.020898459997773,0.4136144476765766,1.2011077276319264,5.962538869866728,0.3603113485667854,7.77744777316153,-0.1299201846122741,1.343746781349182,1.2054381370544434,0.9145515549804925,-0.064412563557032,-0.3151373299878666,-0.2452244421573361,-0.0562555976212024,-0.1644745022058487,0.2591829001903534,0.0268062949180603,-0.0285941362380981,-0.0663397759199142,-0.0571979768574237,-0.0599252097308635,-0.1661543474650941,-0.1304067522287368,0.0380475390132749,-0.2038769973389804,113
1733109003692365000,1.3999147282302378,0.3413694052748381,1.25968091263175,5.6046209192425005,0.0934774621178861,8.046730577999353,-0.0481645092368125,1.0282825231552124,0.8597809672355652,0.9263276389589328,-0.0668638403971338,-0.2919934191790125,-0.2284429823083196,-0.1518598943948745,-0.2505832612514496,0.2720584571361542,0.0096874833106994,-0.0232507586479187,-0.007447525858879,-0.0605237409472465,-0.0213525798171758,-0.1189545154001563,-0.1324272602796554,0.0092701141699857,-0.1959806728648953,114
1733109003732138800,1.2553566196918486,0.3583103474752977,1.3870762894451618,5.259715594926476,-0.0502064756681676,8.276669798964262,0.1075887456536293,1.1587388515472412,0.6197115182876587,0.935506513534778,-0.0655336542156045,-0.2715006986801025,-0.2163800782920779,-0.2809891104698181,-0.21565842628479,0.2877331376075744,-0.0409912467002868,-0.012338101863861,0.0204259753227233,-0.0606778040528297,0.0070394030772149,-0.0391998325872467,-0.1112398356199264,-0.069085381927574,-0.1568394431636668,115
1733109003771913700,0.4613929381459951,0.5176674542820081,0.1312239951908588,4.930947750940919,-0.1214270064609125,8.475930388548969,0.0748108848929405,0.7545729279518127,0.4926743507385254,0.9431474249385668,-0.0619475450579279,-0.253002589019878,-0.2064588094924688,-0.2739218771457672,-0.245171308517456,0.2735297679901123,-0.0094919800758361,-0.0463356971740722,-0.0109555572271347,-0.0692681446671485,0.0104870302602648,-0.1743619298454373,-0.0860347300767898,0.0200332502265693,-0.1740083671674132,116
1733109003811688400,0.3900698694273829,0.2323422817849554,0.0537719221979379,4.691024603839218,-0.2212691356393508,8.609048234662414,-0.1205805614590644,0.7455945014953613,0.4065670073032379,0.9482391777852656,-0.062200073447854,-0.2391481785675549,-0.1994535790686034,-0.2288779765367508,-0.2694301903247833,0.2233907431364059,-0.0342846512794494,0.030617356300354,-0.0264998525381088,-0.0539602898061275,0.009063015691936,-0.108736798773799,-0.0912169963121414,-0.0702496764665935,-0.2564858305742964,117
1733109003851460000,0.379815894177556,0.6264787978630513,-1.4086936624914408,4.565706910082698,-0.2742319882104173,8.67464678825438,0.0707824751734733,0.0676237642765045,0.2243511378765106,0.9511905762950078,-0.0619670453182144,-0.2321124367310592,-0.1937015096269501,-0.1664574742317199,-0.2749692499637604,0.1193056926131248,-0.024503469467163,0.031254768371582,-0.0134680867195129,-0.0306913331151008,0.0119244093075394,-0.1219993081898428,-0.0711161941289901,-0.03544339581331,-0.1316661951335612,118
1733109003891235000,0.9050646339014172,0.3440098002484068,-1.4788310285568236,4.515407924692332,-0.3709444958599284,8.697349033927917,-0.5002443194389343,0.3180615901947021,0.0577230416238307,0.9521692142358076,-0.0659093485344054,-0.2285050863996053,-0.1918729582256345,-0.0554795525968074,-0.151459738612175,0.1175721064209938,-0.0109496116638183,0.0168953537940979,0.0178031921386718,0.0001728823408484,0.0020697899162769,-0.114231149273226,-0.0589465051889419,-0.084178577369498,-0.146642139137676,119
1733109003931010000,-0.4206456249549984,-0.20847725767605,-0.4444336200386286,4.423600870871543,-0.6045038070181384,8.731363531732558,-0.7401136755943298,0.1301380693912506,0.0634249299764633,0.9524915802246968,-0.077536348954821,-0.2209354116623627,-0.1947700539049765,0.0266033336520195,-0.1626980155706405,0.0865968838334083,-0.0078296661376953,0.029666781425476,0.0104359537363052,0.0164366532117128,-0.0184424258768558,-0.1374795301879756,-0.0619487725198268,-0.0189801335775991,-0.0952844841403886,120
1733109003970784800,0.1848673225730657,-0.2239505750093608,0.7592074254631995,4.319822808749974,-0.8905502247281372,8.758791636884212,-0.6635206937789917,0.4608169496059418,0.3114908337593078,0.9532851691784592,-0.0909785433332194,-0.2124824709631678,-0.1944775453513452,0.1581405848264694,-0.2380231767892837,0.0636596083641052,0.0171977281570434,0.0525250434875488,-0.0076267123222351,0.0062237856909632,-0.0640641450881958,-0.0734169859576737,-0.0457194186747074,-0.0086138987297337,-0.0222987771558924,121
1733109004010558700,0.3556406533420085,-0.4887112993128597,0.7978665342032909,4.105804502755404,-1.1224367073033004,8.8347549326241,-0.3583572208881378,0.548003613948822,0.2208431363105774,0.9557671183461824,-0.0998900405726603,-0.1989342729533338,-0.192240743531199,0.0322060920298099,-0.223740205168724,0.0893258228898048,0.0064617991447448,0.0212342143058776,0.0372184589505195,0.0058309934101998,-0.0558490492403507,-0.0630995489836204,-0.0506092831492424,0.001622054522924,-0.0931263379921205,122
1733109004050333200,-0.2660992063656449,-0.572267315204069,0.8137754664748906,4.009583139623701,-1.2187451641965656,8.866131483140586,-0.0107531622052192,-0.0177143029868602,0.1944912821054458,0.957059378179048,-0.1032554249165726,-0.1931098471605166,-0.1899585353961301,0.0354788489639759,-0.2423402070999145,0.1416877657175064,0.0184742212295532,0.0154407620429992,-0.0103939324617385,0.0460149534046649,-0.054843284189701,-0.1014404677531681,-0.0786716639995575,0.0429047834858298,-0.1432467336788773,123
1733109004090108200,0.2003159438565373,-0.1305957802899181,0.6468856991410254,4.007343836264312,-1.1895072331439702,8.871113363206385,0.3375237286090851,-0.035376813262701,0.2106152325868606,0.9581067494135956,-0.1007719550897335,-0.1937630226371653,-0.1852897311305369,-0.1291415244340896,-0.2968021035194397,0.1373169869184494,0.014831006526947,0.0078317523002624,-0.0050010755658149,0.0451918691396713,-0.0382748953998088,-0.0196239045239868,-0.0819751843810081,-0.0258563349234405,-0.0117749834051821,124
1733109004129881900,0.2934519081935286,0.3872963130608201,-0.3927718218624592,3.9585006026402114,-1.104209999608621,8.904009086114169,0.2467770129442215,0.2397368848323822,0.2273734956979751,0.9599438190965076,-0.0947831632921993,-0.1924526651426688,-0.1802389689042738,-0.2278036624193191,-0.2294617444276809,0.1187498271465301,-0.0242739915847778,-0.0564835667610168,0.0235013365745544,0.0092945685610175,-0.0114570809528231,-0.0919501246864441,-0.0886457040905952,0.0267702485976973,-0.0613218763531884,125
1733109004169656800,0.99268651099205,0.3548501605514437,-0.7199860066652297,3.865747500140965,-1.095705936766043,8.945714722943306,-0.0499429516494274,0.3316485285758972,0.0669638589024543,0.9616627280828558,-0.0926668633774341,-0.1879051275189674,-0.1769446899437731,-0.1266711801290512,-0.1553975343704223,0.095714084804058,-0.0262404084205627,-0.0304158926010131,0.0002424791455268,-0.0240625459700822,-0.006781711243093,-0.0708116074985591,-0.1030754297971725,-0.030649864226731,-0.0717205892693716,126
1733109004209431300,-0.2031900379881262,-0.2189296781074255,-0.8725199163883924,3.726856331323087,-1.1511521488517522,8.997542525336145,-0.194252073764801,0.1951792687177658,0.0065874787978827,0.962802771263317,-0.0942601308667513,-0.1799111410902321,-0.1782073618096393,-0.0737914443016052,-0.0870207697153091,0.0814077109098434,-0.0241226553916931,-0.0148136019706726,0.0270155109465122,-0.0450041070580482,0.0226168166846036,-0.0303888843361404,-0.0832079350948333,-0.0392073720063082,-0.0657740380230359,127
1733109004249205200,-0.6406833373695612,-0.2489069562852382,0.0359574485659599,3.749105572532117,-1.2262205415785312,8.978361439526081,-0.0876317843794822,-0.0811637490987777,0.4150889813899994,0.9629426946713642,-0.0977185346893921,-0.1807817840524379,-0.1746719193370854,-0.0317614413797855,-0.1431584954261779,0.0336788035929203,0.0085238218307495,0.0536597967147827,0.0023621954023838,-0.0450587719678878,0.0207880530506372,-0.0586161656250245,-0.0519504472613334,0.0209353821314871,-0.0495399289176799,128
1733109004288865800,0.6932295171648264,-0.1508870192989707,0.0479541758298873,3.696539226731658,-1.326036129809916,8.985967238354682,-0.1469859629869461,0.0960563644766807,0.204550564289093,0.9643461532897928,-0.1010736213188297,-0.1778406519407878,-0.1679083435413038,0.0990927144885063,-0.2795728743076324,0.0131628774106502,0.0206276774406433,0.0224396586418151,-0.0615709535777568,-0.0354775600135326,-0.0066137933172285,-0.0745638544378569,-0.0301049835979938,0.0111527233209926,-0.0014804609450133,129
1733109004328637000,0.0286830736488103,-0.1915111445017158,0.1302431674599647,3.742334178701043,-1.3796835488453507,8.958894522511958,-0.0749626234173774,-0.23157300055027,0.1723297536373138,0.9640919883538211,-0.1038346333764789,-0.1801162494846857,-0.1652369018170879,-0.0415240563452243,-0.2399348020553589,0.0721463710069656,7.37309455871582e-05,-0.0408268570899963,0.0443114005029201,-0.0341329127550125,-0.0060779396444559,-0.0598908023704541,-0.0277525000274181,-0.0085501875562244,-0.0216141216432675,130
1733109004368407000,0.9892562442824244,0.1969670718200504,0.3746528123259544,3.7804423755601047,-1.413520790386945,8.937594544851779,0.0103868888691067,-0.0093441447243094,-0.0341055616736412,0.96384020509428,-0.1056413793490547,-0.1820697206329538,-0.1634094062498591,-0.2029552906751632,-0.2022305577993393,0.0795134752988815,-0.0059629678726196,-0.0170188546180725,0.0352771915495395,-0.0301193092018365,-0.0023651970550417,-0.0017701594691898,-0.0390001274645328,-0.0152279380122956,0.0363886704569216,131
1733109004408178200,0.0364712433069944,0.2137890272833406,-0.7393886262714863,3.801583363266289,-1.367494806140661,8.935787787690758,0.0499228052794933,-0.1610822230577469,-0.2167668044567108,0.9629072914876956,-0.104442894325391,-0.1830117227797714,-0.1685465506035554,-0.2029750049114227,-0.1671552807092666,0.107766680419445,0.0129682421684265,-0.0243349075317382,-0.0040374360978603,-0.0595060400664806,0.005505465902388,-0.0369023282006382,-0.0499408543109893,0.0158825431632401,0.0577804911190178,132
1733109004447949300,0.2063259979262948,0.0839728530637919,-0.5599602798819542,3.864565012358129,-1.3599325541928409,8.909888207280636,-0.1855903267860412,0.0885366648435592,-0.1565065830945968,0.9609501496318508,-0.1060899587500778,-0.185653033065876,-0.1756496760843833,-0.0217072069644927,-0.1491027176380157,0.0391156487166881,-0.0207713842391967,0.0276751518249511,-0.0191429834812879,-0.0920832976698875,-0.0069050006568431,-0.0399751780410297,-0.0463304407894611,0.0116725893264985,0.1188800619244575,133
1733109004487720400,-0.0488841501563787,0.1669904512293636,-0.7037965038865804,3.7922181535497295,-1.4393588498681782,8.928477172416448,-0.3650228977203369,0.2802327573299408,0.0047616180963814,0.960262078418216,-0.1106118907592856,-0.1803866647759938,-0.1819952986748126,0.1879541426897049,-0.250032365322113,-0.0383507125079631,-0.0003172755241394,0.0685737133026123,-0.0299907326698303,-0.1023898422718048,-0.0216503143310546,-0.0483467051116982,-0.0484315678477287,0.0485440497481264,0.0129219888826832,134
1733109004527490600,0.6157374044224619,0.2037294055618345,-0.4960357969820499,3.705646954555809,-1.6088265048660335,8.93589592424035,-0.5567438006401062,0.1582215726375579,-0.076512262225151,0.9594074040046608,-0.1194171140265403,-0.1735962100089537,-0.1874599681937194,0.5213632583618164,-0.3091973066329956,0.0463675707578659,0.0389332771301269,0.0202873945236206,-0.0378627181053161,-0.0802364721894264,-0.0479931756854057,-0.0240075675348867,-0.064823068678379,0.044586087636277,-0.0656837841900065,135
1733109004567262000,0.1615136272534728,-0.1947068718031048,-0.0059106853485107,3.742082542027533,-1.7613557384140788,8.891840509414672,-0.4104277789592743,-0.2877030074596405,-0.3025183081626892,0.956671296464467,-0.1291989005849978,-0.1730605441664751,-0.1952884591374318,0.8404933214187622,-0.4382860660552978,0.1690841615200042,0.0676012635231018,0.0206934809684753,-0.0376865267753601,-0.0495328083634376,-0.0823732614517211,-0.0640107957767555,-0.0485967025160789,0.0967622285427525,0.0499813799417112,136
1733109004607033000,-0.530094426189363,-0.1256894496783614,-0.048609424868226,3.9370430963307617,-1.7979018005229532,8.79986482102871,-0.1301839649677276,-0.6668779253959656,-0.3493954539299011,0.9522951231729024,-0.1352797588738236,-0.1817446994699634,-0.2044558834654695,0.8317890763282776,-0.5060412287712097,0.2787149250507355,0.0475391149520874,0.0037580728530883,0.0090969167649745,-0.0399972237646579,-0.0539586097002029,0.02475863478065,-0.0297097917646169,0.0396606687317602,0.0430059423053637,137
1733109004646803200,-0.7516416663840413,0.048678398451209,-0.6025684185087681,4.171908375521004,-1.811109949403256,8.688236337667703,-0.2498264759778976,-0.5468180775642395,-0.1177801936864852,0.947896955921595,-0.1403899233168381,-0.1931680796092501,-0.2108747626106743,0.6053798794746399,-0.496896892786026,0.4007629156112671,0.0358858704566955,-0.0129047036170959,0.0389409586787223,-0.0321248471736907,-0.0704029351472854,-0.0292463723706663,-0.0564088001847267,0.1291615736351814,0.0299449353943462,138
1733109004686574300,-0.2155079600304365,0.1850588996224105,-0.5699509280204773,4.333534815499187,-1.93462176278159,8.581846924003958,-0.4223712682723999,-0.4586550295352936,0.0430024825036525,0.944390929532416,-0.1497251880007325,-0.2000748473928734,-0.2137242754862928,1.3876783847808838,-0.2884474098682403,0.506582498550415,-0.0157692432403564,-0.0340063571929931,0.0614357590675354,-0.031305830925703,-0.0591321811079978,0.0525901148351142,-0.0578226521611213,0.0835312924419064,0.0249123092387104,139
1733109004726345500,0.7018047455474734,0.3604762568049132,-0.2981505874037742,4.510521906216442,-2.077866889025271,8.456243106782436,-0.4450524449348449,-0.4821429252624511,-0.0732142925262451,0.9403935829971868,-0.1604277207583165,-0.2076404273420764,-0.2163522422575485,0.6942633986473083,-0.2780463993549347,0.5008646249771118,-0.0120938420295715,0.0173366665840148,0.0603219121694564,-0.0257552471011877,-0.0311519838869571,0.0051066777725354,-0.0689902454614639,0.0543078831050079,0.0280160588241531,140
1733109004766115600,0.4061383761748671,0.0107053722791373,0.0725520259916782,4.615549968399107,-2.221002417414635,8.36266933555007,-0.437926709651947,-0.1303939223289489,-0.000449743529316,0.9368764889668654,-0.1705479458821611,-0.2110353936840994,-0.2205447845910075,0.0897476822137832,-0.3252515196800232,0.4923545718193054,-0.0159351825714111,-0.0500916242599487,0.0105093717575073,-0.0335297398269176,-0.0123614491894841,-0.0145452758106461,-0.0882853418588638,0.0689551066114101,0.0130261742012982,141
1733109004805886700,0.2585360776349902,-0.1981172647684812,0.5402092852294444,4.648230587251484,-2.358740470674634,8.306665124255419,-0.3626243770122528,-0.1398037672042846,0.0200426299124956,0.9347157599599436,-0.1790033558803752,-0.2107978960528891,-0.223223110179905,0.1904425919055938,-0.2760275900363922,0.4779717624187469,-0.0116665959358215,0.0268692970275878,0.0297315567731857,-0.0427948161959648,-0.0213930774480104,-0.0235600201302091,-0.0793107450008392,0.0477011691831983,0.0591428289807867,142
1733109004845658000,-0.2103171133890748,-0.1217374971821904,0.7879618107825517,4.726080719651281,-2.4361675553567705,8.240123736855388,-0.1063409224152565,-0.3657976984977722,-0.0607563480734825,0.932273307159704,-0.1849876607139942,-0.2136590408089287,-0.2258227977558481,0.0924233570694923,-0.3149990141391754,0.4407445788383484,-0.0281829833984375,-0.0092461705207824,-0.0024043470621109,-0.0223479904234409,-0.0170835778117179,0.0081795276129269,-0.0627913847565651,0.0585178426499711,-0.0330835165478638,143
1733109004885425200,-0.2588110951840877,-0.186408268404752,0.6893173121571541,4.915982236999273,-2.419231179733574,8.133315805518627,0.1015786454081535,-0.657894492149353,-0.1029533967375755,0.9291288110775688,-0.1874219781910308,-0.2240296943546722,-0.2267230492859545,0.0946279242634773,-0.3156656920909881,0.4239227175712585,-0.0227669477462768,-0.0145555734634399,0.0058925300836563,0.0173436310142278,-0.0387037321925163,0.0136539552773989,-0.036771722137928,0.0493159063368802,-0.0064228326967975,144
1733109004925195300,-0.7414397135823965,0.27522826923877,0.0046516251981258,5.149613882741332,-2.3400774173893035,8.01098589540124,0.2345341444015503,-0.7926848530769348,-0.0382729098200798,0.9258290277686289,-0.1870465936174919,-0.2378380805917744,-0.2264667669723205,0.1049958765506744,-0.1920727789402008,0.2982441484928131,-0.0678043961524963,0.035254418849945,0.0205833986401557,0.0289141088724136,-0.0238018035888671,-0.0035683697100408,-0.0111052813008427,0.0100476778386742,0.0695624385545263,145
1733109004964966700,-0.6263719034224748,0.310740750516206,-0.4761380873352289,5.399810878837108,-2.306457325729728,7.854468468999862,-0.0059718205593526,-0.776043713092804,0.130928635597229,0.9224532870900164,-0.1885239224922764,-0.2529669526559579,-0.2225900064340893,0.3804487586021423,-0.046894121915102,0.2572813332080841,-0.0742549300193786,-0.0261141657829284,0.0315009430050849,0.0179141387343406,-0.020426383242011,-0.1134002879396546,-0.0607198104262352,0.0666930845301365,-0.0431379940200829,146
1733109005004737500,1.0225468117266894,0.152607851742208,0.3162555684149265,5.563901955363154,-2.389390606612712,7.713896215227246,-0.2016932070255279,-0.1697523593902588,0.2614764869213104,0.9196518847964494,-0.1946594093112658,-0.2623136438493194,-0.2180362301980012,0.6044243574142456,0.092849500477314,0.3085189163684845,-0.0264398455619812,-0.0156927704811096,0.0502820461988449,0.0291399955749511,-0.0483980551362037,-0.0602305009199073,-0.0883314535021781,0.014456082565186,-0.0170438477357965,147
1733109005044507600,0.5418956308811903,-0.2916623944282531,-0.0299269362300634,5.454980977395176,-2.5195792674064634,7.750179827007651,-0.1002873256802558,0.321368932723999,0.4598051309585571,0.9218023378246596,-0.1985119892160581,-0.2558198544747875,-0.2131422546309692,-0.5677348375320435,-0.0860341191291809,0.196674644947052,-0.0358797907829284,-0.071786880493164,-0.0141275525093078,0.0416883863508701,-0.0261947084218263,0.0188447859357402,-0.0551577433943748,-0.0178868675813311,0.0312379252137965,148
1733109005084279000,1.4982137744188309,0.0085708444684743,-0.3063368164688348,5.379578822669386,-2.616155435325205,7.770858457899093,-0.1197872385382652,-0.0150050679221749,0.1056508868932724,0.9233539069580085,-0.20134811638541,-0.2515062762325689,-0.2088566488715137,-0.1262464076280594,-0.1435768902301788,0.1260914355516433,0.0235440135002136,0.0572999715805053,-0.0574824139475822,0.0611426793038845,-0.0264257900416851,0.0649457385393092,-0.0727111622691154,-0.0442703864503419,-0.0733369110253639,149
1733109005124050200,-0.0698228932887315,-0.3089163115680217,0.3561421731233596,5.425053456643224,-2.6615397606670856,7.723689879488944,-0.1740710288286209,-0.1661335527896881,-0.1150616034865379,0.921409476541456,-0.2053968424809683,-0.2530089619520071,-0.2116677628674714,0.0107932100072503,-0.1523816734552383,0.1985696852207183,0.0290269255638122,-8.183717727661133e-05,0.0083124488592147,0.0671169459819793,0.0163124427199363,-0.006409368143737,-0.0388356894254684,-0.0432899057793198,-0.0033051527674135,150
1733109005163820300,-0.1427671334683895,-0.2843094013169407,0.1377092655569315,5.458942282241583,-2.685847395710647,7.691330163154006,-0.0425441116094589,-0.0847439840435981,0.0556054189801216,0.9201769849092652,-0.2077326382189146,-0.2543588981322423,-0.2131267647245985,0.0805331468582153,-0.2596848309040069,0.374162882566452,0.0701684951782226,-0.0007436871528625,-0.0234068036079406,0.0821428522467613,-0.0058059133589267,-0.0920778975182678,-0.0553586184978485,-0.022481944853207,-0.0542143915686989,151
1733109005203591400,0.2154220353126525,0.0207344527319073,-0.068829790598154,5.485321170601249,-2.7148098708227275,7.66233904646933,-0.0697256326675415,-0.0914329960942268,0.02790785767138,0.919379605924968,-0.2097925186119394,-0.2555709779813088,-0.2131000510252908,0.2571436166763305,-0.3473485112190246,0.5245628356933594,0.0531021654605865,0.0114874243736267,-0.0279474183917045,0.0893453210592269,-0.0103068398311734,-0.035883237118856,-0.0681795850396156,-0.0531362729092128,0.0440696579801617,152
1733109005243362600,0.3287964855581521,0.1337529291465878,-0.1821785218805074,5.493003541797399,-2.748220849776268,7.644905096587538,-0.1227875128388404,0.0122882854193449,0.0106075527146458,0.9187431609235468,-0.2119629969624988,-0.2555191154314262,-0.2137580985626845,1.3245792388916016,-0.3220118582248688,0.6240976452827454,0.0266803503036499,0.0559157133102417,-0.0284580141305923,0.0768074840307235,-0.0074318828992545,-0.020091373621975,-0.0795051753520965,-0.0521022582529345,-9.72207174665e-05,153
1733109005283133700,0.0644715953886509,0.1008338253632187,0.0403285032570362,5.480499449533224,-2.7940114178314803,7.637277670449018,-0.1285124123096466,0.0668438822031021,0.0199253279715776,0.918254087127237,-0.2146093276918941,-0.254066989978824,-0.2149470925482321,2.5966827869415283,-0.2434616088867187,0.6924347281455994,0.0014343857765197,0.0949010848999023,0.036077082157135,0.0705365315079689,0.0079251714050769,-0.0263729700755327,-0.0875266566872596,-0.0461399660147726,-0.0105098611234803,154
1733109005322903800,-0.0532774166792631,0.1045017002210021,0.1060065518260002,5.477639968448877,-2.817880369196832,7.630556837761402,-0.1059918329119682,0.0795523300766944,0.0765042155981063,0.917944402572794,-0.2160286844021503,-0.2535379258338682,-0.2154723479020386,2.719507932662964,0.0462829582393169,0.5634770393371582,-0.0672955811023712,0.0462835431098938,0.1509776413440704,0.0470433421432971,0.0581548288464546,-0.0073723599654855,-0.0433790907263755,-0.0552781940084649,0.0168354748152778,155
1733109005362486000,0.080879709354043,0.1810033406212925,0.0726899731576442,5.469478289303183,-2.84829391990006,7.625117277055978,-0.1210649833083152,0.0487403012812137,0.0417481586337089,0.9176806029540956,-0.2177040304236484,-0.2526503102882888,-0.2159514399303941,2.1222028732299805,0.2780852019786834,0.4906477630138397,-0.0684304535388946,-0.1185789108276367,0.1738261878490448,0.0355135425925254,0.0390425398945808,-0.1607559590202756,-0.0324353724718093,0.0867218686441425,-0.0471417315024184,156
1733109005402251500,0.052287236598134,0.0416875166505575,0.077671853223443,5.458716072270274,-2.877320107898116,7.621931048235297,-0.0862130299210548,-0.0281925089657306,0.0504672601819038,0.917509485674661,-0.2192204236617856,-0.2516586497083346,-0.2163022151548728,1.1469922065734863,0.1854360997676849,0.291157066822052,-0.0415510833263397,-0.013273000717163,0.0188794136047363,0.018143082037568,0.0269339978694915,-0.0869431741114705,-0.0310994833707809,-0.0086776099032431,-0.0229834326685173,157
1733109005442016000,0.126329793408513,-0.0286322202444076,-0.0706160894930362,5.480890494677424,-2.887804677033424,7.602026324325799,-0.0547733940184116,-0.1173641458153724,0.0407056212425231,0.9169302582992548,-0.2202378038148821,-0.2527841398561959,-0.2164124833846846,-0.7354831099510193,-0.0652841031551361,0.0061770728789269,-0.0546077489852905,-0.0426833629608154,-0.0018175244331359,-0.0096072694286704,0.0288513731211423,-0.1260912536785937,-0.031890120357275,0.0293654687056899,-0.0568557866226881,158
1733109005481781200,-0.0400455946624279,-0.1550239729732274,-0.0085761051654815,5.505857762673497,-2.9143425553470848,7.573804438447952,-0.1088312566280365,-0.0626580789685249,0.0585717931389808,0.916247813542745,-0.2220542421822172,-0.2540380742975303,-0.2159778647095252,-1.498217225074768,-0.117645263671875,-0.1981570124626159,-0.0374743342399597,-0.0102186203002929,-0.095878928899765,-0.0115313185378909,0.0134546654298901,-0.1555732408864423,-0.0451204441487789,0.0831534903717692,-0.1492002535221167,159
1733109005521546500,0.2785042221695185,-0.17572072404325,0.086153850364685,5.508131552824378,-2.9548475842148063,7.556437124061584,-0.0565397441387176,0.0168769098818302,0.1090869531035423,0.9160161407864512,-0.2240632760775007,-0.2540168721291083,-0.2149080826869452,-1.2985225915908811,-0.2499545663595199,-0.2141041755676269,0.0419192314147949,-0.0106136202812194,-0.0620279610157012,-0.0059840497560799,-0.0155547438189387,-0.1048810640605632,-0.0303324256092309,0.1022046570586971,-0.0807917844754178,160
1733109005561311700,0.5496083972156047,-0.2297939672753214,-0.141208798110485,5.490363840943575,-2.9868159631446,7.556799527633189,-0.0286424923688173,0.0110252555459737,0.0349204689264297,0.916156527466591,-0.2253735003052112,-0.2528185582814157,-0.2143520246526266,0.0690895393490791,-0.2469133287668228,0.094262458384037,0.0721870958805084,-0.0043254494667053,-0.0064013600349426,0.0107637867331504,-0.0188245065510272,-0.1556293549878522,-0.0278095360845327,0.1641605980983004,-0.1556300491075962,161
1733109005601076200,0.2860030534923076,-0.2785302333936095,0.0262765970289707,5.510957716161013,-2.9920988719835875,7.539699924272298,-0.0195538494735956,-0.0910627692937851,-0.0511396452784538,0.9154725301929332,-0.2262929796790964,-0.2537198758804245,-0.2152390230462842,0.2447769343852996,-0.2571042478084564,0.2212973088026046,0.0753965079784393,0.0261186361312866,0.0560889840126037,0.0296377893537282,-0.0101494472473859,-0.0660726784763159,-0.0178718157112598,0.0871678497128188,-0.0423491497639101,162
1733109005640841500,0.1560211673170328,-0.107064244185388,-0.0916004253327846,5.563576961192489,-2.979061403495073,7.506143691629171,0.0464920178055763,-0.2219611853361129,-0.0943120270967483,0.9143549531064522,-0.2267529903188654,-0.2566637215731204,-0.2160136077375797,-0.4806119203567505,-0.2829692363739013,0.2109113037586212,0.0556172728538513,-0.0329365730285644,-0.0050480365753173,0.0069009512662887,0.0291717071086168,-0.0984436514242086,-0.0170755330473184,0.1049910089747514,-0.0742717304903315,163
1733109005680606700,-0.3599409808844327,-0.1500184197708964,-0.1612964773714542,5.642896581622958,-2.939848168003559,7.462265386936068,-0.0109873209148645,-0.1326756775379181,-0.1530036330223083,0.9126532340788848,-0.226611798422588,-0.2611081280318011,-0.218022503710747,-1.4601383209228516,-0.3061650395393371,0.3850558698177337,0.0189905762672424,-0.0911871790885925,-0.0322510600090026,-0.0209822375327348,0.033608891069889,-0.1056882339912932,-0.0167426504194736,0.0989650084171909,-0.064543747309409,164
1733109005720371000,-0.4900029465585946,-0.0046335050195455,0.2860556604623794,5.69634409417212,-2.932453381577134,7.424470201548933,-0.0408218912780284,-0.0200253389775753,-0.0136130107566714,0.9113367523470762,-0.2275279589505601,-0.2639855713670844,-0.2191069561565569,-1.414165735244751,-0.4950928390026092,0.1550127565860748,-0.0164393782615661,-0.026499330997467,-0.044707179069519,-0.0294820684939622,0.0102522652596235,-0.1539788478344678,-0.0162934102118015,0.0665019504387862,-0.0451919537080917,165
1733109005760136400,0.024008067575097,0.0948722866103053,0.0041676410734653,5.661322465151548,-2.9547458774060007,7.442397487905621,-0.0079240016639232,0.1273117661476135,0.1134232357144355,0.9119970104365888,-0.2279201346918969,-0.26190787282008,-0.2184446119426605,0.4601166844367981,-0.1619043350219726,0.1433364599943161,-0.071545273065567,0.1783934831619262,0.1244117766618728,-0.0180060416460037,0.003768800990656,-0.1068868417918682,-0.0343486256897449,0.0116031636523664,-0.166692509462405,166
1733109005799901700,0.4072229565411805,0.013032500052452,-0.1101075574040412,5.627811240693927,-2.9724153896093366,7.460754982373118,-0.017774648964405,0.039090447127819,-0.0171567313373088,0.9126068236708864,-0.2281601554080743,-0.2599043820483215,-0.2180398025600526,0.9021026492118835,0.3086435198783874,-0.0341154187917709,-0.100393533706665,0.0447840094566345,0.1400581002235412,0.0227124374359846,-0.009376828558743,-0.1199455539978109,-0.0238187387585639,0.0377853786624618,-0.1790549464998766,167
1733109005839667200,0.0357622182548046,-0.0415089452132582,-0.146264912456274,5.618743552619218,-2.9712948611468075,7.468032864421605,-0.0268301572650671,0.0284029114991426,-0.0227547269314527,0.9126104956457572,-0.228162307926764,-0.2591876841016881,-0.2188740004047229,0.7782925367355347,0.3812550902366638,-0.1204955205321312,-0.03290656208992,0.0818017125129699,0.1057345569133758,0.0355957821011543,0.0068548200652003,-0.0254380295962677,0.0024159578606486,0.0063518749359936,-0.0338653899238444,168
1733109005879429400,-0.1976654293477535,-0.0007771218523383,-0.0995107600659132,5.617987765815854,-2.9740184408918022,7.467516731593013,-0.0023534316569566,0.0368915796279907,0.0082334019243717,0.912445175252566,-0.2284792658931134,-0.2589591261281942,-0.2195020617464698,0.5726743936538696,0.3474709689617157,-0.271801620721817,0.0202602744102478,-0.1313472986221313,-0.0934393405914306,0.0071786972694098,0.0166434366255998,0.0155880640034913,0.0585897080600261,0.0096580905742652,0.0930151875015348,169
1733109005919194600,0.2845826653003692,-0.0301595759421586,-0.4467039030581712,5.619368991041183,-2.976957709214091,7.465306069806218,0.018154814839363,-0.0690892338752746,0.0572601556777954,0.912523713357879,-0.2285048636864704,-0.2591540814020387,-0.2189180677977479,0.3953523337841034,-0.1478942930698394,-0.2953969538211822,0.0677838325500488,0.0708775520324707,-0.0083914101123809,-0.0228991694748401,0.062329676002264,0.0328384397625923,0.0815909057855606,0.0084227652092056,0.020244815184595,170
1733109005958960000,0.3101519908428192,-0.0590811345219612,-0.276173733395338,5.621781897401809,-3.00474880245924,7.452344296902417,-0.1733653843402862,0.0660912245512008,0.0087981121614575,0.9122166397499076,-0.2300481593158029,-0.2590637644648095,-0.2186882558430423,-1.448655366897583,-0.5772619843482971,-0.168154776096344,0.104189932346344,-0.0758624076843261,-0.176225483417511,-0.0214664246886968,0.0923952236771583,0.0054463768928108,0.0414923392236232,0.031301615266886,0.0234457826333935,171
1733109005998725400,-0.2462479662090539,-0.2201341585263609,-0.0207844293534755,5.610905698600411,-3.0694992147892712,7.434130010297894,-0.1632741242647171,-0.0933295860886573,0.0364387966692447,0.911457673008088,-0.2337821766398795,-0.2575087156189732,-0.2197271538948667,-1.687325954437256,-0.7386084794998169,0.0141276074573397,0.1047867536544799,-0.0624556541442871,-0.0235556960105896,-0.032017420977354,0.0568173639476299,-0.1024514348939992,0.0215743519365787,0.0482892073373775,0.0101833691154723,172
1733109006038489600,-0.6606079350233077,-0.3293473974391818,0.7794348054558038,5.614211169886588,-3.114412415488064,7.412924725183844,-0.0946659073233604,0.1895552575588226,0.1144465059041976,0.9106593858963464,-0.2366217312655048,-0.2570139623616249,-0.2205754098484371,-0.2589421272277832,-0.3146425485610962,0.1827072948217392,-0.1205947995185852,0.0366034507751464,0.1179278045892715,-0.0246519930660724,0.0205079540610313,-0.1143352307022083,0.022391889244318,0.0142012378711486,-0.0197824675030075,173
1733109006078254800,0.2983651069372892,0.0855363029882311,0.2356827330529689,5.533760499599576,-3.1496655151769515,7.45838357706666,0.0918098241090774,0.104004830121994,0.1390289664268493,0.9124812745668176,-0.2364295796455853,-0.2526446574710246,-0.2182880426727476,1.2289419174194336,0.1695179641246795,0.1957319527864456,-0.0394347608089447,0.0167694091796875,0.2189243286848068,0.0254220683127641,-0.0104103032499551,-0.1352418981958646,-0.0008086931193247,0.0224937289058347,-0.1433509247057139,174
1733109006118020400,0.5690069251686334,0.0116287707343697,0.0102805709958076,5.527827017897367,-3.1326199800908565,7.469953018829226,0.0755745992064476,-0.0615305453538894,-0.0399575047194957,0.9129897588730728,-0.2351397257927468,-0.2526810198085616,-0.2175113485024992,1.1491293907165527,0.5153148770332336,0.0218815337866544,-0.0773585736751556,0.0477784872055053,0.1730679422616958,0.0379761792719364,0.0124487029388546,-0.020898543552705,0.0241045951843261,-0.0553419068944407,0.0161508204442972,175
1733109006157784600,0.2108727014452218,-0.198751763279736,-0.2297755548357963,5.550773593720794,-3.097465372340381,7.4675968110919,0.0473041981458663,-0.0600129179656505,-0.0759909898042678,0.9127895587179138,-0.2337478697173763,-0.2542055467079199,-0.2180748161599603,0.9436428546905518,0.4905040264129638,0.099451296031475,-0.0425578653812408,0.1145688295364379,0.0026277601718902,-0.0190598461776971,0.0205107945948839,-0.0942438616468105,0.0094654764980077,0.0663034915575059,-0.0196852450730744,176
1733109006197549800,-0.2234188792854547,-0.2173676164224743,-0.3783937524199485,5.577901254621148,-3.077802055971324,7.455504222238063,0.0010548876598477,-0.1031958013772964,-0.0287396758794784,0.9121925048377656,-0.2334578148612286,-0.2556805113669463,-0.2191572687672732,0.1067583560943603,0.2718535661697387,-0.2562048137187958,0.0959479212760925,-0.1313024163246154,-0.0052951574325561,-0.0232282802462577,-0.0070717581547796,-0.0662004513081395,0.0165093503892421,0.0379156562619144,-0.0352416649794206,177
1733109006237315000,0.3118178782284259,-0.2461871759325265,-0.3037935617268085,5.633284119147062,-3.080855306062102,7.412477565938234,-0.0664353296160698,-0.0801350697875022,-0.0278017111122608,0.9109947851973929,-0.2346859690390607,-0.2588267875376287,-0.2191341741580913,-0.7633591890335083,-0.4440044164657593,0.0025490489788353,0.1516473591327667,-0.0360447168350219,-0.4173144400119781,-0.0176802426576614,0.0161806289106607,0.0571296031619654,0.0566885396838188,0.0218375140364049,0.0749285230317851,178
1733109006277080600,0.3061170362383127,0.0242538590297102,-0.1453606570929289,5.632550544175506,-3.1178616791591045,7.39754712330997,-0.0979113727807998,-0.0036563808098435,-0.0283504426479339,0.9103865458800944,-0.2369880414821044,-0.2581990302942508,-0.2199234683417889,-1.2915410995483398,-0.3609252870082855,-0.1558085680007934,0.1032563149929046,-0.0631471276283264,-0.1394321322441101,-0.045052420347929,0.0126437498256564,-0.1158498456493951,0.0342222601175308,0.0974776924688834,0.00239122938918,179
1733109006316863700,-0.195107561558485,0.000813069948554,0.3974339684545994,5.630094967716932,-3.148888685585558,7.386265266317129,-0.1026672050356864,0.1422218978404998,0.0008963364525698,0.909755330457708,-0.2390652813662802,-0.257396724805339,-0.2212237425998877,-0.8585227131843567,-0.4276653528213501,0.1866811364889145,-0.0376180112361907,0.0329086184501647,0.2152369022369384,-0.066881388425827,0.0079366052523255,-0.0844138200306333,0.0218266174197196,0.0271626911145402,0.0576693360618548,180
1733109006356629500,0.0139057757556438,0.1956295396059751,0.2876385457396507,5.578649442639946,-3.169078071655333,7.416602536913752,0.022929947823286,0.0907402709126472,-0.0062318220734596,0.9103354080688668,-0.2395150604473577,-0.2539508520011992,-0.2223305060942118,2.1218020915985107,0.2289175391197204,0.2589790523052215,-0.0702334344387054,0.1024255752563476,0.0437606573104858,-0.0535090304911136,-0.0101954294368624,-0.1098599667179863,0.0199348740279674,0.0971489628380164,-0.115915330367349,181
1733109006396395800,0.0641290655612945,0.0679068305343389,0.0590396334677934,5.573318018484115,-3.147299078306556,7.429873521897196,0.0483357608318328,0.0165352784097194,-0.0499664358794689,0.910477911099514,-0.2384403891492956,-0.2536297777608771,-0.2232668130849463,1.072565674781799,0.4599927961826324,0.1810562014579773,-0.0646865963935852,-0.1018053293228149,0.1745285093784332,-0.009750030003488,-0.0025070866104215,-0.0115721486012393,0.0418184138834476,-0.0165906857243739,-0.0377510128852678,182
1733109006436161500,-0.0147182611823081,-0.0396621483027935,-0.1079945107728242,5.564626762506365,-3.120384475634992,7.447718390667438,0.0421622693538665,-0.0195710584521293,-0.0081780916079878,0.9108491178837425,-0.2368968369394527,-0.2532822896518218,-0.2237896022831542,0.6331974267959595,0.6909529566764832,-0.2268072366714477,-0.0950798690319061,0.1786674857139587,0.1284055411815643,-0.0124792298302054,0.0528933629393577,-0.0186609115605941,0.0258944630622863,-0.0138680455526511,-0.0319156121295178,183
1733109006475926500,-0.2488175244361162,-0.1644526033148169,-0.2166162135332822,5.581750915786624,-3.112311059294641,7.438276024061441,-0.0314854457974433,-0.0443673282861709,0.0164348408579826,0.9105282424696032,-0.2368388857848442,-0.2542848778596532,-0.224019553498635,-0.2410603463649749,0.5739020109176636,-0.2465345412492752,0.0252255797386169,-0.1864339709281921,-0.0068156421184539,-0.0212161336094141,0.0378546454012393,-0.080873498808965,-0.0127113815397024,0.0576185694224201,-0.0151080025686998,184
1733109006515692500,0.0558878914386034,-0.0698623485162854,-0.2488578564465045,5.584700997763872,-3.140312872681021,7.424279647412896,-0.0258033275604248,-0.1013453900814056,0.0740105211734771,0.9104176689387048,-0.2381576285321744,-0.2544563142916808,-0.2228733134817936,-0.0958080664277076,0.3098652958869934,-0.2653885781764984,0.0903169214725494,0.030064046382904,-0.0680912733078002,-0.0163648296147584,0.0222381595522165,-0.0231922713799169,0.0059100170619785,-0.0158086559431219,0.0577874551493441,185
1733109006555458600,0.2531622756421566,-0.1710588697120547,-0.1600403398305177,5.590037098094821,-3.1718449060201643,7.406839852312207,-0.0925787463784217,0.0620148256421089,0.0494841113686561,0.9100709285354452,-0.2398837495358055,-0.2545821206896105,-0.2222942500381119,-0.0974544286727905,-0.2131389677524566,-0.1482531726360321,0.1087395548820495,0.0126832723617553,-0.2423265874385833,-0.0281008128076791,0.0344169028103351,-0.004219712612353,0.0179518517106771,0.0155566687848069,0.0819178932953625,186
1733109006595223600,0.0118424134850502,-0.0420437827423214,-0.0237561386406421,5.566198541867733,-3.212723444375396,7.407174198833108,-0.083499789237976,0.0070576225407421,0.0307618491351604,0.9100918558178892,-0.2417210625816884,-0.2528045341665983,-0.2222470472310859,-0.1219334080815315,-0.2627040147781372,0.0875335857272148,0.0611476600170135,-0.0691156983375549,0.0723920166492462,-0.0190271772444248,-0.0040500652976334,-0.0749035484207328,-0.0271192751824855,0.0341589957256917,0.0030898146749241,187
1733109006634989300,0.0157189626574516,0.0362859498679637,0.0258352830022573,5.559927791035175,-3.2415234224021434,7.399332253161072,-0.0416597798466682,0.0482304692268371,0.0317729040980339,0.909829086664387,-0.2432810207614273,-0.2520979656653561,-0.2224232661925257,-0.5854920148849487,-0.1178372725844383,0.3766318261623382,0.03565314412117,0.0208236575126647,0.0791909396648407,-0.0233594607561826,0.0239428542554378,0.0810374480658676,0.0046550687402486,-0.1125043163474649,0.1509346943655982,188
1733109006674755300,-0.2690226925969123,0.0232902746945619,0.1781026507437229,5.534171418488025,-3.2638422217160463,7.408823135083914,-0.0831224396824836,0.159895434975624,0.0331906825304031,0.9099668202222292,-0.2441880418578152,-0.2502545728156214,-0.2229464938633698,0.9612098932266236,-0.092789813876152,0.352770060300827,-0.0266435146331787,0.0097826123237609,0.0440238118171691,-0.039320059120655,0.0392772369086742,-0.0816526116889901,-0.001065905438736,0.0138753646343597,0.004354937527448,189
1733109006714521000,0.0282423441439867,0.0932096140950918,0.2924678655922412,5.487250092837214,-3.292012669667601,7.431226690071821,0.0125355087220668,0.0889888182282447,0.0684252232313156,0.9106295061435076,-0.244831692286403,-0.2473263640217292,-0.2228028893465763,0.5336087346076965,-0.029112409800291,0.1639473885297775,-0.044627845287323,-0.0086522102355957,-0.005996286869049,-0.0296466872096061,0.0135659435763955,-0.0495652414554497,-0.0169541146606206,-0.0619486253828275,0.0472775917425751,190
1733109006754286300,-0.0198293205857276,0.136712363474071,-0.1101706857681274,5.462448244535922,-3.2924197891637683,7.449296599769592,0.0089021995663642,0.0256047323346138,0.0398887433111667,0.911218036842972,-0.2442815874205615,-0.2460042323432551,-0.2224640523569874,-0.0820866599678993,0.2511617839336395,-0.1422434151172638,-0.102087914943695,0.0464593768119812,0.1380995213985443,-0.0429538302123546,0.0586050450801849,0.0066773942630446,-0.0244717244058847,-0.1099756655195262,0.0122721660797775,191
1733109006794052000,-0.1024427218645811,0.0041880993396043,-0.1934884359240531,5.445702276918292,-3.308336027958989,7.454504105284809,-0.0640211775898933,-0.0047574904747307,0.0678475797176361,0.911497076181389,-0.2447131052008075,-0.2450338233009687,-0.2219166759434251,-0.3684291839599609,0.3321857750415802,-0.2116227000951767,-0.0408355295658111,-0.0161814093589782,0.0367946028709411,-0.031105350703001,0.046011671423912,-0.1283089571275282,-0.0559421591460704,0.0110224457215401,-0.1452937384697143,192
1733109006833817900,0.0628863720238208,-0.2641530407339334,-0.0840478179961442,5.427766222733259,-3.3521389293283224,7.44801357422173,-0.1032032370567321,0.0397287048399448,0.1183026507496833,0.9115510224391848,-0.2465940395499176,-0.2438203725188031,-0.2209476088555837,0.3125408291816711,0.2057899087667465,-0.1957898139953613,0.0628692805767059,0.045105755329132,-0.0843654572963714,-0.0147796776145696,-0.0045830770395696,-0.0681264372349251,-0.0423981696367263,0.0139390752370469,0.0050395924692507,193
1733109006873584000,0.3076046444475651,-0.2132248175293207,-0.0813116710305213,5.419176089042425,-3.3904975938171145,7.43689772144556,-0.0446666367352008,-0.0215199589729309,0.0560435056686401,0.911496502301406,-0.2483267803286864,-0.2432232514770759,-0.2198874014446301,0.1618240028619766,-0.2880981564521789,-0.1228139996528625,0.1552130281925201,-0.0904220938682556,-0.229819655418396,-0.0150046776980161,-0.0037538176402449,-0.0295019203176023,-0.0035409724805504,0.0306571821667952,0.0441599118131911,194
1733109006913348900,0.1768465132027864,-0.159476568467915,-0.3947311392366885,5.432917614147066,-3.416413248579204,7.4149793196260925,-0.0774467438459396,-0.0918862670660018,0.0063874488696455,0.910972570605955,-0.2499692119026441,-0.2438373874991934,-0.2195171606497891,0.3414949774742126,-0.0564166791737079,0.202705979347229,0.0861742496490478,0.0057572126388549,-0.0436086654663085,-0.0219732504338026,-0.0034986464306712,-0.0544444283317541,0.0052487300708889,0.0227514277106616,0.0018316581360151,195
1733109006953115000,0.1481236920654773,0.2924816018566489,0.3400251510590314,5.435153994897008,-3.4555209778696296,7.395190915572643,-0.1426111310720443,0.1954225301742553,-0.0322945229709148,0.9102647026992732,-0.2524154976089103,-0.2433857121212946,-0.2201541549429041,-0.7877359390258789,-0.6158024668693542,0.3531987965106964,-0.0012065470218658,0.0930103063583374,0.0298216342926025,-0.0372908897697925,0.0251088552176952,-0.0347924736069282,0.0139740481972694,0.0081042093416588,0.0168215421880478,196
1733109006992881000,0.0336468335360288,0.1545540173739194,0.5535825615435839,5.390118336862326,-3.4941660580843683,7.4099810729473825,-0.0443527288734912,0.1387067884206771,0.0336545184254646,0.910360558038849,-0.2540963811808331,-0.2400648699186662,-0.2214669751426113,0.4745121598243713,-0.255452960729599,0.0036102524027228,-0.1024146974086761,0.0675241947174072,-0.0524598956108093,-0.0238060262054204,0.0065621919929981,-0.0352400164450285,-0.0073462924920022,0.0049891283655597,-0.1080050686994567,197
1733109007032647000,-0.1338636960446834,0.2302522324368357,0.3321785292118787,5.355467294719815,-3.491304238912463,7.436406723058223,0.0318192243576049,0.0965783447027206,-0.0001260270364582,0.9109435938816196,-0.2534286995436907,-0.2379551603571081,-0.2221102431354475,0.2136789411306381,0.3420724868774414,0.1409541815519333,-0.1006966233253479,-0.1132622361183166,0.2283684015274047,-0.0166247840970754,0.0279334392398595,-0.0900958111898042,-0.0001033653970807,-0.0795124761214479,-0.0880658488653134,198
1733109007072411600,-0.0915185922682285,0.0293216638132929,0.0719470458358526,5.341553335657715,-3.483555816742778,7.4500354354381555,0.0328179560601711,-0.0608856864273548,0.0208542998880147,0.9113468935655824,-0.2526939417068479,-0.2372755445421166,-0.2220200029708958,0.0859593376517295,0.7089303731918335,-0.1668856590986251,-0.0669670701026916,0.1232175827026367,0.1663098931312561,0.0011181298177689,0.0339320674538612,-0.1054002838953863,-0.0148544767871499,-0.0311697256656596,-0.1920811081430874,199
1733109007112177700,0.0311965177744627,-0.2586447987064719,-0.0107663086861372,5.36219105001688,-3.473017763854563,7.44012311323285,0.0168560333549976,-0.0837547853589057,0.0032689161598682,0.9111824842100608,-0.2523706695974331,-0.2386803820522295,-0.2215561627018687,-0.0772106796503067,0.7173418998718262,-0.1420849561691284,-0.0012461841106414,-0.0610237717628479,-0.011518508195877,0.0096896467730402,2.26689735427e-05,-0.1463945484516211,-0.0023005097173154,0.0495216808749362,-0.0594902222129283,200
1733109007151943700,-0.0637023645818233,-0.1209858020320534,-0.1192798748970031,5.372545270770788,-3.460141038885713,7.438653625202178,0.0669368579983711,-0.0376891270279884,0.0391408093273639,0.9113210175445818,-0.2516421147475244,-0.2396048126189804,-0.2208162941540073,0.2204598784446716,0.4442408680915832,-0.2760853767395019,0.0644229650497436,0.0366824865341186,-0.0293998718261718,0.0023591730277985,0.0314660556614398,0.1140516371210105,0.0417525321245193,-0.0722020754762692,0.0307825415625353,201
1733109007191709400,0.3232797679632902,0.0274000481009483,-0.3853945710927248,5.383149666893482,-3.4666707329154014,7.427938754442334,-0.0271310713142156,-0.0587746500968933,0.0191463567316532,0.9113210197922484,-0.2518922201872194,-0.2404804114747693,-0.21957569399945,0.0264246352016925,-0.0156051237136125,-0.0536379888653755,0.0881418883800506,-0.0764701962471008,-0.1984051167964935,0.0073523470200598,0.0709750205278396,-0.0421729575133649,0.0250343792140483,0.016460406983277,-0.1060622549354564,202
1733109007231474700,0.135632459282875,-0.0803688372224569,0.006400514692068,5.373724251422286,-3.4902833714321253,7.423704477873444,-0.0784965306520462,0.1154209002852439,0.0087524494156241,0.911073300372572,-0.2531997480110686,-0.239554363994064,-0.2201112070613603,0.2225709706544876,-0.0657994747161865,0.1596881449222564,0.0624188780784606,-0.0114229321479797,0.0293426811695098,0.017938420176506,0.0256580766290426,-0.1143632786197587,0.0260627958923578,0.0547047963009914,-0.0229973652957472,203
1733109007271240400,0.2099210998088121,0.0300105228602886,0.0220896667331457,5.357046088343858,-3.5081872769132256,7.427319161239266,-0.0094379195943474,-0.0023577101528644,-0.026561802253127,0.9110380025386696,-0.2540483458756599,-0.2382678214648962,-0.2206757590067428,2.2392141819000244,0.368787556886673,0.1660570800304412,0.0417828857898712,0.0888855457305908,0.07387375831604,0.0008295718580484,0.0363490618765354,-0.0154521649474278,0.0204342696815729,-0.024040289344266,0.0395966042193351,204
1733109007311006500,-0.0252028303176164,-0.0832265647411346,-0.0808884771823883,5.393002367866039,-3.494458611290157,7.407743523153663,-0.0450584106147289,-0.0408392772078514,-0.1110591739416122,0.9101033726391816,-0.2543797179822899,-0.2400023940373168,-0.2222645929626549,2.758565902709961,0.4222669303417206,0.232912003993988,-0.0278387367725372,0.0165448784828186,0.040772408246994,-0.0120025416836142,0.040985357016325,-0.0766737090315669,0.0526578538119792,0.0189310577133961,0.0394784851318458,205
1733109007350772500,-0.3912970731347799,-0.1105526708230376,0.2617600081175565,5.38979158912599,-3.493020102919638,7.410758487060666,-0.0301575474441051,0.1136043593287468,-0.0040965885855257,0.909723799449738,-0.2547329043763407,-0.2393065390588396,-0.2241565315200969,3.3641531467437744,0.0632552281022071,0.0429558604955673,-0.0099819302558898,0.0533437728881835,0.0447121262550354,0.022056259214878,0.0235727224498987,-0.0837144943885505,0.054993774741888,0.004280985804426,-0.087975595032284,206
1733109007390537200,0.0786976891398429,0.1012067503288388,0.0634936902672052,5.364967528992891,-3.4997760069206354,7.425568518179655,-0.0193524733185768,0.0207483991980552,-0.0340087749063968,0.9100032609730244,-0.2547754499168655,-0.237678013463632,-0.2247055802283696,3.974186420440674,0.3483680188655853,-0.1230892986059188,-0.0786088109016418,0.2191874384880066,-0.0219706892967224,0.0223130360245704,0.0219495967030525,-0.0645580635291291,0.0179208032786846,0.0038914002524834,-0.0645228460852755,207
1733109007430015500,0.0248036018669605,0.0270949276745319,0.1752449232250452,5.367686724823713,-3.493001105958223,7.426794260582327,0.0242177918553352,0.0034972983412444,-0.0385737232863903,0.909801683453436,-0.2546911833698393,-0.2376368592901489,-0.2256593472884978,4.0882415771484375,0.1203555911779403,0.2449527084827423,-0.0348689556121826,-0.0124608874320983,-0.015021800994873,0.0127619476988911,0.0200627744197845,-0.1049807889748364,0.0108373658731579,0.0124489074612385,-0.0704693973316112,208
1733109007469772300,0.2033902367353439,0.090081545202434,-0.1759691458463668,5.3710594161272045,-3.468599362890422,7.435787129855155,0.0421488732099533,-0.0285362694412469,-0.0465388558804988,0.9099639114163756,-0.2534601790460374,-0.2379880357120098,-0.2260208939215029,3.0458130836486816,0.1004971414804458,-0.0138933081179857,0.002325028181076,-0.0491749048233032,0.1464831829071045,0.0416156724095344,-0.0062234476208686,-0.1230464608889073,0.0392499864101409,0.0740789798306301,-0.1211702643540222,209
1733109007509529300,0.0281178409814834,-0.016859657125175,-0.0705284112095832,5.388164864706993,-3.4502436219885944,7.431950328171252,0.0071799103170633,-0.0185749270021915,-0.0519311651587486,0.9096225608608411,-0.2529971682687686,-0.2388899841107437,-0.2269599813231685,2.545586585998535,0.219201847910881,-0.0304521769285202,-0.0606231391429901,0.0091091692447662,0.0711777806282043,0.0776678025722503,-0.0091714533045887,-0.0243472638010513,0.0501242615282535,0.0675923577576875,-0.0611135079992469,210
1733109007549285400,0.0384212083309888,-0.0854910025417804,0.0324485636621713,5.409734306958318,-3.430992685812712,7.425190332517027,0.0315631367266178,-0.0626937597990036,-0.0666601583361625,0.9092639733434268,-0.2525053349029018,-0.2401285134707554,-0.2276367106922779,2.6703271865844727,0.3132531344890594,-0.0054302476346492,-0.0240265429019927,0.0222615897655487,0.0165795683860778,0.0742132663726806,0.0040818401612341,-0.0607540727028623,0.053944643586874,0.0692172646789345,-0.0117958846293156,211
1733109007589042200,-0.0630079525768756,-0.0246004805102944,0.1947340520709753,5.433500966992974,-3.406140568628907,7.419275555515289,0.0752491727471351,-0.0285419709980487,-0.0232774764299392,0.9089720809749778,-0.2516951192532644,-0.2416025386387577,-0.2281391210333754,2.1518008708953857,0.334841638803482,-0.0167155917733907,-0.0174101889133453,-0.0155416280031204,0.0431814193725585,0.0843389257788658,-0.0035931339953094,-0.0180656696307822,0.0417973734438419,0.0616300655195256,-0.0507008670224109,212
1733109007628799200,0.2786509371638297,-0.0115995446398854,0.1907996352314949,5.457557549884915,-3.370659505403041,7.417823603141307,0.1141980364918708,-0.1195463389158248,-0.1190977469086647,0.908878030982042,-0.2502114523369714,-0.2432909264245092,-0.2283516702739184,1.4530266523361206,0.1492722481489181,0.0077603897079825,-0.0140178203582763,0.0121180787682533,0.0223355889320373,0.0983958095312118,-0.0364294052124023,0.0634392475330736,0.0525931045413017,-0.0246283274984452,0.0885560618013609,213
1733109007668556300,0.3046960635244846,0.0577037086889147,0.0911988587945699,5.526830992597342,-3.286135009805858,7.4044479887396095,0.2298141419887542,-0.181402251124382,-0.2022965252399444,0.9082014664700496,-0.247116248077967,-0.2478139912845148,-0.2295475033225229,0.7383360862731934,0.0285390615463256,-0.0246775783598423,0.0164884030818939,0.0015860050916671,-0.0172610878944396,0.0634764209389686,-0.0023101703263819,-0.0983233129801694,0.0534298568964004,-0.1206576021241489,0.0783071463191416,214
1733109007708312000,0.3426934934854507,0.0176911395132541,-0.1618751540422439,5.605101980757713,-3.1720518267691133,7.395356919789314,0.1886571496725082,-0.145394816994667,-0.25181445479393,0.907410356151832,-0.2428094775653747,-0.2529531506031036,-0.2316563663565369,0.360708087682724,0.1565363407135009,0.0867683216929435,0.0140523314476013,-0.0329099968075752,0.0793979167938232,0.0898446068167686,-0.1417157351970672,-0.2531934744980186,0.0636260285973548,0.0641153566963504,0.0397185318322619,215
1733109007748069000,0.1281125851720571,-0.040679508651793,-0.207698163062334,5.669297097292542,-3.061906567703187,7.392846982795,0.1586426496505737,-0.0777959004044532,-0.2738958895206451,0.9064288516877548,-0.2388904371930601,-0.2569067345646153,-0.2351958589840835,-0.2165366262197494,0.050306674093008,0.1185824424028396,0.0778757333755493,-0.045704148709774,-0.0501582622528076,0.1370792388916015,-0.2342146188020706,0.0529098894079681,0.1306672245264053,0.0373941805379232,0.1568464026274159,216
1733109007787826200,0.0144487965911626,0.0689630615890026,-0.3351128290981054,5.7259489588409656,-2.95966199875921,7.390825121578573,0.1206444427371025,-0.0899668186902999,-0.2260178923606872,0.9054904076203234,-0.2352653564144917,-0.2604284918121695,-0.2385674089636212,-0.7881596088409424,-0.0785544216632843,0.1399871408939361,0.0497112572193145,0.0024729706346988,-0.1093881130218505,0.1210664063692092,-0.1399523913860321,0.2630272881070152,0.1686171144247055,0.0212450097696622,0.2938926194320432,217
1733109007827582700,0.4245493543952703,0.4058592669725417,-0.3811351600825786,5.764013024297356,-2.894182979893684,7.387167183592915,0.0035412521101534,-0.0291580650955438,-0.2227525860071182,0.90450233885673,-0.233346545996515,-0.2625046088655226,-0.2419013946153495,-1.1095811128616333,0.1125095933675766,-0.0644016191363334,-0.0038122534751892,0.0217055156826972,0.1345329284667968,0.0951724797487258,-0.0932114347815513,0.1690670200414024,0.1727709621191024,0.1455493389322888,0.2632073025827296,218
1733109007867335000,0.4579921897917985,0.4583656992793083,-0.2372363922357559,5.794764720913768,-2.8459830126091834,7.381833421349525,-0.0591211579740047,0.0110437385737895,-0.2670105099678039,0.9031027076967216,-0.2326421392011776,-0.2636453692952416,-0.2465243026010501,-2.1902074813842773,-0.0619279853999614,-0.1677785515785217,0.0207302272319793,0.0853184163570404,0.0181530117988586,0.0766561925411224,-0.0292067769914865,0.2725456790912896,0.1866126656532287,-0.0353930721318698,0.3790323791170492,219
1733109007907092000,0.3274211055517196,0.2439233226537704,0.0200286425501108,5.805924997353554,-2.813051633866132,7.385686005124449,-0.1055009961128234,0.127977654337883,-0.2415964007377624,0.9017529055087063,-0.2325833334149657,-0.263324515457053,-0.2518071119648954,-0.7606672644615173,0.0796862989664077,-0.2372191250324249,-0.0135844945907592,0.0343946814537048,0.0157126188278198,0.0469101071357727,0.0145799135789275,0.1190343117712531,0.1595885008573532,0.0573547947865445,0.3221626735668629,220
1733109007946848800,0.0760427907168865,0.0616425094425678,0.1239922903716564,5.777630046239495,-2.7844480551943183,7.4186401802212,-0.0633367821574211,0.19828462600708,-0.2342127561569214,0.9010856576639724,-0.2320183336754866,-0.2606186974187554,-0.2574683225443954,-0.6606839895248413,0.2653455436229706,-0.0309300143271684,-0.0364358127117157,-0.0927018523216247,0.0431113839149475,0.0457407496869564,-0.0402201041579246,0.0285427016303176,0.1159846931695938,0.0818556965130381,0.2322372870405204,221
1733109007986605600,-0.1005798506021499,0.0066632572814822,-0.1247305415183305,5.762268226456642,-2.744432855670154,7.445451030257344,-0.0107642579823732,0.0640901252627372,-0.2037804275751114,0.9004993371943358,-0.2308029868603629,-0.2590706975564834,-0.2621323444361932,-1.6766669750213623,0.0300804991275072,-0.4827577173709869,-0.0202412605285644,0.0787119269371032,0.0266765356063842,0.0457115173339843,-0.0346984229981899,0.1197698047052603,0.0628536939620971,-0.069664862315962,0.3194518802382052,222
1733109008026361600,0.0233387900114059,0.1136263791799545,-0.3047346419692039,5.790680666470528,-2.695174319243431,7.441400293561815,0.0120435198768973,-0.0790453553199768,-0.2352193742990493,0.8992989358634282,-0.2297722262397271,-0.2603821919247197,-0.2658333561029464,-1.5146561861038208,-0.0658575892448425,-0.1347090750932693,-0.010195106267929,-0.0913991630077362,-0.1988330483436584,0.0004798624431714,-0.0159801580011844,0.2027812197252176,0.069849744439125,-0.1755652960195206,0.296815868201293,223
1733109008066118700,-0.0972276175647973,0.1871124711513519,-0.4702952065259217,5.826401968193053,-2.64311416939944,7.432184136927128,-0.0465629249811172,0.0095941247418522,-0.2136057019233703,0.8978169253579558,-0.2288864894608585,-0.262059206427677,-0.2699269891380838,-0.3710590600967407,0.0695055648684501,-0.039255853742361,0.0191245377063751,-0.0172438025474548,-0.0305135250091552,0.0491455793380737,-0.1069082915782928,-0.0659847627308452,0.1097701862454414,0.0901583641651552,0.2235521137436851,224
1733109008105875500,0.4164490500479936,0.3984396383658051,-0.3524965100973844,5.847380458813905,-2.619061385899782,7.424219441658258,-0.1024738848209381,-0.0403334870934486,-0.2684842348098755,0.8963077780970296,-0.2292737766015473,-0.2624951024375093,-0.2741571108425496,-0.7819528579711914,-0.1056369617581367,-0.1261701881885528,0.011959284543991,-0.0427845418453216,-0.0409243106842041,0.0879025086760521,-0.1353124231100082,0.0463166468890849,0.1135459467768669,0.0258591913175187,0.1542189402006566,225
1733109008145632500,0.537761307555437,0.3201940769076347,-0.0369312620341777,5.923739475873112,-2.560119075326621,7.3841370221167795,-0.0781256034970283,-0.1659135669469833,-0.5038541555404663,0.8930662398158046,-0.2298022821724661,-0.265903569419721,-0.280924831792719,1.046155333518982,-0.1733787208795547,0.0351235046982765,-0.0276475846767425,-0.0076781213283538,-0.0855847001075744,0.1031818911433219,-0.0789529606699943,0.0843459150267299,0.0806238502264022,-0.0329208139665541,0.2121245098709128,226
1733109008185389600,0.3727870184540748,0.3843601134784519,0.0130588035374879,6.047713061544298,-2.4113512401387096,7.333548406130075,0.1234682276844978,-0.3334886431694031,-0.7225373983383179,0.8884507951398526,-0.2275944961531602,-0.2725689734424901,-0.2907954357322015,1.0626147985458374,-0.0171187035739421,0.1304462254047393,-0.0139233469963073,-0.030976265668869,0.0046983957290649,0.0904565602540969,-0.075386956334114,0.0680585322310216,0.1016792654991149,-0.0196972049389267,0.2647542580300941,227
1733109008225145300,0.9296154300510884,0.1053558328323066,-0.0463870726436376,6.277530117434263,-2.0941889321424068,7.237221536797285,0.363927811384201,-0.454198956489563,-1.360487937927246,0.8809099297313793,-0.2205550944487307,-0.2869840363344939,-0.3049481442643844,0.8639914393424988,0.0127232940867543,0.1292002648115158,-0.0363877117633819,0.0148479640483856,0.0815605521202087,0.0636392459273338,-0.0951804146170616,0.0209147914346074,0.136110320687294,-0.0719268798306584,0.2632877291414887,228
1733109008264902400,0.2638163561254739,0.335083603003621,-0.2501835520923137,6.523595712813735,-1.5419110234566031,7.157903669932484,0.5803861618041992,-0.4801377654075622,-1.7692700624465942,0.869801134122127,-0.2056623315769699,-0.3045512696892071,-0.3292376448277024,1.1016031503677368,0.2762381434440613,0.2953993380069732,-0.0319659411907196,-0.0002038776874542,0.1104132533073425,0.0504664555191993,-0.0852280706167221,0.1190667162035126,0.1835333555936813,-0.1712843307646922,0.2088402640358544,229
1733109008304659500,-1.256840720769763,0.6262385593663901,-0.6321048941165208,6.750784173765778,-0.9090538496680556,7.054850122693181,0.8513012528419495,-0.4179102778434753,-1.321692943572998,0.8584623621996007,-0.1865475686723244,-0.3248118840105775,-0.3503419229908796,0.3031617105007171,0.3071795403957367,0.4991014301776886,0.0079982578754425,-0.0824407935142517,0.1911112070083618,0.0933843031525611,-0.1762618720531463,-0.0438551932455738,0.2705454230308532,0.0042229862774285,0.1962276698959059,230
1733109008344416300,-0.7954723325431347,0.7985271900691091,-1.0142606294184922,6.847265356877446,-0.4163527865992859,7.007994848015904,0.5794475078582764,-0.1468783468008041,-0.775389552116394,0.8521671623259579,-0.1685569091745654,-0.3380536687503717,-0.3621039773709781,-0.5267988443374634,0.2881178855895996,0.6985999345779419,0.0274819731712341,-0.060381531715393,0.1027888059616088,0.1784598678350448,-0.1974582970142364,0.1782781169084832,0.3451195955276489,-0.1167215869826264,0.2395949380606412,231
1733109008385415700,-0.8307499821513891,1.262068830681592,-1.2498948471546172,6.884787570542096,-0.1370934078140649,6.982211587461829,0.1206640750169754,-0.2148525565862655,-0.6650748252868652,0.8471386378432482,-0.1594486582245441,-0.3443579531029064,-0.3719539497075492,-1.0567373037338257,0.3476802706718445,1.177240252494812,0.0712377876043319,-0.0756717026233673,0.1745321750640869,0.2546232342720032,-0.1794292479753494,0.4383004510458558,0.4223392009735107,-0.0939284116226248,0.3247932777987793,232
1733109008425272300,-0.8733236339867114,0.846005345885083,-1.2184066529572009,6.943821943312883,0.0191993178697885,6.924836672335863,-0.3573354482650757,-0.1826024800539016,-0.6302365660667419,0.8401848855450884,-0.1582405611172061,-0.3491296346915097,-0.3836117225181845,-0.657581627368927,0.6436183452606201,1.7582262754440308,0.148583248257637,-0.1342158913612365,0.1968758702278137,0.34632009267807,-0.1724534928798675,0.2915544040091335,0.5499524474143982,-0.1081657026212662,0.5460969915611669,233
1733109008465031400,-1.5611469081938265,0.8495620885185897,-0.3102005061596631,7.021572706991433,0.035544349136867,6.845921541053056,-0.5238248109817505,-0.4197058379650116,-0.5397089719772339,0.8314707695586013,-0.1656696520358287,-0.3514380652483079,-0.3971161472660733,-1.2763909101486206,1.1344894170761108,2.5239832401275635,0.1674315333366394,-0.2942268252372741,0.3237148523330688,0.4096887409687042,-0.0738975703716278,0.3248248054482042,0.7166796326637268,-0.3078942385112866,0.7111354684725404,234
1733109008504791600,-1.378440563046932,0.4995020848531276,-0.3415893316358327,7.140386133420467,0.1105703800096642,6.72108929272592,0.0488698929548263,-0.5350508689880371,-0.4256363809108734,0.8234517768434534,-0.1697712829837332,-0.3584655202345517,-0.4057181983631815,-2.0892462730407715,1.4953975677490234,3.3314080238342285,0.1789068728685379,-0.2785263955593109,0.3320769071578979,0.4677106738090515,-0.0543077513575553,0.2633595340023748,0.8120209574699402,-0.276662028368935,0.4490087094018236,235
