time_imu,phone_acc_x,phone_acc_y,phone_acc_z,phone_gravity_x,phone_gravity_y,phone_gravity_z,phone_gyro_x,phone_gyro_y,phone_gyro_z,phone_ori_w,phone_ori_x,phone_ori_y,phone_ori_z,watch_gyro_x,watch_gyro_y,watch_gyro_z,watch_acc_x,watch_acc_y,watch_acc_z,headphone_gyro_x,headphone_gyro_y,headphone_gyro_z,headphone_acc_x,headphone_acc_y,headphone_acc_z,frame_imu
1733390443297644300,2.808400008668005,13.1279980697453,-0.943663902213052,0.5123578400991857,9.775235455560685,-0.5938629878751933,-0.4461230933666229,-0.0543710216879844,-0.5539147853851318,0.2932655841501095,0.2767197281696025,-0.6735761108905808,-0.6194488289788689,-0.0182916652411222,-0.0151505358517169,-0.0144742168486118,-0.0010865926742553,-0.0017283707857131,0.0075650811195373,-0.052544891834259,-0.0750879868865013,-0.0482949520915746,0.0453782528638839,0.0610492197245359,0.0106231008231639,0
1733390443337644300,6.32763007312119,10.162553688192366,-2.8763749360024926,0.0675820829588454,9.799550981649755,-0.3668702321583404,-0.6844565868377686,-0.5529690980911255,-1.7035871744155884,0.2783175348015699,0.2843753300892916,-0.661691655507812,-0.6354793958665163,-0.0214512385427951,-0.0239765718579292,-0.0210592150688171,-0.0065883994102478,-0.0022586286067962,0.0048421621322631,-0.0566525235772132,-0.0646313726902008,-0.0403396091729402,0.0392658486962318,0.0704904172867536,0.0287191678754985,1
1733390443377644300,5.128060807102918,1.4080956965982914,-2.481772391581535,-0.7568468338117003,9.777015909236669,-0.0867570860879961,-0.6683911085128784,-0.8522343039512634,-2.2865350246429443,0.2463121195820237,0.2991101816505894,-0.6441711571812471,-0.6594747562881053,-0.0313334316015243,-0.0187948066741228,-0.0123034073039889,-0.0074703693389892,0.0010829120874404,0.0049293637275695,-0.0508118383586406,-0.052601121366024,-0.0424047250092029,0.0308096166700124,0.0798585496127605,0.0518305788718163,2
1733390443417644500,2.154966056927293,-7.21416097920537,-0.241730781045556,-1.597266707714647,9.674203185015916,0.1700544601761736,-0.4383955895900726,-0.6937811374664307,-2.025060176849365,0.2112347628284398,0.3138918004666378,-0.6267388395166804,-0.6812123477021365,-0.0246118791401386,-0.0180329289287328,-0.0174193400889635,-0.0012042522430419,0.0051428824663162,0.0052674263715744,-0.0376769490540027,-0.0404769703745842,-0.0485416203290224,0.0284986328333616,0.1057537461087107,0.0841959942951798,3
1733390443457644500,0.2626784381367266,-13.204450025784968,-0.4375461620798334,-2.23654836159274,9.539975331833958,0.3963954922523349,-0.5850231051445007,-0.5353236794471741,-1.3364253044128418,0.1824242489251291,0.3235305646112915,-0.6124683074920357,-0.6978051810984193,-0.0139933219179511,-0.0129324961453676,-0.0124311055988073,-0.0076728463172912,0.0018699467182159,0.0057210475206375,-0.0202300753444433,-0.0246237926185131,-0.0504009844601154,0.0322867780923843,0.1188385608702898,0.0883642198905348,4
1733390443497644500,-1.6196636868312957,-14.06764623351097,0.9411288307774812,-2.593383631546795,9.429630458542704,0.7258337097801267,-0.938240885734558,0.0362459197640419,-0.5155665278434753,0.170745301496774,0.3283374552231945,-0.5959759198179788,-0.7126383197509408,-0.0250515658408403,-0.0108880400657653,-0.0058204745873808,-0.0042620301246643,-0.0028821229934692,0.0106660723686218,-0.0036250185221433,-0.0118483854457736,-0.0323556246817111,0.0307765025645494,0.1174025367178022,0.0597907440960407,5
1733390443537644300,-2.620820504526794,-10.94659744874835,2.151651525551826,-2.5928534701928494,9.40727658791542,0.9750262050084768,-0.3932034075260162,0.2566201686859131,0.5265158414840698,0.1783009632381938,0.3286425839049224,-0.5850483329527199,-0.7196675950971779,-0.0367012992501258,-0.0082894349470734,-0.0051379064098,-0.0017332434654235,-0.0005622208118438,0.0108270049095153,0.0086313290521502,-0.0071592396125197,-0.0215454768538475,0.0316912047564983,0.1095222317967563,0.0510103485301136,6
1733390443577644300,-0.9470711533732712,-7.103380052584409,2.354254849693179,-2.286298042537272,9.487555993288757,0.9641087974138556,0.3280414938926697,0.3727422952651977,1.0634534358978271,0.1938943720362977,0.3226164323972941,-0.5888656636003067,-0.7152348008924561,-0.0505694411695003,-0.0075247343629598,-0.0004208487225696,-0.0037130713462829,-0.0048364102840423,0.0058857351541519,0.0130257830023765,-0.0039298795163631,-0.0164823482453823,0.035450592637062,0.0969102221786975,0.0245206932723522,7
1733390443617644300,2.3126951972059904,-3.161720402368903,0.517220696895197,-1.8797940479204056,9.603919688478111,0.6336421136211603,0.9445362091064452,1.0569530725479126,1.10881507396698,0.2137542998722954,0.3222307030739672,-0.6032086029159609,-0.6975786387273665,-0.0477643348276615,-0.0089497379958629,0.0025803341995924,-0.0065532326698303,5.0693750381469727e-05,-0.0020887702703475,0.0084267910569906,-0.0037985171657055,-0.014235446101427,0.0330366939306259,0.0958957113739103,0.007014262676239,8
1733390443657644500,1.828851650059968,-0.394665088263154,-1.8905039502441885,-1.4418889528676866,9.696587450781465,0.2599027446120046,0.6861059665679932,0.3418748378753662,1.255700945854187,0.2328442929418511,0.3213319254093141,-0.6192692801118481,-0.6775211997978983,-0.0319291800260543,-0.0120902983471751,0.0072947954759001,-0.0072654485702514,0.0099629461765289,-0.00064617395401,0.0091767832636833,-0.0155512699857354,0.00277881706357,0.0360845923423767,0.1109154397208243,0.0276012697614729,9
1733390443697644500,1.1237924327611923,3.1346336580008267,-0.0442518141806125,-0.915197613120079,9.76382851088345,0.0213575941655086,0.5641921758651733,0.3937797248363495,1.4376457929611206,0.250750937893704,0.3107576223618434,-0.6343033705380178,-0.6619765434432353,-0.0148692345246672,-0.0060614868998527,0.0059631476178765,-0.0070017576217651,0.0098016858100891,0.0025197267532348,0.0124073969200253,-0.0243749544024467,-0.0050327334702014,0.0462078899145126,0.1166430966526269,0.0487913573063909,10
1733390443737644500,0.9757808958332984,5.250989852157235,-0.713577308666706,-0.4056616255085915,9.795819393905996,-0.2185155260822735,0.5499860644340515,0.0998621508479118,1.1385109424591064,0.2671496075875039,0.3002733376956545,-0.6488274919306902,-0.6461346095832973,0.0177829824388027,0.0031140616629272,0.0053280503489077,-0.0088740587234497,0.0040337145328521,0.0015506893396377,-1.19265168905e-05,-0.0085689574480056,0.0027519290566444,0.0452954918146133,0.0746121733918786,0.0179031748287379,11
1733390443777644300,1.9045875667847687,5.162184610500932,1.1263503005504607,-0.0336687942060874,9.79663772455156,-0.441758592143096,0.7378073930740356,0.3645795881748199,0.6653648614883423,0.2805849217484759,0.2957908566322644,-0.6595689422285371,-0.6314655324854319,-0.0348850227892398,-0.0086342068389058,-4.560919478535652e-05,-0.0070754289627075,-0.0051190853118896,0.003570020198822,-0.0089505081996321,-0.0031862948089838,-0.0123620534449815,0.029625367373228,0.0713412619624286,0.0112369949378073,12
1733390443817644300,-0.2004906063036993,4.553869757294654,-0.7503413243751973,0.1243250659899786,9.779765500205755,-0.7149107492275536,0.5245565176010132,0.1493850350379943,0.2759418785572052,0.2837210947397999,0.2967287012412095,-0.6696285390629129,-0.6189119119027349,-0.0266230981796979,-0.0085654444992542,-0.0026226837653666,-0.0103128552436828,0.001428872346878,0.0029384493827819,-0.0056188479065895,-0.0038931723684072,-0.0143704706579446,0.0198219697922468,0.0668884472720325,0.0319160642206668,13
1733390443857644300,0.4025070339351892,3.3970331330657,-0.0109772480230778,0.2400367818103171,9.764341721102594,-0.8777198231190443,0.4379472136497497,0.118462935090065,0.2215674370527267,0.2865262875848182,0.296912560352379,-0.6757175352247163,-0.6108612139467762,-0.0041745137423276,-0.0042358366772532,0.0050497502088546,-0.0088690519332885,0.0064561367034912,-0.002811312675476,0.0074758762493729,-0.0065482733771204,0.002720949396491,0.0163057204335927,0.0652631841577589,0.0399793975584208,14
1733390443897644500,0.1562716714793816,4.861321841529011,-1.1239127712052317,0.2956338188098743,9.748245741826295,-1.0269782183028755,0.2348425984382629,0.1606428027153015,0.0724692568182945,0.2875403345316268,0.2989196241018901,-0.6804471867819996,-0.6041185241179946,0.00201733619906,-0.0123693970963358,-0.0034412061795592,-0.0002388954162597,0.0037442147731781,0.0009672790765762,0.0160938985645771,0.0013010194525122,-0.0091536127924919,0.0140934763476252,0.0590151566136628,0.0392785558126866,15
1733390443937644500,0.3400746892891824,11.906043368917702,-2.525813777881861,0.2093944273198954,9.75444868811965,-0.9885749840199948,-0.4905957281589508,-0.1054690852761268,-0.6255844235420227,0.2863449836331782,0.3023540484022877,-0.677484557249127,-0.6063029771721821,0.0031968501862138,-0.0139914220198988,-0.001594170811586,-0.0059651136398315,-0.0080441832542419,0.00105881690979,0.0227539148181676,0.00258708326146,-0.0431850617319345,0.0097747053951025,0.0487665151260793,0.0092480130776762,16
1733390443977644500,4.014746513736248,11.447349168336393,0.5430126522123814,-0.1660673815676942,9.767672326830027,-0.8575506030544638,0.1408625543117523,-0.9008846282958984,-1.2046233415603638,0.2717714894742086,0.3081059174366788,-0.6699206342391544,-0.6183990564432984,-0.013722744770348,-0.0186160542070865,0.0053098080679774,-0.0024117231369018,-0.0098660886287689,-0.0045173168182373,0.0214248318225145,0.0007248473120853,-0.0324175840020179,0.003581975121051,0.0702969405412674,0.0064618894904851,17
1733390444017644300,6.813605079337954,1.6691554474920034,-4.052139548063278,-0.7963778300154953,9.727843005266784,-0.9514422080643474,0.1727418452501297,-1.4002842903137207,-1.8503053188323968,0.2335958789050717,0.3132751354119156,-0.6710951822054443,-0.630018203482829,-0.0094494363293051,-0.0216859336942434,0.0059826555661857,-0.0028024911880493,-0.0031643509864807,0.0001936554908752,0.012336017563939,0.0066285328939557,-0.0426858800381422,0.0012962343171238,0.054554523942992,0.0094175244256854,18
1733390444057644300,4.518030089889466,-8.80327550625503,-4.904575876843929,-1.6596522906094788,9.635409636241198,-0.7581601083673536,-1.1372971534729004,-0.6715594530105591,-2.327726125717163,0.1947034960066303,0.3266860553847812,-0.6572150553251458,-0.6507188877471187,0.0016476893797516,-0.0204227957874536,0.0054642716422677,-0.005149483680725,0.0007702708244323,0.0019591301679611,0.002477771602571,0.0152466287836432,-0.0428203200727701,0.0003203730448149,0.0409179935827851,0.0239956464849412,19
1733390444097644300,-1.230543665474653,-14.237477899515628,0.6107961486279964,-2.4459023290380832,9.496657583633064,-0.0376844641548115,-2.2217798233032227,0.1152862310409545,-1.5644224882125854,0.1765438623647389,0.3427060518765978,-0.6200596220721639,-0.6833087185758395,-0.0082390299066901,-0.0211089327931404,0.0047876285389065,-0.0068161487579345,-0.0031147003173828,0.0093752741813659,-0.0035248338244855,0.0171098168939352,-0.0200701436042785,0.0003886084014084,0.0276842718698084,0.0388837112762033,20
1733390444137644300,-3.313608123143017,-13.980415693825485,4.447681419160962,-2.7039184744521974,9.407939435738324,0.5915149634443223,-0.974287211894989,0.0416829325258731,0.1381934434175491,0.1804329392450392,0.3466835047745947,-0.5913135191784712,-0.7054097136619116,-0.0176056344062089,-0.0117751387879252,0.0039625149220228,-0.0053827762603759,-0.0029407739639282,0.0099772959947586,0.0001859925687313,0.0163019485771656,-0.026969839990139,0.0011437961366027,0.0178209033727645,0.0555989914946258,21
1733390444177644500,-1.7075032983258365,-9.237268396300076,2.7581828563421964,-2.475017656624317,9.462173714751003,0.7155045504022389,0.0137702263891696,0.2721535861492157,0.9097849130630492,0.1941591722384317,0.3407227845411654,-0.5894297295530888,-0.7062455891833936,-0.0225814841687679,-0.0072700297459959,0.0046679195947945,-0.0028414726257324,-0.0048768520355224,0.0059003978967666,0.0068964264355599,0.0185708552598953,-0.0190524909943342,0.0018114428967237,0.0161058430831879,0.0421031117141246,22
1733390444217644500,-0.8708440921306609,-4.358859810891747,1.5703227328181266,-2.0931775631427763,9.561310380807518,0.6085499771364032,0.5204809904098511,0.0286608505994081,1.1884700059890747,0.2081905137001822,0.331470525746259,-0.5992494279180831,-0.6983438538243069,-0.0262957941740751,-0.009949542582035,0.0040042595937848,-0.0046129822731018,-0.0051039457321166,-0.0017605274915695,0.0168933607637882,0.0134541410952806,-0.0163888247430324,0.0018568858504295,0.0095931732535362,0.0350944019958376,23
1733390444257644300,2.0474635674551127,-1.2123036599069834,1.113745597456023,-1.632368562364578,9.665180505126717,0.3000304280673153,1.1157621145248413,0.0125836618244647,1.107398271560669,0.2201670348151482,0.3209028440564676,-0.6178382234689158,-0.6832449358114975,-0.0225481949746608,-0.013789021410048,0.0084608597680926,-0.0044974684715271,-0.0032386779785156,-0.000428020954132,0.0228310786187648,0.0134578105062246,-0.0145382284402847,-0.0017343410290777,0.0090602354206144,0.0132911509886384,24
1733390444297644300,1.2813397867321967,0.3562853809863329,-1.420149707007408,-1.233006986848265,9.727343823572992,-0.1698989408208988,1.1247502565383911,0.0832273066043853,1.0393129587173462,0.2268398878754648,0.3138322534605988,-0.6404465254775538,-0.6632354579356149,-0.0190117824822664,-0.0028559996280819,0.0006886243354529,-0.006618857383728,-0.0013230741024017,-0.001458391547203,0.0189433563500642,0.0149013511836528,-0.023577274942398,-0.0036190850660204,-0.0008544248722493,0.011709288624674,25
1733390444337644300,2.0517109957665203,1.2851333337962627,-1.0469524272520094,-0.8234856171716004,9.756626616680622,-0.5481842826966196,0.8382752537727356,0.2662903964519501,0.9323360919952391,0.2368014212349343,0.3069082270091696,-0.6586022783723685,-0.6449616562040367,-0.004525251686573,-0.002949689514935,0.0038422730285674,-0.0116019248962402,-0.0028782486915588,0.0049871206283569,0.0160750467330217,0.011047787964344,-0.0166495215058326,0.0050439527258276,-0.0002212415352463,0.0031665012069046,26
1733390444377644300,-0.9343132324784994,2.513662152317166,-1.345744746625423,-0.4814083193557336,9.763504685756564,-0.7827006753839552,0.3161835372447967,0.3765197694301605,0.9796499609947203,0.2485880984844899,0.3026292826842723,-0.6695686258111945,-0.6311080800155652,-0.0251658167690038,-0.0077565354295074,0.0071354052051901,-0.0054864287376403,-0.0039322674274444,-0.0037052184343338,0.0123884044587612,0.0087330928072333,-0.005126841494441,0.0126308035105466,-6.72200173139e-05,0.0009749825119972,27
1733390444417644500,1.025858493557945,3.1406928119093176,0.7012754609763622,-0.0611448027532314,9.760163558635115,-0.9517686635397374,0.6137814521789551,0.2373604625463485,0.9323235750198364,0.2638692431042628,0.2951129746703043,-0.6792900909982567,-0.6179371806394389,-0.0170032270252704,-0.0079356599599123,0.0007269736379384,-0.0061840415000915,-8.183717727661133e-05,-0.0022599101066589,0.0205232687294483,-0.003575530834496,-0.0361374813079833,0.0232711844146251,0.0209632930517196,0.0336219913557171,28
1733390444457644500,-1.0326873166646808,4.953843473359942,-0.4912452017046511,0.252327194791194,9.737128720006346,-1.1380088819012044,0.2603119611740112,0.3553932309150696,0.7768602967262268,0.2737346180369262,0.2898398413969776,-0.6884875979618158,-0.6058441865778107,-0.002548120683059,-0.0003400049172341,0.0046690516173839,-0.0079327821731567,0.0003434717655181,-0.0049195885658264,0.0221736151725053,-0.0090205669403076,-0.0639706601291894,0.0347197242081165,-0.0030263620838522,0.0290852247089147,29
1733390444497644500,-0.2005713068570941,9.52827787977755,-0.4976433783091604,0.5181022655026987,9.70808616539538,-1.28648606357947,0.5566825270652771,0.3546643853187561,0.3263057768344879,0.285351588470409,0.2890085965259563,-0.6943101356148448,-0.5941229374163131,-0.0132287284359335,-0.0084364404901862,-0.0006852339720353,-0.002849519252777,-0.0035367310047149,-0.0055308938026428,0.0152787305414676,0.0005567111074924,-0.0426192445427179,0.0285721365362405,0.0011382102496922,0.0031783377751708,30
1733390444537644300,3.8528959096133706,10.798957740807532,-3.526718666642904,0.6253085119746625,9.712915485247969,-1.1994358488969503,-0.9329017996788024,0.301897644996643,-0.1719728708267212,0.2946208745496668,0.289363224512028,-0.6909581266218546,-0.5933332580732082,-0.0329592898488044,-0.0148964710533618,0.0008333669975399,-0.0065466165542602,-0.0040895640850067,-0.002479612827301,0.00844182446599,0.0007255504024215,-0.0418628732174634,0.0188205186277627,0.0089070906855165,0.0136655372589826,31
1733390444577644300,7.638837759372591,9.249446325349806,-3.683418463873863,0.2701080949471331,9.774729844126105,-0.7430122235961258,-1.4415616989135742,-0.3912090361118316,-1.70141863822937,0.2894351450264301,0.2938122941644338,-0.671980221465211,-0.6150968350615379,-0.0027902021538466,-0.0132400905713438,-0.0038214391097426,-0.01156747341156,0.0032945871353149,-0.0067271441221237,0.0075663328170776,-0.0029664780013263,-0.0226379482656717,0.0145823881030082,0.0173092275235801,0.020505612412095,32
1733390444617644300,5.483147918215393,2.1393197211146355,-1.8896108007967471,-0.6034654769463464,9.787545486557484,-0.1008687048803549,-1.7103089094161987,-0.667107343673706,-2.5256495475769043,0.2641160466733494,0.3068794904933912,-0.6410677429413004,-0.6519968286878809,-0.0261269509792327,-0.0339910686016082,-0.0021778692025691,-0.0023689866065979,-0.0032679140567779,-0.0076041221618652,0.0224382225424051,0.0058706463314592,0.0081540803611278,8.65720212459e-05,0.0007113631397485,-0.0004547580301761,33
1733390444657644500,1.180756575129181,-5.354558947703242,1.382127727127075,-1.5003822044990955,9.679683077731728,0.4721813125334679,-0.8885796666145325,-0.4977039098739624,-1.965347170829773,0.2340917090246582,0.320440246314393,-0.6109365770932127,-0.6850368878775606,-0.0378358028829097,-0.0423914231359958,-0.0139768049120903,-0.0014649033546447,-0.0014908015727996,-0.003627061843872,0.0263248328119516,-0.0005375887267291,0.0425578697443008,0.0120298536494374,0.0858851894911378,-0.0232575414687395,34
1733390444697644500,1.248532326629758,-11.730157225179672,0.1926677671909332,-2.142018604809791,9.542903786501288,0.717727852474898,-0.4805302917957306,-0.4624157845973968,-1.5131293535232544,0.2089011367640866,0.3323188904838106,-0.5941129681920349,-0.7021070274405716,-0.0162282474339008,-0.029818907380104,-0.0130217289552092,-0.0083156824111938,-0.0007601976394653,-0.0036216974258422,0.0116814840584993,-0.0212251543998718,-0.0116892687499523,0.0358148589730262,0.0782236418873071,-0.0104511052571237,35
1733390444737644500,-1.578210855719447,-15.300559550726414,0.93831012009494,-2.6198718254998323,9.400797162768244,0.9652293258763848,-0.4978941082954407,-0.3001954555511474,-0.8620418310165405,0.1895298186637713,0.3396549282102216,-0.5791558775198828,-0.716443591509269,0.0005139817949384,-0.0211391858756542,-0.0055519612506031,-0.0127137899398803,0.0005334913730621,-0.0074392706155776,0.0056937728077173,-0.0288769248872995,-0.04364098880589,0.0633202865719795,0.0748199709236621,0.0291252644583582,36
1733390444777644300,-1.9628958172380924,-13.480945246219637,1.749328323750943,-2.680807355716824,9.369799966958164,1.0910924516212197,-0.103312186896801,0.1964430958032608,0.4490444362163543,0.1890961477705404,0.339952518985336,-0.5734126348953303,-0.7210220346837084,0.0295405723154544,-0.0241070669144392,-0.0060887215659022,-0.0102298259735107,0.0086304247379302,-0.0074617862701416,-0.0122020971029996,-0.0259215608239173,-0.0593207884967327,0.0747035816311836,0.0662799599848687,0.0740754361666738,37
1733390444817644300,0.5958003856785595,-10.7024520077765,1.942796447539329,-2.414196400436759,9.451331418219208,1.0071594191111624,0.630054235458374,0.0362411998212337,0.9729306101799012,0.1996478067109382,0.3341595872044947,-0.5805054104387601,-0.7151864000394204,0.0441346950829029,-0.0203992538154125,-0.0105238836258649,-0.0097932815551757,0.0091684758663177,7.18235969543457e-05,-0.0217424593865871,-0.0159698650240898,-0.0588210222810506,0.0644561350345611,0.0491940198231488,0.0857386936925351,38
1733390444857644300,1.3326822898261248,-3.1711826427191494,1.7784703932136297,-1.96190841363594,9.591982582446931,0.5614128167778253,1.5947285890579224,0.2545080482959747,1.3756556510925293,0.2101117688360229,0.3260939406576914,-0.6041842879225146,-0.6960439759692783,0.0442116595804691,-0.0063852742314338,-0.0130885737016797,-0.0102238059043884,0.0031849443912506,0.0067931413650512,-0.0273573771119117,-0.015715280547738,-0.0556412232011556,0.0440149903297424,0.0431437068082392,0.1263389996282756,39
1733390444897644500,-1.1353889086611568,2.672614696910977,-2.7330291258633137,-1.3641574784114956,9.711243168121577,-0.0348178021277184,1.0772812366485596,0.6501072645187378,1.7287622690200806,0.2272237569549849,0.3191070238918245,-0.6324127775247874,-0.6682769822669692,0.05251220241189,0.0048682861961424,-0.0120572643354535,-0.0080291032791137,-0.0028305053710937,0.0069979429244995,-0.0268829390406608,-0.0160226076841354,-0.0399538247257471,0.0323758386075496,0.02662292624861,0.1370285898163914,40
1733390444937644500,0.9438245726674794,5.824458432909846,-0.4882569796741008,-0.6050451473532245,9.78184639813304,-0.3461220796946436,0.6686339378356934,0.6014103889465332,1.942829132080078,0.2567518568158844,0.3067430798965805,-0.65081179902705,-0.6453148189609031,0.0384528413414955,-0.0021772133186459,-0.0038278307765722,0.001544177532196,-0.0057190358638763,0.0028361678123474,-0.0267904829233884,-0.0169664975255727,-0.0300058466851711,0.0123531855642795,0.057912456068769,0.1289329616442322,41
1733390444977644500,1.7458936731271444,8.097327377292514,-1.3849521368980406,-0.0014183026931845,9.787357855030894,-0.6148050920084118,0.5305455327033997,0.1372664421796798,1.1352218389511108,0.276098267213512,0.2940826000182907,-0.6669795811140171,-0.6264369939456184,0.0268987175077199,-0.0119865937158465,-0.0128639368340373,-0.0087948441505432,-0.0112009942531585,0.0150642693042755,-0.0218307003378868,-0.0141764609143137,-0.0692483082711696,0.0057329153642058,0.0566780919682234,0.1640367159903049,42
1733390445017644300,1.88598734960258,5.322161821967363,-0.988058339734748,0.3103933983832597,9.76894132385254,-0.8011588537469506,0.414984792470932,-0.0348394177854061,0.451915442943573,0.2848703297269483,0.2878294111615632,-0.6767584227462176,-0.6148181181035881,0.0279365498572587,0.0162780135869979,0.0044263703748583,-0.0062482357025146,-0.0075254142284393,-0.0023378133773803,-0.0136329559609293,-0.0098710088059306,-0.0560123946011066,-0.0164693184196949,0.0418724447634071,0.102176179882884,43
1733390445057644300,0.7766571574360132,3.750664784672856,-1.4114111047565936,0.3954540466837585,9.758767720362544,-0.8834317710250615,0.1115485057234764,0.0154458070173859,0.1617694497108459,0.285722158348589,0.2853986046152401,-0.6808745272860725,-0.6109994667172929,0.0378549620509147,0.0209084525704383,0.0023789324332028,-0.0040422081947326,-0.0044618248939514,0.0061481744050979,-0.0153692476451396,0.0048627275973558,-0.0502951859980821,-0.0442815013229846,0.0047728404249995,0.0382221786275506,44
1733390445097644300,1.0998396025046706,1.151530919036269,-0.5316822068374604,0.446216192606464,9.755404381409289,-0.8963093727767467,-0.0226082876324653,0.0914085358381271,0.0487986840307712,0.2881838032004776,0.285002364039863,-0.6815223487607835,-0.6093037490344915,0.0151416603475809,0.0191493816673755,-0.0026844022795557,-0.004920482635498,-0.0099286139011383,-0.0045082867145538,-0.0179000236093997,0.0091497246176004,-0.0498918658941984,-0.0501101873815059,0.0237522661831229,0.0454872011944651,45
1733390445137644300,0.8011220288679003,-0.2882207295417785,-0.3881366363424807,0.4308441071579232,9.76028221657872,-0.849515399832651,-0.1854356527328491,0.0637160390615463,-0.107596755027771,0.2891800241762665,0.2857301638764173,-0.6794641315810943,-0.6107878662968838,0.0051358975470066,0.0131246177479624,0.0045795021578669,-0.0011475086212158,-0.0049591064453125,-0.0023856610059738,-0.0131479036062955,0.0063744685612618,-0.0245826525926589,-0.0481743216514587,-0.0105320615388453,0.0479226116478443,46
1733390445177644500,0.5437351578006521,-0.6730261025696993,0.0257084417521953,0.394193415630795,9.769196759918332,-0.7601297279398888,-0.2377482950687408,0.2853801846504211,-0.1190841719508171,0.291154743868485,0.2876775607005266,-0.6752758341424544,-0.6135740701171953,0.0051526757888495,0.0137838032096624,-0.0088860392570495,-0.003003716468811,-0.0023778975009918,-0.0028177946805953,0.0057316590100526,0.0062200175598263,-0.0599304448276758,-0.0460042394697666,0.0032508915547281,0.0675043872132897,47
1733390445217644500,0.2355387580050155,-0.1298012689113616,0.0678617492835968,0.3495441996304318,9.778734403592347,-0.6515976762242615,-0.2837558388710022,0.5638017654418945,-0.1744489073753357,0.2965500888590857,0.2932523639253617,-0.6687490475750868,-0.6154964680723188,0.0050046038813889,0.0289880558848381,0.001094157109037,-0.0065053701400756,-0.0072220563888549,-0.0013915300369262,0.0241593308746814,0.0044005960226058,-0.0838145937621593,-0.0331081598997116,-0.0218155990321189,0.064477878998965,48
1733390445257644300,0.1781673134777694,0.0639303281188011,-0.2013338887274265,0.2848113960223272,9.788509363153576,-0.5238096468314528,-0.3210613131523132,0.8972377777099609,-0.2468661367893219,0.3055081013855802,0.3032378332318023,-0.6593585342037593,-0.616407365262213,-0.0037196453195065,0.0203359238803386,-0.0011569464113563,-0.0021154880523681,-0.0065042972564697,-0.0047149509191513,0.0272381175309419,0.0107081905007362,-0.0362935486525297,-0.0378562919795513,-0.0114482265356928,0.0287898950241506,49
1733390445297644300,0.6142595138896256,0.7147422607928514,-0.5309656195333228,0.2011157524647191,9.795053670230509,-0.4322511609442532,2.9795570299e-05,1.88158655166626,-0.2982959449291229,0.3199630852536911,0.32117284656135,-0.6472145540999499,-0.6128498023580619,-0.0373180843889713,0.0102588441222906,-0.0030058459378778,-0.0045830011367797,-0.0065937340259552,-0.0034942477941513,0.0388555750250816,0.005281738936901,-0.0524731145590543,-0.0455066859722137,0.0140467916615307,0.0572981966279447,50
1733390445337644300,-0.577087794163078,0.6681558661848306,-0.3652256432890892,0.1690257929818704,9.794206113490462,-0.4640666143346577,0.1080933809280395,2.401369333267212,-0.0106693375855684,0.3459986365068121,0.3519200538970424,-0.6323077477723958,-0.5971802383353282,-0.0081607326865196,0.0129454405978322,0.0048827701248228,-0.0112759470939636,0.003208190202713,-0.0021525472402572,0.057864986360073,-0.0020732716657221,-0.0200175366342067,-0.0394221656024456,0.0354652811348438,0.0671484133824706,51
1733390445377644300,-0.2462872935724444,0.2271861228644847,-0.0651402518978342,0.2543676328439265,9.791200501933693,-0.4879200758699327,0.16083824634552,2.8623149394989014,0.1675192564725875,0.3780715228261455,0.3815078267913109,-0.6158967275615543,-0.5763548162434298,-0.0085836425423622,0.0077472697012126,0.0011445574928075,-0.0065517425537109,0.0020285844802856,-0.0012472867965698,0.0636884719133377,-0.0098174884915351,0.0002320551902055,-0.0385856442153453,0.0127427233256399,0.0234552559979259,52
1733390445417644500,0.7650005488466471,-0.487089104938507,-1.136827270901203,0.3358833385465666,9.791853997406363,-0.4209004034336656,-0.3477512896060943,2.198225498199463,-0.0430516935884952,0.4114696779741628,0.4093728300499791,-0.5948729570306088,-0.5560869788667293,0.0106230750679969,0.0122120594605803,-0.005527326837182,-0.0028467178344726,0.0077503025531768,-0.0049382895231246,0.0578174628317356,-0.0173645503818988,0.0157774148464202,-0.0425743460655212,0.0498055027849972,0.0098323888368904,53
1733390445457644500,0.7803885259840637,-0.5326537552833557,-1.5144213973760603,0.3131632284227758,9.799410696396231,-0.2094038710016757,-0.6926398277282715,1.8878467082977293,-0.2174753993749618,0.4391418056798552,0.4306250734032224,-0.5702970031983019,-0.5444977286567396,0.0099511593580245,0.0103119472041726,-0.0043163211084902,-0.0064525604248046,-0.0009364187717437,-0.0017183423042297,0.0454543270170688,-0.0137496814131736,-0.0019727613776922,-0.0460503473877906,0.0404581940513104,0.0092208328098058,54
1733390445497644500,-0.4601308092556893,-0.8295277468800544,0.4354810827761888,0.211433166605886,9.80269512489438,0.1811754640514962,-0.9767225980758668,1.8311353921890257,-0.2049091905355453,0.4624988701000507,0.4424220684101942,-0.5431623476216664,-0.5434445926585783,-0.0107882069423794,0.0140500133857131,0.0039388788864016,-0.0109970569610595,-0.0074462890625,0.0002447366714477,0.0374825224280357,-0.0167827829718589,-0.0015530746608972,-0.0468806847929954,0.0387189491685479,0.0268574656568467,55
1733390445537644300,-0.5309343110796064,-0.8721867389112711,-0.1272298840533942,0.1191313698044046,9.793881119319796,0.4859114029286429,-0.6117848753929138,1.97334098815918,-0.1597686856985092,0.4884831303485679,0.4586240714404787,-0.5146740468285732,-0.5349382974814381,-0.0016863218042999,0.0134676331654191,0.0016396390274167,-0.0019680261611938,0.0050934851169586,0.0006656199693679,0.0346665531396865,-0.0183856729418039,-0.022676526710391,-0.0516966991126537,0.0384359675087034,0.0296706233814358,56
1733390445577644300,-1.1626473563343285,-1.163210250914097,-0.4187842149972915,0.0084923889586265,9.783832603514194,0.6685296679332852,-0.0583871342241764,1.8700923919677728,0.0357168093323707,0.5171071441650491,0.4825601256928695,-0.4827527285702604,-0.5164162561222319,0.0058786533772945,0.00910553522408,-0.0103612970560789,-0.0081371665000915,0.0011977851390838,0.0009771585464477,0.0413757190108299,-0.0127599155530333,-0.039696635094285,-0.0535837821662426,0.0391890508983284,0.0650752603702247,57
1733390445617644300,-1.8301184551253915,-1.009880222377181,-0.8342728955805301,0.0361131620007683,9.787173146113751,0.616699527452886,0.209229975938797,0.6742938160896301,0.2954012751579284,0.5267063108396021,0.4928132643450037,-0.4750706914279544,-0.5040072790195773,-0.0122556090354919,0.0169070530682802,0.003258574521169,-0.007352590560913,-0.0049101114273071,0.0032393932342529,0.0458934605121612,-0.0082940384745597,-0.0257312381058931,-0.0604609176516532,0.0363250397693365,0.0428274804659187,58
1733390445657644500,-1.8142073308967053,-1.1401146220088003,-0.5201501744758338,0.2355304651007056,9.782585233801605,0.6449482282724232,-0.4060989618301391,3.208847761154175,0.9369860887527466,0.5513581471767128,0.5052838569821475,-0.4602227885281733,-0.4784219187781579,-0.0045223217457532,0.0114086903631687,-0.0071897385641932,-0.0027771592140197,0.0020740032196044,0.0019123405218124,0.0469618141651153,-0.0110358987003564,-0.0266425077319145,-0.0755636766552925,0.032787732488662,0.0071413961872458,59
1733390445697644500,-1.2878192118793723,-1.1721762321799991,-2.17288062993288,0.5349921716356649,9.736983758577704,1.036981433662027,-1.3605332374572754,2.5446131229400635,1.0784732103347778,0.5973931542893983,0.514584047058351,-0.4270034165152985,-0.4427107865712886,-0.0089117437601089,0.0062937694601714,-0.0045870980247855,-0.0067234635353088,-0.0026799142360687,0.0013202428817749,0.0493554472923278,-0.0113782463595271,-0.0328694194227457,-0.0838559195399284,0.0508503356628119,0.0137865332901477,60
1733390445737644500,-1.0649519751273095,-1.5155290663570165,0.0140996908925473,0.8746131623405963,9.617806175011395,1.703889345612377,-1.5689799785614014,2.756292819976806,1.3612782955169678,0.6439193431247872,0.5065018234737889,-0.3957040846732719,-0.4150205233490696,-0.0123078068718314,0.0069571631029248,-0.002494519110769,-0.006076693534851,-0.0042743682861328,0.0038357377052307,0.050990343093872,-0.0134551143273711,-0.0336082550913095,-0.0983460247516632,0.0589209024589508,0.0052118894293904,61
1733390445777644300,-0.912622575000301,-1.259496788236499,-0.5922463464587927,1.18915301287882,9.43674292089641,2.3883463582567868,-1.4711848497390747,2.9118173122406006,1.545773983001709,0.6928793267454314,0.4994593615987608,-0.3588433819064703,-0.3764174699877345,-0.0159715190529823,0.0028769872151315,-0.0029613045044243,-0.0038832426071166,-0.0005896091461181,0.0066008120775222,0.0533878803253173,-0.0131971072405576,-0.0166126966267824,-0.1273421943187713,0.0671060355454683,-0.0106073187321424,62
1733390445817644300,0.7524372006759047,-0.8430378013163804,-0.2697492533057928,1.478360196174681,9.185932761338352,3.098947427591681,-1.7013055086135864,1.9302383661270144,1.2921912670135498,0.7345956934143756,0.4834579802176585,-0.329038035881276,-0.3440516838912048,-0.0374065041542053,-0.006942993029952,-0.0010964926332235,-0.0037053227424621,-0.0034179985523223,0.0059799402952194,0.0405461490154266,0.0028580110520124,-0.0387456179797649,-0.1697890311479568,0.0773581110991537,-0.0532642649367451,63
1733390445857644300,-0.1014119175121188,-0.4346528152585029,1.1658987593457102,1.621281058900058,8.874811633202434,3.844416835081577,-1.6558701992034912,2.486131429672241,1.2773466110229492,0.7721074778672768,0.4644305546604789,-0.2971423182410072,-0.316007362524874,-0.0206347145140171,0.0022025681100785,-0.0037958726752549,-0.0111717581748962,-0.0002025067806243,0.0060179382562637,0.0109388157725334,0.025225332006812,-0.0782411775439977,-0.2391728460788726,0.082795918238908,-0.1281817048855126,64
1733390445897644500,0.5287314672730863,-0.0611672931462526,0.5216837407186627,1.6658536294676365,8.49055220361948,4.615823816904426,-1.8898515701293943,2.496852397918701,1.3950989246368408,0.8104613195076114,0.4447605096492051,-0.2585470391652501,-0.2801675901123738,0.0066131530329585,0.0024752228055149,0.0014409672003239,-0.0095734596252441,0.00139781832695,-0.0032571107149124,-0.0433803014457225,0.0476744882762432,-0.0174444712758064,-0.3275885879993438,0.0827192728061229,-0.1755148262076079,65
1733390445937644500,1.79448556233868,0.0504062451571226,1.622279130026698,1.4786872361719607,8.060100347182154,5.386895283162594,-1.6555793285369873,2.696399688720703,0.5271486043930054,0.8436660509083713,0.4231554435266542,-0.2151377073955269,-0.2507643862251444,-0.0062371315434575,-0.0075376769527792,-0.0144468527287244,0.0006843209266662,0.0067314803600311,-0.0101807117462158,-0.1023368909955024,0.0506045669317245,-0.0524865585625171,-0.3880404829978943,0.0693657971709966,-0.1559748439572751,66
1733390445977644500,0.2486130148399621,-0.1818108576118946,0.1031090768188238,1.0447045752599835,7.732973256140947,5.939706275811791,-1.2036937475204468,1.843291401863098,0.2508710026741028,0.8661879107076428,0.4101710762425108,-0.1700557458661774,-0.2292582980849622,0.0691196769475936,-0.0037469337694346,-0.0166363697499036,-0.0088678002357482,0.0119089782238006,-0.0036146640777587,-0.166417509317398,0.045867945998907,-0.066022916483879,-0.4239576756954193,0.0366725380327552,-0.1234871173284947,67
1733390446017644300,-0.9376657577767968,-0.5450771835267544,1.4774118094086646,0.8825989734627306,7.427509715375304,6.342201034787297,-1.1050909757614136,0.7244243621826172,0.3876722455024719,0.8800986372140553,0.3927208509740552,-0.1496932907069885,-0.2208816653139059,0.0237838830798864,-0.0283189080655574,-0.0214530285447835,-0.0023959279060363,-0.0053320229053497,0.0021546483039855,-0.2347838878631591,0.0598901845514774,-0.0346282457888126,-0.4662566483020782,0.0235885269887745,-0.1193409574344754,68
1733390446057644300,0.137760045896098,-0.1593447587817907,1.0246271251320838,0.7374702254295349,7.151161794456839,6.669888097798824,-1.0104371309280396,1.2540767192840576,0.4419879019260406,0.8929624236720745,0.3783166794925156,-0.1296411378264585,-0.2066103681342817,-0.0208898447453975,-0.0424959808588027,-0.0243177264928817,-0.0008715391159057,-0.0127572119235992,0.014500543475151,-0.2832588851451874,0.0552720464766025,-0.0375245517522096,-0.5245118737220764,0.0418400037985295,-0.0666344725109636,69
1733390446097644300,-0.7493859964117408,-0.129125561606884,0.9124749101579188,0.5095169175848364,6.871945624625682,6.977616660887002,-0.9544105529785156,1.264931082725525,0.4334850311279297,0.904740620919745,0.3645706808650854,-0.1064366616587822,-0.1928828648210526,-0.0423796884715557,-0.0413751080632209,-0.0056126145645976,-0.0010280609130859,-0.0124140977859497,0.0180603265762329,-0.2748071253299713,0.0278525855392217,0.0002928454667329,-0.5077453851699829,0.1398386057358235,0.2042486801955848,70
1733390446137644300,-0.8995908786654472,-0.0649812984764575,0.3919797947019338,0.3172014344302937,6.596812340193987,7.249264441290498,-0.8931534886360168,0.7680679559707642,0.5680676102638245,0.9155033499123978,0.3507955764307793,-0.0856320410949384,-0.1773786550063246,-0.0811116322875022,-0.0259368177503347,-0.0005032735643908,-0.0005499124526977,-0.0136941671371459,0.022236943244934,-0.2286768704652786,-0.0063393581658601,-0.0013116671204566,-0.4711853563785553,0.1688965040463954,0.1787980125967413,71
1733390446177644500,-0.206255380375497,0.0199643451422452,0.1565934142470359,0.380283767417632,6.36761604655087,7.4484385216355316,-0.7323688864707947,0.0554824396967887,0.4866657555103302,0.9230501966903844,0.3369607368864289,-0.081809366528157,-0.1665626595636193,-0.0496780835092067,-0.019115237519145,0.0058415746316313,0.0054242610931396,0.001877874135971,0.0001666545867919,-0.1864197552204132,-0.0079739168286323,0.0116384153455495,-0.4610214531421661,0.255954390578717,0.1494269566837698,72
1733390446217644500,-0.2620742616984993,0.2347697098612785,0.1692185025423765,0.4094672283366322,6.096097445484996,7.670743886721134,-0.9885352849960328,0.5106348991394043,0.3469437658786773,0.9304657705592854,0.3208166216517353,-0.077314860535419,-0.1591619940278283,-0.0406680777668952,-0.0025465935468673,0.0159543287009,-0.0056555271148681,-0.0027990937232971,0.0010960102081298,-0.1357657015323639,0.006067968904972,-0.0306190101474523,-0.4268344044685364,0.1186925765283405,-0.0193211518678814,73
1733390446257644300,-0.0514926156217232,0.1380155550271272,0.5869926637142896,0.2714598748822696,5.795863622066379,7.905988812878728,-0.8474863171577454,0.8013278245925903,0.3612503111362457,0.9385439788692772,0.3048218865522907,-0.0631693601675953,-0.1490923807297925,-0.0107463952153921,0.0092769898474216,0.0429332815110683,-0.0124769806861877,0.0040812194347381,-0.0087942034006118,-0.1650817841291427,0.0619055479764938,-0.067781742849946,-0.4042282700538635,0.0075549454241991,-0.2452843818739056,74
1733390446297644300,0.2914309785588644,0.2160112333774566,0.0130436059683561,0.1601752913217991,5.55117165312767,8.082649448120593,-0.7251203656196594,0.2139771282672882,0.1785260587930679,0.9445011181089444,0.2918183356132063,-0.0523605475016696,-0.141485037466524,0.0313611105084419,-0.0166525058448314,0.0164947509765625,0.0037753582000732,0.0160616934299469,-0.0082061886787414,-0.1686461418867111,0.0639385879039764,-0.02929915972054,-0.3155363798141479,0.0494172341197729,-0.1033492970491759,75
1733390446337644300,-0.3567755391234531,0.0536462499916553,0.85443364007771,0.1438412837722338,5.324628504341841,8.233955861875414,-0.6193692684173584,0.4448186457157135,0.342229813337326,0.9493596495844564,0.2791151702375941,-0.0477474792496596,-0.1361289875373606,0.0236227624118328,-0.0183806847780942,-0.0004246438620612,0.0009648203849792,-0.0098931193351745,0.0142937302589416,-0.1565074175596237,0.0568692684173584,-0.0285422038733959,-0.2330217659473419,0.0123994628459215,-0.1090573907639831,76
1733390446377644300,0.5445921034235507,0.1978857941001653,0.6137795483529568,0.0187934758736111,5.146421224179863,8.347717265611886,-0.4416545629501343,0.5995876789093018,0.2400790154933929,0.953711081897339,0.2702279817911096,-0.0369014320383467,-0.1266897077701788,-0.0537686981260776,-0.0235807187855243,0.0367134734988212,0.0037539601325988,-0.0300555825233459,0.0197688192129135,-0.141098216176033,0.0494500957429409,-0.0057937809705734,-0.1759103536605835,0.0025211890406906,0.0245133547826902,77
1733390446417644500,-0.1655923662007786,0.1033171666115522,0.5403653525739908,-0.064699965351005,5.001868960860372,8.43489812093675,-0.4216322600841522,0.2450012266635894,0.137426495552063,0.9565658997350692,0.2627272670364367,-0.0302368326123253,-0.1226454473850788,-0.1322006583213806,-0.0347198694944381,0.0368373729288578,0.0185936689376831,-0.0272422432899475,0.0326254516839981,-0.0658610239624977,0.0141317658126354,0.0690887337952852,-0.1088507175445556,0.1089414362341165,0.1523632384645286,78
1733390446457644500,0.3933699338860809,-0.0982367946073412,0.6287549991667271,-0.2055747411675751,4.863745561544597,8.513055127328634,-0.4048459529876709,0.774635374546051,0.0860959962010383,0.9593055827495884,0.2560056716772902,-0.0203983830170974,-0.1173789509143557,-0.1648336946964264,-0.0108292903751134,0.0680699273943901,0.0009371042251586,-0.0306229889392852,0.0254815369844436,-0.0259905867278575,0.0091184508055448,-0.0314244813114404,-0.1257390230894088,0.0535401592686772,-0.0110105657707899,79
1733390446497644500,-0.0731891913840547,0.0066124038770794,0.2522597738444805,-0.5130909036140888,4.724928627006709,8.578004861623048,-0.3809966444969177,0.8799837827682495,-0.0436306297779083,0.9615348495875484,0.2502766520019941,-0.0022497229181729,-0.1131689337956325,-0.1901318579912185,-0.0066781686618924,0.1048343330621719,0.0022426843643188,-0.0188332498073577,0.012040376663208,0.0287617854773998,0.0120091196149587,-0.0377273808479309,-0.1228521838784217,0.1485666135273873,0.0930238365988712,80
1733390446537644300,-0.2123272111024707,0.0665618456661701,0.1060913075000047,-0.7363750506039708,4.622182538281381,8.617630769568681,-0.2168523669242859,0.3980266153812408,0.0737815722823143,0.9630455436878654,0.2459672422753128,0.0111003760221104,-0.1091792193951724,-0.1928083449602127,-0.000950401299633,0.113559253513813,-0.0004960298538208,-0.0091703236103057,0.0035321116447448,0.0616174973547458,-0.0004901383072137,0.0077589435636997,-0.1333710998296737,0.1040434350594878,-0.1011675508296117,81
1733390446577644300,-2.687515913444757,-0.1333589613929391,2.4692221220880746,-0.7221264527600258,4.613359472617507,8.623563082227111,0.4684605598449707,-0.8188769817352295,0.4037507176399231,0.9635097569776044,0.2453512463054166,0.0111096215094162,-0.106435053649444,-0.1629215478897094,0.0065903924405574,0.1334936767816543,0.0005643963813781,0.0042365789413452,-0.0145598649978637,0.0514463409781456,0.028870090842247,-0.1029360583394765,-0.1485268771648407,0.0511406969115138,-0.1045843187368474,82
1733390446617644300,-0.3937113677348941,0.0978705916434526,-0.4533072468459606,-0.224890504474286,4.812188100525736,8.54181769595444,0.1928449273109436,-0.7767511010169983,0.6696129441261292,0.962140238213413,0.2535503348806583,-0.0141674029646285,-0.0989833183481446,-0.1589387953281402,-0.0227777231484651,0.1250892728567123,0.005895972251892,0.0108538120985031,-0.0240472555160522,0.0982177108526229,0.0479320585727691,-0.0632125352382659,-0.0626015961170196,0.1160958380334079,0.0755277173342183,83
1733390446657644500,2.990050707282126,1.1162369028151036,1.7245967642068862,-0.1894332239828072,4.827369010783731,8.534108436751366,0.0754438564181327,0.865837574005127,0.0410216711461544,0.9627749389060712,0.2543409434249527,-0.013865158229706,-0.0904590231805161,-0.1276927143335342,-0.025416862219572,0.1163313314318656,-0.0032055974006652,0.0124402195215225,-0.0116662234067916,0.1127527952194213,0.0534566715359687,-0.0336368966639041,-0.0895755365490913,0.0625315672367811,-0.171575039073266,84
1733390446697644500,-0.0635164135556668,0.2138426571667194,1.6126473783284423,-0.3638485827822238,4.966162272185087,8.448386548063159,0.7449257373809814,-0.0455086193978786,-0.0724095553159713,0.9605682655679002,0.2631052503502354,-0.0052724766390176,-0.0897575749984566,-0.1334134489297866,-0.0185140017420053,0.1327252984046936,-0.0054807662963867,0.0160252451896667,-0.0095835179090499,0.1183232814073562,0.0734381899237632,-0.0408861371397972,-0.073780857026577,0.0981726433299481,0.0093511081259697,85
1733390446737644500,-0.891312587402761,0.3005138094037771,-1.1238713432163,-0.3955708049312234,5.157817062941193,8.33131616590917,0.2948396205902099,0.1082915216684341,0.1975219249725341,0.957657318247626,0.2742351590895012,-0.0040209261673066,-0.0875860278333267,-0.0983188524842262,-0.0244333036243915,0.107040099799633,-0.0109062194824218,0.0183808803558349,-0.0081416964530944,0.1379614174365997,0.1027068346738815,-0.0619704262226819,0.0053504779934883,0.0183116094991564,-0.0655251960948109,86
1733390446777644300,-0.243317027323693,0.2627560334175825,-1.4315420386373996,-0.3745367116656154,5.185848394683003,8.314871811586618,-0.0867365598678588,0.1386601477861404,0.2923132181167602,0.9576602481799158,0.2757620146930211,-0.0038528757558812,-0.0826285107092799,-0.1298842281103134,-0.0382306091487407,0.1012401282787323,-0.0197892785072326,0.0093088895082473,-0.0120249837636947,0.0988979786634445,0.1634525954723358,-0.0793307263463735,0.0172577407211065,-0.0695249332554638,-0.3873545460540801,87
1733390446817644300,-0.5825020012315363,-0.1358990012645721,-0.8201976084768772,-0.2818047615522518,5.134842430067062,8.350111467272043,-0.2401735186576843,-0.2136909961700439,0.3889678120613098,0.9591165386691004,0.272429330563339,-0.0067122167151198,-0.0763715207159207,-0.0920505672693252,-0.0444884523749351,0.0931780114769935,-0.0240612626075744,0.0178044736385345,-0.0185403674840927,0.0790120363235473,0.1495699137449264,-0.0409060108840465,0.0834895372390747,-0.0677988401152193,-0.21775913649071,88
1733390446857644300,0.2498671978858299,-0.1423059456974268,-1.149893673223257,-0.0955908375426661,5.031864286151528,8.416744624608755,-0.3896718621253967,-0.4982183873653412,0.2978229224681854,0.9612536538209576,0.2657979945099631,-0.0147269919092521,-0.0715962926598077,-0.0856014564633369,-0.0664987862110138,0.0593289695680141,-0.0113149881362915,0.024291917681694,-0.0148554891347885,0.0596944689750671,0.1476346552371978,0.0011807342171669,0.1205270886421203,-0.1112586271353065,-0.2351028690720908,89
1733390446897644500,0.0148460705467499,-0.2716597631022334,-0.3686012572020292,0.1744454068778082,4.878253394846618,8.505445236846803,-0.482873260974884,-0.6100738048553467,0.5042406320571899,0.9638240134043544,0.2561048987477542,-0.0274455028710303,-0.0685593827875675,-0.0693785473704338,-0.0391806103289127,0.0397948808968067,-0.017368733882904,0.0101776719093322,0.0014868974685668,-0.0018260292708873,0.1119645833969116,0.0192377844333648,0.1426409780979156,-0.1130520864233374,-0.2963047768739983,90
1733390446937644500,0.3412735436849295,0.1989040312319993,-0.1174298631161451,0.4332506568429991,4.667909393450618,8.613553144866227,-0.709979772567749,-0.3187708556652069,0.5983989834785461,0.9672886530052552,0.243727262262269,-0.0377892552241592,-0.0593428958974438,-0.0407445095479488,-0.0227628089487552,0.0311632435768842,-0.0213002562522888,0.0035525262355804,-0.0014119297266006,-0.0553549379110336,0.1174686178565025,-0.0669616586387157,0.1310095936059951,-0.1234640287138521,-0.1953340089918114,91
1733390446977644500,0.2031753153430298,0.3325675285294652,-0.071938862529397,0.6057655340496451,4.387002201792598,8.749722779765724,-0.9002785086631775,-0.2411452084779739,0.2996399998664856,0.9712374943796794,0.2278846836340329,-0.0442365927790097,-0.0530039594110449,-0.0222736224532127,-0.0090804453939199,0.0168788470327854,-0.0190078616142272,0.0048994868993759,-0.0075592845678329,-0.0977322906255722,0.1168691888451576,0.036421558946371,0.119316466152668,-0.1113943823441863,-0.1587602734247222,92
1733390447017644300,0.2486966014701873,-0.127034726807475,0.9093950643211602,0.7130242778938263,4.025542925299704,8.913864709696172,-0.9574387669563292,-0.0721132606267929,0.2241460084915161,0.9757074888750056,0.207915043717289,-0.0478614555129759,-0.049754257574107,-0.0275168549269437,-0.0057385521940886,-0.0008974878583103,-0.0160903334617614,0.0097445994615554,-0.0037998706102371,-0.1631972789764404,0.086802951991558,-0.0298205532461404,0.0890018790960311,-0.0938439664758741,-0.1642364398134872,93
1733390447057644300,0.3418031935822218,0.357918827407062,-0.0807002611339092,0.7462118964202702,3.748286657364666,9.03127353002429,-0.6253185868263245,0.0156504288315773,0.3029423654079437,0.9789614894075366,0.192973707779027,-0.0478994383550116,-0.0458377931736216,0.0218946374952793,0.003313532564789,-0.0201082676649093,-0.0143386125564575,0.0171234011650085,-0.0092414021492004,-0.2142033576965332,0.0540690645575523,-0.0109328974246978,0.058440200984478,-0.0835674871332943,-0.1430168887120671,94
1733390447097644300,0.4771884001057594,0.2914011131435632,-0.5289718519002199,0.8049066619731485,3.5303432868808504,9.113681179597974,-0.5114935636520386,-0.1296495050191879,0.351235419511795,0.9813644928649896,0.1814153130374706,-0.0491941407019965,-0.0399005104960939,0.0281541310250759,-0.0014306757366284,-0.0379867330193519,-0.0164160132408142,0.0017971843481063,-0.0103694051504135,-0.2705817222595215,0.0316274128854274,0.00456920761168,-0.0051000788807868,-0.1211167349353432,-0.2255003982672467,95
1733390447137644300,0.3428971262987703,0.5881535241872072,-0.0767863025605678,0.8678207257214933,3.385772026599944,9.162631380727886,-0.316175639629364,0.0878156349062919,0.3431216776371002,0.9828755825186556,0.1738996815391911,-0.0509381731960989,-0.033463796558806,0.0015600714832544,-0.0013414067216217,-0.0396839678287506,-0.0120015740394592,-0.0059616863727569,-0.0054550170898437,-0.3001972138881683,0.0002337247133255,0.0148655606985092,-0.0437168292701244,-0.0611763532355427,-0.0818201868082396,96
1733390447177644500,0.0440694433510303,-0.2595095988422632,-0.1353127258092165,0.8964028232138603,3.2211367601946,9.219062877523898,-0.4915498197078705,0.116627812385559,0.475212961435318,0.984582908633331,0.1655040415870538,-0.050665610812779,-0.0252602301361764,0.0535100884735584,0.0210361238569021,-0.0427325516939163,-0.0145216584205627,0.0035333931446075,-0.0044475048780441,-0.283170610666275,-0.0348757617175579,0.0012415244936943,-0.0502638146281242,-0.0364250660777092,-0.0402778690483421,97
1733390447217644500,0.5325662961956114,-0.0439335420116782,-0.0212134684205055,0.7989091020587831,3.007655922077596,9.299792364752292,-0.608496904373169,0.4813335239887237,0.1725341528654098,0.9868125818444108,0.1545483497891825,-0.044242123552223,-0.0189303569615246,0.1106870919466018,0.0259897634387016,-0.0491714105010032,-0.0082616209983825,0.0124797523021698,-0.0144442617893219,-0.2461334466934204,-0.0335828103125095,-0.0613631079792976,-0.0369988605380058,-0.0407334307961165,0.0626911417126655,98
1733390447257644300,0.6403138464700431,0.1991889856532216,-0.5942383970588445,0.645671793306619,2.726974355868995,9.397717901453376,-0.8853664994239807,0.6683174967765808,0.6200918555259705,0.9894665748130808,0.1401554393378296,-0.0347301665705078,-0.0103045570089733,0.1268117278814315,0.010821409523487,-0.0579385347664356,-0.0013188123703002,0.007684513926506,-0.0174397081136703,-0.1928847581148147,-0.0209318362176418,-0.046996144452691,-0.0075852684676647,-0.0388245284348726,0.0919924203250557,99
1733390447297644300,0.6950834744684398,-0.377265479042381,-0.1869219170153141,0.4442572040257975,2.343353954841941,9.512187745720148,-0.99850195646286,0.7007359862327576,0.7371350526809692,0.9924547370491597,0.1204868904661662,-0.0222781697014443,0.0044879469912415,0.1024366244673729,0.0005457092192955,-0.0677238553762435,-1.8596649169921875e-05,-0.008266732096672,-0.0025508254766464,-0.1744436919689178,-0.0202548652887344,-0.0232785842567682,-0.0057269418612122,0.0072042322903871,0.0007448270179331,100
1733390447337644300,0.4368414113439619,-0.9261581292040646,-0.4686100299179553,0.2302430444833822,1.9996582985766231,9.597850597697496,-0.7036307454109192,0.8615041375160217,1.2639490365982056,0.9943499894031016,0.1027650033684328,-0.0092279359205622,0.0249436085050659,0.0796756520867347,0.0154640981927514,-0.0635261163115501,-0.0103564858436584,-0.020417645573616,0.0122876912355422,-0.1837843060493469,-0.0189231354743242,-0.0329167656958103,-0.0030269920825958,0.0113832715407013,-0.0364353134770877,101
1733390447377644300,0.5028856263441964,-0.8996658435977994,-0.3217050659924745,0.1197564429001882,1.803776099383831,9.638590604364872,-0.2439960837364196,0.0825330838561058,1.537782907485962,0.9941609739458274,0.0925617226474084,-0.0009785720345325,0.0554551171981378,0.08099976927042,0.0149592692032456,-0.061493657529354,-0.0093902349472045,-0.0071229934692382,-0.0002009123563766,-0.1830648183822631,-0.0208595544099807,0.0224088156849145,0.014668108895421,0.0086158526539802,0.0411187951182015,102
1733390447417644500,1.60239427986145,-0.7853989745572209,0.7279343353211879,0.1236755525726824,1.7830328788235783,9.642400518041848,0.1359522342681884,0.6100813746452332,1.161213517189026,0.9924516826236972,0.0915042584242268,0.001173669596047,0.0816411043634255,0.0438393503427505,-0.0120811900123953,-0.0775738880038261,0.0113195180892944,-0.0062872767448425,-0.0006005764007568,-0.1615627408027649,-0.0186507888138294,0.0207236390769481,0.0539972558617591,-0.0377085300169885,0.1053745923317037,103
1733390447457644500,0.4894666842574253,-1.4171047863535582,-0.9612544308960436,-0.0885875894507858,1.8652694096140563,9.62721697743535,0.273263931274414,0.7175685167312622,1.7128623723983765,0.989208593723328,0.0944386573612131,0.0151617133661978,0.1109861958539809,0.0180812571197748,-0.0125832483172416,-0.0766794681549072,-0.0023623704910278,-0.0219796597957611,0.0212506651878356,-0.1163753420114517,-0.0170253440737724,0.0393967753648757,0.0759884491562843,-0.0304347396217286,0.108060287751723,104
1733390447497644500,0.3446597155245021,-0.5750846376471221,-1.7619313463449475,-0.0456837923456449,1.990805860687792,9.602342648419738,0.3974528312683105,-0.1710400134325027,1.562646985054016,0.9841490123941756,0.1006040921283982,0.0171924369480789,0.1450308275992043,-0.0441983640193939,0.0216977056115865,-0.0399912260472774,-0.0026540160179138,-0.0334636121988296,0.0230414867401123,-0.0517339780926704,-0.0406548753380775,0.0563297899872064,0.0963367447257042,0.0199259128279984,0.0809196943045593,105
1733390447537644300,-0.2054479729827493,-0.9934604179739952,-1.9361977799266576,0.1443958123824559,2.1339980877004563,9.57055810162425,0.1784818023443222,-0.2613365650177002,0.9599231481552124,0.979562704675032,0.1091347821903439,0.0112661574390236,0.1685809490734363,-0.0866819024085998,0.0222132951021194,-0.0320785790681839,-0.0075172185897827,-0.0214140564203262,0.0025029331445693,-0.0050657428801059,-0.0525558441877365,0.0238777191936969,0.1067563891410827,0.0157363521836698,0.0055790239750407,106
1733390447577644300,-1.051367686410993,-1.582705244529247,-2.0572627846747635,0.4070281280888244,2.0681294849954543,9.577450199225543,-0.4713080823421478,-0.4444276392459869,1.097186803817749,0.9763993143642568,0.1081000898161116,-0.0005540566024101,0.1869718932071881,-0.0391407534480094,0.0256770551204681,-0.0221351981163024,-0.0129957199096679,0.0091746598482131,-0.0154860019683837,0.0377712063491344,-0.0658874660730362,0.0414367567598819,0.1017888337373733,0.0670383771367371,-0.0242055081096477,107
1733390447617644300,-1.6548640334196387,-1.9519361779369413,-1.4968044921427963,0.6506460745878517,1.765936782594025,9.624370940354463,-0.9848011136054992,-0.3784002363681793,1.1167346239089966,0.9733811327538712,0.095425726769503,-0.0136962567553383,0.2079317535061174,-0.0037838274147361,0.0168448407202959,-0.0125765809789299,-0.0116140842437744,0.0279772132635116,-0.0201792120933532,0.0777382552623748,-0.0668571293354034,0.0058563248127698,0.0860588252544403,0.0856764421112835,-0.0401339122666977,108
1733390447657644500,-1.7110580681979657,-1.7224799181833863,-0.7245464464485645,0.8989748656589537,1.3024471644297242,9.67811246741414,-1.1308823823928833,-0.5047540068626404,1.282026290893555,0.9699014161144868,0.0754277626229906,-0.0293980588303425,0.2296467738689999,0.049400296062231,0.0124169094488024,-0.0401451587677001,-0.0044798851013183,0.0365362763404846,-0.0191052556037902,0.1089591681957244,-0.0585847720503807,-0.0468090974479913,0.0702231377363205,0.1154531562156975,-0.0520372073598206,109
1733390447697644500,-1.178869153947383,-0.9460939789041876,-0.2260176636070013,1.1178170116133987,0.7955585495218634,9.710198627504706,-1.2966597080230713,-0.3849324584007263,1.220959186553955,0.964941134440592,0.0538196930748556,-0.0449565980809062,0.2529248188059148,0.0868012011051178,0.0019271973287686,-0.0599390342831611,-0.0026754140853881,0.0232556015253067,-0.0178649872541427,0.1378297805786132,-0.0392230823636055,-0.0238806418031454,0.0375323817133903,0.131622639119625,-0.1017125535596627,110
1733390447737644500,-0.7531744289092719,-0.4358822839882224,0.7059802776664496,1.273464377181977,0.2159149881950579,9.721216865125298,-1.3830937147140503,-0.2845838665962219,1.1137529611587524,0.959662993440135,0.0284331579192264,-0.0595604214669791,0.2732963975405607,0.0794564709067344,-0.0107938181608915,-0.0624446049332618,0.0029821991920471,0.002275139093399,-0.0082583278417587,0.1346782594919204,-0.0035879500210285,-0.0507499440282583,-0.0244449637830257,0.1015584863759577,-0.185974041705951,111
1733390447777644300,-0.5251688063554465,-0.2078688799867406,1.88608087310493,1.3284234633378684,-0.358659087847732,9.709636317446828,-1.2218387126922607,-0.0518721975386142,1.169728398323059,0.9533791084991016,0.0024547759331065,-0.0702872096467207,0.2934653022389211,0.0750350877642631,0.008592982776463,-0.078634425997734,0.0005032420158386,0.0001772344112396,0.0070393681526184,0.1167481169104576,0.0367877185344696,-0.0300356573015451,-0.0748499780893325,0.1096155361033976,-0.1360806049091741,112
1733390447817644300,0.4610165060490369,0.7858604545891285,2.7805308817505834,1.2970758466549217,-0.8011234901726245,9.687423901116848,-0.917045831680298,0.2467957437038421,0.8830403089523315,0.9472164719145338,-0.0182355932446632,-0.0758044015908583,0.3109697507253045,0.121332012116909,0.0371420718729496,-0.0659308210015297,-0.009177029132843,-0.0018393397331237,0.0130304843187332,0.0973422080278396,0.0563292168080806,-0.0223795895904302,-0.101242572069168,0.0551844193443656,-0.058234052705951,113
1733390447857644300,1.3598013290286064,3.0524229923039674,2.631166249713301,1.0372433725338428,-1.3025607078067958,9.66425637601912,-1.0617890357971191,0.6191087365150452,0.7005495429039001,0.9418312165885347,-0.0456875600457474,-0.0719215886455956,0.3251060552866663,0.1357431858778,0.0692383870482444,-0.0599775873124599,-0.0031835436820983,-0.007956326007843,0.0216825604438781,0.0708906129002571,0.0512128174304962,-0.0100321491926908,-0.0748983472585678,0.0362291051141917,-0.0452749284169636,114
1733390447897644500,2.656771815612912,3.889441387200356,2.592311326140165,0.9101398182738571,-1.578288451000303,9.635924015504122,-0.4237677752971649,0.2118738293647766,-0.101822443306446,0.9394960057937376,-0.0608358176975815,-0.0707361085324291,0.3296097197936737,0.1739488840103149,0.0907423943281173,-0.0614726170897483,0.0036984682083129,-0.0016030371189117,0.0128536373376846,0.0147056840360164,0.048471849411726,-0.0279541748523712,-0.0162876285612583,-0.0087932550475001,-0.0860321784800849,115
1733390447937644500,1.2435295499064027,1.9669494765430688,2.93710500677526,0.7831621554158628,-1.6248779143482446,9.639337038818,0.1713383495807647,0.5157256722450256,-0.6197054386138916,0.942590542554177,-0.0658366429003713,-0.0647775987585919,0.3209245367946906,0.1846979409456253,0.0923129096627235,-0.0640555545687675,-0.0042346119880676,-0.0235065817832946,0.00917948782444,-0.0370913967490196,0.0347871556878089,-0.0097732059955596,0.093689426779747,-0.0080795538201928,0.0033429994181264,116
1733390447977644500,-0.4728128519026562,-0.785880766724795,1.8017694357365368,0.5605005242384969,-1.3795249972827732,9.69294237227738,0.9850879311561584,0.745570957660675,-0.5322245359420776,0.9479483462691312,-0.0581765473670682,-0.0491218746415452,0.3091868979245878,0.1178099811077117,0.0799426957964897,-0.0292443074285984,0.0050739645957946,-0.0338320732116699,0.011258840560913,-0.0780976861715316,-0.0161737576127052,0.0680786799699068,0.2042222619056701,-0.008571428990364,0.0177053598348516,117
1733390448017644300,-0.8924347233004868,-1.2416988273479044,0.2626946586191654,0.2898440746936015,-0.9132323043964804,9.759732766002417,1.31369948387146,0.7284500598907471,-0.242854967713356,0.952098606967054,-0.0399663314736846,-0.0281924028090752,0.3018543815278471,0.0118545209988951,0.0703870058059692,-0.0129080787301063,0.0008382201194763,-0.0331065356731414,0.0185037106275558,-0.1016880050301551,-0.0504561588168144,0.0373141238719224,0.2936972975730896,0.0205789699092507,0.03747305902699,118
1733390448057644300,-1.013583095483109,-1.1941714986279606,-1.4007289672225711,0.075355287943338,-0.4026113345598802,9.7980920150131,1.180578112602234,0.2502179145812988,0.1418828070163726,0.9533317895773958,-0.0184202922247985,-0.0098499442530228,0.3012012283142062,0.017488170415163,0.0684365034103393,-0.0062501751817762,-0.0033109188079833,-0.0003385543823242,0.0133350491523742,-0.0888308212161064,-0.0940920412540435,-0.0430699109196662,0.3823340833187103,0.0619205957315862,0.1176334867963101,119
1733390448097644300,-1.09994123624824,-0.1999700895609334,-1.9332441908180715,0.034671112249582,-0.0563591302461223,9.80642671263814,0.5792627930641174,-0.050093300640583,0.522887110710144,0.9514881519574958,-0.0021902670134625,-0.0025660939289129,0.3076671336098457,0.0248675234615802,0.0633796900510788,-0.0120662525296211,-0.0062103271484375,0.0115956664085388,0.0076493620872497,-0.0456304997205734,-0.1003653481602668,-0.0897638575553894,0.4562932848930359,0.0383849679738283,0.1184035487201996,120
1733390448137644300,-0.1210417426035273,0.4957365217745303,-1.4943004003673792,0.0303613547251094,0.0676490472478326,9.80636942949295,0.0848055854439735,0.1002909615635871,0.616071879863739,0.9477885030531772,0.00376273188852,-0.0003673278757709,0.3188771376795218,0.0218946374952793,0.043690837919712,-0.0268282890319824,-0.0050131678581237,0.0134502947330474,0.0042415857315063,0.008825659751892,-0.0906112492084503,-0.1326987439185381,0.4714938402175903,0.0798201172985136,0.1278225892495363,121
1733390448177644500,0.4806472353227436,0.3425087480356916,-0.5334282467871904,-0.0267963991023949,0.052983425001637,9.806469967257977,-0.1321631073951721,0.1581639796495437,0.5260361433029175,0.9439631382276789,0.0020991355792379,0.0021812594518663,0.3300369852375285,0.0519260391592979,0.0541848614811897,-0.0188392046838998,-0.0126917958259582,-0.0007575750350952,0.0060502290725708,0.0519963577389717,-0.0900298729538917,-0.1589770945131778,0.4186235964298248,0.051799599211663,0.1173233340017497,122
1733390448217644500,1.0108462178651243,-0.0101195237987558,0.0103197339624166,-0.0500231458573602,-0.0183116197739553,9.806505038571355,-0.2142797410488128,-0.0666806101799011,0.2065479159355163,0.9413241621267984,-0.0017396293886415,0.0020857411436901,0.3374926962930655,0.0157070495188236,0.0159714296460151,-0.0274574588984251,0.0043482184410095,-0.0152793228626251,-0.0035271048545837,0.0853992030024528,-0.060270145535469,-0.1969938136965036,0.3569622635841369,0.0321624401971697,0.1397519503656774,123
1733390448257644300,0.5840063413798808,0.2748790174096822,1.3449147255420684,-0.0471066373561508,-0.0556599370347801,9.806378781843184,0.0964723229408264,0.0965668559074401,-0.0792116671800613,0.941299345321904,-0.0034820541127257,0.0013028733258464,0.3375525551329201,-0.0580760948359966,-0.0316510051488876,-0.0312936753034591,0.0083217024803161,-0.0302565693855285,0.0016649812459945,0.0894835516810417,-0.0367444157600402,-0.1366039346635341,0.2661031484603882,0.0614706600069999,0.019284984575957,124
1733390448297644300,0.1110799187006894,-0.133896831129305,0.4396896403819322,-0.1134741203608457,0.0535414379103109,9.80584745144546,0.4099086821079254,0.1344288438558578,-0.133794754743576,0.9419513508345332,0.000629265826281,0.0063663663387485,0.3356884823892352,-0.0868068039417266,-0.0352031774818897,-0.0071646384894847,-0.0056344866752624,-0.0310875177383422,0.0093116164207458,0.0955774933099746,-0.0276000872254371,-0.0957867711067199,0.2542184591293335,0.0674278148457407,0.0952589478403329,125
1733390448337644300,-0.0400559425265062,0.6077843265261501,-0.7094301258593797,-0.1359178703618235,0.1854445927380584,9.803954185044764,0.297126293182373,0.1151392459869384,-0.0626822635531425,0.9425550463827088,0.0065992950358307,0.0096896481256025,0.3338453596250528,-0.1344946920871734,-0.0572013184428215,0.0063496395014226,0.0025469064712524,-0.0151247084140777,0.0119242519140243,0.0824301242828369,-0.036046378314495,-0.03090308778584,0.2257799804210662,0.0649023880213499,-0.0630452889125794,126
1733390448377644300,-1.187345598130673,-0.9797209386959672,-0.839192816326022,-0.1278192647812888,0.3644110755031928,9.799043616649508,0.527502179145813,-0.2708131968975067,0.0227300245314836,0.943217246473146,0.0153697656497275,0.012312608340177,0.3315922810548573,-0.1027450263500213,-0.0611701197922229,-0.0068358709104359,-0.0038835406303405,0.0126698315143585,0.0141111016273498,0.0487543195486068,-0.0495925322175025,0.0343237098842859,0.1864165812730789,0.0840318897746503,-0.0611089140225201,127
1733390448417644500,-0.4130001882357522,-0.2966859947439283,-1.172762507635355,-0.0737709276616107,0.3860196441885083,9.798771813970804,-0.454689085483551,0.0644264668226242,0.3576300144195556,0.9414347840875964,0.0172697670779502,0.0101698585702974,0.3365990945961353,-0.0342285521328449,-0.0330689772963523,-0.0022485761437565,-0.002210259437561,0.0122992992401123,-0.0087506175041198,0.0491579473018646,-0.0724089220166206,0.0091746555805206,0.2021723687648773,0.0795059367828071,0.0813181007713079,128
1733390448457644500,0.246573745831009,0.0823091211026534,0.6240203718602657,-0.067307901093387,0.2144222471529617,9.80407459655404,-0.3603857457637787,-0.008258388377726,0.377030074596405,0.9390278729855904,0.009087787831885,0.0069803743662413,0.3436499932742173,-0.0767959803342819,-0.0564111024141311,-0.0153899444267153,-0.0013762116432189,-0.0100183486938476,0.0003905892372131,0.0319174975156784,-0.0818440467119216,0.0043096798926591,0.1979819387197494,0.0603996697746217,-0.0164325177542865,129
1733390448497644500,0.9862718216441572,-0.0206500167183112,0.7363684016674756,-0.0870994789180345,0.1373673385177738,9.805300923478605,-0.0547302179038524,0.0470208264887332,0.0612129084765911,0.9373144021199484,0.0050179662252341,0.0066029375789147,0.3483863204306758,-0.058543212711811,-0.0306157786399126,0.0117418076843023,-0.0014416575431823,-0.0072437524795532,0.0067745447158813,0.0281136594712734,-0.0977311730384826,-0.0111281277358531,0.1869329363107681,0.0961800082080066,0.0423423272974789,130
1733390448537644300,-0.1795245002403855,0.4335251994680613,1.1850170090526342,-0.0986518142821732,0.1790911503244191,9.804518248668312,0.2837294638156891,-0.0129584819078445,0.0386720448732376,0.9376191442198404,0.006814331614149,0.0078900655370652,0.3475078534686972,-0.0353441499173641,-0.0189121980220079,0.0115222968161106,-0.0072508454322814,0.0005714297294616,0.011270523071289,0.0217108950018882,-0.0987807512283325,-0.057941901358962,0.163450077176094,0.0608813158117234,-0.0037537995755672,131
1733390448577644300,-0.1923403253348544,-0.3655783291842788,-0.4016092083126306,-0.0680291006405605,0.3042268751101568,9.801693838897346,0.3013938963413238,-0.0978003740310669,0.1431400179862976,0.9368155438815204,0.0133224336303821,0.0086721535483207,0.3494623755993288,-0.027302736416459,0.0135681945830583,0.0288552138954401,-0.0115105509757995,-0.0015625655651092,0.0029736012220382,0.0211325176060199,-0.0823174268007278,-0.024125556474924,0.1130805760622024,0.086842490215972,-0.0029806232459843,132
1733390448617644300,-0.1856480246219783,0.0766658910512924,-0.3388713048487901,-0.0256402673202333,0.4059153445413336,9.798211842000484,0.1979194283485412,-0.1206103190779686,0.2161701619625091,0.9354563284221988,0.0189070118670567,0.008528788086078,0.352833069399979,-0.0119621288031339,0.0194135140627622,0.0203087981790304,-0.0049923658370971,0.0095800459384918,-0.0115514546632766,0.0096956808120012,-0.0658895969390869,-0.0542459694504737,0.0576959028840065,0.052997722955048,-0.0564819118089973,133
1733390448657644500,-0.6053162924448028,-0.3892398118114099,-0.8342378242671489,0.0148463205668551,0.4362260193919762,9.796931739062073,-0.0323439575731754,-0.1398568898439407,0.4374372065067291,0.9330658293063492,0.0210348113713135,0.007282324630415,0.3590162912803792,0.0001933372113853,-0.0014714221470057,0.0024875230155885,-0.009432315826416,0.0176239013671875,-0.0189277380704879,0.0076144062913954,-0.035057283937931,-0.0688239453792571,0.0371253192424774,0.0676332012247294,0.0757246646784245,134
1733390448697644500,0.6904480697527527,0.188170601902157,0.15240823751688,0.0721051224743947,0.4043942724538967,9.798042915174364,-0.063779205083847,-0.0992126986384391,0.3236224353313446,0.9300521067702004,0.020533760412771,0.0041460689311828,0.3668299495420958,0.0140492320060729,-0.0099641364067792,-0.0050885714590549,-0.0118840336799621,0.0079311728477478,-0.0064974427223205,0.0264415722340345,-0.0135054141283035,-0.029640520504117,0.0278628021478652,0.090265231206268,0.0843223971538245,135
1733390448737644500,0.5526071041075512,0.217361625073105,-0.1504699629306793,0.0706335109852952,0.3970504124971106,9.798354465341568,-0.0171212647110223,0.0359920710325241,0.0744122639298439,0.928874133868203,0.0201444393966258,0.0041432873130453,0.3698241056853188,0.0411855094134807,0.0047292155213654,0.0043476740829646,-0.0049608349800109,0.0062807500362396,0.0068815201520919,0.010761534795165,-0.0115629946812987,-0.0215787946015596,-0.007721971720457,0.0517975533850491,0.0041183951042592,136
1733390448777644300,0.1291123915980569,0.4705006294375285,-0.5523872142791748,0.0474599854050436,0.3581924201840534,9.79999112663269,-0.1787637323141098,0.1000025421380996,0.2167191058397293,0.9276155219403888,0.0178496306748637,0.0045704096660988,0.37308159631695,0.0194277502596378,-0.0104813762009143,-0.009676331654191,-0.0004929900169372,-0.0034965872764587,0.0036791712045669,0.001331171952188,-0.0011248486116528,-0.0551911413460969,-0.0008251322433352,0.0536751838251948,0.0684046970538795,137
1733390448817644300,1.6010995638757943,0.3346885392714291,0.3397743911683559,-0.0427734761232044,0.2918440894044004,9.802212894335389,-0.1050536707043647,0.3823850750923157,-0.2954986691474914,0.9276241462497954,0.0129919863693469,0.0075780740308369,0.3732119168142184,-0.0071631120517849,0.0109402928501367,0.003300053300336,-0.0153594613075256,-0.0126074850559234,0.0075820088386535,-0.0068791806697845,-0.0082596521824598,5.61141014099e-05,-0.0199199579656124,0.091836937502399,-0.017286650365591,138
1733390448857644300,0.1934285772292874,0.3652977952098473,-0.5218634811997414,-0.1808590185134671,0.2672203558826819,9.801340203154089,-0.0831407457590103,0.1342046558856964,-0.4989679455757141,0.9309770404250224,0.0093235175673367,0.0135573649388465,0.3647069705895822,0.0157350115478038,0.0048788855783641,0.0147124314680695,-0.0010679960250854,0.0001555979251861,-0.006334826350212,-0.0313467420637607,0.0052133239805698,-0.0412625692367553,-0.0546157881617546,0.0641681554626673,-0.0192424606084823,139
1733390448897644500,0.4231464653274044,0.750877038687095,-0.5716723449856043,-0.1361415321830194,0.272494533425942,9.801917710781098,0.2061029821634292,-0.382277250289917,-0.6829288005828857,0.935174354433262,0.0105390961018971,0.0114101880864795,0.3538471481992528,0.0496154800057411,-0.0081089781597256,-0.0018906473414972,-0.0029114484786987,0.0082254409790039,0.0002674311399459,-0.0558143034577369,0.0186862982809543,-0.0825263075172901,-0.0893116146326065,0.0364683937627822,-0.0211915488496422,140
1733390448937644500,0.29696594419647,0.4543088616365566,-0.4588730642795562,0.1145374661428853,0.4465094764646142,9.79581004155576,0.6063851118087769,-0.8703862428665161,-0.8612860441207886,0.9405774343597118,0.0234041005529859,0.0022206526606095,0.3387646211678251,0.028677973896265,0.0021644849330186,-0.0016372476238757,-0.0122832655906677,-0.0045636594295501,0.0034970641136169,-0.085100807249546,0.0421355590224266,-0.0953518868207931,-0.1515688002109527,0.0414281350620091,-0.0461193616181612,141
1733390448977644500,0.1848493119923397,0.3108388771284371,-1.1285229684144258,0.5367031768046319,0.6194580323807894,9.772338565075398,0.1754341870546341,-1.2673017978668213,-0.9388754963874816,0.9460186834994812,0.0387413458236432,-0.0157636317261915,0.321402282882383,0.0207659900188446,-0.0040998551994562,-0.0070210937410593,-0.0062962770462036,-0.0023375749588012,0.0135527253150939,-0.078885480761528,0.0539645552635192,-0.0400391649216413,-0.2048969119787216,0.0720909843511879,0.0700565559141337,142
1733390449017644300,0.4559258318465203,-0.26039434578754,0.3202162887394428,0.9056267247635872,0.6525945052418858,9.742912564104795,-0.1016450747847557,-0.7270545959472656,-0.9128453135490416,0.9513755699641886,0.0457814287635518,-0.0339671412529676,0.3027123419511328,0.0342189483344554,0.0143299112096428,-0.0050345752388238,-0.0029236078262329,-0.0011672973632812,0.0120116472244262,-0.0674291104078292,0.0685155391693115,0.0050759880900382,-0.2603574395179748,0.0412561394959688,0.0681114131957292,143
1733390449057644300,-0.1312813514012843,-0.8557911921665072,0.847055804786086,1.0876152770299463,0.6211594294711947,9.726337276878953,-0.1599554717540741,-0.3455645143985748,-0.6468509435653687,0.9558162972168808,0.0463711932319831,-0.0440966809675555,0.2869156225370658,-0.0172266662120819,-0.0119487773627042,-0.004561198875308,0.0070274472236633,-0.007477194070816,-0.0017336755990982,-0.0344844572246074,0.0549579858779907,-0.0244751005649566,-0.2414338290691375,0.0756399820696562,0.2115143603496253,144
1733390449097644300,-0.1604154567532241,-0.828425850052759,1.246302960142493,1.1523631320767105,0.6401817445229738,9.717644267335531,0.1464556753635406,-0.1164017096161842,-0.5025172829627991,0.9588100653047364,0.0477251995946498,-0.0475429500970047,0.2759445480816453,-0.0380848087370395,-0.0085112219676375,0.0110211567953228,-0.0028275251388549,-0.0122892558574676,0.0063076168298721,-0.0015398040413856,0.0414004325866699,-0.0529448237240314,-0.2225102335214615,0.1098751368876546,0.3550570082351565,145
1733390449137644300,-0.5635597656786442,-0.6858215789958835,0.4287830464422703,1.205205883665755,0.756300890366733,9.70287982892394,0.314669668674469,-0.2556378245353699,-0.3786198496818542,0.960803789865019,0.0537721654534494,-0.0489833988622397,0.2675168943888949,-0.0205385740846395,0.0190838668495416,0.0220705438405275,-0.0081832408905029,-0.0016387104988098,0.0089277178049087,0.0270778201520442,0.0251644160598516,-0.005419686961174,-0.1779559850692749,0.1100493244107812,0.1930633423797786,146
1733390449177644500,-0.7011401441588997,-0.5671195770520716,0.1782189705997705,1.286971362878382,0.9051509970106184,9.679607089886067,0.3483054041862488,-0.1465489119291305,-0.1912156492471695,0.961699791802296,0.0619769975971626,-0.0513443759059955,0.262023050383233,-0.0245887096971273,0.0125342477113008,0.0190695617347955,-0.0019587278366088,0.0015704631805419,-0.0072537213563919,0.0097010750323534,0.0351691842079162,-0.0530307484418153,-0.1806071698665619,0.0437282286979258,-0.0153268215347081,147
1733390449217644500,-0.577085017684102,-0.2531288848292082,-0.1588134283840656,1.3248241236716507,1.023014283107966,9.66274655597806,0.2195320427417755,-0.0938980132341384,-0.0953400507569313,0.9619069274204284,0.0682087838361199,-0.0518131860413037,0.2596112850454047,-0.0294567011296749,-0.0119572458788752,0.0222286712378263,-0.0109663605690002,0.0036229193210601,-0.0100054144859313,-0.010950431227684,0.0466299429535865,-0.058490182891488,-0.1769979596138,0.0409514574609696,-0.02097659092471,148
1733390449257644300,-0.540238219062984,-0.1993008485298603,-0.2777969506829977,1.3274816524431108,1.0624104739509523,9.658129417571423,-0.0176742430776357,0.0800408944487571,0.0291830971837043,0.961945111535196,0.0701687551173211,-0.0514664521352755,0.2590159120595937,-0.0099501106888055,-0.0156201580539345,0.0166621319949626,-0.0090778470039367,0.0036655962467193,-0.0068221092224121,-0.0295425504446029,0.0485621094703674,-0.0369932213544845,-0.1834294646978378,0.0118193248704075,-0.0336206761814653,149
1733390449297644300,-0.1634600851461291,-0.0810627377707511,0.0293406607747077,1.291577979891002,1.0543057856895028,9.66388403557539,0.0237206015735864,0.0487594008445739,0.0590360648930072,0.961777331026763,0.0693396113428637,-0.0497098448097811,0.260202624076954,-0.0326791256666183,-0.0343756824731826,-0.0011819135397672,-0.0016510486602783,-0.0022833049297332,-0.0038225054740905,-0.0367427617311477,0.055856242775917,-0.0467284334272146,-0.182529404759407,-0.0160972944505512,0.0140283061567693,150
1733390449337644300,-0.1503000131912529,0.0963255541585385,-0.0349134924709796,1.3037066629715264,1.07698296998702,9.659753803902865,0.0943604186177253,-0.0812545269727706,0.0565723776817321,0.961364434555628,0.0706889422551112,-0.0499269646231731,0.2613214293522245,-0.0542486011981964,-0.0247592218220233,-0.0028985871467739,-0.0128705501556396,-0.0047647953033447,0.0002366751432418,-0.032315082848072,0.0580550022423267,-0.044402036306262,-0.1615486890077591,-0.0253455997891724,0.0516052456833422,151
1733390449377644300,0.2407296411789953,0.1284086455091834,0.3175584677070379,1.3339068631850182,1.1125360755357891,9.651597969976066,0.1338603943586349,-0.0015058900462463,0.0703551173210144,0.9607246960450848,0.0729505491164621,-0.0508299077933383,0.2628736037636274,-0.0848373994231224,-0.0272305812686681,-0.0039047959726303,-0.00765061378479,-0.0093978643417358,0.0016345977783203,-0.0217953473329544,0.0482683628797531,-0.0377291344135999,-0.1425019204616546,-0.0464386567004024,0.0438378996174782,152
1733390449417644500,0.1389621882274747,0.1064479389179497,0.160448336109519,1.3379608147509394,1.1636760417949408,9.645003978538512,0.1392634958028793,0.0361359529197216,0.0474744588136673,0.9602136211262888,0.0756095765593151,-0.0502477971584349,0.2640987495257972,-0.084236055612564,-0.0286292731761932,-0.0059672808274626,-0.0050514936447143,-0.0040313005447387,-0.0065717250108718,-0.0031740050762891,0.0339288227260112,-0.022245734077692,-0.1243825107812881,-0.0298874810025095,0.095412165640667,153
1733390449457644500,-0.1176996199682354,0.203044053646177,-0.1693318997889757,1.3076176989354191,1.2038486238379031,9.644234747731684,0.0811522081494331,0.0783439055085182,0.0514499843120574,0.9599059942385504,0.077234746409801,-0.0481212641378606,0.2651405174587203,-0.0818538591265678,-0.0348727889358997,-0.0059920484200119,-0.0073344707489013,-0.0031791627407073,-0.0102121829986572,0.010146640241146,0.013804679736495,-0.0050724809587001,-0.1168159022927284,-0.0333411285877227,0.0402263945894315,154
1733390449497644500,-0.0155963591910898,0.1626933385573327,-0.3029050884544849,1.2946985961295665,1.2346226053513585,9.642087214308976,0.0716654062271118,-0.0102007752284407,0.0132066719233989,0.959607713301962,0.0786251268542818,-0.0469941938514464,0.2660125214979603,-0.0701596513390541,-0.0245086178183555,-0.0044488133862614,-0.0085372328758239,-0.0004168152809143,-0.00699283182621,0.0160073600709438,-0.0153317674994468,0.0018558569997549,-0.1111894100904464,0.0031460429407656,0.0664611617706716,155
1733390449537644300,0.0619260025590658,-0.1065985263697803,-0.0523123710393905,1.2958856139570474,1.245789603792876,9.640491469550131,0.0263216979801654,0.0329926945269107,0.0315618738532066,0.9593827855043998,0.0792282539899002,-0.0468467590079521,0.2666700370767063,-0.024784717708826,-0.0131603553891181,0.0035870091523975,-0.0107824802398681,0.0091844797134399,-0.0060700327157974,0.0182347223162651,-0.0218464899808168,-0.0670557666629552,-0.1058548986911773,-0.0045405660390853,0.0984898925855755,156
1733390449577644300,-0.1826848639674484,-0.1076401443772017,-0.2440419805973768,1.2822219763942062,1.2514699875168502,9.641582771918175,-0.0131490277126431,0.0280133858323097,0.0310484506189823,0.9592927262981596,0.0793390905118047,-0.0460587231506883,0.2670981681500518,-0.0488881878554821,-0.021788464859128,-0.012901552952826,-0.0014135241508483,-0.0013126730918884,-0.0039674639701843,0.0054656481370329,0.0030462779104709,-0.0281605110794305,-0.1258323490619659,-0.0150233816087245,0.0266094457125291,157
1733390449617644300,-0.0877246068127453,-0.0232582721211016,-0.0438993474811315,1.2896136940807104,1.2444506102740764,9.641505030506847,-0.0036827863659709,-0.0591519027948379,0.0369762368500232,0.9591055911578736,0.0791267291736756,-0.0464650343044146,0.2677619136044158,-0.0844403207302093,-0.019829923287034,-0.0166315101087093,-0.0074489116668701,-0.010355144739151,0.0019804388284683,-0.0111214937642216,0.0127453673630952,-0.0428588985174894,-0.1718098074197769,-0.0052180269092321,-0.030992154308781,158
1733390449657644500,0.0506952912315726,-0.0274731133371591,0.0701087244927883,1.306068862058222,1.246869946375489,9.638977557855844,0.020599840208888,0.004798125475645,0.0424230359494686,0.9588373568891544,0.0795140281307408,-0.0471852418314862,0.2684810461384143,-0.0676608085632324,-0.0159843191504478,-0.0196919478476047,-0.0104601979255676,0.0026350021362304,-0.0034252405166625,-0.0189740117639303,0.0023990329355001,-0.0318500132471323,-0.189995601773262,0.03011982845366,0.0460245229415595,159
1733390449697644500,-0.0111161450371146,0.0516613597847521,-0.1497714592725038,1.3090727200493215,1.2536274578116833,9.637693363264203,0.0168826896697282,-0.032179944217205,0.0406116768717765,0.9585829248325104,0.0799304521931979,-0.0471754103330081,0.2692664336719432,-0.0178807396441698,-0.0119930924847722,-0.0070910681970417,-0.0055963397026062,0.0061956644058227,-0.0041230916976928,-0.006390449590981,-0.0117237474769353,0.0271925428301095,-0.1904567778110504,0.0377682973802089,0.0741328837086446,160
1733390449737644500,0.0574051641337573,0.0673068188145756,-0.274551100629568,1.329286509907991,1.252047933535278,9.635131403821706,-0.0187906399369239,-0.0747532173991203,0.0357792116701602,0.9583002641786846,0.0801769910290316,-0.0481317317538145,0.2700287939986762,-0.0368331260979175,-0.0125204510986804,-0.0220645572990179,-0.0001022815704345,-0.0034549534320831,0.0056590586900711,0.0058227954432368,-0.0077304849401116,0.0340121597170829,-0.1929990649223327,0.0320161635942757,-0.00839950648956,161
1733390449777644300,0.1538824017226696,-0.0078073127500712,0.0374655150413513,1.3489280528366565,1.2450110206358134,9.633313540744782,-0.0083686588332057,-0.0061434987001121,-0.0109423333778977,0.9582561794416622,0.0801065570228859,-0.0492001261736469,0.2700136327648045,-0.0548233091831207,0.0014786678366363,-0.0174032934010028,-0.0067924857139587,-0.0059666633605957,0.00220887362957,0.0080841677263379,-0.0164170339703559,-0.0022533318847417,-0.1669494360685348,0.0322375512599945,0.0174810678259935,162
1733390449817644300,0.0133855512738227,0.0547336068369448,-0.0619394465625286,1.3378420106768607,1.235741087987274,9.636052610319853,-0.0420693829655647,0.0405417382717132,-0.0094833439216017,0.9583714737839272,0.0794813953047056,-0.0487930559142165,0.2698629905016246,-0.0473741814494133,0.0086181759834289,-0.0032818159088492,-0.0084064602851867,-0.0021468698978424,0.0021763443946838,0.0225249230861663,-0.0299570225179195,0.0345908363878726,-0.1129531860351562,0.0698259620286524,0.0204110751295927,163
1733390449857644300,-0.0424225529268383,0.0040096740327775,0.0282803380668163,1.3334955059051512,1.226310557949543,9.637859367480871,0.0068368152715265,-0.0221455357968807,0.0122359422966837,0.9583904066420064,0.0789571744798707,-0.0486999302542961,0.2699666773832946,-0.0394225157797336,0.011843211017549,-0.0082144560292363,-0.0026681423187255,0.0093455016613006,-0.000459611415863,0.0160811394453048,-0.0348577387630939,-0.0095534257650375,-0.0972837880253791,0.060247986344248,-0.0728612746039405,164
1733390449897644500,0.027480712121725,0.0479439466968178,-0.1348661510854959,1.3472399536192416,1.2344503175243735,9.634908700981736,0.0065605142153799,-0.0259417481720447,-0.0139910383149981,0.958333662132254,0.0795523121934212,-0.0492728223218331,0.2698892796132134,0.010126395151019,0.0192969739437103,-0.0080693140625953,-0.009607970714569,0.0078690946102142,-0.0016716867685317,0.0089735742658376,-0.0214102454483509,-0.035686814931035,-0.078633427619934,0.0584273467883467,-0.0506280346816405,165
1733390449937644500,-0.0114917003512382,0.0071525751683861,-0.0303460384249687,1.3477555019259453,1.2227189631983637,9.636332011783123,-0.0448185428977012,0.0269928835332393,0.0007830315735191,0.9584143340806368,0.0789699512495755,-0.0494725966375312,0.2697375098066037,0.0078230276703834,0.0180629175156354,-0.0004746445920318,-0.0070956349372863,0.0020803213119506,-0.0035738795995712,0.0010400107130408,-0.0148956831544637,-0.0365127443611621,-0.0720584094524383,0.0536972495265305,-0.0615650328927207,166
1733390449977644500,-0.1205205226078629,-0.0044841596767306,0.0512146389305591,1.3396180804386737,1.2140049108669162,9.638568392533063,-0.0003538001328706,0.000727649545297,0.0167645588517189,0.9584414078284568,0.0784281056945169,-0.0491814261341913,0.2698522357917569,-0.0138116935268044,0.0130822733044624,-0.0135230012238025,-0.003739058971405,-0.0023911595344543,0.0006451606750488,-0.0051714996807277,-0.018520625308156,-0.0175344876468181,-0.0787256881594657,0.0756849171899259,-0.031234376983263,167
1733390450017644300,-0.0668520607843995,-0.0084502868287265,-0.0013712883532047,1.340118431176245,1.2200660375367849,9.63773369527459,0.0170209296047687,0.0075123184360563,0.0238677412271499,0.9583242808287794,0.0787530541374548,-0.0490948453497043,0.2701894051995607,-0.0232701785862445,0.0135639328509569,-0.0032129734754562,-0.0029854774475097,-0.0024966895580291,-0.0004113316535949,4.04296442866e-05,-0.0168596748262643,-0.0278209038615226,-0.0732330083847045,0.077376231277734,-0.0051252888581715,168
1733390450057644300,0.0316520064570009,0.0517858629472553,-0.079529463788867,1.337681705548614,1.2211812322370708,9.637930679151417,0.004187025129795,0.0010015463922172,0.0174024812877178,0.9581977898881592,0.0787975267250936,-0.0489207453961339,0.2706561713119449,-0.0051614809781312,0.0084054432809352,-8.86193010956049e-05,-0.0039114952087402,0.0054135918617248,-0.0027644634246826,0.0027563881594687,-0.0146470461040735,-0.0415384635686874,-0.0824647396802902,0.0894682356096804,-0.0505943150751292,169
1733390450097644300,0.0368653571911156,0.011078516440466,-0.1223234803766012,1.343840958830714,1.223880700454116,9.63673124023378,0.0131277088075876,-0.0283405389636755,0.0212376080453395,0.958089399201454,0.0790330330526818,-0.0491652119257616,0.2709265709929706,0.0076259532943367,0.00657739629969,-0.0061586294323205,-0.002963364124298,0.0050794780254364,-0.0010030269622802,0.0040457537397742,-0.0024619111791253,-0.0484720622241497,-0.0923454090952873,0.0857600287415087,-0.0345624048778321,170
1733390450137644300,0.0191936530306935,0.0653799424052238,-0.1199602583765983,1.3547788246914745,1.2268902575336396,9.634816931045057,-0.0030137253925204,-0.0191574208438396,-0.0101532973349094,0.9580446200655824,0.079337212916473,-0.04966539530898,0.2709048013346538,-0.0099804708734154,-0.0007480011554434,-0.0044621294364333,-0.0044293403625488,-0.0042683780193328,0.0028475672006607,0.0061301412060856,0.0039727082476019,-0.0208200851887464,-0.1048988848924636,0.0893986775048077,-0.0386261380522511,171
1733390450177644500,0.0284694308981299,-0.0149595225922763,0.0539127919733524,1.3631602840676902,1.2234328105561434,9.634074588245152,-0.0098153287544846,-0.0135126858949661,0.010218565352261,0.958011661580326,0.07928785148401,-0.0501232576106578,0.2709515500556876,-0.0059021059423685,0.0059074517339468,-0.0010217244271188,-0.005092442035675,0.001694768667221,0.0017825365066528,0.0106485588476061,0.000894448487088,-0.0291191269785165,-0.1138189584016799,0.0769824096545577,-0.0099271179156377,172
1733390450217644500,0.0060943713523447,-0.0084073244698345,0.019282208096981,1.3626407902382314,1.2258587225288151,9.6338396104455,0.0149333607405424,0.0123048285022377,-0.0017446638084948,0.9580159695046224,0.0793987674473359,-0.0500671241528558,0.2709140202273281,0.0283530689775943,0.0157151278108358,0.0004587932489812,-0.0055808424949646,0.0060638487339019,0.0005134344100952,0.0047695655375719,0.0122729185968637,-0.0609831687510013,-0.1053030416369438,0.0501018553830683,-0.0247370211704634,173
1733390450257644300,-0.0524465188130736,0.0423538716048002,-0.1892605890959501,1.3655164918050169,1.2277701091080904,9.633189037582278,-0.0150341279804706,-0.0278516244143247,0.0114114275202155,0.9579452194351088,0.0795444995936889,-0.0501669765128636,0.2711029714104707,0.0203460082411766,0.0132935689762234,-0.0030929315835237,-0.0035051703453063,-0.0041612386703491,0.0018653273582458,-0.0070011783391237,0.0152868647128343,-0.0401133992016315,-0.1058533936738967,0.0370421750627458,-0.0816213215015828,174
1733390450297644300,0.0485509726792573,-0.0578454552471637,0.1209469313263893,1.3758493775099516,1.2209784762065856,9.632581719338893,-0.0037754701916128,0.0057906303554773,0.0108512286096811,0.9578904185460604,0.0793626312838104,-0.0507599656268837,0.2712398812670547,-0.0271272342652082,0.0038848337717354,-0.0010852408595383,-0.0032883882522583,-0.0078454315662384,0.0062115341424942,-0.0164001211524009,0.0128359496593475,-0.0343926834672689,-0.1004833504557609,0.0349221141688525,-0.063683879077062,175
1733390450337644300,-0.0306835998162627,0.0111226478431373,-0.0752151077210903,1.3733818183526396,1.2250336698815223,9.63241922225356,0.0187608525156974,-0.0109682474285364,0.0147318569943308,0.9578002961121,0.0795443975132949,-0.050556782889457,0.2715424689978669,-0.0033292260486632,0.0089286472648382,0.0023612224031239,-0.0097652077674865,0.0028985142707824,0.0034449100494384,-0.0157596953213214,0.0018728356808423,-0.0017687632381916,-0.0912396386265754,0.0301804725997149,-0.062028330422379,176
1733390450377644300,0.0025007307745516,0.0098866032421588,-0.1427402454614639,1.3837418843254443,1.2283644217394292,9.630511927327513,-0.0004631674382835,-0.0388185083866119,0.0213565006852149,0.9576693416171064,0.0798729183192571,-0.0509985232772072,0.2718252571072322,0.0109682204201817,0.0076041514985263,0.0020394462626427,-0.0016770958900451,0.0051727592945098,-0.0009537935256958,-0.0145194688811898,-0.0049041076563298,-0.0379974299609661,-0.0921009555459022,0.0381286551252007,-0.0548933639759197,177
1733390450417644500,0.1859175622783601,-0.0053012482132762,0.1396668293654918,1.3999417623676358,1.224398879109323,9.628675944072008,-0.0023922447580844,-0.0061546899378299,-0.0048285550437867,0.9575745448004822,0.0799173110018819,-0.0518400342514202,0.2719869763248039,0.0184671487659215,0.0081162769347429,-0.0026178234256803,-0.0025925636291503,0.0013056695461273,0.0027374625205993,0.0029899599030613,-0.0083491811528801,-0.0539653989434242,-0.0682867318391799,0.0422379901401698,0.0053702948614954,178
1733390450457644500,0.0249311737693846,-0.0312808350570499,0.0057774143576622,1.3786694033667444,1.2276333309859038,9.631332596060632,0.0157717559486627,0.0683273449540138,0.0199547000229358,0.957569614285924,0.0797866491350992,-0.0507225774359988,0.2722533241786165,0.0159933380782604,0.0166736524552106,0.0055817831307649,-0.0061105489730834,-0.0043743550777435,0.0057494789361953,0.011784091591835,-0.0064955074340105,-0.0299310278832912,-0.0597049593925476,0.0345903979964554,-0.0426283411646261,179
1733390450497644500,-0.0024015081837773,0.0102780867777764,-0.2153355260729789,1.3766732611134649,1.2326118500508367,9.63098246744871,0.0051936944946646,-0.0241858158260583,0.0063160792924463,0.9574964092153486,0.0800166488164,-0.0505360132544748,0.2724776885320101,0.0021100142039358,0.017415290698409,0.0042733056470751,-0.0058494210243225,-0.0025096833705902,0.0088885426521301,0.0097355358302593,-0.0107372887432575,-0.0384884283483028,-0.0670320987701416,0.0355215413667261,-0.0685990871148184,180
1733390450537644300,0.0128606506168842,-0.0355659650303423,-0.1335305185675621,1.3775718173883855,1.2277286080539225,9.631477557489276,-0.0229230467230081,0.0180067922919988,0.007370367180556,0.9574732628712378,0.0797942398383617,-0.0506377635864286,0.2726050467366061,0.0283003374934196,0.0203449800610542,0.0025033687707036,-0.0062095522880554,0.0058233439922332,0.0009166002273559,0.0053778789006173,-0.0118114473298192,-0.0508393758773803,-0.0726561769843101,0.0379997680485248,-0.067651796327345,181
1733390450577644300,0.1067322357520461,-0.0212114225938916,0.0075245502859354,1.3767749679222705,1.219958266313374,9.632578796729446,-0.0102639757096767,0.0006011719815433,-0.0156638454645872,0.9575051570507532,0.0793971907260994,-0.0507073905677107,0.2725965223324168,0.0391258224844932,0.0167012438178062,0.0021879838313907,-0.0033779144287109,0.0029129683971405,-0.0002775192260742,-0.0018149088136851,-0.0075258929282426,-0.0461404044061899,-0.0768048018217086,0.0274045781455934,-0.0719551926096901,182
1733390450617644300,0.0253713187523186,-0.0526056548975408,-0.0408650943517684,1.3744884644202888,1.214990487838164,9.633533320975303,-0.0199105944484472,0.0056117619387805,-0.007271368522197,0.9575930267644606,0.0791065139424607,-0.0506819044092411,0.2723766905348561,0.0342988409101963,0.0187396798282861,-0.0032037189230322,-0.0049988627433776,-0.0031855404376983,0.0018839240074157,-0.0088599268347024,-0.0055264965631067,-0.0358428822755813,-0.0743521675467491,0.0351429173126816,-0.0679023004896938,183
1733390450657644500,0.0224902103580534,-0.0008553016550838,-0.0901882204473018,1.3752746463619172,1.2133688049204647,9.633625675433873,-0.001295946072787,-0.0163134783506393,-0.0074096643365919,0.9576400515863156,0.0790291287022778,-0.0507561879435908,0.2722203168964605,0.0386158265173435,0.0208117794245481,-0.0005558709381148,-0.0058676600456237,-0.0007746815681457,0.0021680444478988,-0.022291487082839,-0.0027744979597628,-0.0442483070492744,-0.0675827488303184,0.0296773453831672,-0.0951835079839453,184
1733390450697644500,0.0231122877791523,0.0158591748457401,-0.0418745636552572,1.3803387978836894,1.212216639210656,9.633046414241194,-0.0024495229590684,-0.0136352200061082,-0.0117816925048828,0.9576908559126068,0.0790322451927894,-0.0510414849683714,0.2719868146219279,0.0443802401423454,0.0123722748830914,-0.0075085191056132,-0.0023884177207946,0.0017352402210235,-0.0005879402160644,-0.0351389870047569,-0.0005462763365358,-0.0390565836250781,-0.0546785593032836,0.0204844234935939,-0.0877764100652188,185
1733390450737644500,0.0023044775500893,0.0168249511379748,0.0270668706238269,1.3864821229442954,1.2131961517672984,9.632040452069043,0.0072538200765848,-0.0088283335790038,-0.0213600751012563,0.9577476604765318,0.0791531004738789,-0.0513554930995282,0.2716925937979196,0.0388571098446846,0.0129428841173648,-0.010978084988892,-0.0077918767929077,-0.0016867220401763,0.0013943314552307,-0.0430799908936023,-0.0007733978563919,-0.0377115987569093,-0.0385640859603881,0.0137004624418914,-0.0770592012178152,186
1733390450777644300,-0.0669109513647854,-0.0038076486546546,-0.0634311464250087,1.3904555566199124,1.217218977542594,9.630960255616904,0.0022161095403134,-0.0168150793761014,-0.0191077347844839,0.957823521918187,0.0793896030498654,-0.0515264521075488,0.2713234253673025,0.0453347153961658,0.019285786896944,-0.0142983812838792,-0.0045693516731262,-0.0016301572322845,0.0024408847093582,-0.0475733764469623,-0.0005987251643091,-0.0605143821954727,-0.0232955627143383,0.01183335339576,-0.0596465133197605,187
1733390450817644300,-0.0866569775812327,-0.0529537376828491,-0.0754728818744421,1.397632024120539,1.220276757678017,9.629534606727956,0.0035462884698063,-0.033880028873682,-0.0093019437044858,0.9579007788590987,0.0796218820875608,-0.051872307118059,0.2709165001730478,0.0559106618165969,0.019403712823987,-0.0181768089532852,-0.0064885020256042,-0.0032301247119903,-0.0008776783943176,-0.0536533705890178,-0.0024915675166994,-0.0447083257764577,-0.0288134645670652,0.0049294192261993,-0.0702452103540301,188
1733390450857644300,0.03310381270051,-0.0544121197976171,-0.0033159926801919,1.4100012379586695,1.2251768046792595,9.627108840885755,0.0191750284284353,-0.0299020409584045,-0.0174718778580427,0.9579105884217458,0.080027315653233,-0.0524374366449649,0.2706535640833904,0.04678800329566,0.0090197818353772,-0.0162953529506921,-0.0041697025299072,-0.0027098953723907,-0.0027837753295898,-0.0594163537025451,-0.0045362128876149,-0.0128711720108985,-0.051603615283966,0.0105481358908116,-0.0588851735584437,189
1733390450897644500,0.0222694072142243,-0.1187238484494388,0.2365145077019929,1.4018318138979375,1.2318779828183353,9.627446694537996,0.0351680517196655,0.087211862206459,0.0167900193482637,0.9578892669872406,0.0802488303285355,-0.0519322091487366,0.2707606093176995,0.0522339008748531,0.0076209823600947,-0.0253263972699642,-0.0085133910179138,0.0040410757064819,0.0011857599020004,-0.0527899898588657,-0.0252941474318504,-0.0132020114004611,-0.0457267388701438,0.0248873346276581,-0.0201383134696632,190
1733390450937644500,0.1059310023717582,-0.0462551168270409,0.0282294846624135,1.3657548306055367,1.254728404790908,9.62968073720038,0.0717139989137649,0.0868889018893241,-0.0167952664196491,0.9579171083783612,0.080872834043285,-0.0498246646523199,0.270872376490978,0.1143726408481597,0.0203101467341184,-0.0247806496918201,-0.0068266987800598,0.0039034783840179,-0.0013647973537445,-0.0577302575111389,-0.0213537830859422,-0.014175824868679,-0.0487076640129089,0.0064943304553627,-0.0830284118205308,191
1733390450977644500,0.0479012765988707,0.1079648462869226,-0.3101432230144739,1.3387903974428772,1.2695989339254796,9.631518474021554,-0.0111089553683996,0.0364906825125217,-0.0610928013920784,0.958146764823948,0.0811931752630885,-0.0483415427709497,0.2702322862302638,0.065368615090847,0.0063927322626113,-0.0301032420247793,-0.0037819147109985,-0.00894695520401,0.00359708070755,-0.0653367787599563,-0.012975743971765,-0.0472767149597406,-0.0514899753034114,0.022555238418281,-0.0903377119205892,192
1733390451017644300,0.0057426353052258,-0.0135629536673426,0.0376549001336097,1.3302215988010166,1.2652813629873096,9.633273208734392,0.0051668575033545,0.0093837948516011,-0.0552485473453998,0.958518305696137,0.0807991127699227,-0.0480754264276263,0.2690778739393419,0.0557498075067997,-0.0006635257741436,-0.0349671058356761,-0.0057207942008972,-0.0081158876419067,0.0051283240318298,-0.061887189745903,-0.0132595486938953,-0.032594694134593,-0.0320102795958519,0.0423966878332197,-0.0443466528572142,193
1733390451057644300,-0.0077025372013449,-0.0182081491246819,-0.139729957729578,1.3272069271549582,1.2848906110815703,9.631093526607753,0.0475893951952457,-0.0185711178928613,-0.0494701750576496,0.9587083661344786,0.0816855525510164,-0.0477321636485248,0.2681930358027639,0.0633680447936058,0.0036204885691404,-0.0295011699199676,-0.0069215297698974,-0.0034252107143402,0.0075686573982238,-0.0540629290044307,-0.0150590436533093,-0.018194997382164,-0.0234394334256649,0.0524621547736227,-0.0376292542356997,194
1733390451097644300,-0.0145835288867354,-0.0382651409864425,-0.1174012215435504,1.336332482896745,1.2958195629835128,9.628367316514254,-0.0008199082221835,-0.0279750525951385,-0.0569746494293212,0.9589317190212318,0.0823040739891235,-0.0481242280811123,0.2671331525901783,0.0626364722847938,0.0049981418997049,-0.0199212469160556,-0.0023726224899291,-0.0022816359996795,0.0109922438859939,-0.0435920283198356,-0.0036844806745648,-0.044961423754692,-0.0112062571570277,0.0473190927967429,0.0305315510597079,195
1733390451137644300,-0.0048586920775473,-0.0397699925914406,-0.0509942741781473,1.345761259368807,1.295828038550913,9.627052726784347,-0.0021811057813465,-0.0365567728877067,-0.0625611692667007,0.9592269022644146,0.0823770970471043,-0.0486922447502725,0.2659454693174566,0.0567724592983722,0.0075878528878092,-0.0178926512598991,-0.005793809890747,-0.0072691440582275,0.0094705671072006,-0.0273473840206861,-0.008877919986844,-0.0329120895206928,0.0159423388540744,0.0608107347935438,0.0188015849731862,196
1733390451177644500,-0.117190355271846,-0.0469772936217486,-0.0996609821915626,1.351850223893672,1.3003420088440178,9.625590837538242,0.0034948773682117,-0.0151332048699259,-0.0198151636868715,0.9593900810926972,0.0826495931279223,-0.0489948981563038,0.2652155654492543,0.0322516709566116,0.007748654577881,-0.0175835229456424,-0.0009271502494812,-0.009671926498413,0.0089598298072814,-0.0157311111688613,-0.0066308612003922,-0.0332756621360778,0.034641221165657,0.0768153094593435,0.0047704292722046,197
1733390451217644500,-0.0602289893828332,-0.1108579373799264,-0.050938744598627,1.3568388259612023,1.3046667401753365,9.624303720337153,0.0177868735045194,-0.0031778989359736,0.0039096344262361,0.9594092574135816,0.0829244862609795,-0.0491997471507695,0.2650222904586946,0.0158127769827842,0.0054805465042591,-0.0102174198254942,-0.0052847862243652,-0.0080676674842834,0.0094923973083496,-0.0056051360443234,-0.000952273607254,-0.0386667075246572,0.0531815998256206,0.069946081276983,0.010382935391739,198
1733390451257644300,0.0013159049041569,-0.0218394913643598,-0.1136748944967985,1.3541015099518,1.3072265076607466,9.624341714259982,-0.0074666664004325,0.0185605380684137,-0.0006477744900621,0.959389313042352,0.0830173212726615,-0.0490230856287965,0.2650981294589219,0.0219692047685384,0.0054756463505327,-0.006002168636769,-0.001396894454956,0.0004721879959106,0.0042566061019897,0.0022724336013197,0.003281129989773,-0.0282762464135885,0.0757408142089843,0.0687095982845872,-0.0387187299728393,199
1733390451297644300,-0.0369822615690529,-0.0087532152980566,-0.0338636911571025,1.3380810801297425,1.2965341409936546,9.628027709296346,-0.0314262323081493,0.0584793612360954,0.0176955983042716,0.9594321679363892,0.082271812295907,-0.0483584254826298,0.2652976426501318,0.0042858170345425,0.0021105294581502,-0.0136271985247731,-0.0021407008171081,-0.0009114742279052,0.0060236454010009,0.0027768835425376,0.0042717265896499,-0.0299988324224948,0.0916655659675598,0.0602920446816831,-0.052229368931055,200
1733390451337644300,0.0054084349147975,0.0084274904750287,0.0951706850349903,1.3203807343967258,1.2860874196507035,9.631872109764814,-0.0100592738017439,0.0426198244094848,0.0049806600436568,0.9594703559888628,0.0815165614248377,-0.0476051349553462,0.265528459704661,0.0052472176030278,0.0055185770615935,-0.0082371598109602,-0.0058900713920593,-0.0040839314460754,0.0025530457496643,0.0148682761937379,0.0036267354153096,-0.015113982501626,0.1407302618026733,0.0836853413593023,0.0188039961259812,201
1733390451377644300,0.0733162883624434,0.0044524493642151,0.050321489483118,1.3045467670574784,1.2924566624216736,9.633176762622597,0.0414040721952915,0.035382255911827,0.0044834353029727,0.9594139422391408,0.0816274987749535,-0.0467077816674663,0.2658574166117302,0.0070746792480349,-0.0031215699855238,-0.0004301698645576,-0.0035700798034667,-0.0029444694519042,-0.0025282353162765,0.0318378172814846,-0.0035264394246041,0.0129360539406538,0.2221302688121795,0.0722347036708146,-0.051015316966176,202
1733390451417644500,0.0403645974837243,0.0692692049287259,-0.185256614151597,1.2935050024308263,1.3042545061126352,9.633075640335678,-0.0016314892563968,0.0311997067183256,-0.0160543248057365,0.9594358697616288,0.0820547461485565,-0.0460091205045465,0.2657688991026932,-0.0039438838139176,-0.0077609564177691,0.002223070943728,-0.0017414689064025,-0.000860571861267,0.0024054795503616,0.0237595811486244,-0.0182834640145301,0.0193014973193407,0.2529944777488708,0.0655626785609871,-0.1310940852008759,203
1733390451457644500,0.0064041679538786,0.0502596762932837,-0.1724947477340698,1.2801798030421137,1.2955810780525208,9.636025722312926,-0.0331285297870636,0.0097648361697793,-0.0310359187424182,0.9596309990512012,0.0814173685704495,-0.0455040965823998,0.2653471253936041,0.013265729881823,-0.0012764256680384,0.0063069621101021,-0.0061454772949218,0.0038500726222991,-0.0006711035966873,-0.000848526135087,-0.0330155082046985,-0.022010756278038,0.2387957274913787,0.0657745677459984,-0.1610203273111954,204
1733390451497644500,-0.0338085999689996,0.0004610416404902,0.0323830972105264,1.2805889683648943,1.286422350693494,9.637198273223635,-0.0249514244496822,-0.0015915560070425,-0.0191743671894073,0.9598351622419344,0.0809382649990782,-0.0457014339280469,0.2647205365485182,0.0276830177754163,-0.0131658418104052,0.0007688519544899,-0.0062431097030639,0.0050989389419555,-0.0049801915884017,-0.0452267676591873,-0.029807474464178,-0.0882750803023576,0.1756214499473571,0.0562031679328531,-0.1502320625215768,205
1733390451537644300,-0.0076250880509614,0.0400986400239169,0.0644967298299074,1.28388406438753,1.284942195138335,9.636957450205086,0.0084618600085377,-0.0250576995313167,-0.0316875353455543,0.9599732857152664,0.0808855531097588,-0.0459286188428218,0.264195810254307,-0.0014144133310765,-0.0319190770387649,-0.0073664393275976,-0.0044482350349426,-0.0035785436630249,0.001497745513916,-0.0842754170298576,-0.0060135927051305,-0.1090887357503175,0.077783279120922,0.0439124992236495,-0.1088299752162769,206
1733390451577644300,-0.0044698388904333,-0.0754607530452311,0.0575619621306657,1.2816267869800329,1.2935108476497232,9.636111647030711,0.0134212095290422,0.0309408716857433,-0.0383541956543922,0.9602029873591268,0.0812362383197483,-0.0457789451347168,0.2632777874372378,-0.0223135706037282,-0.0374785847961902,-0.0128458263352513,-0.0033307075500488,-0.0053444504737854,0.0049155354499816,-0.098276175558567,0.0125405360013246,-0.1204161854505538,-0.030785858631134,0.0449068440232425,0.0117165220830589,207
1733390451617644300,-0.0009273439779877,-0.0939202465824782,-0.1435351952314376,1.276138857088238,1.30568556182906,9.63519803931713,0.0326378755271434,-0.0142871560528874,-0.0228635966777801,0.9603133391022112,0.0817421871019608,-0.0453854348884978,0.2627864494022588,0.0138564193621277,-0.0244107730686664,-0.0081836301833391,-0.0066389441490173,-0.0005952417850494,0.0024674534797668,-0.0727424770593643,0.0296259634196758,-0.132169167086482,-0.0674284547567367,0.0383850410390645,0.2140957916775718,208
1733390451657644500,0.0289946238160133,-0.0436031410135328,-0.1843880146235227,1.2746480340085924,1.3104349483132365,9.634750295549631,-0.0157997999340295,0.0232411548495292,-0.0182075761258602,0.9603977630066052,0.0819411197394915,-0.0452778884912912,0.2624345022330989,0.0100006945431232,-0.033082291483879,-0.016172980889678,-0.0041113495826721,-0.0019977688789367,0.0051380544900894,-0.0390333011746406,0.0479929074645042,-0.0452320573896169,-0.042674995958805,0.024978446977213,0.1452720654940232,209
1733390451697644500,-0.0132552028924226,-0.0142307699263095,-0.062557870721817,1.2576415157586336,1.3017125665448606,9.638167410516738,-0.049251515418291,0.0860856398940086,-0.0184179246425628,0.9605343073736502,0.0812646686970595,-0.0445677919842958,0.2622662789448279,-0.0492458529770374,-0.0257003288716077,-0.008861138485372,-0.0055402517318725,-0.011835753917694,0.013736680150032,-0.0039795339107513,0.0427888892590999,0.0106838910996913,-0.0246541518718004,0.0349114466443657,0.0799648595314472,210
1733390451737644500,-0.0748942052036523,-0.1405401050686836,0.0777414113283157,1.1192150418430566,1.233942075741291,9.664115506243704,-0.3083279132843017,0.7029718160629272,0.0865184441208839,0.9610532556347744,0.0760170859779686,-0.0385828701727277,0.2628868731066444,-0.0103924619033932,-0.0015477484557777,-0.0006155922310426,-0.0073084831237792,0.0020335912704467,0.0032254010438919,0.0216901488602161,0.0247519668191671,0.0245990192055702,0.0083093252032995,0.0423487570382654,0.0861977625716477,211
1733390451777644300,0.2370542406018823,0.0873903333570808,0.3148439480513334,0.8331538284227251,1.0920531133469191,9.709977093708517,-0.2621657252311706,0.712765097618103,0.0903875976800918,0.9613171006530096,0.0651606945251554,-0.0261346777834413,0.2663463076575363,0.0133432280272245,-0.0020651472732424,0.0042318264022469,0.001450777053833,0.003395676612854,-0.0085846036672592,0.0311153251677751,0.0100629208609461,0.0360568172872066,0.0246990397572517,0.0602051701158285,0.0351277197435498,212
1733390451817644300,-0.2968088174059987,-0.058603507072851,-0.2501870592236518,0.6620741351183503,1.0677594337634742,9.72583809518516,0.0498145185410976,0.1170239448547363,0.0614124052226543,0.9613608582986428,0.0616276583760496,-0.0179521272873238,0.2677030854923165,0.0194687638431787,-0.0006540447939187,0.0074105756357312,0.0016328692436218,-0.0009796917438507,-0.0012789815664291,0.0223244242370128,0.0045095547102391,-0.010048515805602,0.0089809074997901,0.0733094932954758,0.0008243585275486,213
1733390451857644300,0.1476985254559666,0.1575914123084396,-0.1606780532121658,0.6986517614092678,1.110587279555574,9.718480718159675,0.1421598345041275,-0.1558855473995208,-0.0142008289694786,0.9610237865088586,0.064260152769383,-0.0191316251188127,0.2682125359197305,0.0007081262301653,-0.0092670274898409,0.0090846391394734,-0.0002747178077697,-0.0079112946987152,0.0015165209770202,0.0099411653354763,0.0196068417280912,-0.0453191511511802,0.0052985092625021,0.0652433104135096,0.0518084035726264,214
1733390451897644500,0.0033695494983345,-0.0449711414311081,-0.2473901219815015,0.7303036217357963,1.1235589893314988,9.714662036654351,-0.0637054219841957,0.0244863163679838,0.0479188524186611,0.9608006705278044,0.0653496647133945,-0.020481904516521,0.2686485964373167,-0.0138561679050326,0.0115079190582036,0.0195791572332382,-0.0134000778198242,-0.0080255568027496,0.0100930929183959,0.0049170181155204,0.0190276410430669,-0.0227513455122709,0.0047067725099623,0.0516482080422341,0.0392702629083767,215
1733390451937644500,-0.03000548135899,-0.0522916935775428,0.002497077512741,0.7059185375418514,1.097360718235746,9.719458038759232,-0.0570443570613861,0.0746983811259269,0.0303072500973939,0.96074680234864,0.0637293654476739,-0.0195991215251793,0.2692955608281788,-0.0033116491977125,0.0010599656961858,0.0149735547602176,0.0064069032669067,0.0094470977783203,-0.0013267993927001,-0.0023662890307605,0.0331115871667861,-0.0307902750611305,-0.0163220781832933,0.0454718574948608,0.0062935106536373,216
1733390451977644500,-0.0130663292568176,-0.0042155718684196,0.032225276300311,0.6803004044216125,1.0757704523921012,9.723697576025128,-0.0486103519797325,0.0631671324372291,0.0311308167874813,0.9606665115481344,0.0623197173111653,-0.0185917057653039,0.2699825587631118,-0.0487704761326313,-0.0149052580818533,0.0005441477987915,-0.0052191615104675,-0.0079303383827209,-0.0040382742881774,0.0087272059172391,0.0279857534915208,-0.039483869126439,-0.0271807312965393,0.0533493128716945,0.0298524462217465,217
1733390452017644300,0.0067637219812721,-0.0011518734488636,-0.3132493723362684,0.6811203425023704,1.0688161762747912,9.724407185599206,0.0031206551939249,-0.1039860770106315,0.0012873823288828,0.9606269244308068,0.0619918107899513,-0.0187147483088869,0.2701902288637858,-0.0177843328565359,-0.0059102727100253,0.0222921185195446,-0.0110547542572021,-0.001101404428482,-0.0143691897392272,0.0147307366132736,0.0246159080415964,-0.0037362639188766,-0.0272549465298652,0.0191924839869141,-0.0065177478635683,218
1733390452057644300,0.1654934176046401,0.0945331908490508,-0.0001560673445463,0.7252992375772446,1.0647093254778537,9.72166227080524,-0.0349341668188571,-0.025381427258253,-0.031200461089611,0.9606776632144738,0.0623961843496207,-0.0209733024059679,0.2697502675103584,0.005605146754533,-0.0180321298539638,0.006813894957304,-0.0036854743957519,0.0161361098289489,-0.0121087431907653,0.016503132879734,0.0185438487678766,-0.015085925450921,-0.0184286832809448,0.0151430624656379,-0.0258298396421596,219
1733390452097644300,0.1565283131215721,0.149131407803297,-0.0364233125120401,0.712117903638631,1.0330055888336152,9.726056121850013,-0.1159272938966751,0.0295255128294229,-0.0640150681138038,0.9609974214826164,0.0606313198262195,-0.0208080785445003,0.2690259359694749,0.0343787372112274,-0.0080503886565566,0.0026280714664608,-0.0114663839340209,0.0099177956581115,-0.0024675726890563,0.0160128083080053,0.0157501846551895,-0.0285059635162353,-0.0010305475443601,0.0342649654343724,-0.0220806431764736,220
1733390452137644300,0.0089204616237431,0.0924941593021154,-0.0016734861701726,0.7222087972812354,1.0047983160030096,9.728266783636808,-0.0314881168305873,-0.1057422161102294,-0.0973532125353813,0.961539209442148,0.0593396346387317,-0.0217997182710315,0.2672937947732697,0.0252691283822059,-0.0103420922532677,0.0078568551689386,-0.0139837861061096,-0.0028371810913085,0.0002640634775161,0.011517196893692,0.0185276977717876,-0.0310918883562088,0.0113304890692234,0.0052400926105678,-0.0361244391633197,221
1733390452177644500,-0.0196962687905877,-0.0471474625568836,0.0484451742172241,0.7466358209207653,1.0085690667133778,9.726032740974423,0.0081359399482607,0.0035321051254868,-0.0635292753577232,0.9619429104957096,0.0598232922267743,-0.0230548004336474,0.2656227759118983,0.0041561210528016,-0.0108191175386309,-0.002219813875854,-0.0054720640182495,-0.0031400620937347,0.0002195686101913,-0.0036001540720462,0.0243432503193616,-0.0281003053247928,0.0248534549027681,0.0080422905497252,-0.0063387745674699,222
1733390452217644500,0.0840480371918529,-0.0064922846287488,0.0277566064536571,0.7322250182524324,1.005772056405991,9.727417473331093,-0.0262039098888635,0.0468622632324695,-0.0925833359360694,0.9623580288467508,0.0594552152650645,-0.0224678739388985,0.2642484018244649,0.0067103588953614,0.0034232016187161,-0.004655540920794,-0.0132794976234436,-0.0006926953792572,0.0042376071214675,-0.0086751915514469,0.0157129429280757,0.0008808744877576,0.0373423993587493,0.0210813664734363,0.0650131549194455,223
1733390452257644300,-0.0329002529524266,-0.0743359137337654,-0.0534089341044425,0.7110578731916845,1.007326373175904,9.728826755607129,0.0142721692100167,0.0280030462890863,-0.0622738152742385,0.9627621681895426,0.0592132590847282,-0.0214862519497472,0.2629092049330241,0.0311829447746276,0.0069773495197296,0.0001101857051253,-0.0110709071159362,0.0067873895168304,-0.00470931828022,-0.0050317444838583,0.0026440061628818,0.0290010535567998,0.025249358266592,0.0282233471825718,0.0726492940873839,224
1733390452297644300,-0.0438818848896771,0.0431483099181205,-0.161673493990302,0.6951047364521771,1.0076069436829536,9.729950791200997,-0.0219485387206077,0.0285501964390277,-0.0683164000511169,0.9631359793348576,0.0589833278004214,-0.0207735377098504,0.2616457605271191,0.0455469712615013,0.0032792310230433,-0.0044755777344107,-0.0038027763366699,0.0069496631622314,-0.0003540962934494,-0.0030480565037578,-0.0034685763530433,-0.0183148243695497,0.0072870068252086,0.0394338925048708,0.087416070586536,225
1733390452337644300,0.0201315184026956,0.0734192372802644,-0.0835246709048748,0.6873550721734761,1.0060664362426848,9.730660400775074,0.0017860089428722,0.0075365989468991,-0.0697658583521843,0.963501386103146,0.0587752668110901,-0.0204901062308589,0.2603665154690714,0.0407263822853565,0.0161963086575269,-0.004821655806154,-0.0109755992889404,-0.0099178850650787,0.0025035738945007,-0.0164628680795431,0.0109769348055124,-0.0323930340826511,-0.002252041362226,0.0003391688264906,0.0544567078580148,226
1733390452377644300,-0.070228186153993,-0.0166970139093697,-0.0371510422646999,0.6823956231351942,1.0020606346674263,9.731423201841116,-0.0288624987006187,-0.006320861633867,-0.0609910823404789,0.9638649487518836,0.0584834851904346,-0.0203761667445106,0.2590923330147927,-0.0061473827809095,0.0064961700700223,-0.0118318945169448,7.617473602294922e-05,-0.0103177726268768,0.0021128803491592,-0.0289061274379491,0.0065673869103193,0.003815758895874,-0.0281066372990608,2.20657013356e-05,0.0120553986486047,227
1733390452417644500,0.0121573246531188,-0.0711127869687974,0.1255582245141267,0.6758763774342834,0.9982674529295414,9.732267835971712,0.015511087141931,0.0333621241152286,-0.0494267679750919,0.9641974478450868,0.0581843678804457,-0.0201745752690128,0.2579357668527948,0.0097226602956652,0.0123000498861074,-0.0119557324796915,-0.0071085691452026,-0.0007412135601043,0.0034495592117309,-0.0163708291947841,-0.0119848661124706,-0.0307300693064928,-0.0237975977361202,0.0159146313600242,0.0961429276006296,228
1733390452457644500,-0.135006874730438,-0.0439280621189624,-0.0937397754490375,0.6555960982106626,1.0123826336521655,9.73219710882306,0.0369154252111911,0.0399808995425701,-0.0158732216805219,0.964363754158067,0.0586009044224945,-0.0190257325863003,0.257306150685641,0.0080960011109709,-0.003244767896831,-0.0039663151837885,-0.0029529333114624,-0.0008500218391418,-0.0122288465499877,-0.005454221740365,-0.0071721002459526,-0.0122878191649913,-0.0368244871497154,0.0219710087895393,0.0335637583624571,229
1733390452497644500,0.0495537199810147,0.0988039269708097,-0.1438940916717052,0.6510495408222079,1.0293139677740633,9.730726451748607,0.0398091599345207,-0.0170948542654514,-0.0453488305211067,0.9643817313221044,0.0593750082925152,-0.0185915741369749,0.2570932396763501,0.009888575412333,0.0044673206284642,-0.0056142788380384,-0.0047047734260559,-0.0001660883426666,0.0051606893539428,0.0094878431409597,0.0045588677749037,-0.0839659849315881,-0.0440501496195793,0.0095776834234595,0.0106727121185511,230
1733390452537644300,-0.0568082211539149,-0.0030954087320715,-0.03884790931046,0.6546104481741786,1.045321318918839,9.728780578377842,0.0478454604744911,-0.0390355214476585,-0.0635574012994766,0.9646672932690248,0.060190813813118,-0.0186359400135941,0.2558257905968341,0.0172969568520784,0.0007034216541796,-0.0031057144515216,-0.0080235004425048,-0.0070247650146484,-0.0059074163436889,0.0125913824886083,0.0071145119145512,-0.0773141258269548,-0.0232613086700439,0.0095822134681046,0.0202164932724088,231
1733390452577644300,-0.0937394831880927,-0.0914524682294577,-0.0890910728603601,0.673435633218661,1.0723269608747212,9.724555654159188,0.0719949379563331,-0.055839717388153,-0.0475953444838523,0.9648560003669848,0.0617554682164089,-0.0192848801980423,0.2546904483873402,0.0010969477007165,0.0039406004361808,0.006589257158339,-0.0068301558494567,-0.0091860294342041,-0.0007460117340087,0.0046760961413383,0.0003149532712996,0.0025268881291151,-0.012604285031557,0.0270095874786376,-0.0139191832264885,232
1733390452617644300,-0.0528366141092032,-0.0823275700747966,-0.0088192662715911,0.6908912834756076,1.1021078396975994,9.72000047507286,0.0594843290746212,-0.0306359622627496,-0.0562624633312225,0.9650472834164432,0.0634380208748017,-0.0198370154448555,0.2535072076046228,-0.0012676732148975,0.0049858377315104,1.8617138266563416e-06,-0.0004588961601257,-0.0052811801433563,0.0006656050682067,0.0078576225787401,-0.0055070244707167,-0.0172714527964591,-0.0101847955957055,0.0442215651728212,0.0261004002118483,233
1733390452657644500,-0.1246226972296833,-0.0671548431232571,-0.1228735154747962,0.6868111745551229,1.113570606215298,9.718983406984805,0.0012456534896045,0.0406237095594406,0.0016785027692094,0.9651473602690308,0.0639435845739936,-0.0195186892183831,0.2530232353966553,0.0113463895395398,-7.406144868582487e-05,0.0075778225436806,-0.0041096806526184,-0.000816136598587,-0.0075122117996215,0.0113770077005028,0.0026846262626349,-0.0601297667920589,-0.008583796210587,0.0422420817933976,0.0412091585490852,234
1733390452697644500,-0.0421230585236102,0.0016634031675755,-0.0888596021920442,0.6737433839935809,1.1167280473329126,9.71953578017056,0.0128645338118076,0.0257967822253704,-0.0135435471311211,0.9651847149149726,0.0639276478449952,-0.0188375607384739,0.2529363814019921,0.0045172455720603,-0.0046404777094721,0.0060066906735301,-0.0072209239006042,-0.0021102130413055,-0.0004206150770187,0.0069143436849117,0.0150583274662494,-0.0502694670349359,-0.0167052745819091,0.0372540642477571,0.0095981051569804,235
