time_imu,phone_acc_x,phone_acc_y,phone_acc_z,phone_gravity_x,phone_gravity_y,phone_gravity_z,phone_gyro_x,phone_gyro_y,phone_gyro_z,phone_ori_w,phone_ori_x,phone_ori_y,phone_ori_z,watch_gyro_x,watch_gyro_y,watch_gyro_z,watch_acc_x,watch_acc_y,watch_acc_z,headphone_gyro_x,headphone_gyro_y,headphone_gyro_z,headphone_acc_x,headphone_acc_y,headphone_acc_z,frame_imu
1724727776330911500,0.4621430623935535,16.75081213505268,1.6565566626816988,0.1756124230968765,9.780382170799374,0.6954475585404783,-0.4193915426731109,0.4669881761074066,-0.0127394422888755,0.3441765428253841,0.3313225357177847,0.5956235563815737,0.6457556457860865,0.1312896013259887,-0.1199464201927185,-0.0334283858537673,12.774107474941015,-4.257975716646016,9.97703579275608,-0.0274985153228044,-0.0452625043690204,16.617694288939237,0.4280095398426056,-2.9532269972756504,4.710867368428409,0
1724727776370680300,1.3510691565185784,15.996898139822482,2.5587971790730952,0.1179232087241951,9.770695474043489,0.8306443298198283,-0.2544529736042022,-0.2608521282672882,-0.1628356277942657,0.3472314224086643,0.3261429028589401,0.592688562368359,0.649446917994474,-0.0471294075250625,0.0557349063456058,-0.1580982208251953,14.15423730624914,-1.7293290534257888,9.742896197491884,0.059784535318613,-0.2000253647565841,15.4846605651021,0.2675184309482574,-2.792838866920769,4.069421229992806,1
1724727776410448600,0.6666717651069164,10.544459248125552,2.562344057899713,0.0515887055404949,9.771838214337825,0.8239546229228377,0.2034435123205185,-0.1409682482481002,-0.3241223096847534,0.3523605784931423,0.3270329687775877,0.5924858156278684,0.6464147562062729,-0.2066871076822281,0.4178687334060669,-0.2926863133907318,9.588574235308169,-2.1405736666984856,7.254606971362232,-0.1449882388114929,-0.7114695906639099,8.315198559322953,-0.2611490190029144,-1.759724483950436,0.7300788000039756,2
1724727776450217500,-0.3748424166139215,0.1524140827357769,-2.890785154148936,-0.1342246657110285,9.77140099196434,0.8198006450485438,-0.2423904240131378,0.1402306705713272,-0.4133155643939972,0.3586572370491477,0.3216791557133168,0.5955873735081941,0.6427776390633821,0.248272955417633,0.4384041130542755,-0.9451305270195008,1.3234692019313572,-1.1705404476717114,1.8056226040333507,-0.2724149227142334,-1.0953179597854614,-5.047364053100347,-0.3192598521709442,-0.0707792898312676,-0.4906407330054789,3
1724727776489985500,-0.1715533934970386,-9.483643203759192,-2.7237919264405965,-0.1444812073772773,9.755683198350669,0.9879955036316066,-0.5744926929473877,0.1435645669698715,0.2013356536626815,0.3585035914109371,0.315305188747865,0.5917844934173758,0.6494989044366631,0.7891678810119629,-0.1575090289115905,-1.039083480834961,-7.005800552842021,0.4793647942967712,-4.9399715998739,-0.1251685172319412,-0.0764753222465515,-10.68883147870302,-0.0922074541449546,0.9086773445058614,-2.140283743841201,4
1724727776529754400,0.5102860387938096,-13.384267663753032,-0.6254314077019691,-0.1572909497908316,9.730417239668965,1.210215455456078,-0.5711193084716797,-0.2511861026287079,-0.2233485430479049,0.3640767253448125,0.3122101954758289,0.5837987473154795,0.6550968942904272,0.1769796013832092,-0.2226728051900863,-0.3908175528049469,-10.56283427824974,1.688716472530365,-9.660478611046075,-0.0122737204656004,-0.243778795003891,-9.91864205597639,0.0590731650590896,0.809682571138069,-1.1565545924171805,5
1724727776569522400,-1.2262712488524614,-13.930089528167247,1.1945318563729523,-0.1725410528275184,9.711806062701344,1.3496066827505826,0.0206051412969827,-0.1022311225533485,0.1766104847192764,0.3685562614449411,0.3106609394438919,0.5785144702191628,0.6580099370734527,-0.0887492895126342,0.0456407815217971,0.0705140605568885,-10.123004937136171,1.5348489761158823,-7.988594030851125,0.1240605786442756,0.0614544861018657,-10.379179838597771,0.2827401161193847,0.6559402354732156,-1.5834204070612787,6
1724727776609290200,1.0772386983137576,-12.067834351807832,0.2491103699028491,-0.1030979709029197,9.732889182740449,1.1960897533394397,0.6128702163696289,0.0557180009782314,0.0266674663871526,0.3644157509761379,0.3162262187089586,0.5822519854852111,0.6543583324048855,-0.1963396519422531,0.304177314043045,0.356958270072937,-9.700935709118845,1.1029578075904398,-6.994722109466791,0.1425351947546005,0.2385465204715728,-10.18606549668312,0.2363446652889251,0.4828168344467878,-2.199737364937365,7
1724727776688827400,-0.3324554464571178,-8.768264398628473,-2.5502760189652443,-0.1778089284941554,9.77861866825819,0.7193102262955159,0.4660213887691498,-0.0257264617830514,0.0516785085201263,0.35982701782541,0.3234998661418604,0.5988933305427391,0.6381216513574738,-0.2313221395015716,0.2838800549507141,0.3764443397521972,-7.347915954178571,0.3660534724153578,-4.986533444562554,0.0813884064555168,0.1157932505011558,-9.55017523880899,-0.2660102546215057,0.6333108358401804,-2.960187776198983,8
1724727776728596200,1.1377315262645482,-7.634915032970905,-2.631916191297769,-0.173167532429099,9.785506089684366,0.6198885327525436,0.0343954972922802,0.03440672904253,-0.0846834704279899,0.3571270798123798,0.3246133367971531,0.6025119599442925,0.6356616528948644,-0.0483920089900493,0.1422766745090484,-0.0312190931290388,-5.940365031981468,1.3532077759824692,-5.422394466567039,-0.0667016506195068,0.0690909102559089,-9.564200257030128,-0.2072461098432541,0.7695166380316019,-2.536466981582344,9
1724727776768364300,-0.6508836827360093,-8.29398099924922,-1.5235148044139146,-0.1772108347368426,9.78078023020625,0.6894346549265086,-0.3645398914813995,-0.2201148867607116,0.1658678352832794,0.3597542291082888,0.324482844758373,0.5996328040736658,0.6369680328246011,0.1737318783998489,-0.125772088766098,-0.3072454631328583,-5.7175978946030135,1.9060401036806405,-5.31785915633738,-0.127681627869606,-0.0184876322746276,-9.647007719576358,-0.0026003832463175,0.6981386973205953,-1.9788133712075648,10
1724727776808133000,0.3005114713162183,-7.859496526294946,-0.9820178905267268,-0.0962560417194385,9.766776839295028,0.8781693935174495,-0.6107953786849976,0.0243734288960695,0.1950296759605407,0.3609117470553584,0.3241020831159556,0.5917631787888609,0.6438298346757964,0.2271040230989456,-0.2738942503929138,-0.5237485766410828,-5.790092052927613,1.3952793235145509,-5.3759167930305,-0.3222966194152832,0.6992408037185669,-6.029067982307076,0.4485503137111664,0.3825332268448546,0.995877708248794,11
1724727776847901200,0.1279329542888328,-4.906082189753652,0.8200668217040598,0.0104817492738482,9.742669987520577,1.1183386243347078,-0.5404806137084961,-0.2403414100408554,0.3268453776836395,0.3637954275566994,0.3250500810220896,0.5807951818260748,0.651668971510848,-0.1891651004552841,-0.2245915979146957,-0.2278900742530822,-3.752291509091854,1.6737551963724195,-2.8011113129645584,-0.2404268980026245,2.4852616786956787,-2.3243612312108275,1.2054017782211304,-1.9878871967621143,4.610370227673649,12
1724727776887667200,0.3661141530940309,2.597145322167873,7.3437600035429,0.1240987920865882,9.744814013811943,1.0925085289642211,1.2420891523361206,0.3994147181510925,0.2176370322704315,0.3599705175357239,0.3292782212930563,0.5795458748905529,0.6527814237559034,-0.9099105000495912,0.374162882566452,0.7917042374610901,1.6935253341168164,-2.436744770722836,3.715653677046298,-0.1707910448312759,-0.934586226940155,2.5977009102240203,0.0835355594754219,-0.7537306014873087,1.6566376189634202,13
1724727776927435300,1.5304982335604729,7.056531207647919,-2.761086176568269,0.1587608031476848,9.787724934777616,0.5878991110347211,0.6264152526855469,0.1950667649507522,0.0408862233161926,0.3435030161550799,0.33325299631617,0.5991393217726114,0.6418568328733536,-0.38723024725914,0.4504005312919616,1.0507549047470093,5.85203559114337,-0.1369873810231685,3.56309463288188,0.2506769001483917,-0.452989399433136,11.83907586506009,0.2038782835006714,-1.0474670987758783,2.309768934495747,14
1724727776967204000,2.51009364618063,10.85302601560354,2.911362078231573,0.1254735419053584,9.800252992439267,0.3311348653778433,0.9343437552452089,0.2207188010215759,-0.2068780064582824,0.3382403955730253,0.334830954933307,0.6091018398052305,0.6344103328806919,-0.4189461171627044,0.429140031337738,0.9389989376068116,8.245350531592965,-0.6499392414927482,7.033064407342672,0.1298808157444,0.4067658185958862,9.37876068752706,0.2382408231496811,-1.4357719312921169,1.7174333023183046,15
1724727777006972200,0.1092980676520615,10.905456460064649,-0.33997195956707,0.0238794704760774,9.80618238248825,-0.0926302889703307,0.9726161360740662,0.1825515776872635,-0.2383338510990142,0.3308514995279156,0.3355174648181657,0.6262194991563156,0.6211395720814933,-0.505236804485321,0.1805065125226974,0.9204913973808287,8.010419493690133,-2.6153710069492457,7.045238829261064,0.2662726640701294,-0.2137770056724548,7.889894002646208,-0.0797332599759101,-1.269143445242941,1.5425098661325871,16
1724727777046741000,-1.3040719891525805,8.637050340309738,-3.457249409097433,-0.0232136749275494,9.802493464842438,-0.284587798133213,0.0257253460586071,-0.0276995562016963,-0.0519423820078372,0.3283002364518309,0.3364705484624655,0.633480472939849,0.6145804498040414,-0.1057535707950592,0.14291812479496,0.3466973602771759,7.97539961823523,-2.0268258530959486,5.073454772168398,0.2377920597791671,0.0717804431915283,6.8511232013493775,-0.1217749342322349,-1.0655823819853365,0.7842444707598537,17
1724727777086509000,-0.2114760376332327,8.30295107216835,0.6733236242115497,-0.0795690651468932,9.801104056310653,-0.3200288398759439,0.3815358579158783,-0.0906556770205497,-0.1850607246160507,0.3300989512108891,0.3359074215537217,0.6352032230703712,0.612141951198016,-0.1881887912750244,0.1557015031576156,0.238562062382698,5.647513720029592,-3.2944685383871195,4.981852008748054,-0.0860827192664146,0.1165795624256134,7.945656806400418,-0.2885850667953491,-1.1858004875805228,-0.2211927642012014,18
1724727777126278000,-0.4938684994129463,7.927087715008854,-2.6279285829663275,-0.1247333727962337,9.794642751342058,-0.4688214076463133,0.0695614740252494,0.2211294770240783,-0.0077804294414818,0.3280839355034677,0.3360257822766679,0.6410849493863499,0.60700711682599,-0.0092187765985727,0.0278133675456047,-0.017079371958971,5.060291339212656,-3.389331764908135,5.862514315059781,-0.2518147826194763,-0.1359996497631073,6.7728036978721615,-0.3159880340099334,-1.019934948727861,-0.075451884752186,19
1724727777166046000,1.0537390917174518,7.626319054061174,-1.939807202595472,-0.1011460239843931,9.801073661172389,-0.3147825367202982,-0.628708004951477,-0.1569758355617523,0.0620296820998191,0.3297101452082127,0.3339232421214947,0.6360382934633915,0.6125697167524103,0.3272282183170318,-0.1174636632204055,-0.3313056230545044,5.51504586225748,-1.4628259424343704,5.009010064786672,-0.1177162528038024,-0.0656551048159599,6.030689446029067,0.1382923275232315,-0.9247531577769666,0.5291327780829742,20
1724727777205814800,-0.568670277092792,8.179296050927043,0.5330699348688125,-0.0595082327936543,9.805796598041058,-0.1148326770966406,-0.4438451826572418,0.0322773791849613,0.1862292438745498,0.332743418155412,0.3328546220408274,0.6285400845817765,0.6192147775838962,0.3233399987220764,-0.347726434469223,-0.4737428724765777,5.298691514530778,-2.5767919777080417,5.707340704482793,-0.020378665998578,0.0734201073646545,6.792894884264469,0.2791195809841156,-1.020240288349986,1.2690443687826394,21
1724727777245582800,0.3680392394050955,8.266678566303849,-0.0328513083773199,0.0316428276367019,9.806101133945583,0.0986917353006079,-0.5759819149971008,0.093716025352478,0.2171210795640945,0.3321202214462657,0.3307998491332078,0.6209183372395337,0.6282737777095134,0.3019295334815979,-0.2173446118831634,-0.5353785753250122,6.52729690541923,-2.202342578999698,5.16265222801268,0.0390826351940631,0.0999641492962837,8.722163157188891,0.2705062627792358,-1.4355347615353762,2.6330764672487974,22
1724727777285351700,0.5526936133472249,8.042980870077013,1.541626799687743,0.1025695357151795,9.802650116708874,0.2606083173317834,-0.2139302641153335,-0.1040522158145904,0.188131183385849,0.3321582374543737,0.3298952898031903,0.6147208892355727,0.6347899002569466,-0.078052707016468,-0.0038026142865419,-0.2449927628040313,5.873785066136717,-2.019703307739645,5.631195037913322,0.0209979023784399,0.1380155831575393,10.60207440174818,0.0693845972418785,-1.618019426755607,3.118466951575875,23
1724727777325222000,-1.7104225467734038,4.995245743328333,0.7639531586855649,0.2059659507085569,9.802566530078648,0.1940263969919644,0.5712497234344482,-0.4891018867492676,0.3569673001766205,0.332221630378302,0.3386582099102463,0.6127136556776387,0.6320770143703759,-0.1653455197811126,0.5919032692909241,-0.0405369587242603,5.437197483423352,-2.4227150763265786,5.3907198098868125,-0.2485969066619873,-0.7591589093208313,7.46313866263926,-0.4577149152755737,-0.7689941485274583,1.1788645508375015,24
1724727777364994800,-1.9598212320983408,-2.5612942565858363,-4.980837278747559,0.395509685861133,9.798664846464993,-0.0097257044588681,-0.1240259781479835,0.1251749396324157,0.6142026782035828,0.3248422485563495,0.3502399835245135,0.6146770102090767,0.6276794620553328,0.1250375658273697,0.6480571627616882,-0.7222936153411865,-0.5943892037063837,-2.130659883188456,-1.4664794965058563,-0.3392862975597381,-0.9352061152458192,-7.332241415184736,-1.05233633518219,0.3362485916623846,-1.6618366489112375,25
1724727777404766500,2.3889028230957687,-8.435939738944173,-1.123141859897971,0.6047470777221023,9.782377728530763,0.331259843464382,-1.236416220664978,-0.0886387899518013,0.2826163470745086,0.3239547658724797,0.350880204861578,0.5999946089137597,0.6418276954654913,0.7243614792823792,0.3362201452255249,-1.224976897239685,-5.406772534543276,2.786609909403324,-6.533932982432842,-0.2355449795722961,0.2404484003782272,-12.225250772875548,-0.1560778170824051,0.4591153851354494,-1.968921653398872,26
1724727777444539600,3.567297929790616,-11.21258179656267,2.726127675911784,0.5570135954381897,9.762146256884932,0.7487564663365482,-0.8441688418388367,-0.1533632725477218,-0.5446426272392273,0.3348349691397664,0.3441164552740952,0.5860101608667527,0.652733924207325,0.430211067199707,-0.138834998011589,-0.3895793557167053,-9.11204568735063,4.232055385708809,-8.30181125448346,-0.0235116090625524,0.0658626109361648,-9.082904348540303,0.1199374347925186,0.7171962298162281,-0.7974274851989,27
1724727777484311300,-0.1710732270309701,-11.771698026835915,1.9865315443694591,0.3252000319687649,9.757726102355122,0.9227228209931404,0.0290019325911998,-0.2016196101903915,-0.4509074091911316,0.3483659920196886,0.3365933469135252,0.5828028385419138,0.6524468734118991,-0.1232148632407188,-0.4246392548084259,0.3159089088439941,-9.311634778237345,1.5315766764469445,-7.161825227290391,0.0187837742269039,0.1576028317213058,-10.03732922567725,0.1033903285861015,0.589244461229071,-2.315173131626844,28
1724727777524084000,-1.1763462113410237,-10.954253516459463,-2.120315745437145,0.2596662507086992,9.769272163242102,0.8150266355797648,0.2603136897087097,0.1374414712190628,-0.0362486578524112,0.3488591585845231,0.3367033182851711,0.5874317668596293,0.6479598926647695,0.1104722023010253,-0.270775705575943,0.2632010877132416,-8.248253851819038,0.1897442809596657,-6.34779140214026,-0.065323568880558,0.0973277017474174,-9.011808951097729,-0.1984050273895263,0.8634870073661207,-3.1260993461504576,29
1724727777563856000,-0.0707801392146386,-9.513720362114906,-3.264838247016072,0.1948295666010119,9.771097040581704,0.8112303120367228,-0.1968360990285873,0.0972154065966606,-0.3088172078132629,0.3491092532201441,0.3331518665452126,0.589617333722309,0.6476758262718196,-0.0081495177000761,-0.0530154891312122,0.0098777431994676,-7.376296830010413,0.7688273405931889,-6.6994953005552285,-0.070711463689804,-0.0845844894647598,-9.063623309487104,-0.3612950444221496,1.0277762368127703,-3.4267309367150065,30
1724727777603628500,-0.1155409988959319,-9.482029338821768,-1.613915206307173,0.0630182502086041,9.765144854179024,0.8990962270162999,-0.1921133995056152,0.0833051353693008,-0.2635876834392547,0.3539495826112815,0.3266690663679048,0.5894456482058696,0.6485066982903056,-0.0855337902903556,-0.0358252078294754,-0.2076324075460434,-7.046217318904399,1.4181553183197977,-6.071423022955655,-0.1457663774490356,-0.1175267472863197,-9.37549671729505,-0.2090038359165191,1.162517592474818,-2.611096398369968,31
1724727777643400700,-0.1015015137580223,-9.804542214065789,-1.6534532898388803,-0.0161138106188678,9.755012751743196,1.0049240612745285,-0.3971598446369171,-0.0787743553519249,-0.1760669350624084,0.3574523578532558,0.3215503584673505,0.5876806100036235,0.6507417531549823,-0.0045209601521492,0.0091355014592409,-0.3546815812587738,-6.347738210648298,2.0370808512590823,-7.116653960177302,-0.1350215226411819,-0.1879471242427826,-10.28825161343813,0.1410839706659317,1.3893646926432848,-1.838032296989858,32
1724727777683173400,-0.9668839612156152,-10.192082565015554,-1.4128437679082155,-0.0665133075164398,9.731049107831716,1.2135264066349714,-0.5911685228347778,-0.1827333122491836,-0.0204589422792196,0.3648015284372026,0.3181752293908708,0.5804238930717514,0.6548224665877347,0.0424468144774436,0.0229642838239669,-0.3551343083381653,-6.879887523540854,1.5021923226609826,-6.97629797950387,-0.0109645165503025,-0.1685152053833007,-9.579763152343034,0.2650663554668426,1.334511551079899,-1.2387190808847546,33
1724727777722945300,-0.7117656561348586,-9.306132089167832,0.2767716992884874,-0.0172688155980897,9.71718658669591,1.3215079848609863,-0.1481257081031799,0.273657351732254,0.3448827862739563,0.3648610939924222,0.3175766464982842,0.5759921136036867,0.6589799673795995,0.3077320158481598,-0.3708097636699676,-0.4205239713191986,-7.460633986341953,0.5778700305819511,-4.495506415653228,-0.3357373178005218,0.4414909183979034,-10.175839870744944,0.1097345873713493,0.3392327585723251,-1.0755299216344951,34
1724727777802489900,-0.7066221557665616,1.0039490787625311,4.705258588635921,0.1164516018016729,9.66401438395679,1.6624200017571449,0.1194353923201561,-0.0224130786955356,-0.060240238904953,0.3669119426786804,0.3159778875735087,0.5616031933564836,0.6709213093024756,-0.7054529786109924,-0.187735378742218,0.53110671043396,2.032615834674239,-2.401975216767192,2.199375838148594,0.0083461534231901,-0.7035658359527588,2.106700038669258,-0.2106223404407501,0.0376667184355668,0.847890355914086,35
1724727777842262800,-0.2901775078990496,7.332500358381867,0.9907429757088422,0.1501167747119907,9.705535896390677,1.396575208543986,0.4855762422084808,1.2898238897323608,0.4867804646492004,0.3478536032288353,0.3103418552299675,0.5766128830963746,0.6709719969040115,0.1099502220749855,-0.3689656555652618,0.2304545938968658,5.155068056493997,-1.437474789687246,5.636807032576203,0.3092594444751739,0.6265897750854492,10.552051018428802,0.4621919095516205,-0.8409170097701251,2.57155407705456,36
1724727777882032400,4.494805573907494,9.483324639329314,2.080024651581049,0.2121949082260019,9.716077748671172,1.3127085923336446,0.2630197405815124,-0.4229794442653656,-0.1631080061197281,0.3399807745006842,0.3098952185094107,0.5805475381463467,0.6718204056861682,-0.1894902735948562,-0.1055638566613197,0.6084598302841187,8.153327496933937,2.012737121988833,5.557111564570665,0.2247453927993774,0.081190213561058,11.39421379047632,0.1453335136175155,-1.1620612270094453,3.586218611098826,37
1724727777921805300,-1.494173851378262,11.552027686429025,3.9855835476160046,0.0998507508763112,9.743198395308852,1.109277950522676,0.89166259765625,0.522744357585907,-0.3091605007648468,0.341885467347103,0.3112210658666492,0.5887138632932709,0.6630774985573012,-0.4003319442272186,0.1080445647239685,0.8080676794052124,8.555220782884955,-4.097620027256012,6.703975660839676,0.2798488736152649,0.3414960503578186,11.819459310442207,-0.0379209741950035,-1.635046841663122,1.8389017733007669,38
1724727777961577200,-0.3511870714666321,13.232046473240851,-0.1767594194412231,-0.0398160830557579,9.778325822791455,0.7437364462174475,0.7661734819412231,0.034485138952732,-0.3275014460086822,0.3352565513327384,0.3082612066112068,0.6058506604933298,0.652321289590952,-0.5120885372161865,0.0514342226088047,0.6264532804489136,11.551405755138395,-2.422351211450249,6.968488767057657,-0.1786793619394302,-0.0790644288063049,12.74429452047944,-0.6179595589637756,-1.638355381689221,0.4461080925894901,39
1724727778001350000,-1.3819358578167855,13.057376135033367,-1.1277806256145235,-0.1473603430101648,9.788545018988849,0.5771139880502596,0.1523928493261337,-0.0307673756033182,-0.2462294846773147,0.3371993651653889,0.3087202639949418,0.6125905438297197,0.6447644646832522,-0.369074136018753,-0.0662871897220611,0.0247571561485528,10.442724382269382,-2.7001848408818243,7.107417345276475,-0.4807612597942352,-0.1802838891744613,10.519143605083226,-0.075870893895626,-1.2170681708950548,1.1772983244340869,40
1724727778041121800,-0.4583878015132621,11.48677867692709,-0.1510399083057418,-0.2420658764851279,9.785851542121172,0.5906753342824056,-0.1996630579233169,0.1123370230197906,-0.218102365732193,0.340033020190187,0.3050465114673329,0.6138652669149308,0.6438117742554353,-0.0618295259773731,-0.1938186734914779,-0.4550513923168182,8.825105060747266,-2.6137714627981183,7.24062403871715,-0.531402587890625,-0.2289503514766693,8.766051398754119,0.6867709159851074,-0.8900359185304492,1.950732355105132,41
1724727778080894500,1.8785120452858504,10.63960070706606,1.1708991249162704,-0.3908152079019695,9.773512869551777,0.704359544596821,-0.4021397233009338,-0.1994501650333404,-0.5997090935707092,0.3475235533053141,0.2991832031298017,0.6120270151697409,0.6443134881060365,-0.036312710493803,-0.2879770398139953,-0.4667645990848541,8.00910198135078,-0.6947517582960426,5.8678691200912,-0.280003011226654,-0.1572199910879135,8.755749784970282,0.8111320734024048,-1.0392695445992053,3.345992097136378,42
1724727778120666600,-1.65094963645488,8.580023800230025,2.2167858226329087,-0.5683259206345305,9.752529118233918,0.8576682380847632,-0.2537316679954529,-0.1142258197069168,-0.214633047580719,0.3578826262430987,0.2929259239225198,0.6086587656790391,0.6447085222094013,0.0317270569503307,-0.2281887978315353,-0.3178290724754333,7.270380879077315,-2.438206221577525,6.097489776626229,-0.0551223643124103,0.0993699207901954,8.50862620497048,0.521378219127655,-1.1696809082329274,3.3935859152212737,43
1724727778160439300,0.1156924448642879,6.483050351935625,1.7214666494876143,-0.6157812435641884,9.748289580968022,0.872950562890619,0.1285997629165649,-0.0422525741159915,-0.1847933083772659,0.3592000673232236,0.2907099605169279,0.6090809701040452,0.6445799818811574,-0.2138123959302902,0.2376524060964584,-0.1051968485116958,5.503306909146905,-1.1472811526373028,4.064432627925276,0.0264285877346992,0.0001694029197096,8.229311250939965,0.0346035473048687,-1.1875580718375742,2.4801234553307294,44
1724727778200211000,0.5383164572201669,3.1615678421556948,1.4761100791603323,-0.7099507887326181,9.752905550330876,0.739723338118568,0.6225699186325073,-0.1136928871273994,-0.2395875602960586,0.3624756967170625,0.2922940144331685,0.6138801317875501,0.6374376536453833,-0.188858300447464,0.5238893628120422,-0.0788279548287391,2.194302188146114,-1.0824864627741275,3.218527162218093,-0.0526612661778926,-0.7359938025474548,1.4691187589682635,-0.2999051511287689,-0.2419196364148519,-0.245686898260191,45
1724727778239983900,0.0831244926061481,-3.725300041791797,-2.681921454438567,-0.7050180815707892,9.767515090441703,0.5186106534162536,0.2638421356678009,0.2186674773693084,0.2302814126014709,0.3574485473499964,0.2950272355642026,0.6217050316213018,0.6314049014751728,0.3328496217727661,0.0410428345203399,-0.5672698616981506,-3.5195781472384926,0.1731767386488616,-1.7273603837013245,-0.0008433857001364,-0.5085545182228088,-9.37417102164924,-0.3595560193061828,0.3747317227810621,-2.442666854248196,46
1724727778279755500,0.5059497996877879,-9.76164707519114,-3.50305955863595,-0.6692047176506369,9.76149860663116,0.6600945056084543,-0.8632585406303406,-0.0438272356986999,-0.0458320118486881,0.3582706137860565,0.2934266010878578,0.6166403944507762,0.6366300327980073,0.6600812673568726,0.0356936082243919,-0.7074346542358398,-6.899145181718469,1.7228709633275865,-7.431983061397076,0.002778256079182,-0.0330932550132274,-10.598775360202788,-0.3529642522335052,0.8236295556869357,-3.123608406117558,47
1724727778319528700,-0.4099642546059563,-12.293645679187774,0.7471534150540828,-0.6107138406394049,9.737236856555938,0.9917848859772086,-0.5761764049530029,0.031815156340599,0.3389439582824707,0.3610930105673985,0.2889470444029085,0.6049319362281552,0.6482120408907815,0.5261557102203369,-0.1512213051319122,-0.3299683630466461,-9.598179683521389,1.449974205776304,-7.0832175545215605,0.1324150711297989,0.0087971817702054,-9.698231126335262,-0.270945280790329,0.9373295115597544,-1.8822874721713363,48
1724727778359216600,1.8529761836215848,-11.89780394836068,0.754670951077342,-0.5038435481235385,9.737785138088464,1.0450209477327763,0.1269707083702087,-0.272344172000885,0.1185737773776054,0.3600384156675371,0.2928610323884785,0.6007921246790143,0.650886777813195,-0.1382627785205841,0.0412769801914691,-0.0359652452170848,-9.345988883259892,2.33331815238744,-7.853803867611289,0.1670072972774505,0.1929853856563568,-10.21995490680337,-0.0486834347248077,0.8447536653235554,-2.1663373457692563,49
1724727778398986200,0.4499319251939654,-11.207055726617574,-1.3595299647413193,-0.4668410474840551,9.744498371991517,0.998604502864182,0.1098784059286117,-0.2248085588216781,0.0262263994663953,0.3624555928929821,0.2988883988468016,0.5997925194880714,0.6477196331607337,-0.0831289589405059,0.1494490504264831,0.0393968187272548,-8.904632186448573,0.6410849039077758,-6.547881428286433,0.1484012603759765,0.1989655494689941,-9.136393362143636,-0.1179540008306503,0.8796619701627642,-2.672648599180579,50
1724727778438670800,0.7581681455433368,-9.922902051508428,-1.0990198105543851,-0.4497651172596961,9.750669754102825,0.9447436602737754,0.2064160108566284,-0.0163330677896738,0.0395720563828945,0.3617275266574899,0.3010340049522782,0.6010074920754906,0.6460044730203582,-0.1086785271763801,0.1220996081829071,0.0571373328566551,-8.1110607190907,0.5111847046665847,-5.82810584950149,0.0643993020057678,0.094158299267292,-9.278931363031267,-0.2887568771839142,0.9703227765578776,-2.9292385111838577,51
1724727778478524400,1.4093101869545877,-9.112053286135197,-1.2801315799862143,-0.4392097844431176,9.756691498610376,0.8856872948668897,0.1535156518220901,-0.1473921537399292,-0.0539531931281089,0.3625088767301543,0.304365123322948,0.6018341842818711,0.6432299642123271,-0.2318302690982818,0.0205550827085971,0.0276297088712453,-7.334778240185976,1.235243805989623,-6.1801873490571975,-0.0014992307405918,0.0577901899814605,-9.44511795053184,-0.2844391465187073,1.042171257390082,-2.720387378694117,52
1724727778518293000,1.2515636571496724,-9.785838682639598,-2.006110689586401,-0.4997846281215548,9.755463418120144,0.8669196121633053,-0.1672782003879547,0.0054874494671821,-0.1630184054374694,0.3640280386286941,0.3026716308305829,0.603480972536573,0.6416262716313249,0.104525625705719,-0.3179011642932892,-0.1039659306406974,-8.416458793404697,1.6040724422067405,-5.954891569983959,-0.005335135385394,-0.0565206557512283,-9.62309142193794,-0.2721306681632995,1.1828532551474868,-2.808081151977181,53
1724727778558062600,-0.1332679221086204,-10.179299071288108,-0.1864297495841979,-0.5176555811811239,9.747744806566834,0.940154213591665,-0.0257831122726202,-0.26267209649086,0.0440570153295993,0.3683420527109043,0.3031720953451545,0.6001267817180577,0.6420737378375178,-0.0547146201133728,-0.069151796400547,0.0336249507963657,-7.013453697943687,0.8701116862028837,-6.126435885125399,-0.0190730821341276,-0.0703570842742919,-10.1924823779881,-0.1080060899257659,1.1136443290386349,-2.416150018722564,54
1724727778597831200,-0.2241843472326174,-8.652597453531623,-1.2642998046040534,-0.4743241332484409,9.75348130439222,0.902775500050932,0.0374572314321994,0.2145538032054901,0.1597857177257537,0.3660626592770162,0.3049575182358268,0.6008095955276641,0.6418932038930817,-0.0519265569746494,-0.304953396320343,0.1233744099736213,-7.573503409674763,0.3924219855114817,-5.431058250015973,0.2274093478918075,-0.1382078528404235,-3.199348706756532,0.1147184073925018,1.5575800094924863,0.6594410832010209,55
1724727778637600800,-0.7294131026368588,-2.429102877667546,-0.0181518158275634,-0.38703291288428,9.760147776544091,0.8718340530160814,0.1551143527030944,-0.1040197238326072,0.3171144723892212,0.3628431818798571,0.3083525601317383,0.6003894837602523,0.6424919687350858,-0.5030801296234131,-0.3329672217369079,1.1404775381088257,-1.3640496341228483,-1.0881780985444784,-1.5921411813944577,0.6321385502815247,1.8512382507324217,6.5318310417175285,0.2608580589294433,-0.4767050370356068,4.066008206678927,56
1724727778677369300,0.3810773289481177,9.656823595669865,6.401181047022343,-0.2727395028966479,9.789180978804826,0.5176128745505586,1.7619898319244385,0.6860090494155884,0.3275197148323059,0.35177373711418,0.3167792119654988,0.6109500957378062,0.6345440178527344,-0.9296554327011108,-0.0840708240866661,0.8039947748184204,8.55217191670835,-1.5035380381815135,7.459578339809179,0.3965191841125488,1.7118191719055176,6.661618866625428,0.4106285870075226,-2.2519242099009453,4.149821631397307,57
1724727778717139000,1.603610669913888,14.040872792875764,-3.3576942253679034,-0.1646957644209265,9.804478501179814,0.1244741556044667,0.2305762618780136,0.1005548015236854,0.1304450780153274,0.3355603494124707,0.3208748426611202,0.6250543332781325,0.6274917094617339,0.0662975460290908,0.2395426630973816,0.6749463677406311,12.224985399937628,-1.4518753632225094,8.342835923311114,-0.0577033907175064,0.0247333012521266,10.098274985027311,0.0521078668534755,-2.841189933113754,2.643026198855042,58
1724727778756907500,0.2869307627964764,15.455705688774584,2.1246178265452382,-0.1835311785984784,9.804916308075189,-0.0175705590406199,0.6070898771286011,0.2122953236103058,-0.2124275118112564,0.3329586060513686,0.3218152334364532,0.6303418157812735,0.6230912187826523,-0.1575408577919006,0.116636611521244,0.4365687370300293,11.031650059872865,-2.527840315273404,8.519955408236385,0.0417566411197185,-0.0644215494394302,13.664025685375927,-0.047561228275299,-2.207638639581204,3.388140509296953,59
1724727778796677000,0.4295664519049227,12.92448975958824,-0.5947124077787622,-0.2969875715063885,9.79678327050209,-0.3243618641115725,0.6244455575942993,0.4395338296890259,-0.3032869696617126,0.3262018319262286,0.3177887504059272,0.6446302523165219,0.6140475915165335,-0.1712327152490615,-0.0738686248660087,0.448978990316391,9.770669170558453,-3.4601366549715395,7.676855063077807,0.0290223602205514,-0.23445725440979,11.36519578578472,-0.4681518375873565,-1.482027632641047,2.254334485913068,60
1724727778836445700,-0.941361324359104,9.578020108067989,-2.833686133354902,-0.3552486948823556,9.79361516185999,-0.3595798194218427,-0.1655034869909286,-0.0529456734657287,-0.0054886280559003,0.3253124942616746,0.3141923788391303,0.6477782165733065,0.6130565771694231,0.138717696070671,-0.0832024216651916,0.2789566218852997,8.221845737364887,-2.648165315309167,5.743664648273587,0.036680269986391,-0.3620845377445221,8.568038178882002,-0.507439911365509,-0.8043802269462496,1.9859085901655256,61
1724727778876210200,-1.1204065897151827,6.56470864444673,1.044649337941408,-0.3059392137196846,9.794872468444703,-0.3705322617972269,0.2134228348731994,0.2337311506271362,0.2147150784730911,0.3229723871498658,0.3153495189889014,0.6476469470018223,0.6138380123714032,-0.3559021651744842,-0.0052364603616297,0.1441508680582046,5.224280708929896,-1.7901728137061,4.584132209089399,-0.036142561584711,-0.2232947498559951,5.19294273685813,-0.384482592344284,-0.2527304783624596,0.7994535841990262,62
1724727778915978800,-0.0190345534788444,2.778770886340737,0.9769640412032604,-0.1995859856141731,9.793181446617842,-0.4734336872147396,0.291505753993988,0.2095989733934402,0.2844838201999664,0.315335583246473,0.3177560473709696,0.6505147920029393,0.6135348487418664,-0.3586175143718719,-0.0227132402360439,0.1722578704357147,2.6447996382683514,0.6412842258721589,2.707904036957025,-0.0039311535656452,-0.2278856933116912,1.6824455755673349,-0.3476579785346985,0.1229369634992908,0.2622771821257658,63
1724727778955748400,-0.0672507229794748,-0.2696726809382438,0.1147848285000771,-0.0701165698725264,9.79186218071282,-0.5337706670166924,0.0409104004502296,-0.1982062011957168,0.3150537014007568,0.3101787130395716,0.3228985592106789,0.6503470233186487,0.61365666338356,-0.8648050427436829,0.2068548053503036,0.0261535197496414,0.906003083795309,2.280289742033184,-0.4829378304779529,0.1262981742620468,-0.141328290104866,-1.2603159956648946,-0.2470182031393051,0.307917582854256,0.011468150512292,64
1724727778995517000,0.2968976829995401,-2.227180959919095,0.6237234347403049,-0.0063014228195679,9.792110017994046,-0.5337907234240323,-0.0067439037375152,-0.1389093548059463,-0.0427729710936546,0.3113454127120439,0.3283631404066297,0.6476058987723591,0.6130646772179685,-2.739438056945801,0.3003138601779938,0.134148895740509,-1.5202753841012715,2.302030156937241,-1.862463266152144,0.1618645936250686,-0.0529230050742626,-2.8122824030593034,-0.2600632905960083,0.4470256092932075,-0.9287812442492692,65
1724727779035286500,0.3604749781632795,-4.1462510794341565,-0.3842238468129187,-0.1078867486825678,9.790732299900055,-0.5480182054147124,0.0560978576540946,-0.1949654966592788,-0.2694681286811828,0.3139101473560262,0.3248291322370206,0.6499439885039051,0.6111623011996058,-3.91061806678772,0.2111736536026001,0.2217161655426025,-1.6976240016072988,2.177558850876987,-2.421331074622273,0.1534215956926345,0.0212727542966604,-4.329992320586741,-0.3744705617427826,0.3136052000366151,-1.231586744786799,66
1724727779075055000,-0.7436097510978579,-4.362671478134393,-0.3775894502997398,-0.1262336852234322,9.790925192123652,-0.5405872882289812,-0.089947834610939,0.1937357485294342,0.1590762883424759,0.3149700376982299,0.3244882550414582,0.6498227860131385,0.6109268284225133,-4.4541449546813965,0.0620116591453552,-0.0699969157576561,-1.4024118057429789,3.011167437329888,-1.412428757366538,0.0858537554740905,0.0303858146071434,-4.945799283114075,-0.5293896198272705,0.3341127486774697,-1.655751483778655,67
1724727779114824700,1.443271931658685,-4.410675338324904,-0.1490858150959015,-0.0764820452172542,9.79523487201631,-0.4668224523814395,-0.225908100605011,0.0601136274635791,-0.0348601900041103,0.3126826342167081,0.3228914223022366,0.6477209665651519,0.6151653008694081,-4.650161743164063,0.1106486544013023,-0.2210593372583389,-1.1902379585713148,4.523547099745273,-2.2252704501226543,0.0230846442282199,0.2337337285280227,-4.986286191803217,-0.5140838623046875,0.2068121922743506,-1.1356475595973432,68
1724727779154593300,1.1884855619460344,-3.57575713057816,-0.0860895894894376,-0.1764867217133753,9.797390588745474,-0.387813030411303,-0.2759823203086853,0.1486383825540542,-0.486566424369812,0.3154439490919162,0.3165602920326019,0.6477364770497963,0.617026956154557,-4.368480205535889,0.7379478812217712,-0.4131677448749542,-2.215897933882475,2.198763259208202,-3.7943162948727607,0.0548586398363113,0.1933785825967788,-3.323599648064375,-0.3672817349433899,0.6797584795646369,-0.7183516103964298,69
1724727779194363000,-0.6225823018811643,-1.3482681276232005,-2.9738392849326134,-0.3796904776996001,9.798602302622797,-0.1166260815857443,-1.0941262245178225,-0.902723789215088,-0.4326054751873016,0.3308929202878567,0.3103016281179648,0.6400462288042065,0.6201319001939903,-1.2994338274002075,0.0385411120951175,-0.0283487383276224,-4.1476428260535,-2.0023311710476874,-1.029225120446831,0.0301221031695604,0.0892888605594635,-0.4985982678811997,-0.2786487340927124,0.2100103672611527,-0.4448371228056028,70
1724727779234131500,0.3179936077212915,0.8828355586975812,2.0741542982429264,-0.5601072506045922,9.789317756927012,0.1609825708503834,-0.0855425149202346,-0.6821291446685791,-0.5128633975982666,0.3502117980853898,0.3090548296054967,0.6295055884334679,0.6209343578080883,-1.8314625024795528,-0.1172913089394569,0.0461603142321109,-2.391090250137448,0.7740414219796657,-0.4195986001200973,-0.007031456567347,0.2672240436077118,1.7861797985471783,-0.0890907570719719,0.2053750173443928,0.3638872708247974,71
1724727779273901000,-0.5303433594491332,-0.8023328659623861,0.7678408137738704,-0.6878565188895911,9.78223510518968,0.0716264355793595,0.4915948510169983,0.1479626446962356,-0.1132556721568107,0.3582635634596092,0.3121218136767626,0.6316075059685399,0.6126166895611181,-0.4946576356887817,-0.213559091091156,-0.1287335902452469,-0.4910398883908987,-3.979996687394381,-1.641854183590412,-0.1514801681041717,-0.1958943158388137,0.0080879300645377,0.0844624787569046,0.0948722866103053,0.116958153951168,72
1724727779313669600,0.3545959665946662,-0.5382464607238769,-0.4908604401707649,-0.6502799446891993,9.783755446624756,-0.1602125363259576,0.4779124557971954,1.2624396085739136,0.132288172841072,0.3414502997161239,0.3050165368690736,0.6443085268830359,0.612571015116504,-1.8023632764816284,0.1889296621084213,-0.1907476931810379,0.1998059485077858,1.2214186942547558,-0.2814344304025173,-0.2362339794635772,0.0026436219923198,-0.9217264303669332,0.0779986456036567,0.0255413369904039,-0.541970376617834,73
1724727779353439000,-0.954032736014202,0.487098457288742,-2.244296345371008,-0.6536735326502472,9.782081375932693,-0.2323555796579457,-0.1482972651720047,0.0644655302166938,0.0230130665004253,0.3328327438582393,0.2981148285624621,0.6503648106559853,0.6143090184801839,-0.3445946276187897,0.1611062884330749,-0.1801232248544693,-0.6782546508729458,-1.2989753966659308,2.5805589290261266,-0.2971609234809875,0.1226524636149406,-0.4002512543650344,-0.1175916492938995,-0.0582792481211246,-0.4033920731414109,74
1724727779393208800,0.2762865826526656,-1.0787076748877764,0.3039630913411267,-0.5573059294482693,9.789112005221844,-0.1818586422763764,-0.0198500268161296,-0.0206655487418174,0.410235047340393,0.3294551210276804,0.2992833372520618,0.6478438809195147,0.6182128015226844,-0.324463814496994,0.2368815243244171,-0.232259064912796,0.2734200507730245,-0.6281348214417696,0.3069885583758354,-0.245215967297554,0.0727352052927017,0.0943517059354577,-0.1949430108070373,0.0401821444557514,0.1490821344346273,75
1724727779433033700,-0.7616320222616195,-0.9162795631378888,0.7991431300103664,-0.3582557677438482,9.797271346279976,-0.2356071470661088,0.204752042889595,-0.0393788330256938,0.5505542755126953,0.3223098606298557,0.3067298097322073,0.6464746283270992,0.6197610426718491,-0.365113765001297,0.2064850628376007,-0.1711967140436172,-0.3675859426796436,0.5734592284023762,0.2878845929225906,-0.2281094044446945,0.0423493757843971,-0.3033502018734813,-0.1191162094473838,-0.0511697905752575,0.3620379531636833,76
1724727779472805400,-0.4230611981967463,-0.5846171667546034,0.5044119591286406,-0.1974862003233283,9.79945161292851,-0.3196096280831843,0.1759546399116516,0.0470470711588859,0.3770616948604584,0.316897425159981,0.3144455237441745,0.6460801564501434,0.6190965674139183,-0.2664665579795837,0.2246685475111007,-0.1258806884288787,-0.7041986549466848,0.7055892325222491,-0.7667144400924444,-0.2278182953596115,0.0446601919829845,-0.2142971594685688,-0.0324806980788707,-0.0520690683693857,0.3440624437510967,77
1724727779512576000,-0.4028192782221362,-1.4967945552706718,1.034862103420496,-0.0088337748583784,9.79764076411426,-0.4201500965230166,0.3951245248317718,0.6096341013908386,0.5388303399085999,0.3045978611449976,0.3173551334764263,0.6486196211216559,0.6211267167752693,-0.0461925044655799,0.1651649326086044,-0.1528864651918411,-0.3063110975056886,-0.5361643937528133,-0.0834270557492971,-0.2482382953166961,0.0911629721522331,-0.0727618739166529,-0.0513971596956253,-0.1103782823705114,0.2216023496490903,78
1724727779552348000,0.1783951674168929,-0.9472428566783666,0.5666892958760261,0.2355022984521463,9.784839734730124,-0.6097851084219291,0.5825411081314087,0.6908552050590515,0.5101079344749451,0.2848496673761452,0.3190063507790945,0.6552292248833815,0.6227120618223935,0.193624347448349,0.0201298277825117,-0.1746752560138702,-0.3562292668849229,-0.2589642399191856,0.7445388486415148,-0.2546039521694183,0.1001016497611999,0.0944595502241048,-0.1324561387300491,0.0140607893624866,0.2784790329293348,79
1724727779592118500,1.7256347289524971,-0.0464987163245677,-0.8244751396656036,0.3390650373226031,9.767107094162702,-0.811812276643142,0.4241499304771423,0.2319588363170623,0.126894861459732,0.2725735522573768,0.3193444514656783,0.6628801022054456,0.6199296358488361,0.312496155500412,0.0256558880209922,-0.1063225641846656,-0.289946822682023,-0.0848299082845449,0.4731927545983344,-0.163773164153099,-0.0289291888475418,0.227052450014837,-0.1439822316169738,0.1852814015329815,0.4880039547611027,80
1724727779631890200,0.4756765342380851,0.1424672737389802,-0.6566553980052471,0.4270870196467265,9.75366601330936,-0.9241162481129168,0.2103888392448425,0.3033366501331329,0.1530251055955886,0.2647143563506856,0.3204244141770143,0.6666670922324425,0.618716049047542,-0.086888276040554,0.115457996726036,-0.0419709421694278,-0.3583592646509408,0.0286731367766857,-0.1367863785583525,-0.0880497545003891,-0.0513921715319156,-0.1040532897332217,-0.1625710874795913,0.2099600435797124,0.0658614423118531,81
1724727779671661000,0.7009876570109278,0.1998304984271526,-0.6398888259910047,0.4097723122304305,9.75181717057228,-0.9510582502480596,-0.1825023293495178,0.24094919860363,-0.3144072294235229,0.2607397722258166,0.3157842617042587,0.6699035573005515,0.6192932932697003,0.1702774912118911,0.1262675076723098,-0.1093746870756149,0.2319160739958286,-0.3915326354563236,0.3879875101953745,-0.0579101033508777,-0.0511321574449539,-0.0118513913759496,-0.2198762744665146,0.262727081317734,-0.1432882255998905,82
1724727779711433000,-0.7253612699627876,-0.1669961503177881,-0.2790636096179485,0.2938064389859326,9.772084298053382,-0.7683996167004108,-0.5347146391868591,0.3829460740089416,-0.1770125776529312,0.2639653095789432,0.3057275639385281,0.6676137622797055,0.6254157480887352,0.074851356446743,0.1105836182832717,-0.121496595442295,-0.041242695492506,0.1131762973248958,0.23939210896492,-0.0534785352647304,-0.0333170294761657,0.0231168315235292,-0.2619321346282959,0.2389518178515136,-0.3005067403421737,83
1724727779751203600,-0.2355738110520877,0.5255342786669731,0.8241746954143047,0.2783702753252349,9.780905317890644,-0.6532881865944713,-0.1381786167621612,0.7723514437675476,-0.0555788800120353,0.2596010944115673,0.296616288380184,0.6673284099436111,0.6319009674724512,0.2443586438894271,0.1817153096199035,-0.1538382768630981,0.6083727208733558,-0.12924480407238,-0.1736323003966361,-0.0730882734060287,0.0889347493648529,-0.2171419361741282,-0.1755668669939041,0.1257696844408754,0.0149382708833378,84
1724727779790975200,0.7548895622640848,0.4391495421558618,-0.7222598698813468,0.2349629674110561,9.7870854678303,-0.5728535906594246,-0.1917238980531692,1.55338716506958,-0.3260300159454345,0.2464687881829161,0.2775314093584082,0.67244607309074,0.6403482268969535,-0.2248543947935104,0.1982855051755905,-0.1053695529699325,0.0194926359772682,1.0502525647759438,-0.0900194397516548,-0.0628142729401588,0.0522121302783489,0.1700586614272557,-0.1504925936460495,0.1956026515990495,-0.1265122829691041,85
1724727779830745900,-0.1116738751390017,-0.3537058858871459,0.6413350792765617,0.1320246988481841,9.79254665584564,-0.5089055807534605,-0.0304980725049972,1.7742249965667725,-0.3223632574081421,0.2284911946060985,0.2498735231374806,0.6808158243073054,0.6494958140293254,-0.1528020352125167,0.1367401182651519,-0.1027820259332656,-0.0736935972422361,-0.1527057591587305,-0.3896762669999152,-0.092956468462944,0.0472243055701255,-0.0838341387128457,-0.1445341855287552,0.108605601009028,0.0588511708241421,86
1724727779870511900,-1.1702347427234052,-0.3185843036234378,0.9304992271482944,0.1172349524653982,9.79273954806924,-0.5088200944270939,-0.0327480435371398,1.1501553058624268,0.1590040177106857,0.2083694154858177,0.2277349236181879,0.688534247783273,0.6562313564232426,0.3093999624252319,0.1807195097208023,-0.1585529446601867,0.100436058217287,-0.4948533091992139,-0.2911609477121383,-0.0664513558149337,0.0145503357052803,-0.025793295607611,-0.1530423909425735,0.1819082535717636,-0.0093280240779044,87
1724727779910282500,0.3383715386331081,-0.2439876200616359,0.5291208684494718,0.2902558703648857,9.79176573460102,-0.4554997153889387,-0.1434923112392425,-1.2673190832138062,0.6824689507484436,0.2025792395317019,0.2326138520505207,0.6849195698450828,0.6601043528720343,0.5476519465446472,0.2994454503059387,0.0252807345241308,-0.202052850651741,0.5583206959813833,-0.732487614711374,-0.1046102121472358,0.0272153299301862,-0.1705535870710387,-0.1914273500442505,0.102776447330974,-0.2378187039020471,88
1724727779950054100,-2.534511171339452,0.1779436607897281,0.7719043368857353,0.6969613971695303,9.765177002882956,-0.5709409254385158,0.5115158557891846,-0.8058574795722961,1.7957552671432495,0.2096536588739658,0.2709809375808386,0.6750401601429542,0.6534030846417602,0.6824305057525635,0.3987877070903778,0.1167291551828384,-0.2917477346241474,-0.0734393302202224,-0.3961098802439868,-0.109128214418888,0.0083653135225176,-0.0107325776631827,-0.1788447350263595,0.2419901443677954,-0.1673214367493987,89
1724727780029597000,-0.3837814368076622,0.2265069084286689,0.7356124687336385,1.4601248667821287,9.646583356684443,-0.9908938554216176,0.6548898220062256,0.2335211783647537,0.2688742578029632,0.1750018007075933,0.2986862114803048,0.6791966397071906,0.6471885028925335,-0.108536310493946,0.0626019239425659,0.2052388489246368,-0.0136748896092176,-0.4355144005239009,-0.1752620204903185,-0.1651364862918853,0.0011349404230713,0.0495216215094318,-0.1103468611836433,0.1088142296578735,-0.0305254044467117,90
1724727780069367300,0.7592386973842978,0.0450736519575119,0.1923838356830179,1.6348131790377198,9.585153028687834,-1.273814067402482,0.8630932569503784,-0.044252511113882,0.3882484138011932,0.1612066325623003,0.3036257361383711,0.6875738930473988,0.6395826394003924,-0.1637103408575058,-0.0897337645292282,0.1812158674001693,0.0738432348459958,0.7508668826192617,1.142404924903065,-0.1258872300386428,-0.004643268417567,0.0202752468554768,-0.0600405819714069,-0.0203473439773078,-0.0005804679107211,91
1724727780109139200,0.7331313194423914,0.2175689842134714,0.1942142659805715,1.6348837600558994,9.53042424415648,-1.6335782304152846,0.8766178488731384,-0.1166534721851348,-0.2861281335353851,0.1603302187890114,0.3120385707613666,0.6970805100056372,0.6253039376216801,-0.3795323967933655,0.0610393397510051,0.2356700599193573,-0.1441495277374982,0.524536499801278,-0.1529180867351591,-0.1143110394477844,0.0109143210574984,-0.0022177063030452,-0.0774465948343277,0.0183430207008612,-0.0884379427138715,92
1724727780148909800,0.4883531335249543,0.0020370587855577,-0.008070639861375,1.4440667352981864,9.473912083339693,-2.080870016364008,1.418201923370361,-0.4107130467891693,-0.5737309455871582,0.1600122803305883,0.30965358524191,0.7142895106422826,0.606878178881831,0.4076266586780548,-0.1614418923854828,0.0999086946249008,0.092325232475996,-1.3040835334599017,0.730061264347285,-0.0920159295201301,-0.021364850923419,-0.0705280093507841,-0.094757504761219,-0.0273509665285237,-0.0827206610456109,93
1724727780188681700,0.3674940266124904,0.0850654706060886,-0.8044739696443081,1.3011147467821835,9.379064054387808,-2.55159849974066,0.8782962560653687,-0.2699503898620605,-0.0229372680187225,0.1627127950237853,0.3154469158421269,0.728415106747989,0.5860283854737983,-0.5885103940963745,0.0004061920044478,0.1435935348272323,0.365289356175065,0.8997416853129864,-0.6762083858676254,-0.078147292137146,0.0313186757266521,-0.0822840323271695,-0.1072612404823303,-0.0425151996463537,-0.119793989298446,94
1724727780228453400,-0.4308598527163267,-0.5492424865126609,-0.6869862388610839,1.299805563879758,9.313217663514614,-2.7829607392460107,0.442154049873352,0.452571153640747,0.0847218036651611,0.1575225849552754,0.3157090347819721,0.7363554264935785,0.5773171802321048,0.6211647987365723,0.1028156504034996,-0.0248271059244871,0.3592418927043676,-1.7358716069370508,0.3785790458589792,-0.0693101063370704,-0.0076303458772599,-0.0809813430976122,-0.1175681725144386,-0.0314972177540883,-0.1445048896469641,95
1724727780268224000,0.788734402590245,-0.1225993747085332,-1.1135025094151496,1.4467017599768937,9.27308848222196,-2.843812975093722,-0.07474235445261,0.2764505445957184,0.3104706406593323,0.1467223835916922,0.3153893944914934,0.7385957175340856,0.5774759310698967,-0.3308543264865875,0.1655086427927017,0.0255257450044155,-0.0634206250309944,0.8842840039402245,-0.4806095336608588,-0.0526086613535881,-0.0073454002849757,-0.0352119662441895,-0.0917413309216499,0.0355144266393501,-0.1047901709067169,96
1724727780307996000,0.4147342089541256,0.7900596598446369,0.7956313224971294,1.4923970509640871,9.296711934393644,-2.7412197388425468,-0.4233278632164001,0.8229256868362427,-0.3027265965938568,0.1425608008044648,0.3107305454544197,0.7370277063750105,0.5830206844750349,0.3031391203403473,-0.0442980006337165,-0.0492977611720562,-0.4492383899718523,-1.0681862808734175,0.9435289507217705,-0.0379886478185653,-0.0510547831654548,0.0173544549047946,-0.0998272001743316,0.0996151428889948,-0.1996300439516082,97
1724727780347766500,0.4350198950052261,-0.1248831017315387,0.1719651709020137,1.4872246167622505,9.38789968727231,-2.4136862589575347,-0.7396183013916016,0.9784260392189026,-0.2132610529661178,0.134682806597755,0.2915246416526489,0.7335374123866687,0.5989964751973214,0.266173392534256,-0.0799178853631019,0.0018197500612586,0.0255950445055961,0.1441208861649036,0.2831291054911911,-0.0235356576740741,-0.0351165384054183,-0.1452994375581387,-0.0895571783185005,0.0773734091329853,-0.2032756339123472,98
1724727780387538400,0.4792473053969442,0.3155453743189573,0.4201052344679832,1.4706803091965617,9.401920613840222,-2.368836040492356,0.4313714504241943,0.0902716368436813,-0.0765615776181221,0.1299955124500157,0.2833439046284033,0.7351824667594622,0.6019337057112993,-0.1629606634378433,0.014264696277678,0.0493874698877334,-0.0616442630082368,0.161690445125103,-0.5304391479738056,-0.0105715934187173,-0.0185056515038013,0.0156322661881102,-0.0945790484547615,0.1322158009734935,-0.2965308589811437,99
1724727780427309000,0.196168761049211,-0.1477858384132385,-0.3783152803562581,1.4897979743815957,9.37773192900121,-2.451332537393272,0.1403448283672332,0.0070983888581395,-0.0164326708763837,0.1270997506085003,0.2833831159191518,0.7380224830115977,0.5990513205560927,0.0338634476065635,-0.1116350144147872,0.0281892400234937,-0.2913987750560045,-0.238474409598112,0.3628698739431798,-0.045548815280199,0.0178569741547107,-0.1469218967939727,-0.0835869312286377,0.0202183107701595,-0.3104988315191119,100
1724727780467085000,-0.3381450364008546,-0.468316015407443,-0.9030497869476676,1.493945887841284,9.36397111467421,-2.5009070079013704,0.0728552863001823,0.2940786480903625,-0.0124336434528231,0.1239262047232355,0.2810434245168853,0.740624978681149,0.5976047470713878,0.0907488316297531,-0.0284513421356678,-0.0042710993438959,0.155931150946021,-0.3071726827710866,-0.4310639969862997,-0.039181500673294,0.0374130867421627,-0.0130026106626202,0.0104498527944087,0.0548248972830129,-0.0059326191899279,101
1724727780506856200,-0.0501794506639242,-0.1652080978572368,-0.4572390333369374,1.4907405159287157,9.386028048181531,-2.4187958570562302,-0.4038857817649841,0.3398147523403168,-0.3252364695072174,0.1205720343831302,0.2746113691436027,0.7402113644226862,0.6017791905250914,0.0337276235222816,0.0164698995649814,-0.0349961891770362,-0.1072223573565483,-0.0156306998521089,-0.1600660587936639,-0.0328241102397441,0.0230909250676631,-0.0408422203662572,0.0319016203284263,0.0350611276306095,-0.1275582666243892,102
1724727780546628000,0.1137159571595489,-0.4733306286990642,-0.2041217658802867,1.2633990563720463,9.455027350127695,-2.275222960162908,-0.2813397347927093,0.1785205155611038,-0.8587760925292969,0.126534310766855,0.2606127616413056,0.7403276822440492,0.6066175487013434,0.0595584250986576,0.0700286850333213,-0.0650797858834266,0.3195271374315023,-0.2522574357569218,-0.5714801834143698,-0.0036394936032593,0.0186721514910459,-0.0199355505893123,0.0151453930884599,0.0433536140987183,-0.0039898077092162,103
1724727780586399000,0.1278276307508349,-0.3305295929610729,-0.5782920553863048,0.9908630949571728,9.518128826206922,-2.1433168279267845,-0.4397516548633575,0.0768146514892578,-0.5956610441207886,0.1357088509225614,0.2474493245010481,0.7403023571826798,0.6101675247678047,0.067424863576889,0.0958835035562515,-0.0896050333976745,-0.1196072071552276,0.0114431850343942,-0.1279898355752229,-0.0002656746655702,0.0050396220758557,-0.0564782585471868,-0.0022470431867986,0.0273465049825375,-0.0872839777726214,104
1724727780626171000,-0.0498751339551061,-0.3366442764490843,-0.1437652045950293,0.8667469590101391,9.564494856062533,-1.984829416626692,-0.3242817223072052,0.3589906692504883,-0.189125970005989,0.139472192185998,0.2387963900170271,0.7376817882698028,0.6159133757265721,0.3035516440868377,0.170625165104866,-0.0767046883702278,0.0884083512932062,0.2334434296935796,-0.2493015085607767,0.0026746774092316,0.0038325460627675,0.0261454746127245,0.0218605361878871,0.0928679701837245,0.027939735335065,105
1724727780665941800,0.7304523825567215,-0.0704103377878666,-0.8718658363938331,0.8610931710321456,9.595891280323269,-1.829691461884976,-0.5647515058517456,1.0624679327011108,-0.1734274625778198,0.1354174597159118,0.2301731177483108,0.7350568971135915,0.623196452845497,0.1023767217993736,0.191357135772705,-0.0673956051468849,0.1095358949959278,0.1619073027461767,-0.0704547614514827,0.0122453365474939,-0.0486476086080074,0.0305210113993845,0.0218631941825151,0.0996760062307585,-0.0578707403854699,106
1724727780705713700,-0.7932895816765725,-0.4679191250443458,-1.1797874378360806,1.0080196161370725,9.64519453267455,-1.4575754745602607,-0.9507867097854614,1.995951652526856,0.6557849049568176,0.1121272972668993,0.2071345229747642,0.7289793955643671,0.6427378005921635,-0.0166889429092407,0.0661291182041168,-0.0795527398586273,0.207521052929759,0.2825496981680393,1.0283926151454448,0.0054593095555901,0.002522652503103,-0.0484464300259714,0.0118028912693262,0.0412116975660435,0.0232443783097784,107
1724727780745484500,0.9207819891236722,-0.1871142247170209,0.6930231809377669,1.400845287078619,9.654685414597392,-0.997534973936528,-0.7920750379562378,2.1683175563812256,0.5974593162536621,0.0774128392843082,0.190703529782356,0.7172811821349385,0.6656930056913963,-0.2272294014692306,0.0269270688295364,-0.0778891295194625,0.3903641761988401,0.291765270280838,0.4779639875881373,-0.0046663489192724,0.0101976264268159,-0.0893166983097791,-0.000344383297488,0.0357692690500989,-0.1075287929572165,108
1724727780785256700,-1.2740848471678792,0.8219558503210544,-0.5863667138356715,1.791980593780428,9.630381578946112,-0.4636395845616236,-1.110870361328125,4.534957885742188,1.0094507932662964,0.0264215278903615,0.159514754900384,0.7058286503304324,0.6896832468948575,0.1808294653892517,-0.1733270436525344,-0.1139594465494155,-0.309618906879425,-0.5533814860135317,1.2945645944863555,-0.0581639409065246,0.0013135125627741,-0.0121474665544519,-0.0037584067322313,0.0689579607221996,-0.1554701458381489,109
1724727780825027600,-3.316655528014898,-1.3946680597484111,-1.294944533714652,2.3511937085568904,9.50966436472237,0.4566751523764804,-1.3461178541183472,5.222524642944336,1.913206696510315,-0.0593254473464435,0.1101904875177372,0.6815967304711219,0.72094688523638,-0.0262970943003892,-0.2680773735046386,-0.1088857948780059,-0.6992185284465551,-0.260022809061408,0.3127753250837325,-0.1770972162485122,-0.0008240881143137,-0.0648778335354058,-0.028443781659007,-0.0500285070190671,-0.1964569486071355,110
1724727780864799200,-2.3459169371977446,-1.0856529639810324,0.4518399507723748,2.972000379067659,9.256464095157384,1.2866497297085822,-0.6915507316589355,3.786717176437378,2.402278184890747,-0.1482909472065129,0.0737927162691545,0.6549456148699746,0.73729956773695,0.2508567273616791,-0.254627376794815,-0.1053433194756507,-0.3043213849931955,-0.4471142374247312,0.3243007815741002,-0.1864617019891739,0.0203650314360857,-0.0921539218965452,-0.0273483209311962,-0.0353943210907513,0.0758601869918638,111
1724727780904567300,-2.638487386381626,0.4688070137947797,0.469891886422038,3.720516899168491,8.815308473876119,2.149065308450908,-1.1292167901992798,4.670210838317871,3.076963186264038,-0.2404587047796183,0.0538555360929123,0.6225172622077527,0.7427997786060796,-0.0193358585238456,-0.2457453161478042,-0.0263866540044546,-0.641558366638422,0.5345142884582281,-0.3227900847502052,-0.0887609645724296,-0.0264384429901838,0.0408185243968386,-0.0454058311879634,0.1125708879108075,0.0078060763492772,112
1724727780944338200,-2.712565599027276,-2.287967144793272,0.1075923597127199,4.416638338382542,8.11739927446246,3.281998640653491,-1.465221881866455,3.8084020614624015,3.789709091186523,-0.3399520869115301,0.0398207689993294,0.57539460065062,0.742810815277572,0.0353375077247619,-0.1962535977363586,0.0147378798574209,-0.2037561474382877,0.2973953851222992,-0.5228631597615778,-0.1708524376153946,0.0612971745431423,-0.2209466074204072,-0.0901807621121406,-0.147439627924608,-0.3371943480798974,113
1724727780984110000,-2.494937578102946,-0.9995891299873588,-1.149901272007823,5.061821032997965,7.135628709760308,4.430706026701629,-1.8947871923446653,3.1009836196899414,3.8588290214538574,-0.4342694124767012,0.0429583545218636,0.5217771937829071,0.7330165189055078,-0.0183062795549631,-0.1313032656908035,0.0901973471045494,-0.1457604700654745,0.3391729181438684,-0.6606529432088136,-0.2263001501560211,0.0384658724069595,0.0487705565469572,-0.0703198090195655,0.1930609860259108,-0.007847566557824,114
1724727781023881000,1.0063935493052003,-2.1230565685778857,2.6658248906403776,4.98165444034934,6.149954707878828,5.790645010635257,-0.5486733317375183,6.796886920928955,2.8430984020233154,-0.5269504338845415,0.0220023187079085,0.4519680998513058,0.7194192357348748,-0.2428187429904937,-0.0508786737918853,0.1036794632673263,-0.0715291126847267,0.4477694864630699,-0.6464964075624943,-0.1902765035629272,-0.0437892042100429,0.0149048949117655,-0.0587360635399818,0.0688305395168252,-0.1541008302463218,115
1724727781063653000,-0.7896396808668971,1.6097458116680383,0.39305005428195,4.741269520954788,5.263109329017997,6.781624133187532,-1.570895791053772,1.4552857875823977,2.1489017009735107,-0.5925955404418436,0.0129926566631372,0.3925106184941879,0.7032759983606783,-0.2427103519439697,0.0213328320533037,0.1194170862436294,-0.1374865627169609,0.122767717012763,-0.4685669214285909,-0.2169585525989532,0.014654123224318,-0.0548358707681763,-0.1044569686055183,0.0613707615627907,-0.1165651543118991,116
1724727781103423700,2.855592552475631,0.0001145662903785,1.6152900017917156,4.618805463063716,4.783350713098049,7.208091303902864,-0.5448296666145325,1.4424660205841064,1.112992525100708,-0.6259401430740797,0.0112594670178909,0.3638170522030964,0.6897169064726133,-0.2590533792972564,0.0505662448704242,0.1404589861631393,0.0193821613401174,0.0092640874296426,-0.2929964195109903,-0.0932455360889434,-0.017587523907423,0.0730580392850562,-0.0216296408325433,0.330045828032121,0.4627790952747687,117
1724727781143196000,1.836215895217657,0.6324842488229274,1.7209107691705223,4.419084854751825,4.4445700091421605,7.5424045070558785,-0.2906430661678314,0.541135847568512,0.4086874127388,-0.6447509244135613,0.0092355754357555,0.3396455266172041,0.6847275534452556,-0.2965850234031677,0.0302320513874292,0.1077640876173973,0.2090618526309728,0.0318733941227197,0.0959532137148082,-0.0148108275607228,-0.0125891724601387,-0.066088245938206,-0.0502507388591766,0.1240985546245705,-0.0223820646753069,118
1724727781182966800,-1.0175701923578977,-1.4051912073284387,0.9632482350617648,4.537495545598865,4.461539264121652,7.461648131820559,0.6084501147270203,-0.6284869909286499,0.3447324335575104,-0.6477545265652044,0.0110229121338838,0.3456013914351649,0.6788610974321104,-0.41988405585289,0.0307828988879919,0.1074501723051071,0.1774830575406551,-0.054428340280056,-0.1381252990119159,0.015008483082056,-0.0091182962059974,0.0006077252395829,-0.141060471534729,0.1762718368536792,0.0043967354091379,119
1724727781222738400,-0.3215688723921776,0.4396884713381528,-1.0968687700003386,4.592226375956833,4.371459764745831,7.481456409618258,-0.5502215623855591,0.8729026913642883,0.7218616604804993,-0.6560373024335906,0.0125147154461667,0.3440861327458464,0.6716124754700376,-0.481970340013504,0.1038504540920257,0.1284237653017044,0.2185053882807493,0.0280669875770807,-0.0362175608068704,0.058373037725687,-0.0217096712440252,-0.0578725441834889,-0.1710319370031356,0.1697186523505486,0.0874685953582171,120
1724727781262509600,-0.2577653855234384,0.0100695585936307,0.2637321849733591,4.357236885865032,4.118880549688637,7.760134819310903,-0.2146041989326477,1.0775355100631714,0.918840229511261,-0.6746786065747091,0.0064253192917565,0.3229581108489006,0.6636758331877035,-0.3234115839004516,0.0739059746265411,0.1153406500816345,-0.0075800798654556,-0.3582745089769363,0.4726308829318731,0.0920276045799255,-0.0322185307741165,0.0114007546817534,-0.1849988549947738,0.2034243582006543,0.061610689532198,121
1724727781302281500,-1.0927376615449786,-1.0447072056084872,-0.6583084259092807,4.4341450612396,3.9134097072869536,7.822657034197449,0.1432411968708038,-0.9582982659339904,0.8088276386260986,-0.6884089846386648,0.0111445431245819,0.3178541714823278,0.6518724271669697,-0.4030853807926178,0.1040553525090217,0.1285097151994705,0.1994464675456285,-0.1108253502845764,0.0571001898378133,0.1220271736383438,0.0024726008996367,0.004935285565516,-0.1956238448619842,0.1657071516868658,0.0518757331877946,122
1724727781342052000,2.47740922793597,-0.0155047353848814,0.3412193292796611,4.740958847570419,4.06454865552038,7.56129216287732,0.6880868673324585,-0.217418372631073,-0.5980591773986816,-0.6846687254954258,0.0159894074377431,0.3379729526516606,0.6455598288644706,-0.375237226486206,0.0790974870324134,0.0877917110919952,0.2032943751454353,-0.0483031353980302,0.3046697600394487,0.1199147403240203,0.0115339318290352,-0.1286922756229992,-0.2531434893608093,0.1367341369144618,-0.1239712658499367,123
1724727781381824300,1.063572065076232,-0.6523553627237677,-0.8844915092110633,4.3850323630243535,4.380875535605847,7.599329340326785,-0.018726110458374,0.6736389994621277,-1.342134714126587,-0.6741877834716918,-0.0039238695913416,0.3354499163440683,0.6579732373660349,-0.1862888932228088,0.0405160598456859,0.0335235483944416,0.2570283034205436,-0.261128724476695,0.1894043084155768,0.1260087490081787,0.0219462420791387,-0.0465921165293315,-0.3153941333293915,0.1474944177186116,-0.003499591919058,124
1724727781421596200,-4.298527799525857,2.9060137029409407,0.4308540074974298,4.330998867280781,4.378494193427264,7.6316194985568515,-0.1731175482273101,-1.231531023979187,0.6894738674163818,-0.6652630096870672,-0.0010753951942253,0.3330082932405901,0.6682285868528749,-0.3336128294467926,0.0340727530419826,0.0136895254254341,0.0642015462756157,-0.0416284799396991,0.0031078298222273,0.1381267011165619,-0.0085588712245225,-0.0256374725749483,-0.4191961288452148,0.1731596231172792,-0.0132206110696541,125
1724727781461367000,1.7306345830664038,-1.1638637463867665,0.7085936750352382,4.544717313545942,4.121450984698534,7.650462146192789,-0.8659243583679199,1.287810444831848,0.9969962239265442,-0.6764301208681669,0.0115123765725298,0.3313645366211392,0.6576528541289002,-0.0172668490558862,0.0391136929392814,-0.0626081749796867,0.2809031000047922,-0.6895043591618537,0.264502584823966,0.1463312208652496,-0.0207356661558151,-0.0101853053442318,-0.5697069764137268,0.1491193246398586,-0.0528172152889892,126
1724727781501168600,0.3672361063286662,-0.1346393565922975,0.0071533788859844,4.076103191974759,3.486521680811048,8.209746134248375,-1.856861114501953,2.149294853210449,0.8473078608512878,-0.6997417404144387,0.0127619709665093,0.2850553627581264,0.6549367156246856,-0.0287123173475265,-0.0128550184890627,-0.0790208429098129,0.0945604441821575,-0.0250379951447248,0.2584013453394174,0.193647488951683,0.0004682289436459,-0.0778560689502395,-0.5718845725059509,0.1956995543685741,0.216768280556146,127
1724727781540941000,0.3328691418245434,0.2667339971378445,0.605843494656682,3.57850818285197,2.785873119561374,8.69503140463531,-1.4490723609924316,1.1251237392425537,0.5741416811943054,-0.7166646631871214,0.018877755315208,0.2373191803968832,0.6555265616203807,0.031500156968832,-0.0165281035006046,-0.1039875745773315,0.0602460866481065,-0.1605225703895091,0.1422621065557003,0.2347572296857834,0.0116744637489318,-0.1226144809461198,-0.5312401652336121,0.1340723429598379,0.0236234453218174,128
1724727781580714000,-0.1033031380861997,-0.0191308169275522,0.7281681440770625,3.3832097748965024,2.3854998827844858,8.890088112789392,-0.4867114424705505,0.3844338655471802,0.7758160829544067,-0.7286412058000459,0.0246312008464907,0.2147672153592875,0.6498848344512198,-0.0824338719248771,0.0042602121829986,-0.1220546588301658,0.1900134532898664,0.0827817435830831,-0.1046761800050735,0.2088510990142822,0.0048423158004879,-0.1340389338805805,-0.5265237092971802,0.0782800025838892,-0.1577394424770027,129
1724727781620486100,0.7088245611816644,0.1041919036194682,0.0282592952787876,3.3381244325011967,2.105057532159239,8.977529664877057,-0.4224176108837127,0.4795835316181183,0.5686030387878418,-0.7379937581053387,0.0315141409152333,0.2031753423010019,0.6427222230163353,-0.1024595126509666,0.0462051592767238,-0.1177794858813285,0.0006809680014848,0.178956637224555,-0.1477069279581308,0.1913764029741287,-0.0014681287575513,-0.1472733953790739,-0.4876810014247894,0.0839772735105827,-0.0297048909772187,130
1724727781660259300,0.899703106868267,0.4790827624849975,0.0137806880712509,3.291945449650288,1.9522290234036743,9.028968760213257,-0.2483685314655304,0.0204874631017446,0.3315208256244659,-0.7439649001755033,0.0343716253216461,0.1961358850362445,0.6378601332530853,-0.040147129446268,0.1096575781702995,-0.101430669426918,-0.145640058556199,-0.0429693731546401,-0.1248065293639898,0.175982117652893,-0.0010790147352963,0.0079918806741392,-0.5223365426063538,0.0342284168332465,-0.2886623906283639,131
1724727781700031200,0.6332213309258222,0.1316165016397833,-0.1264274085640907,3.294017579749226,1.7665365020528434,9.066376407587528,-0.3975809514522552,0.0549394637346267,0.2456486970186233,-0.7478517872304296,0.0407959480153245,0.1899451029857355,0.6348024664408282,-0.0018439509440213,0.1175227537751197,-0.069689393043518,-0.3512374499469995,0.0054284547895193,-0.053452773246169,0.200330302119255,-0.0076091736555099,-0.0083634014172508,-0.4142347574234009,0.0267629283743444,0.0337612034635851,132
1724727781739804400,0.4433730050697922,-0.9340893605947492,0.7680342905193567,3.341710182033479,1.7315081510305403,9.055674396309255,0.1782256513833999,-0.4453821182250976,0.2526251971721649,-0.7495923229853795,0.0432125128855426,0.1908449080163746,0.6323150933813998,-0.0980660915374755,0.1998106390237808,-0.049351155757904,-0.0380985522478818,0.0877899271339178,-0.3459615553706884,0.2193479537963867,0.0086573483422398,-0.0156441655468137,-0.3120949566364288,-0.0713490205771988,-0.0994449922201689,133
1724727781779576600,-0.7162392213523388,-0.3195746298350393,0.2480295889288186,3.583295709389448,1.710007097840309,8.966953325805067,0.1803905367851257,-0.4997203648090362,0.6124727129936218,-0.752481945022726,0.0508035368040456,0.20057820979884,0.6252665526723278,-0.0736097544431686,0.312080442905426,-0.0432286858558654,-0.2791565485984086,0.09694295540452,-0.0714168844819068,0.1831165850162506,0.0176798850297927,0.1804197137807495,-0.2739944756031036,0.0146038570054224,-0.214092047084216,134
1724727781819349800,-0.4374740101590752,-0.0917361805416643,-1.8983178388655184,3.79848422820717,1.6986944073177872,8.880109155088663,0.0684803202748298,-0.4068148732185364,0.3118088841438293,-0.7591028403221168,0.0557250182263623,0.2100837050447604,0.6136141332483044,-0.1063280180096626,0.4816838800907135,0.0392623282968997,-0.3778939862042665,0.2119470526784658,-0.2773288947798311,0.1535466760396957,-0.0165645852684974,0.0630116286715725,-0.1673500090837478,0.0046125718293711,-0.1727749346486292,135
1724727781859122000,-0.3931912163183093,1.852966100618988,-2.922169303449988,3.912218743936717,1.5833118321202695,8.85200826524198,-0.7829069495201111,-0.7695855498313904,0.1353855431079864,-0.7574134022279032,0.0645796105135212,0.2109565123932082,0.6145337821655416,-0.0063665313646197,0.642704963684082,0.157982051372528,-0.5220049354970455,0.0761491737008094,-0.745773431937769,0.1203452870249748,-0.01178640127182,0.0244868343852343,-0.1187550500035286,-0.0684250639884732,-0.2222176320032216,136
1724727781898889000,0.6769730866298079,-0.1504706935830414,1.0766408054858445,4.108587119211256,1.3215345806069672,8.805875459620356,-0.382967084646225,0.0701521411538124,0.3997862935066223,-0.7579109825111705,0.0812815699405674,0.2107572245259328,0.6120013641077567,0.1871102601289749,0.805331826210022,0.2465583235025406,-0.7314274381339549,-0.0067851300954818,-0.3769790633164346,0.0879784151911735,-0.022265288978815,0.1105231250681448,-0.056942768394947,0.0158927186390268,-0.1726637841580435,137
1724727781938661000,0.1569198697224259,0.3398508174054324,-0.8333043428093194,4.005698699405789,1.0483370865434407,8.88964270710945,-0.7845374941825867,0.4405048489570617,0.5741773247718811,-0.7645680971410519,0.0872205139138299,0.1978558423345175,0.6071912672642769,-0.385774552822113,0.8058509230613708,0.2406678050756454,0.270433143916726,0.5380366173654795,-1.248532326629758,0.0800558403134346,0.0106058586388826,-0.0251263812476536,0.0822274535894393,-0.0238491552529158,-0.0416505639073438,138
1724727781978434000,0.3488160680189728,0.5264513204466551,-0.4172784866094589,3.973166549113393,0.6438643785584718,8.942581685614586,-0.9157041311264038,-0.236888900399208,0.3596213459968567,-0.7694202834278875,0.1014174036529107,0.1837653935331132,0.6032722091087926,0.1545581817626953,0.6002798676490784,-0.0281139127910137,0.5059767607599497,-0.9551093522697688,0.6774691995836793,0.0208260267972946,0.0361500158905983,-0.0371542046194546,0.1125672236084938,-0.0677777744943043,-0.3439474756019189,139
1724727782018207200,-0.1142863043934106,0.4850698375379666,0.66714990401268,4.141782409587503,0.352002844828926,8.882123417520523,-0.5647881031036377,-0.5688301920890808,0.1985686719417572,-0.7691717893993101,0.1187121642458932,0.1817832727425473,0.6010299915746766,-0.1400601416826248,0.4386425018310547,-0.0901593118906021,0.1891606358528137,0.7005874787122011,0.3547233923666179,-0.0013418421149253,-0.0107750706374645,0.0651414026753045,0.1865013837814331,-0.0107399298525764,-0.3502382463091984,140
1724727782057979400,-0.0144645786821842,0.1400420102202799,0.9123854783087968,4.3042751110062,0.0933926333786454,8.811066014000772,-0.726053774356842,-0.2762491405010223,0.2251408547163009,-0.7682734458844142,0.1346678340648523,0.1806245982067134,0.5991621360767888,-0.0074746720492839,0.3339943289756775,-0.1154613345861435,0.0792553230226039,-0.0298000949800014,0.89574355558753,-0.0516203083097934,0.0039002322591841,-0.0858125535131897,0.2389406263828277,-0.0988245496337301,-0.3232403127357363,141
1724727782097752600,0.7214341596469283,-0.0039407369824126,2.6663305020749566,4.3499341616362335,-0.1585657189670019,8.787679877716302,-0.3441698849201202,0.0211754571646451,0.1315222680568695,-0.7690004700890949,0.1462732969784996,0.1748060382894005,0.5972312715929589,-0.0615815855562686,0.22761270403862,0.0009058862924575,-0.3248965555101633,0.2334697331786155,0.5445357701264322,-0.0207705870270729,-0.0792223438620567,0.0515953088112175,0.3170965909957886,0.0124546179661061,-0.214418539092224,142
1724727782137524500,0.6572045563206076,-0.0731527318311855,2.4148761993944645,4.280088471993804,-0.1692601862596348,8.821710742133856,0.2195547074079513,0.3856100738048553,0.0480652414262294,-0.7702519143133307,0.1441828725495462,0.1715495081044803,0.5970711702110891,-0.4119406640529632,0.1439862102270126,0.1389041692018509,-0.6056669690459966,0.6269914966255427,0.1002098482459783,0.0141155002638697,-0.0799807533621788,-0.1590493377654813,0.3757817149162292,0.0919438776087481,0.0697261640491429,143
1724727782177298000,2.071627702374756,0.1259157144485972,2.611433959761262,3.974479385277629,-0.0551371233036508,8.964979395383596,0.4103651344776153,1.5184894800186155,-0.3712562322616577,-0.7732797286761421,0.1291536761415073,0.161964740751753,0.5992706089312468,-0.1850395947694778,-0.1788564026355743,0.2310936897993087,-0.4896662619501352,-0.1537047070682048,0.7380559163630008,0.0528218485414981,-0.0009622395737096,-0.4858916387822479,0.3413129150867462,-0.0126851992935,0.2211130865611136,144
1724727782217069800,-0.0088096216604113,-0.4304432347394525,-0.5269581739902496,3.386878234276175,0.2025451276807114,9.201000566610691,0.3944291770458221,1.2474212646484375,-0.683306872844696,-0.7712198384940361,0.1008014849061566,0.1439394849821862,0.611833732249859,-0.571602463722229,-0.1348265707492828,0.2148488014936447,1.1940022795408964,0.9048498221069574,-0.9790177588626742,0.0319835133850574,0.1224339678883552,-0.3248321850370615,0.1791376918554306,-0.0070950031871849,0.1207503675746731,145
1724727782256843000,-2.338784601099789,-0.1486048266459256,-1.3289093471586704,3.1614918543100354,0.3501666423777118,9.276461173525451,0.1858723610639572,0.0527593493461608,0.0234263278543949,-0.7688645524329856,0.088260910958905,0.1387159191801217,0.6179118913608572,-0.5898329019546509,-0.1686179786920547,-6.1797909438e-06,0.784222039732337,0.2253384491711854,0.7889782943487167,0.0189417637884616,0.0403099358081817,-0.0271439612978952,0.0508184134960174,0.1535175504656508,0.148672366323648,146
1724727782296615200,-1.5172726951539517,0.0720569359511136,-1.2762713974267244,3.277759103387594,0.3964584379533306,9.23414880297482,0.284111738204956,-0.5435429811477661,0.5380076766014099,-0.7724215059450249,0.0892172983545167,0.1457042325163617,0.6116988681897318,-0.3129022121429443,-0.252114474773407,-0.2497281283140182,1.0550964976757764,-0.0149918174266815,2.231026529431343,-0.0526222512125968,0.0327102020382881,0.0380211441966937,0.0422351136803627,-0.0048543852243659,-0.0818137022685259,147
1724727782336388400,-0.5486737467139959,-0.0759363346677273,-1.484960325092077,3.517783080515265,0.3614449557065963,9.146854550403356,-0.0872693210840225,-0.6339861750602722,0.5850805044174194,-0.7778200826331568,0.0967367995994051,0.1558274771294221,0.6011288363690601,-0.7270573377609253,-0.1225452497601509,-0.142039343714714,0.6022504386007785,0.7475368614137172,-0.0159944185979664,-0.1363730132579803,-0.0133140617981553,0.0266527939471998,-0.0307132452726364,0.0203603724222397,-0.2567467830654233,148
1724727782376160300,0.2293038456708192,-0.2843978467853739,-0.3949117565006017,3.7248698336809873,0.2106265629307366,9.069254008850455,-0.1715272665023803,-0.4184193313121795,0.5095219612121582,-0.7823088996738656,0.1080814065977846,0.1609818194460218,0.5919426951162869,-0.5153048634529114,-0.0947900936007499,-0.0272563770413398,0.0552384876191616,-0.0245633633702993,0.5668132145166397,-0.113258771598339,-0.1103512644767761,0.0814169945685193,0.0171498525887727,0.0892489120368845,-0.1266443392504006,149
1724727782415933400,0.1507122472539544,-0.3855615251574665,-0.5266431166917085,3.828450911925733,0.0921221567851025,9.028004299095272,-0.1632146388292312,-0.2416007965803146,0.5664411187171936,-0.7873871242719943,0.1147284749816536,0.1629026121692601,0.5833709215021572,-0.540728747844696,-0.1354469805955886,0.0073872883804142,0.0268500130027532,0.1551005453407764,0.5516724901385605,-0.0911444202065467,-0.1039889603853225,-0.1341386496616993,0.0831293165683746,0.1680357590312138,-0.1474170507666189,150
1724727782455706600,0.341646614781022,-0.0187507772345561,-0.7257049688339233,3.9119519096940754,-0.1058974106294102,8.991985475730896,-0.4192500114440918,-0.2354338765144348,0.5488337874412537,-0.7923122934234934,0.124133900919498,0.1616388195065449,0.5750694705720953,-0.4097448885440826,-0.1364248394966125,0.1487117260694503,-0.2528185767710209,0.1155757596820592,0.0583539162259548,-0.0171265192329883,-0.0585048124194145,-0.0576488184302113,0.1390405446290969,0.1552118967607617,-0.1862178421328775,151
1724727782495478500,0.6767799021452665,0.0222238510394468,0.1053711765319108,4.001190866592526,-0.3153638437395915,8.947703850933909,-0.2522764503955841,-0.3028923571109772,0.3963819146156311,-0.7960498765446952,0.1345459344593628,0.1602855507348723,0.5679001789227782,-0.6105091571807861,-0.2713808417320251,0.2163039594888687,-0.3256196090877056,0.3998743473440408,0.6929547918766736,-0.0134788816794753,0.0042352951131761,-0.2405381006622687,0.1197421997785568,0.1070558234169147,-0.4622917136166244,152
1724727782535022600,0.6301786022290587,0.0346552068609744,0.1021861167550086,4.115278725804388,-0.4293992055792361,8.891033869206904,-0.1550698429346084,-0.3545706868171692,0.2593428492546081,-0.7981565050192602,0.1421056777819339,0.1627556865429421,0.5623723893665469,-0.3651569187641144,-0.2707821726799011,0.1808675229549408,-0.0580722497403621,-0.3029717239499092,-0.4399088360905647,-0.0043660909868776,-0.0058750798925757,0.0402350847859634,0.1842673420906067,0.1013037626962177,-0.2496323296840302,153
1724727782574785300,0.5086664382353425,-0.2271611710863187,0.666532648897171,4.1999800392732025,-0.5391330343000591,8.84533127169609,-0.1767095476388931,-0.0861573740839958,0.3911340534687042,-0.8001363891105694,0.1486558110796271,0.1640580861707066,0.5574659000905994,-0.2761159837245941,-0.2725281417369842,0.1331564635038375,0.2302098545998334,0.2554483407527208,0.3072241206973791,-0.0092222271487116,-0.0146812479943037,-0.2104608692413196,0.2329972833395004,0.0853457305858843,-0.38873248334378,154
1724727782614549000,0.9685501408621668,-0.3124140905559063,1.6122726997971537,4.165815319342911,-0.6466133850056678,8.854279132783413,0.0872332453727722,0.1712818592786789,0.4440677464008331,-0.8050899841845464,0.1508341199009865,0.160643940057603,0.5507019460713973,-0.4352558255195617,-0.2998814582824707,0.2848057746887207,-0.0592372018665075,0.7596452323585748,0.0486544239205773,-0.0144590809941291,-0.0227609667927026,-0.1140554091138299,0.2087048143148422,0.0522991005658637,-0.2870391185417771,155
1724727782694075100,0.9029770139724016,-0.8463038173750043,1.932347534239292,4.122152703227102,-0.2991720394060015,8.89318490976095,1.1601485013961792,-0.0134906768798828,0.2916846871376037,-0.8169307250822803,0.130968098753629,0.1715258625337842,0.534836748280811,-0.4623151421546936,-0.3449843823909759,0.2268430739641189,-0.1723866111844778,0.2387941430717706,-0.3285351677408442,0.0112343784421682,-0.0375552363693714,-0.1039417647833004,0.2200209647417068,0.0334390725368633,-0.2206845954833552,156
1724727782733837800,0.9092851742058992,-1.0527787222526968,2.4094296244263647,4.092950281879306,0.1253248724159784,8.910804153081774,1.4880210161209106,0.1203489825129509,0.0244750585407018,-0.8222239653841458,0.1098465829005561,0.1833279606373451,0.5275151855106177,-0.7023069858551025,-0.1342107355594635,0.2935627400875091,0.2751326999098062,0.3320364903926849,-1.302214232456684,-0.0066365366801619,-0.0166114047169685,-0.1571314849128015,0.1740377843379974,0.0043329129253077,-0.1102743744714651,157
1724727782773601300,-0.0335877968251705,-0.931804975984618,1.383308461344242,4.1707682655751706,0.7115382771197706,8.846965010377764,1.7694052457809448,-0.6300680041313171,0.027074672281742,-0.8246614773619455,0.0849400150730037,0.2042437708548184,0.5205794665820288,-0.4785535037517547,-0.165919080376625,0.244895190000534,-0.0683352850794792,-0.3392629345148801,0.0160615655500441,0.008631270378828,-0.0226250197738409,-0.0722420695599401,0.1213970705866813,0.0688840780686587,-0.0399021950032096,158
1724727782813364000,0.0394698406010866,-1.671874497192353,1.6562012733727691,4.324411597844958,1.314988812225312,8.702910759708285,1.73077392578125,0.0272438637912273,0.3006715178489685,-0.8269059383309255,0.0603714178647589,0.22941303337997,0.5098544546552403,-0.1755584776401519,-0.1256718039512634,0.1680772453546524,0.0020171850413084,-0.7653057423382997,-0.224552267229557,-0.0048675769940018,-0.0101174786686897,-0.1310421084184665,0.0322090983390808,0.0161937816615449,-0.0887644347218796,159
1724727782853127700,-0.8081392141535878,-1.1980128303565083,0.2434001755625009,4.142813213939965,1.75885456924811,8.71285932227075,1.4731231927871704,0.9450576305389404,1.0540705919265747,-0.8383275611800592,0.0302996957845412,0.2342002082200216,0.4913646290917026,-0.1289925724267959,-0.0032669994980096,0.0752404406666755,0.3248246593177318,-0.7284153968364,-0.6489875667911023,-0.0282490327954292,-0.0125642446801066,-0.134298836058937,0.0328813046216964,-0.0113511753524071,-0.0269871724341413,160
1724727782892889300,-0.4327431822448969,-0.2875451683677733,-1.5809738906919957,3.959252882312238,2.038454769960791,8.737242652899026,1.2241638898849487,0.4758158028125763,1.0621511936187744,-0.8525048067238146,0.0061374999661708,0.2334243911175977,0.4676654261026078,0.3164701163768768,0.0702942460775375,-0.0293157324194908,0.2356184356451034,-0.9498170910805463,0.0611035802602767,-0.0617097504436969,-0.0108907399699091,-0.1236697530195582,-0.0069434950128197,-0.03908441234692,-0.1055999072538688,161
1724727782932652000,-0.5862500286534428,-0.6054350599862635,-1.0085346529871224,3.9305005428195,2.334347933826596,8.675965469637513,1.5487929582595823,0.4945200383663177,1.3218392133712769,-0.8649329169762094,-0.0155155284723719,0.2395999780023189,0.4407292922595513,0.1337759345769882,0.1548966914415359,-0.0245035998523235,0.0909475143820047,0.201416890835762,-0.4223649230282753,-0.055208969861269,-0.0026544020511209,-0.0552515982624841,-0.0062163309194147,-0.0195117790691554,0.018079699297779,162
1724727782972415700,-0.5974249181404709,-0.2788596114784479,-2.6052222456395624,3.850995336689055,2.593753633902967,8.637862241214513,1.0557619333267212,0.7087373733520508,1.5843877792358398,-0.8792576883853169,-0.038242417824404,0.2410997795459747,0.4090409606587837,0.1958281248807907,0.1198082715272903,-0.0751233026385307,-0.2276987485617399,-0.5394014759778976,0.0764029292661696,-0.0037633166648447,-0.0582533217966556,-0.019615778299747,0.0429560914635658,0.0894907214361242,0.1279442976667545,163
1724727783012178200,-0.4698933477267623,-0.259371943937242,-2.936535682454705,3.8130966909274457,2.518750123105943,8.676783800283074,0.1403732746839523,0.5655004382133484,1.925213098526001,-0.8960954464174694,-0.0450858225839337,0.2357422565712817,0.373370957160922,0.2410597801208496,0.1475542038679123,-0.0487366989254951,-0.2613426594883203,-0.3491045295715332,-0.413350499510765,0.0143285384401679,-0.0521872676908969,-0.1712011642595753,0.1325138509273529,-0.0272337196572916,0.0307933164015878,164
1724727783051942000,1.6133146100655198,0.2119422303728759,-0.1844301001995801,3.699867494371533,2.3248640661664304,8.779314784952998,0.3443781435489654,0.7350929975509644,1.0906840562820437,-0.9100754059150886,-0.0450570063335214,0.2243866707743742,0.3455187581340538,0.1460009068250656,0.1736553162336349,-0.0475663058459758,-0.1282499478161335,0.3802507784634828,0.1996399442911147,-0.0016303991433233,-0.0083580827340483,-0.0899960954086855,0.1512126326560974,-0.0102432734760106,-0.0983882314425427,165
1724727783131468000,0.5273480500906705,-0.1035788862876594,-0.7512742943763733,3.9109029851630326,2.4111402277365324,8.66381092146337,0.1217958554625511,-0.5283109545707703,0.8414415717124939,-0.9206697681154516,-0.0552328141113288,0.2349849034195257,0.3067548335350327,0.3045125305652618,-0.0925109088420867,-0.1520221382379531,0.0333551571130752,-0.8386836977601051,0.6843476339858025,0.0291782654821872,0.0037255291827023,-0.0743799766377778,0.0694164857268333,0.0206021863880567,-0.002158149573201,166
1724727783171230700,1.5667176940634846,1.0646816337533294,0.8830290354430675,4.1168177719399335,2.3636655059866607,8.581100489550828,0.3866704404354095,-0.4878933429718017,0.3336528539657593,-0.9221520218953246,-0.0524439153241897,0.2444080218886692,0.2952118244070287,0.2832895219326019,-0.0648137181997299,-0.1247973814606666,-0.1867284402698278,-0.207521052929759,-0.1178547739973291,0.0214810576289892,0.0419344827532768,-0.0751871465685078,0.0202086493372917,0.0238418373128515,0.0140898887344519,167
1724727783250756900,0.2196829076275229,0.0757797558665275,0.4974398185610771,4.737212354518473,2.748779652702808,8.134704629528523,0.7930312156677246,-1.469030499458313,-0.1682980209589004,-0.9108269226685802,-0.062499768361552,0.2852004223680304,0.2918027937895393,-0.0012050585355609,-0.0613849498331546,0.0113316290080547,-0.1325339087456464,-0.0390729502379894,0.2871522235274314,0.0450606867671012,-0.0072602801956236,-0.0668436674153897,0.0938294604420661,0.0202097461545024,0.1168330662667751,168
1724727783290520600,0.3843032687246799,0.8462237378761172,-0.4628612571328878,5.183263054364919,3.0406130197837946,7.749763647422194,0.9730475544929504,-1.3583848476409912,-0.3980579674243927,-0.8991963648637923,-0.0688645109287058,0.316432750451483,0.294234419671646,-0.0097255762666463,-0.0234684087336063,-0.0069807320833206,0.3771498898386955,0.1361626206368207,-0.2760427639594301,0.0364150591194629,0.0031585458200424,0.0472079651390435,0.1318000108003616,0.0924118239140603,0.1476156055460218,169
1724727783330284300,-0.1015899044275283,0.4697404952526092,-1.7398019321233034,5.711204394173622,3.42502705540657,7.198730770361423,0.5345546007156372,-2.5529940128326416,-0.9044966697692872,-0.8801015858793573,-0.0751411559244169,0.3568202253130759,0.3040632733321796,-0.0437660999596118,-0.0049836197867989,-0.0643343701958656,0.2322059968531131,-0.1769575723618268,-0.3204652585318311,0.0225529130548238,0.0033924703020602,-0.0869630935214925,0.1271730065345764,0.0318084482608828,0.1135209460441023,170
1724727783489337000,-0.2641664847373962,-0.456905855859816,0.511298832565546,6.095244628047943,3.9623163615360855,6.581673223251104,-0.0214685332030057,-0.1973734945058822,-0.3261886239051819,-0.845652467291412,-0.0753821844344858,0.3984288950654872,0.3470500797132683,0.1876479536294937,0.0512989871203899,0.0574764870107173,-0.0230026899248361,0.3974591028958559,-0.5282172341406345,0.03499286621809,-0.0018286985578015,-0.1040015504128299,0.0698533132672309,0.1028315933180041,0.1888285360879264,171
1724727783728084700,0.5613292301476002,0.6573737754076718,-0.218684836500883,5.887602579087019,3.974358973768353,6.760990510481595,-0.0202182382345199,-0.4095101356506347,-0.1733118295669555,-0.8533375888254454,-0.0833946376090693,0.3851373112762026,0.3413643113562063,0.0315166674554348,-0.1149392575025558,0.1992405503988266,-0.2029302180081605,0.3909785087049007,-0.9535451716929674,-0.0143806571140885,0.0550863146781921,-0.0030447990687302,-0.1124245449900627,0.0447135042750742,0.064314477731334,172
1724727783767854300,0.3670961133360862,0.4617430667579174,-0.0767658442944288,5.966314881274104,4.025289535060525,6.661119100409746,-0.0926358178257942,-0.5014842748641968,-0.3539326786994934,-0.8475596236945989,-0.0810076239339276,0.3921928251010529,0.3482314239025336,-0.0777264684438705,-0.0564746670424938,0.1485249102115631,0.2634761643856764,0.4369862266421317,-0.2761818801691755,0.0131407519802451,0.0058085587806999,0.0457413266525836,-0.0835948586463928,0.026508083680307,0.0364998209475073,173
1724727783807623200,0.0177367322206497,0.2950856468752026,-0.0984977836310863,6.024480069994926,4.0593686225339765,6.587682108277082,-0.1134952828288078,-0.3891430497169494,-0.2167459279298782,-0.8428385390985945,-0.078511713017349,0.3974387872091908,0.3542621092827526,-0.1127307936549186,-0.0564079284667968,0.1008872091770172,0.0692430475741624,0.0128173959970474,-0.4632166464418172,0.0105654755607247,-0.0282447319477796,0.0322431955494917,-0.1155254542827606,0.0670753481462597,0.0390300700774881,174
1724727783887158500,0.1175309854030609,0.0372588865533471,-0.0668441697388887,6.143904321798682,4.250905632129311,6.352371715667844,0.0152747519314289,-0.6325326561927795,-0.5086999535560608,-0.8286818847097221,-0.0771821271312307,0.4125071014586794,0.3703607668845047,-0.1686529070138931,-0.2548586726188659,0.0857687816023826,-0.2853624175012111,0.1481985108673572,0.3312859642863273,0.0087301544845104,-0.0229117050766944,-0.0742160273808753,-0.1542772054672241,0.0754879333131015,0.1336685387987643,175
1724727783926928600,0.4003349505931138,-0.005842880809307,0.535724833291769,6.20496815457046,4.363738815104961,6.215026607248187,0.0183173678815364,-0.378656655550003,-0.500407874584198,-0.8209780587282847,-0.0772168193271054,0.4209030835512688,0.3779859341135746,0.0574228353798389,-0.3083053529262543,0.1768524795770645,-0.5488835900723934,0.1273398472338914,0.2284931138098239,0.0044557079672813,0.0028378218412399,-0.0407262430035043,-0.1978804320096969,0.0725741693248273,0.1415579038091003,176
1724727783966697200,0.7075842057317495,-0.0853814046874642,-0.7120154661774635,6.230961843004822,4.508519334222376,6.084304131838679,0.0091348346322774,-0.5724149942398071,-0.6689698100090027,-0.8118989000118082,-0.077963999126478,0.4286122178492556,0.3886301316592632,-0.1182632446289062,-0.1773871928453445,0.315104216337204,-0.2129384018033742,0.7503688699692487,-0.3947100964486599,0.0242106318473815,-0.0072988960891962,-0.0104651314991875,-0.2229505628347396,0.082618981636269,0.2144394357497803,177
1724727784006466800,-0.0481406383126974,-0.5755310662403702,0.6659522186607122,6.216053027686477,4.657196276256442,5.986786006894707,-0.0283004231750965,-0.2185533046722412,-0.3987878859043121,-0.8045655673262525,-0.0808467505505813,0.4338463659763256,0.3973858540550955,0.0870403796434402,-0.0373566336929798,0.4006570279598236,0.0073532853722572,0.0435462962597608,-0.0931342107713222,0.042658407241106,-0.0181096885353326,-0.0280072316303034,-0.2391919791698455,0.0757501050803577,0.1584906079041771,178
1724727784046235600,-0.1962801124691963,0.2147846141919493,-0.8028057441711425,6.267975522625446,4.702606320561468,5.896469776153564,-0.1406359225511551,-0.6305946111679077,-0.2850143909454345,-0.798429602083718,-0.0778812474654965,0.4396569379497587,0.4039137966630242,-0.3220331370830536,-0.1825088709592819,0.3447799682617187,0.1399707807481288,0.1668219627946615,-0.302567234802246,0.0339612886309623,-0.0135917719453573,-0.0800021045356057,-0.2755652666091919,0.083783285308443,0.1147930300728417,179
1724727784086005500,0.6536001020878554,-0.2944517328858375,0.7843325143694877,6.310384339287877,4.767418984472752,5.798375897148251,-0.163674920797348,-0.2038334161043167,-0.4680756330490112,-0.7905345207855516,-0.0744436191791325,0.4458960184984703,0.4131467178236765,-0.1137672960758209,-0.3115734457969665,0.1536579430103302,0.2876765396624803,-0.6462625988066196,0.7721148378312588,0.0407652482390403,-0.0105332694947719,-0.0033283943623944,-0.2661148607730865,0.1027143418801948,0.0753145495075732,180
1724727784125775000,-0.8100865488290786,-0.1748185145065188,0.4458002322167158,6.31914398432672,4.8441100099653,5.724805049502849,0.2661439478397369,-0.5375110507011414,-0.1287583410739898,-0.7863504296414087,-0.0757659454787852,0.4498618565854282,0.4165774132234126,0.0802943259477615,-0.2837913930416107,0.1664128899574279,0.2261871749550104,-0.0972545055717229,0.2008931957552209,0.0184195414185524,-0.0079220011830329,-0.0538928040646715,-0.2847788333892822,0.0725133059830637,-0.0002014054652594,181
1724727784165543700,0.3839806126415729,0.3065034052073955,-1.4989935266196728,6.46463323623538,4.975704007512331,5.442542936104536,0.0077830646187067,-1.2175779342651367,-0.5785550475120544,-0.773513012087964,-0.0729474610173362,0.466032391902183,0.4232849124749158,-0.126480147242546,-0.2381724119186401,0.2868442833423614,0.1565524977147579,0.462709865963459,0.0002022445738315,0.0210550632327795,-0.0324460491538047,-0.0724178188524907,-0.2823722660541534,0.100763554872293,0.1004947752677369,182
1724727784205313800,-0.3894932385832071,-0.1103267531126737,-0.4233072453796863,6.572070113125443,5.0477691267699,5.243883235022425,-0.1916877776384353,-0.446615606546402,-0.0607542470097541,-0.7632290656119721,-0.0682390032297341,0.4774723102760507,0.4299361496419012,-0.0656815245747566,-0.2648659348487854,0.3251329660415649,-0.0043096798926591,0.1093546932101249,0.3885410524249076,0.0232104621827602,-0.0260229147970676,-0.0935002310721203,-0.3429181277751922,0.1243505474911071,0.1173232792028226,183
1724727784245082400,0.0869090526461601,0.0047954175829887,-0.3073264120280742,6.646334203732013,5.003874455463886,5.192096349161863,-0.2155647575855255,-0.5586397647857666,-0.0945528596639633,-0.7596705587062977,-0.0614984019547315,0.4811389664345515,0.4331556642851452,-0.3034591972827911,-0.2450823485851287,0.2676588892936706,0.5871440548837185,-0.0651052171170711,-0.1248690732061862,0.0526484251022338,-0.0130256321281194,-0.0668074909903109,-0.412317156791687,0.1243476888137403,0.2597672451314516,184
1724727784284852000,0.473726350018382,-0.0185053785055875,0.4991325939536094,6.750178609088063,5.011164027950168,5.04913047825098,-0.1064904630184173,-0.5536679625511169,-0.190471664071083,-0.7524244933226663,-0.0550765708943157,0.4894206511453573,0.4373687403913023,-0.2222152054309845,-0.1303392648696899,0.1579567641019821,0.7080395482838153,-0.3933411461830139,0.1449743611890822,0.0862051099538803,-0.0258806943893432,0.0176624271587119,-0.4722781479358673,0.2325174739550799,0.2085277092216536,185
1724727784324620800,-1.1167921986103058,-0.7777601502418517,0.5508452455341816,6.797035052809119,4.989460145664215,5.007593768247962,-0.0488063171505928,0.0715022906661033,0.3237315118312835,-0.75044854436672,-0.0516334110926646,0.4919530105279515,0.4383415486999328,-0.4886807203292846,-0.0748172923922538,0.0306830890476703,0.2852612952142954,0.0542418777972459,-0.1860288406331092,0.1086372584104538,-0.0274570733308792,0.0080162593468587,-0.4241409599781036,0.2251315832211635,0.1304954343211371,186
1724727784364390700,0.2217851406037807,0.1179492108151316,-0.0027571897536516,6.821208540078997,4.882940091358125,5.079213481825589,-0.0501125715672969,0.2210460901260376,0.2130396664142608,-0.7555692613346403,-0.0491164552812794,0.4884872205486636,0.4336853955111398,-0.3215076923370361,-0.0328356511890888,0.0558245256543159,-0.220542447066307,-0.2701952435076236,-0.3617255262136459,0.0869021043181419,-0.0019788588397204,-0.0096536096203257,-0.3610338270664215,0.2675148818498477,0.0816541003931779,187
1724727784404159200,-0.2261182013720273,-0.3564318037196993,-0.4037596643447875,6.826483850133418,4.827753041665256,5.124676425361633,-0.0907151773571968,0.0492548234760761,0.1610132753849029,-0.7581301622052158,-0.0476722826655077,0.4862525666318337,0.4318848348325895,-0.2894887924194336,-0.0028742365539073,0.1329944878816604,-0.2102507701545953,0.1340033967763185,-0.3660369596719741,0.0449254177510738,0.0116658164188265,-0.0843533585476689,-0.3186782002449035,0.241979970033653,-0.0524381482769502,188
1724727784443928800,-0.0822311239629983,-0.3047039545699954,-0.1239677404522895,6.843157337036728,4.725447682444751,5.197280473801493,-0.1557061523199081,0.2883987724781036,0.3366443514823913,-0.7623180119696584,-0.0445238334647585,0.4827318696934691,0.4287876321964305,-0.4119020402431488,-0.0368034951388835,0.2110928744077682,-0.2676876446008682,0.3203045515447855,0.1118890339933335,0.0546061694622039,0.0151049811393022,-0.0743955486662453,-0.2815517485141754,0.2318685815922915,0.0178089412236236,189
1724727784483699000,0.3432867832034826,-0.0449585011452436,-0.4560188438922166,6.849044641509652,4.573889924277365,5.323580456593632,-0.1931661814451217,0.2029999047517776,0.3493387103080749,-0.7691665825910977,-0.0405687989052161,0.4763686770211437,0.4240398812528826,-0.6879533529281616,-0.0788928344845771,0.2148665785789489,-0.1760346122980117,0.3405605731099844,0.0878384424507617,0.0668107122182846,0.0466965250670909,-0.1849068691321648,-0.286838561296463,0.1292106460744514,-0.085750941252755,190
1724727784523467500,0.4354653006851673,-0.0089735800504684,0.1646574782371521,6.899919673222303,4.500645532107353,5.320308887577057,-0.0535187870264053,-0.161328375339508,0.1009339690208435,-0.7700042321322712,-0.0364610932642619,0.4768755829507644,0.4223195187035123,-0.4311116933822632,-0.1238209009170532,0.2101955860853195,-0.0769137283325195,-0.3408785530179739,0.1094296581424772,0.0879013836383819,0.0405121482908725,-0.0045831071312248,-0.279435247182846,0.1090690812017768,-0.0332640242139226,191
1724727784563237000,0.263211960491538,0.1162596502929925,-0.1445966869831085,6.934656640082597,4.443946324285864,5.322805965089798,-0.0587176531553268,0.1423036158084869,0.2299764156341552,-0.7711554648248098,-0.0338337404865565,0.476935746878854,0.4203650711015135,-0.3868409097194671,-0.0507691651582717,0.159685879945755,0.2374795533418655,-0.4214887977808714,-0.1387771870493888,0.1196579560637474,0.0131570603698492,-0.1358371424089651,-0.2902164757251739,0.053004385591275,-0.1245656698128208,192
1724727784682483200,0.3097872491836547,-0.8085992328807711,0.6608540187388658,6.813112327384949,4.511082462708652,5.422363486906886,-0.2673530280590057,0.3464239835739136,-0.1844813376665115,-0.7695390918586299,-0.0359042082147344,0.4714311045183568,0.4292705889795691,-0.7047696113586426,0.0592642910778522,0.3809132874011993,0.5643430250108241,1.869341919749975,-0.9783552033007143,0.2674928605556488,-0.0471132211387157,-0.1383827443717047,-0.3783576190471649,-0.0384240898412419,-0.4846569824207574,193
1724727784722250500,0.4014584016650915,0.1549479851275682,0.4428320300608873,6.739996237769723,4.569260510911048,5.464859981852769,0.1168596670031547,0.0740065202116966,-0.288173496723175,-0.7691966493450025,-0.0393090453730223,0.4688544302307512,0.4323966066249705,0.2033803164958953,0.1339133828878402,0.1472422033548355,0.1797808130890131,-1.7508710231482982,0.214236917181313,0.1357789635658264,-0.0387136228382587,-0.1099236156718805,-0.3609227538108825,0.0708462769531412,-0.6348582844778895,194
1724727784762016800,-0.8240858480870723,-0.0904077084168791,0.0070399816393852,6.704993313449621,4.620237249432504,5.465057550251483,0.0559302493929863,-0.0388930179178714,0.0358146987855434,-0.7680767350362936,-0.0416512338245862,0.468641432798578,0.4343943642633482,0.0121304541826248,0.0216109734028577,0.007942889817059,0.1375517369076609,0.4772404956191778,-0.1768633182071149,0.0079558910802006,0.0708585754036903,-0.2765896389861591,-0.1917368024587631,-0.0828292268534656,-0.4375114560926332,195
1724727784801784000,-0.1062993972927331,-0.025099077682197,-0.1171545533061027,6.746019735842943,4.611641270522773,5.421657968986034,0.0206949170678854,-0.2078139930963516,0.0532327406108379,-0.7674484089368773,-0.040613136605297,0.4710869893280386,0.4329556765288315,-0.0684490799903869,-0.0604637637734413,0.0455371364951133,-0.0626578239649534,0.6899515184074639,0.1269721829652786,-0.0450095757842063,0.1041570156812667,-0.2196158702732995,-0.2160478830337524,-0.0959180876024998,-0.3586903232362121,196
1724727784921079000,0.2603425425350666,0.2250634316220879,-0.2493564536184072,6.885152312201261,4.648333755365014,5.2113388097703455,0.1817488074302673,-0.1727962642908096,0.0602345280349254,-0.7630755027284961,-0.0398380102322118,0.4823988030345278,0.4282756370340133,-0.1301302760839462,0.0447145886719226,-0.0430923998355865,0.1165671088069677,0.1596679993867874,-0.4218341040872037,0.0440438687801361,0.0392775610089302,-0.0135822839888976,-0.2091126590967178,-0.0809433948405552,-0.0071144539522152,197
1724727784960845600,-0.2384416763722896,-0.0665577540129423,-0.1890665278285741,6.936969008678197,4.687366958114504,5.106607100185752,0.2374919205904007,-0.4452907741069793,-0.0428583174943923,-0.7604478958329548,-0.0405282060318188,0.4878452271229939,0.4267124206151447,0.0234701950103044,-0.0117337210103869,-0.0718699172139167,-0.2761222954690456,-0.4414116418689489,0.0803214909493923,0.0453951247036457,0.0167020782828331,-0.0703522600582335,-0.1648357361555099,-0.059230443332158,-0.2231176313165575,198
1724727785080146400,0.2757698287695646,0.121741881096363,-0.1609492713689804,7.039114793422818,4.758239652717113,4.896979430365562,0.021073393523693,-0.059484738856554,0.0352647341787815,-0.7548694726551225,-0.0412594005410364,0.4986192907333912,0.4240855806780818,0.1612682789564132,-0.0850155502557754,-0.0886185392737388,-0.1250105275034904,0.1756149255812168,-0.0684893065974116,0.0733160674571991,-0.0028403433971107,-0.0336736576108727,-0.0252245478332042,-0.0288411365876207,-0.0072116740988596,199
1724727785159680000,0.6819827314853668,0.206040166722238,-0.2822077528625726,7.033481171450019,4.763125378932059,4.9003231878355145,-0.0534546859562397,0.2735331058502197,0.0419658347964286,-0.7560991964943264,-0.0430152804866656,0.4982998449423503,0.4220912349924713,0.2084589600563049,-0.1250067502260208,-0.0248058009892702,-0.4162760315686464,-0.4417524181306362,-0.125461632271856,0.0702609345316886,-0.0209134761244058,-0.0872828635277692,0.0126946046948432,-0.0143286636431002,-0.0184131564777577,200
1724727785239213800,0.0396370138615369,0.0728477940678596,-0.1603793625265359,6.990038335564732,4.68682481406182,5.034225170063972,0.0493863858282566,0.0544133558869361,0.1266131252050399,-0.7628390190493777,-0.0440158491872273,0.4913130906576631,0.418031932841292,0.1782581806182861,-0.1167254373431205,-0.1354901045560836,0.0872124195069074,0.2421048750549554,-0.0765291129291057,0.0276044160127639,-0.0292036794126033,-0.0903276654506102,-0.0314128138124942,0.0303848474818398,0.045901316686999,201
1724727785278980900,-0.0961737245976924,-0.0535159016102552,-0.1090659393966198,7.020055288165807,4.665795762297511,5.0119420265853405,0.0241029318422079,0.0170002914965152,0.1448649913072586,-0.7634536881683642,-0.0435250921430808,0.492511574871843,0.4155434948376328,0.1109899207949638,-0.1076414436101913,-0.0586931258440017,-0.2154717196732759,0.1329740537285804,-0.0424642001114785,0.0300784949213266,-0.0544862002134323,-0.0234758695276919,-0.071431927382946,0.0738094924065982,0.0687875269255833,202
1724727785318747400,0.1573380951344966,0.0612426964700222,-0.1757230621308088,7.029456738239526,4.626753791719675,5.034904969021678,-0.0331215485930442,0.0640499293804168,0.1170069649815559,-0.7652772877369408,-0.042678398970029,0.4913958175051343,0.4135932231406211,0.1179058849811554,-0.1606577336788177,-0.0309750139713287,-0.2623264098286628,0.0134375737220048,0.1604758086383342,0.0521258562803268,-0.0274969786405563,-0.1212600523961707,-0.0915997847914695,0.037961874590395,0.1218796273329295,203
1724727785358514400,0.1831932518810033,-0.0146776369109749,0.0446755925506353,7.038467143169045,4.618727721652388,5.029685188546776,0.0118499789386987,-0.0123925181105732,0.0816394537687301,-0.7655850032260806,-0.042547217227114,0.4916779043594994,0.4127011960045211,0.0119152702391147,-0.2328135967254638,-0.0555359534919261,-0.2914198178440332,0.25819150198102,0.1828383009634911,0.0543473623692989,-0.0179337598383426,-0.0785236660134978,-0.1043672934174537,0.0629217858304968,-0.0503148359800456,204
1724727785398281000,-0.0985591584295034,-0.1583721143573522,0.211032860442996,7.07212040644586,4.583904245552421,5.014312262848019,0.0739888697862625,0.0017507418524473,0.2160125523805618,-0.766751514056741,-0.0417083843183998,0.4925460826694835,0.409574065712885,0.213849201798439,-0.3362671136856079,-0.1017381325364112,-0.5104746567010879,-0.7920750913202762,0.1844273237206041,0.0444238185882568,-0.0137106738984584,-0.0546999739954015,-0.1106990650296211,0.0757529546245699,0.0160466351256822,205
1724727785438048000,0.677194912686944,0.2811088517099618,0.2502507721096277,7.1136869270652525,4.552784300145507,4.983773332199454,0.1153717190027237,-0.0956346914172172,0.0608661770820617,-0.7674682900799247,-0.0408169617848465,0.4941985986410814,0.4063177700486344,0.6013921499252319,-0.5390691161155701,-0.1303305625915527,-0.7980950822621583,-0.8186749289542437,0.2415910803139209,0.053688894957304,-0.004679050296545,-0.0207146680359146,-0.1017244756221771,0.0870968211700674,0.0154731323869316,206
1724727785477814500,0.0718833329498767,-0.0473036029666662,-0.3880214124649763,7.136309093239903,4.5509462710633874,4.953015205842256,0.0101031139492988,-0.1224131360650062,0.0471851974725723,-0.7670157969023884,-0.0405648253370809,0.4958033925314313,0.4052409265704993,0.309800773859024,-0.6442552208900452,-0.188760444521904,-0.8179261564135551,-0.0203355165421962,-0.1310030459165573,0.0241261050105094,0.0051939776167273,-0.0760741128703346,-0.1066438853740692,0.0937063937692437,-0.0958440542519092,207
1724727785517581800,0.01212239947021,-0.0150222125649452,-0.0503226585268974,7.178563011601567,4.5346763965249055,4.906661450946331,0.0359271727502346,-0.1794987469911575,0.0828189402818679,-0.7660755552092823,-0.0389466353468349,0.498310205612389,0.4041018702432639,0.2912041842937469,-0.8194775581359863,-0.1522641628980636,-1.116311721616983,-0.4939642514050006,0.2114357421554624,0.0015734519110992,-0.013165520504117,-0.1176436976630706,-0.1010147780179977,0.0653822622264735,-0.0809722921414766,208
1724727785716461800,0.0932195509672164,0.027298049031198,-0.0183840902134776,7.33419254925251,4.354988522416353,4.838809565469623,-0.0573257505893707,0.0477598197758197,0.1206036731600761,-0.7655923406302854,-0.0269821483168945,0.5025548040763284,0.400723052765956,1.019679069519043,-1.1232637166976929,0.244058683514595,-0.2242541610658168,-0.3881628667622804,-0.2148104792855679,0.0454074516892433,-0.0057535972446203,-0.0745638544378569,-0.1099459156394004,-0.0111527233209926,-0.0014804609450133,209
1724727785756230000,0.1697463258087635,0.0425455947846174,-0.0458402524158358,7.334429280617833,4.31983888310194,4.869857030162215,-0.1289956718683242,0.0589847788214683,0.0709072276949882,-0.7666325860500799,-0.025398063040146,0.5010602016404029,0.400709350343804,1.9545625448226929,-0.987048089504242,0.3189167380332947,0.2016568370714783,-1.1423656158059834,-0.1899754593670368,0.0360991582274436,-0.0153026729822158,-0.0914546053876168,-0.1336571425199508,-0.0125126157806371,-0.0697847441022749,210
1724727785915299300,0.144084645807743,0.0794593211621046,0.1323141285151243,7.396154792168736,4.124609156468511,4.945189042261243,0.0033001094125211,-0.0273814480751752,0.079946681857109,-0.7717834888940034,-0.0174569489725588,0.4975548037576325,0.3955816702088098,1.6526343822479248,0.1568093299865722,0.5630303025245667,1.0068778256908058,0.7566933968156576,-1.94556503546983,-0.0180763490498065,-0.0325938872992992,-0.260701731236279,-0.0777542889118194,-0.0232193694493966,-0.0760577827900415,211
1724727785955067600,-0.0120727151095867,-0.0331184257477521,0.0279500831991434,7.413747147482633,4.105805087277293,4.934481770285964,0.0002981461584568,-0.0301471967250108,0.0733239874243736,-0.7720108182480017,-0.0166473515229982,0.4981308259049318,0.3944463040329352,1.0240615606307983,0.3697802424430847,0.2503513395786285,1.805236527325213,0.3004302227735519,-1.1048387259662151,-0.0243847984820604,-0.0170986242592334,-0.1402208008532877,-0.0762090012431144,-0.0174380358267982,-0.1784744614644907,212
1724727785994836700,0.0002525134563446,-0.0408387908667325,0.0997118355959653,7.416984814229607,4.0852439452856775,4.94666671359837,-0.0253287255764007,0.0072002825327217,0.0646854788064956,-0.7726844799745488,-0.015925068844,0.4975304878280483,0.3939143962922255,1.0124711990356443,0.2858644127845764,0.0875188112258911,1.352981712141633,0.0611187778294086,0.2955608631715178,-0.019645107910037,-0.0560674741864204,-0.0469399390197359,-0.0758900195360183,0.0608537519513629,-0.1386485922336578,213
1724727786034604800,0.0666851797848939,-0.0232251005038619,0.2663689632177353,7.422377613183856,4.072119675296545,4.949398768910766,0.0604996345937252,0.0210149697959423,0.0723603069782257,-0.7732704770258504,-0.0157426542476358,0.4973962781268407,0.3929401914892658,-0.4589100182056427,0.2620211243629455,-0.0610580816864967,1.0003253353074193,2.183407869166136,-0.3120294751524925,0.0018505683401599,-0.0168938301503658,-0.1696666299023665,-0.0822468847036361,0.0329118885912932,-0.1278847586323972,214
1724727786074374000,0.2692933262318372,-0.1134355327829718,-0.0320335531204938,7.439137609326839,4.049802045026421,4.942540573579072,0.0770814269781112,0.0358049608767032,0.0881652683019638,-0.774146231507602,-0.0154711844318226,0.4977561601791752,0.3907645958050858,0.6567052006721497,0.1023930087685585,-0.0156043143942952,-0.1329994804307818,-0.6738391725182533,1.0001064318597317,0.0059775593690574,-0.0373627096414566,-0.0904074618217069,-0.0132016791030764,0.0970097552967257,-0.080280674881814,215
1724727786114143200,0.1668541114985942,-0.1627598279222846,-0.3166670718252659,7.455835061627626,4.048399484752118,4.918471715727448,0.0155444853007793,-0.0754445642232894,0.0478949286043643,-0.774096200407198,-0.015712123210734,0.4989798103759446,0.3892907835361483,-0.7716410160064697,0.1373427361249923,-0.1011329963803291,0.6419082029893994,2.630896785122156,-0.0586105944007635,-0.0290118716657161,-0.0545731931924819,-0.1002094463871791,0.0066607659682631,0.0983725041504483,-0.1544203445242717,216
1724727786153911300,-0.0304027370482683,-0.206234227989614,0.1522293738186359,7.459011353576183,4.003737336204946,4.950113639181852,-0.2246067374944687,0.1458403617143631,0.1677403301000595,-0.7760751293622562,-0.0147351330717427,0.4973905232122891,0.3874183600600051,-0.265777587890625,0.1201604530215263,0.021255500614643,0.0734483903095126,-0.2776367916852235,0.0940656464025378,-0.1447269171476364,-0.0093843806535005,-0.14173106841892,-0.0005403092363849,0.087421084688371,-0.2728380679002963,217
1724727786193680600,0.3725649001359939,-0.021389701770246,-0.0359551104784011,7.474879953837394,3.9160076148256655,4.996142399907112,-0.1957927495241165,0.0109612196683883,0.0863999128341674,-0.7777228860319422,-0.0102496452679605,0.4951389381744415,0.3871427212998815,-0.1265688389539718,0.2446667999029159,0.1993051320314407,0.1308680213600397,0.3099497462689876,-0.0025207506492733,-0.2684714496135711,0.0086841089650988,-0.1129284691768232,0.0512186959385871,0.0951965592617634,-0.1713530486193485,218
1724727786233448400,0.0763911657631397,0.0767816263854503,0.2687052972108125,7.484048764199018,3.860183728533983,5.025772399017215,-0.1268178820610046,-0.013465772382915,0.0721428915858268,-0.7783767896158621,-0.0069117718811505,0.4936690618903914,0.3877792760426928,-0.8756891489028931,0.0973684266209602,0.1580509692430496,-0.3677130761906504,0.7560796488314867,-0.5511582570061088,-0.495456725358963,0.0706541761755943,-0.2238674085042439,0.0880194902420044,-0.0274771342084393,-0.5362439252624288,219
1724727786273217800,0.0077086746811866,0.0151177818939089,0.0862006121158599,7.490182152387499,3.811714004397392,5.05355121730268,-0.1049458906054496,0.0789466425776481,0.1054959222674369,-0.779378180916145,-0.0045502935803786,0.4922599759644291,0.387593825282299,0.1475580632686615,0.0485237054526805,0.0784390941262245,0.3097936789244413,-1.0389023187220097,0.6178694480150938,-0.5040071606636047,0.0176296588033437,0.096825640034629,0.0515953935682773,0.2618699164991266,0.522710745678842,220
1724727786312985900,0.4631102634578943,0.1145440785467624,-0.1701864707916975,7.500303733429313,3.770047822795808,5.069769946175813,-0.0909979715943336,-0.0415233299136161,0.027540311217308,-0.7801754058805339,-0.0025717654842416,0.4914336816121082,0.3870563302577013,-0.1547868847846985,-0.0957298800349235,0.0969629809260368,0.0442778254047036,0.6159744280487298,0.335829745195806,0.052069816738367,0.0643029734492302,-0.3143107544900849,0.0022488636896014,0.0430899855933152,1.2571397037163377,221
1724727786352755000,0.1071264957666397,-0.0117632107689976,-0.1921545569717884,7.507332609152794,3.747166713424027,5.076326528212428,-0.106269970536232,-0.0111102955415844,0.0186194218695163,-0.7801182484426485,-0.0008981683058378,0.4910993587232875,0.387603134974267,0.6818704605102539,-0.1263608634471893,-0.015164160169661,0.3096422877550125,-0.7804846067696809,-0.0420139721259474,0.6439364552497864,0.1089957505464553,-0.2529016702109016,-0.1033053323626518,-0.0325833439068053,0.8406372429806739,222
1724727786392523300,-0.0132832599431276,-0.0439662752375006,0.0733089818388223,7.508481194666028,3.709937637487054,5.101906959670782,-0.1299552172422409,0.0792697370052337,0.0403206869959831,-0.7806282499775057,0.0012842821418769,0.4897687963396163,0.3882581424846725,0.7995337247848511,0.0486725233495235,-0.0932551696896553,0.5432809477597474,-0.4418196381479501,-0.3695090196967124,0.6004789471626282,0.2047253400087356,-0.1567880965689197,-0.0803945437073707,-0.1230604346153326,-0.530787559552677,223
1724727786472061400,0.1464554665923118,-0.0030836452290415,0.3221884655952453,7.508106516134738,3.703322018739581,5.10726234922409,0.1429688483476638,-0.0406964011490345,0.0037439956795424,-0.7811557182104801,0.0011319964553326,0.4894903670515969,0.3875482762747473,0.1221341863274574,-0.0884999781847,0.0117846326902508,-0.1246004853978753,0.2771072148531675,0.2834463547468185,-0.2053845226764679,-0.0655119195580482,0.1729276044596917,0.0233524944633245,0.1568701853618025,-0.7226292877156287,224
1724727786551598800,0.055927638927102,0.139202134463191,-0.2469756959617138,7.481767375263571,3.729528473141789,5.126807007649541,-0.0481149405241012,0.002955598058179,-0.0392919816076755,-0.7817972345599401,-0.0010881073358605,0.488471486094979,0.3875402188365416,-0.4283808767795563,0.1663322150707245,0.0421960018575191,0.6992994847282767,0.8777396968632936,-1.5593652854740618,-0.1414613872766494,0.0106203304603695,-0.1327324726582039,0.0269632395356893,-0.0352031892826897,0.0738062227372778,225
1724727786591367000,-0.0478799415498971,-0.0569938068538904,0.4540016588509082,7.472598564901948,3.72865169030726,5.140798123601079,0.0901421532034874,0.0340561196208,0.005323858000338,-0.7821574584272989,-0.0012720632786703,0.4877403121462885,0.3877337379629225,0.2992234826087951,0.058875735849142,0.0091271977871656,-0.2006552588135003,-2.0306717148691416,-0.3763818280756473,-0.0334588028490543,0.0152012752369046,-0.0890530241386033,0.1059551164507865,0.0008992749400174,0.0179755116958753,226
1724727786631136000,0.4539747708439827,0.1155602698519825,-0.0251671744823455,7.463350844085216,3.782349670486152,5.114941213288903,0.2132789343595504,0.0447036139667034,-0.1503761410713195,-0.7817110638763224,-0.0046165500832284,0.4890698088770169,0.3869332331049839,-0.5932760834693909,0.2894204258918762,-0.3312030732631683,0.7848939476445317,0.909589710110426,0.1976017164617776,-0.0785363912582397,0.0055275582708418,-0.1226026809104718,0.1201464831829071,0.0473071192311588,-0.2526002213126048,227
1724727786670904000,-0.0836520966768264,-0.0999795466214418,-0.9299041838645936,7.440435247921943,3.8175761744290586,5.122150706276297,-0.2744656801223755,0.1026292294263839,-0.0772215127944946,-0.780868868112015,-0.0057561860509114,0.4886817491329617,0.3891027003347366,-0.5585277080535889,-0.1562733352184295,0.0169153474271297,-1.019774132142961,0.1987806971132755,0.9163573045492172,-0.112587958574295,-0.00897110812366,0.0333102676585782,0.0746786743402481,0.1534668797243386,-0.1079702439812477,228
1724727786710701600,0.1226964053422212,-0.3434010572329163,0.5187433033525943,7.397640646812319,3.762470665539801,5.223898431614041,-0.1819662749767303,0.3042190074920654,0.0212781187146902,-0.7829567124189901,-0.0032727006212824,0.4833679539643594,0.3915655349794034,-0.0004814777057617,0.0148504320532083,-0.0695971101522445,0.1974246063292026,0.2303852111667394,0.3558250699982047,-0.1032724231481552,-0.0313333347439765,-0.1097676944578066,0.0505861677229404,0.0879960989641956,0.0334486486493842,229
1724727786750472000,0.1644102254778146,-0.148060855962336,0.208002114444971,7.339466690263151,3.7697397797599432,5.300157495430112,0.0938786715269088,0.1641199141740799,-0.0767800956964492,-0.7850953857624895,-0.0053431673831985,0.4793105562707163,0.3922474591059228,-0.0782045051455497,-0.0883849337697029,-0.0493496246635913,-0.4858057871297001,-0.6632984892815351,0.5003124513879418,-0.0874470695853233,0.0121860401704907,-0.1159694991068448,0.0614368505775928,0.0154088954862148,0.1492179992413614,230
1724727786790241000,-0.2347802312552928,-0.1137003211989998,-0.6955769570738076,7.318923083928227,3.780270233863592,5.321024342370033,-0.0963601171970367,0.059461697936058,0.0168316960334777,-0.7856653149187338,-0.0064534261392146,0.4781857514742889,0.392462370930912,0.5642908215522766,-0.1877835839986801,-0.2819829285144806,0.0661290072068572,-0.6370587171316147,0.5972916471496224,-0.0551013015210628,-0.0274916812777519,0.0478312618362717,0.043320819735527,0.0574172609969275,0.132045257579023,231
1724727786830011400,-0.1753039599359035,-0.0761401136115193,-0.5354296497374773,7.31541127641499,3.7331332196354863,5.358997222411632,-0.2794486880302429,0.052261222153902,0.0609482377767562,-0.7864121958872358,-0.0038024293491974,0.4761855994453108,0.393431782400732,1.2988086938858032,-0.2269872426986694,-0.2670912146568298,0.4815101357623934,-1.072846673899889,0.178572314082086,-0.0305137578397989,-0.0226449090987443,-0.0729694431195734,0.0309121850878,0.0054988177536346,0.1025278337316121,232
1724727786869780700,0.0839765063256025,-0.1386746034577488,0.8596288706332444,7.289415834414958,3.653811553378403,5.448344315859675,-0.1176588609814643,0.2786084711551666,0.103379413485527,-0.7889417290751921,-0.0006211377003068,0.4713930041919892,0.3941562480470937,0.8087040185928345,-0.0937487483024597,-0.2080846130847931,-0.230839092414081,1.4516063370227812,-1.2715876235246657,-0.002549848286435,-0.0267028547823429,0.0364429853268899,0.0524578876793384,0.1057628518637735,0.0936165600613225,233
1724727786909549000,-0.0870329712867736,0.0473252302765846,0.0007470189750194,7.261258245944976,3.659347852456569,5.482123835864663,0.2017541676759719,-0.054404966533184,0.0103594912216067,-0.7908436161407548,-0.0028607434463929,0.4695543384554476,0.39252627221395,0.5917693376541138,-0.0784736573696136,-0.1512551605701446,-0.0640150837928056,-0.7805565029621124,-0.0442284333050251,-0.0024356916546821,0.001377316773869,-0.1087049788634292,0.0848642960190773,-0.0137479434289853,0.0029856276438425,234
1724727786949318400,0.0952665466248989,0.0219829914882779,-0.5730073929816484,7.291294487768411,3.661196987454593,5.440868280890584,-0.1585865765810012,-0.0616095140576362,0.0627496391534805,-0.7898795000198586,-0.0023128892015697,0.4717918701610235,0.391787574469652,0.6041194796562195,-0.1259514242410659,0.0955277979373931,-0.3291422302559018,0.317961203289032,0.1085474684804677,-0.0104734515771269,-0.0311264730989933,0.0007354975005844,0.0842171683907508,0.1270196571025066,-0.0027107522294623,235
1724727786989088800,0.3002735709071159,-0.0556496987685561,0.7389671859890222,7.282312724411487,3.5989185181960464,5.494187198624014,-0.0440463200211524,0.1828698515892028,0.0970403850078582,-0.7916505624920164,0.0002134573304431,0.4689076401595979,0.3916821562999183,0.3997125327587127,-0.0807928964495658,0.2424153089523315,-0.3423699606195092,1.169921731251478,-0.7133578206971287,-0.0234504770487546,-0.0164817161858081,-0.1885313249733299,0.1287823468446731,0.0381558605092461,-0.0226183028502855,236
