time_imu,phone_acc_x,phone_acc_y,phone_acc_z,phone_gravity_x,phone_gravity_y,phone_gravity_z,phone_gyro_x,phone_gyro_y,phone_gyro_z,phone_ori_w,phone_ori_x,phone_ori_y,phone_ori_z,watch_gyro_x,watch_gyro_y,watch_gyro_z,watch_acc_x,watch_acc_y,watch_acc_z,headphone_gyro_x,headphone_gyro_y,headphone_gyro_z,headphone_acc_x,headphone_acc_y,headphone_acc_z,frame_imu
1733388837461506000,2.117006620889157,11.363393120276926,-1.1724608943402766,0.3704190837463363,9.791922386467457,-0.3891570654314011,0.0629961714148521,0.3893691599369049,-0.39146888256073,-0.1554158569338291,-0.1350341171707007,0.7082423848256423,0.6752810392487275,0.0826930105686187,-0.0181485097855329,-0.0196614544838666,-0.0102484822273254,-0.0207191109657287,0.0302540659904479,-0.0492710880935192,0.0761873573064804,-0.0357493587732315,-0.0385805144906044,-0.115921906238608,0.0254613351233303,0
1733388837501506300,6.616503129091859,10.705464633595945,-1.7783704399704932,-0.069110073410836,9.80027286618352,-0.3467820049080997,-0.2532272934913635,-0.6080973148345947,-1.948142647743225,-0.1387702382735368,-0.1487351278703975,0.703959390657097,0.6804864925030382,0.0567157343029975,-0.0093959234654903,-0.0390906818211078,-0.012428879737854,-0.0267194211483001,0.0305692572146654,-0.0198249947279691,0.0576415434479713,-0.0607440992981195,-0.0312418527901172,-0.1079740890393033,0.0862828835718333,1
1733388837541506300,5.0711576011419295,2.090055047208071,-0.6325812794566155,-1.097680597839877,9.742537885573508,-0.2200542799568735,-0.3362315893173218,-0.7592703700065613,-3.0165669918060303,-0.0925214331492677,-0.1733736978919857,0.6936578453161967,0.6929791254875708,-0.0053090192377567,-0.0044190087355673,-0.0523654073476791,-0.0086919665336608,-0.0347688496112823,0.0287012476474046,0.0072709638625383,0.0395866334438324,-0.041518589824438,-0.0229116529226303,-0.108874362347275,0.0997735026553273,2
1733388837581506300,0.3238793412916362,-6.455470855614543,1.0167594604969024,-2.161429115461558,9.56538917455375,-0.0441154333506478,-0.3232372999191284,0.1074155196547508,-2.2843546867370605,-0.0521182420622658,-0.2068401631289352,0.677839515006796,0.7035868407921548,-0.0411743447184562,0.0030834889039397,-0.0537462569773197,0.0027862787246704,-0.0390501320362091,0.0213308315724134,0.0432827845215797,0.0155539587140083,-0.0508230092644691,-0.0358353592455387,-0.0829117997035384,0.0518071979962289,3
1733388837621506300,-0.7494508783414959,-11.095318522185089,0.816738407933712,-2.83781168885231,9.38705680670738,-0.019769176479883,0.0679469630122184,0.0374420434236526,-1.3184711933135986,-0.0283170022737366,-0.2318219797591546,0.6687798720145758,0.7058259742042522,-0.114240825176239,-0.0027045723982155,-0.0355878211557865,0.0038002133369445,-0.0408258736133575,0.0030067563056945,0.0760511308908462,0.0007082549855113,-0.0150935242354869,-0.0449909381568431,-0.0751582629673183,0.0835096194662153,4
1733388837661506000,-0.9381897816509008,-13.673098634147642,0.4120832560539245,-3.131055799514055,9.293356194224954,-0.0206312366693164,-0.0346855074167251,-0.0878981202840805,-0.2383983135223388,-0.0172388000874204,-0.2423056764530141,0.6650863548840504,0.7061522767378712,-0.1471668183803558,-0.006205404177308,0.0006350280018523,0.0018137097358703,-0.0334284901618957,-0.0081828823313117,0.0856996402144432,-0.0049208854325115,-0.0013777180939912,-0.0164213683456182,-0.0579962618947029,0.1427970902152359,5
1733388837701506000,0.2992442278593778,-11.546603323292732,0.2781435721635818,-3.0274370196074245,9.327626712617278,-0.0197196062836912,-0.1476163566112518,0.4580405652523041,0.6402177214622498,-0.0239238316395653,-0.2411883516983829,0.6654574360260709,0.7059902324050971,-0.1357008516788482,-0.0192192066460847,0.0367195270955562,0.0044764876365661,-0.0171678662300109,-0.0149763813242316,0.0901334434747695,-0.0152138024568557,0.0284019186198711,0.005040505900979,-0.0513371693316847,0.1173269872635602,6
1733388837741506300,0.1016018871262669,-6.279028831559419,0.7163210544168949,-2.7272929202988743,9.41977249687314,-0.011976076059899,-0.0458182208240032,0.3164417743682861,1.0457392930984497,-0.0419770187212704,-0.2367940159798597,0.6667377325216914,0.7054270569725923,-0.1393219381570816,-0.0210162550210952,0.0607030242681503,0.0001447200775146,-0.0076963454484939,-0.013219297863543,0.0936187431216239,-0.0223119780421257,0.0183393742889165,0.0160401538014411,-0.0537147121179848,0.1304502343393862,7
1733388837781506300,0.21165946790874,-1.4140408687382937,0.1408919872462749,-2.208124377271533,9.554176875665783,-0.110815331214061,0.2517719268798828,0.3546330630779266,1.5968540906906128,-0.0636984876481353,-0.2222330523904057,0.6754720424169803,0.7002088909833563,-0.1004901304841041,-0.0170502755790948,0.0796377658843994,-0.0098947882652282,0.0045936852693557,-0.009526371024549,0.0806254297494888,-0.0277863088995218,-0.0199415487885475,0.022756490856409,-0.0398183617778122,0.1823195377863943,8
1733388837821506300,1.0724399927951396,1.4771657256931066,-0.1920785691261291,-1.5637003920689223,9.67936509782374,-0.1874018460193648,0.1084010750055313,0.3125698566436767,1.7256875038146973,-0.0916329992120417,-0.205070280454517,0.6837404589410906,0.6942971854236862,-0.0892167016863823,-0.0049755028448998,0.0824497267603874,-0.0180457830429077,0.0112616270780563,0.0015562791377305,0.0582076050341129,-0.025529334321618,-0.0135340198338031,0.0254905391484498,-0.0474312114017084,0.2049469646580517,9
1733388837861506300,2.0137996366538107,4.409738349735736,0.497605822777748,-0.8235822094138712,9.768873519313336,-0.2474120780849829,0.1688254028558731,0.3043813705444336,1.1852238178253174,-0.122924987714993,-0.1848288372835121,0.6917028308791637,0.6872226719436633,-0.0515811778604984,0.0210025683045387,0.0778075084090232,-0.0181706547737121,0.0233998149633407,0.0044026961550116,0.0308031365275383,-0.0168131496757268,0.019271102181077,0.0036027003079652,-0.044511561095342,0.1598177831210196,10
1733388837901506300,1.5820656314514576,3.309085385021567,-1.8423381774902343,-0.4184836246155202,9.79273428737223,-0.3124432070525363,-0.0272836871445179,-0.0484584271907806,0.8509343862533569,-0.1375634801838953,-0.1719506574682693,0.6973974058253914,0.6820162397759607,-0.0578534565865993,0.0358408503234386,0.0600853040814399,-0.0181537866592407,0.0220794677734375,0.0078815808519721,0.0045997593551874,-0.0232310108840465,-0.0068260466277599,-0.0202806163579225,-0.0210089222917333,0.1132373798623681,11
1733388837941506000,0.9386942240417004,3.5579327200740574,1.1686416283130645,-0.1882616046538576,9.801562905994055,-0.2536070237349718,-0.0470712706446647,-0.0055979657918214,0.4064642786979675,-0.1460287386353463,-0.1632767541791181,0.6973313855601166,0.6824553452027216,-0.0162639338523149,0.0481387414038181,0.0374522320926189,-0.009764552116394,0.0273323059082031,-0.0012762546539306,-0.0078607108443975,-0.0141601264476776,-0.0108528179258108,-0.0195918325334787,-0.0141540148956701,0.1149453528240323,12
1733388837981506000,0.2827140401505865,2.0219997481137515,-0.0873170489251613,-0.0292280558292637,9.802662976190447,-0.2780979794561862,0.0285702981054782,-0.0341255255043506,0.3609383404254913,-0.1508512259730875,-0.1572781382828942,0.6996017708485658,0.6804887325183944,0.0397031940519809,0.054008562117815,0.0066792713478207,-0.0138693451881408,0.0261638760566711,-0.0122974514961242,-0.0263054631650447,-0.010422121733427,-0.0050397477328777,-0.0066632768139243,-0.0171841033065691,0.0711772305071353,13
1733388838021506300,-0.2483104516968131,1.6700164482355118,1.0326619630277156,0.0771249142646323,9.8019516130507,-0.293601399666816,0.1361238807439804,0.101080410182476,0.2481637001037597,-0.1549183108357078,-0.1541182328983114,0.7008688005252796,0.6789925646048885,0.046480406075716,0.0411403253674507,-0.0220481120049953,-0.0033335089683532,0.0150141417980194,-0.0131905674934387,-0.0386923439800739,-0.0072752498090267,-0.0200929399579763,-0.0153512367978692,-0.0376157006343826,0.0135381114870309,14
1733388838061506300,-0.4776403085917234,1.3648451684147118,0.1074176242003217,0.1888397881343029,9.798269125145673,-0.3586593801086768,0.1674366295337677,0.2300178706645965,0.3006037473678589,-0.1603897857835868,-0.1528393467442461,0.7035102508972106,0.6752692334415182,0.0372195318341255,0.0086472583934664,-0.0484897084534168,0.0028507113456726,0.0036552101373672,-0.0110903978347778,-0.0365835018455982,-0.0042616860009729,-0.0084369889557361,-0.0170963741838932,-0.0510545529980212,-0.0361886269733309,15
1733388838101506300,0.1438686284368857,2.7042390847086906,-0.3595780293235555,0.3183618199791759,9.792297649520634,-0.4242237391700968,0.1426760256290435,0.247739166021347,0.2916334271430969,-0.1680558211102376,-0.1526319721091674,0.7059269600361602,0.6709157845693717,0.0380155481398105,0.0051553747616708,-0.0570377893745899,0.0010679364204406,-0.0068781673908233,-0.010360836982727,-0.0199091751128435,-0.0105970259755849,-0.0439057772219181,-0.0043577821925282,-0.0450157112251967,-0.0466594598442316,16
1733388838141506300,0.741819360549748,7.48695559155643,-1.1815139693677426,0.3469436982758343,9.791849321231243,-0.4119771287983283,-0.2176525294780731,0.1906556338071823,-0.1918551474809646,-0.1715172615374095,-0.1540067855593601,0.7051857184889196,0.6705049876801691,0.0244304984807968,-0.0017057270742952,-0.0404234565794467,-0.0003249645233154,-0.0203786194324493,-0.0019952654838562,0.0020831227302551,-0.0200617089867591,-0.0469113887786865,0.0063307303935289,-0.0587513545783236,7.51110628247e-05,17
1733388838181506000,2.2686774840421973,11.57631924712062,-1.1501719056427475,0.1838827685151249,9.801358907854556,-0.2645023656282573,-0.4570865929126739,0.1744246482849121,-0.7773227691650391,-0.1704243941502092,-0.1620199530328845,0.6980224944665369,0.6763651411926594,0.0068128900602459,-0.0101535934954881,-0.0150390062481164,0.001552939414978,-0.0220139473676681,0.001866937149316,0.0136504406109452,-0.0302686989307403,-0.0290448926985263,0.0243928041309118,-0.0420967550385743,0.0265861013695597,18
1733388838221506000,6.313699162924289,8.469328798326849,-1.1399369273543358,-0.3644068742521107,9.799626384973523,-0.0700331385059282,-0.5797739028930664,-0.4478517770767212,-2.014495849609375,-0.151296905882387,-0.1780307036065377,0.6869321399742516,0.6881413420368867,-0.0072957379743456,-0.0087250741198658,-0.0054101478308439,-0.0047013163566589,-0.0213962644338607,0.0051277270540595,0.0192115940153598,-0.0199331566691398,-0.0009843348622322,0.036884494125843,-0.0399609485862776,0.0632359161138534,19
1733388838261506300,4.06767087919414,-2.459696168851852,1.282980539676547,-1.261666533491015,9.723853058847784,0.1589274649514816,-0.3039613664150238,-0.2261980324983596,-2.3714756965637207,-0.1150351582340851,-0.2013059023362104,0.6718429045109923,0.7034699196618643,-0.0409370549023151,-0.015182121656835,-0.0036559901200234,-0.0062331557273864,-0.0175558626651763,0.0090885758399963,0.0074969697743654,-0.0125593710690736,0.0101057989507913,0.0410561971366405,-0.0253573998248204,0.1050876834154129,20
1733388838301506300,1.1373355126842857,-10.76113917454481,2.102359232985973,-2.0492269238658247,9.589476737105846,0.1139229783731978,0.5730007886886597,-0.2494261264801025,-1.6345126628875732,-0.0827784918406226,-0.2259256039390026,0.6656944992107413,0.7063682787587986,-0.0522115491330623,0.0029034591279923,0.0027278065681457,-0.00723797082901,-0.0057155936956405,0.0072786808013916,-0.0544150844216346,-0.009575255215168,0.0118564420104026,0.0826205462217331,-0.0492797618778422,0.2426172084912657,21
1733388838341506300,0.3544762857377529,-14.511811558002233,0.1468763132197316,-2.5406819689288733,9.471419682002066,-0.086871241386421,0.5097798705101013,-0.506977915763855,-0.993237555027008,-0.0561133796892611,-0.2381063055930042,0.6691297241006302,0.701727995213674,-0.0337963216006755,0.0082388361915946,0.0019779936410486,-0.0065751075744628,0.0025917589664459,0.0039240717887878,-0.1620226204395294,-0.0193493757396936,-0.0367436305075883,0.1268559545278549,-0.0304485124187543,0.2662250247023999,22
1733388838381506300,-2.0779399542614816,-13.56743578119278,-0.4442530027747154,-2.764781816215813,9.407959309482576,-0.1291582126343157,-0.0729178488254547,-0.1585501283407211,-0.0972072258591651,-0.0417648509634539,-0.2409266060765924,0.6697309956153105,0.7011922165241429,-0.0312993414700031,0.0123275332152843,0.0025182156823575,-0.0054248571395874,0.004948541522026,0.0018409490585327,-0.2686825096607208,-0.0571608692407608,-0.062528060105443,0.1685248762369156,-0.0373132470890879,0.2281196043223142,23
1733388838421506000,-2.457161389677226,-7.95986477997303,-0.0497381366372108,-2.6305177226766943,9.44726373038888,0.0014053233389582,-0.4949344396591186,0.1318007856607437,0.6847427487373352,-0.0483164050955528,-0.2357552508105335,0.6665941870149744,0.7055050177549719,-0.0072147781029343,0.0150975408032536,0.0037110457196831,-0.0039774775505065,0.0087424665689468,-0.0052209496498107,-0.3378405570983886,-0.112737625837326,-0.0926619170844554,0.2216848582029342,-0.0171877931009978,0.1795974193461239,24
1733388838461506000,-0.7794277911931276,-2.7815456117510795,0.8977221621841192,-2.2619565052241084,9.54172363680601,0.0972183656792622,-0.0445905327796936,0.1488275527954101,1.2373676300048828,-0.0658269758300961,-0.2250175924510929,0.6666410774093771,0.7075475713855447,0.0188067015260458,0.0144774504005908,0.0064208125695586,-0.0029302835464477,0.0064826011657714,-0.0038889050483703,-0.3528395295143127,-0.150326669216156,-0.0633159956127405,0.252318263053894,-0.0130382722061127,0.0260937878079712,25
1733388838501506300,-0.2141159211501479,0.7858809128552675,0.4173527208894491,-1.7057343889571726,9.657027593809364,0.0516116251917788,0.1641168147325515,0.261291891336441,1.703468918800354,-0.0878198399826034,-0.2077517558859762,0.6739493656026678,0.703504874213849,0.0300340559333562,0.0143206436187028,0.0135816531255841,-0.0029861330986022,0.0026923865079879,-0.0040604472160339,-0.3195423185825348,-0.1591831743717193,-0.0549964955568313,0.2424253970384597,-0.0332223975788801,-0.026260084285587,26
1733388838541506300,1.656948000086844,2.8275936616986987,-0.5654360809445381,-1.0133565932508557,9.753935477900503,-0.0649869792985729,0.2524228692054748,0.2850074172019958,1.726557731628418,-0.115682857417951,-0.188145451551234,0.6840429101427072,0.6952006762938985,0.0206906218081712,0.0131355365738272,0.0097261276096105,-0.004043698310852,-0.0021559298038482,-0.0017288324888795,-0.2816998958587646,-0.1644808799028396,-0.0369072966367006,0.2043714374303817,-0.0140826666925102,-0.0551945023469626,27
1733388838581506300,2.565048932944238,4.234099458757043,0.0484498503923416,-0.4458812980962917,9.7954733569473,-0.1424220737572293,0.1902790814638137,0.068630151450634,1.1066476106643677,-0.1379544386227004,-0.1715825482674453,0.6912459287108822,0.6882638382844722,0.0173467565327882,0.0090673984959721,-0.0038812935817986,-0.0060101747512817,-0.0052323788404464,0.0011623501777648,-0.2475717067718505,-0.1551931053400039,-0.0333954891234636,0.1636563241481781,-0.007506064781174,-0.0409689931176602,28
1733388838621506300,1.086502347351983,3.859587516206503,-0.9023965837359428,-0.1113141019158996,9.803522807890175,-0.2212318358362652,0.1136683821678161,-0.0601979084312915,0.6688759326934814,-0.1486845271365357,-0.1600002862271098,0.6969071621957397,0.6830909741882286,0.0076065119355916,0.0114768128842115,0.0006838970584794,-0.0054572224617004,-0.0052204728126525,0.0034902698826044,-0.196685791015625,-0.1403655558824539,-0.0027513445347547,0.1227763593196868,0.0026550445534288,-0.0172220606967806,29
1733388838661506000,0.6780467072106897,3.1557191161274907,0.5748550666749477,0.1135361801458522,9.80364555748701,-0.2145272966963239,-0.0276644136756658,0.0004800477763637,0.5069820284843445,-0.1567420227248278,-0.1521315081910693,0.6984224024598438,0.6815380138421222,0.0244062636047601,0.0155680142343044,-0.0024388590827584,-0.0069575309753417,-0.002518817782402,0.0007354023400694,-0.1617882251739502,-0.1214781180024147,0.0307388371348381,0.0915377438068389,0.0031946313228458,-0.0148497786074876,30
1733388838701506000,0.4481276157183572,2.52180512676239,0.3888812441647052,0.2918302800747566,9.79965561106801,-0.2280206191935576,0.0675120055675506,0.0587299428880214,0.3885754942893982,-0.1628021977653166,-0.1458532600688561,0.7002518424046575,0.6796100079531161,-0.0173550304025411,-0.0008665117202326,-0.0127414977177977,-0.0077755451202392,-0.0088793039321899,0.004158616065979,-0.1141734942793846,-0.0957808941602706,-0.0116208796888589,0.0567864365875721,0.0080552961617708,-0.0417586821906268,31
1733388838741506300,0.9332310632649808,2.1225696618437766,0.5984674129307269,0.400488862513192,9.794418879458307,-0.281684879765939,0.2267055809497833,-0.013926344923675,0.169172927737236,-0.1668820494844853,-0.1431545115352804,0.70275793696046,0.6766006458524857,-0.0080198515206575,-0.0007302112644538,-0.0185154303908348,-0.0059157013893127,1.658499240875244e-05,-0.0013688207836821,-0.0811882019042968,-0.0972889140248298,-0.0120136783987283,0.0316508710384368,0.0311705065503716,-0.0346264922231435,32
1733388838781506300,1.0607651178967208,2.4271102425456044,-0.2124631855070591,0.4302239659655839,9.7899022788167,-0.3783060741364956,0.2073225677013397,-0.0317212902009487,-0.0157534386962652,-0.1667203018667755,-0.1424045127971008,0.7064058306071916,0.6729904452167552,-0.0071766944602131,0.0016968871932476,-0.0298681538552045,-0.0049068927764892,-0.0036752074956893,-0.0024597644805908,-0.0380216389894485,-0.0821954607963562,0.007415244692564,0.0320302061736583,0.0249130535908043,-0.0038349019877612,33
1733388838821506300,1.549170931456983,4.781157586967945,-0.6768108818054199,0.3581100025976076,9.79085154236555,-0.425867962713167,0.064142607152462,0.0355940014123916,-0.4354300200939178,-0.1640484012694396,-0.1455720225298488,0.707475801787775,0.6718443855499308,-0.0025166955310851,-0.0073369280435144,-0.0267264898866415,-0.0005221366882324,-0.0048621743917465,0.0016822218894958,-0.0092325452715158,-0.0716815665364265,0.0212350957304239,0.0448679625988006,0.0252908008620142,0.0259343594625592,34
1733388838861506300,0.4847999345554039,9.149801709771156,-2.258564524698257,0.0908558083774056,9.798059866309163,-0.4001971130250021,-0.2764939069747925,0.143649935722351,-0.897817850112915,-0.1564387356560807,-0.1564353917103236,0.7042246386236534,0.6746277427618946,0.0102739343419671,0.0039151939563453,-0.0144659606739878,0.0026166439056396,-0.0057292580604553,0.002636969089508,0.0164045896381139,-0.0644027814269065,0.0065209262013435,0.0496057495474815,0.0266948224410414,0.0716183984033763,35
1733388838901506300,4.166258386935294,8.746762176394462,-1.1478677203536034,-0.4200810864074155,9.794534030270576,-0.2470538940307684,-0.4024940431118011,-0.1522446572780609,-1.8459056615829468,-0.1404062900142265,-0.1739088509964243,0.6945156256394404,0.6838785792641379,0.0259783286601305,0.0140223167836666,-0.0001455444144085,-0.0014420747756958,-0.0118805617094039,0.0018751026364043,0.0376569852232933,-0.0487293228507041,0.0436357281088829,0.0449077188968658,0.0127377548895776,0.1251337154917418,36
1733388838941506000,3.761420571964979,2.336371402478218,-0.6554243949055671,-1.315743722245842,9.717685768389702,-0.0761531237901421,-0.3558673560619354,-0.8797454237937927,-2.542543172836304,-0.1033798594976129,-0.1974542786012807,0.6818317508816089,0.6967280237024444,-0.0023933912161737,0.0124068958684802,0.0029909934382885,-0.0020390152931213,-0.0207556784152984,0.0051828026771545,0.0282162204384803,-0.0465104021131992,-0.0589963788479566,0.0368716306984424,0.0233364519238471,0.1073231873825192,37
1733388838981506000,0.3757457221291959,-5.865184411051869,1.1567711577773094,-2.1824700037941334,9.560484451377391,0.0659177436429308,-0.0646693259477615,-0.4550344049930572,-1.7828264236450195,-0.0629104827389376,-0.2171443918920121,0.6704382473011801,0.7066846018982712,-0.0047630714252591,0.0095705762505531,0.0046057347208261,-0.0017899274826049,-0.0169157087802886,-1.406666706316173e-05,0.0172742940485477,-0.0404139682650566,-0.036811435046792,0.0107404962182044,0.0309280760966241,0.0799678552061319,38
1733388839021506300,0.6509358513146638,-11.309409016633031,1.2875111688435077,-2.6746342200398443,9.43474794768691,0.047255968999234,0.2351354360580444,-0.1661489903926849,-0.9073654413223268,-0.0402699671514883,-0.2306373186508266,0.6666311148976212,0.7076635090594906,-0.0236952174454927,0.0054382556118071,0.0078749638050794,-0.005441665649414,-0.0131091475486755,-0.0041133165359497,0.0201112702488899,-0.0302780009806156,-0.0142050509631633,-0.0112954787909984,0.0172550861835479,0.0406511593401432,39
1733388839061506300,0.8875801228761673,-14.298872571676968,1.1297007800221444,-2.910231028375029,9.364870693862438,-0.0105614406136679,0.1643076688051223,-0.0559961982071399,-0.3489944338798523,-0.0282892263646777,-0.2368305080164594,0.6666706788878708,0.7061594017627558,-0.0118798371404409,-0.0067431493662297,0.0071342727169394,0.0010804533958435,-0.0032109469175338,-0.0016753673553466,0.0236911792308092,-0.021196398884058,0.0112806879490613,-0.0230213999748229,0.0373465648368,0.0471991196788847,40
1733388839101506300,-1.0005725880667566,-11.455191114008429,0.1544669236123561,-2.8774346741884944,9.374926808452608,-0.0383480152306146,-0.1838624626398086,0.3383643329143524,0.5434134006500244,-0.0316907876312517,-0.2380886976752194,0.6672847792128871,0.7050108943613842,0.0001158392988145,-0.0023594798985868,0.0019316546386107,0.0013878941535949,0.0013183951377868,-0.0035058259963989,0.0173478759825229,-0.0100221950560808,-0.0376905559688806,-0.0417195037007331,0.0551993246525526,0.0395107571333646,41
1733388839141506300,-0.9333265595287084,-6.274671805393695,1.344120944815874,-2.57657219747752,9.462100649514792,-0.0168351905458432,-0.0066569256596267,0.4161168038845062,1.0925228595733645,-0.04884327786889,-0.23270635847077,0.6683607607744687,0.704809084525687,0.0059870444238185,-0.0076461206190288,-0.0075684404000639,-0.0051693320274353,-0.0013972073793411,-0.0012828707695007,0.0081144357100129,-0.0039877034723758,-0.0525327357918024,-0.0521987900137901,0.0237508779436349,0.0353242652289569,42
1733388839181506000,0.0837770382307469,-0.8093769392549991,-0.0275274830060545,-2.056150731779635,9.588317045676709,-0.0826054280349519,0.0258424617350101,0.3434862494468689,1.5415674448013306,-0.0730096869191438,-0.2200748470326285,0.6751138913053069,0.7003270347481253,0.0078291529789567,-0.0094407722353935,-0.007715446408838,-0.0096597075462341,-0.0037953555583953,0.0007597804069519,-0.0045020440593361,0.0112570961937308,-0.0261123463779687,-0.0512378215789794,0.0350403337210416,-0.0018206395559012,43
1733388839221506000,0.12119739895612,2.637629308247566,0.067930777665507,-1.4386070085875688,9.69894482756257,-0.1768664417459629,0.3847803771495819,0.2165141701698303,1.669775128364563,-0.0983774259537639,-0.2027258792504187,0.6840467068729571,0.6937609683545286,-0.0020727466326206,-0.017389828339219,-0.0136791300028562,-0.0027974843978881,-0.0063889324665069,-0.0014127494068816,-0.0047731306403875,0.0164212323725223,-0.008610591956973,-0.0448420830070972,0.0165939919263124,-0.0353600671947002,44
1733388839261506300,1.8484701043739915,4.5919460977107285,0.2840800130078569,-0.8517338795997202,9.765481538787483,-0.2833318797879852,0.2099542170763015,0.1233821585774421,1.2477980852127075,-0.1205931108651922,-0.1850402781714257,0.6929689758447306,0.6863026142995079,-0.0090531576424837,-0.0169884897768497,-0.0186842735856771,-0.0051237344741821,-0.0064541101455688,0.0006349086761474,0.0016927360557019,0.0226188227534294,-0.0053781859070062,-0.0379350408911705,0.0131871060922741,-0.0415540995292365,45
1733388839301506300,1.3619722433269024,4.632811776584386,-1.4199451243460175,-0.4255401920635253,9.789112005221844,-0.4032397686565294,0.2381936758756637,-0.0092246886342763,0.8856293559074402,-0.1348357547278197,-0.1711009483678436,0.7009165234226558,0.6791611641206805,-0.0034810260403901,-0.0179648045450449,-0.0121960155665874,-0.0020042061805725,-0.0031966865062713,-0.0012231471482664,0.0121231190860271,0.0208091810345649,-0.0268295547366142,-0.0346294902265071,-0.0065108431987464,-0.0475705833397805,46
1733388839341506300,1.8953953755475577,4.064574082222581,-0.1929904232740402,-0.2216988870924338,9.79575860362947,-0.4054099888350814,-0.0965248644351959,0.017662750557065,0.2020687013864517,-0.1421277628187723,-0.1640709347024449,0.7026740957348299,0.6775910362898683,0.0062376474961638,-0.016462355852127,-0.0134720029309391,-0.0050069689750671,-0.0025470852851867,-0.00261288927868,0.0352489352226257,0.009968077763915,-0.0726443804502487,-0.0586112663149833,-0.0257778537265956,-0.1053575863979756,47
1733388839381506300,1.0073456623982635,2.5277684190809726,-0.6333996101021766,-0.1913719917593523,9.796535433220862,-0.4020932289699092,0.0253011770546436,-0.1805667132139206,-0.0333938896656036,-0.1421282499595207,-0.1618428103762679,0.7030703757663856,0.6777157278834112,0.0131703885272145,-0.0169684626162052,-0.017327195033431,-0.0075622797012329,-0.0027831643819808,-1.5079975128173828e-05,0.0790564566850662,-0.0011089593172073,-0.0341921924591064,-0.0996219515800476,-0.0307708397082984,-0.1368384740717709,48
1733388839421506000,0.4489455445051193,1.2344365812599658,-0.3938870896279811,-0.2393032616376876,9.796997205513716,-0.363278893135488,-0.197237879037857,-0.0099017107859253,-0.1722869127988815,-0.1394614948875861,-0.1619087641262803,0.7016463642217715,0.6797267736878099,0.0036988561041653,-0.0188810378313064,-0.0180991794914007,-0.0095583796501159,-0.0031468421220779,0.0022238492965698,0.1395210772752761,0.0027101296000182,-0.0238882405877113,-0.1299900412559509,-0.0080991353034973,-0.1088268699437379,49
1733388839461506000,0.1481597132269293,0.4115530946999788,0.0583013823211193,-0.3193451684607192,9.79717314660251,-0.2894916810593567,-0.1780124604701995,-0.0560719706118106,-0.2176196575164795,-0.1368945984191003,-0.1638404305417959,0.6985100437288162,0.6830079916791268,0.002081252168864,-0.0083849877119064,-0.0270990654826164,-0.0095472335815429,-0.0050104260444641,0.0076758856885135,0.1868800967931747,0.0217507891356945,0.0416670583844184,-0.1346107423305511,-0.0084711834862828,-0.0115165425315499,50
1733388839501506300,-0.1963853264093399,-0.229953249490261,0.3483575105965137,-0.3915408187627792,9.796434895455835,-0.2166766567499376,-0.1939538419246673,0.0638080462813377,-0.1421176642179489,-0.1347973720665691,-0.1657130522056751,0.6954039254914294,0.6861357449412854,0.0031755450181663,-0.0019567033741623,-0.0319590009748935,-0.0079753398895263,-0.0067418813705444,0.0034904484637081,0.210957646369934,0.0655998587608337,0.0780979696810245,-0.115655705332756,-0.029122049587965,0.058464171667397,51
1733388839541506300,-0.1700905361365526,-0.1284159520328044,0.0421405211150646,-0.4404309602685272,9.795603705328702,-0.1501791632905602,-0.1319620609283447,-0.0988378524780273,-0.1279989778995514,-0.1338279804079122,-0.1671719135929757,0.6926114046968147,0.6887910357589307,-0.0330032333731651,-0.0029062267858535,-0.0256188809871673,-0.0046843886375427,-0.0124535113573074,0.0088198184967041,0.2161299139261245,0.0854802131652832,-0.014675591084361,-0.0668532997369766,-0.0033494565583765,0.0701039021871983,52
1733388839581506300,-0.5605706668652594,-0.2395253799557685,0.4142553393959999,-0.4789615837907418,9.794334123784305,-0.1094435405373573,-0.0532295107841491,0.0349301099777221,-0.0199990030378103,-0.1315806186957675,-0.1670148454314024,0.6911483987595203,0.6907288834473424,0.0107019050046801,0.0175753999501466,-0.0113828191533684,-0.0057337284088134,-0.0015715062618255,0.0019626026041805,0.217958390712738,0.0857675820589065,-0.0613151771843433,-0.0040238201618194,-0.0186386494964361,0.1485812265746295,53
1733388839621506300,0.0514731072036549,-0.1051461356043815,-0.0799473969399929,-0.471805282295309,9.794629891860485,-0.1141325934027321,0.0638008192181587,0.3721062541007995,-0.0253634881228208,-0.1345101365130262,-0.1695140840331283,0.690712761035073,0.6899912979371767,0.0152551112696528,0.0177848301827907,-0.0042108595371246,-0.0042422413825988,-0.0100854486227035,0.0036700963973999,0.1944755315780639,0.0576880350708961,-0.0984048446506261,0.0389845743775367,-0.036452757802233,0.1844410599850118,54
1733388839661506000,0.2162463207749649,0.127141109791398,0.1540974875117652,-0.4577617055041715,9.7947310141474,-0.1552945518092252,0.1063287556171417,1.0105607509613037,0.1245137527585029,-0.1436132546847784,-0.1783132366848853,0.6900160927327533,0.6866277007037856,0.0060839829966425,0.0041206302121281,-0.0097823264077305,0.0028454661369323,-0.0101517736911773,-0.0012778644450008,0.1588936597108841,0.0291193611919879,-0.0718880091249942,0.0494056940078735,-0.0678383684080094,0.146135294727236,55
1733388839701506000,-0.0120543026700615,-0.0812818604141473,0.1230582426582463,-0.3693719127809629,9.79710125041008,-0.2252613288143649,0.1106953769922256,1.133129000663757,0.2768160700798034,-0.1611141252160409,-0.1909605434173363,0.6892163684738654,0.6801154692912146,-0.0089349132031202,0.0039816666394472,-0.0089851757511496,0.0017073154449462,-0.0119326263666152,-0.0007510783616453,0.1298740655183792,0.0070544928312301,-0.0417810401529073,0.0207938216626644,-0.0883263720981776,0.084968586102873,56
1733388839741506300,0.492271037621051,-0.1314993050009012,-0.1352431677043437,-0.2308541073201224,9.800333071938155,-0.2656365938225761,0.0370385609567165,1.126636266708374,0.2973088026046753,-0.1812830852038439,-0.202506080407594,0.687411801566411,0.6734929445095789,-0.0157874934375286,-0.0030715025495737,-0.0051709292456507,-0.0017945170402526,-0.0090982168912887,-0.0065656900405883,0.0968187451362609,-0.013436397537589,-0.0635679245471954,-0.0033487547188997,-0.0564834461789578,0.1122813943117856,57
1733388839781506300,0.5709030776461586,-0.1396972245037555,-0.3453577442586422,-0.1459322921015788,9.801647661668062,-0.2771343768547289,-0.0330956764519214,0.8260201811790466,0.100725270807743,-0.1972900660357335,-0.2131618494826287,0.684610799499604,0.668540766684395,0.0006213071756064,-0.0061807432211935,0.0126743800938129,-0.0016440749168395,-0.0067166835069656,-0.0034146904945373,0.0559433549642562,-0.0346679836511611,-0.0366612129211425,-0.0196674168109893,-0.0422347022045403,0.1192123626187443,58
1733388839821506300,0.0145404386636801,-0.1556213543444871,-0.4851438160896301,-0.1107574726801365,9.802608031132817,-0.2588546237985603,-0.0979640111327171,0.7640126943588257,0.0743674114346504,-0.2093794219727299,-0.2226879781776901,0.6808876390122574,0.6655542034810757,0.0160351507365703,0.0023678438737988,0.0160554628819227,0.0003832578659057,-0.000551164150238,-0.001361608505249,0.0207559689879417,-0.0406125858426094,-0.0117395376324653,-0.056681290268898,-0.0362819312799721,0.046979485578835,59
1733388839861506300,0.1217019966105464,-0.22359540489614,-0.7983107708394527,-0.0624455557540291,9.804891173633932,-0.1749321309488266,-0.3339362144470215,0.7416890263557434,0.1154757216572761,-0.2214735141891361,-0.2297659433713813,0.6753715033550654,0.6648537000533088,0.0033811409957706,-0.0023153247311711,0.0082060620188713,-0.0029079318046569,-0.0051194131374359,-0.0032149550970643,0.0089084710925817,-0.0316470526158809,0.0100666359841823,-0.0774531364440918,-0.0428723425209522,0.023081308118999,60
1733388839901506300,-0.5528446391904727,-0.3227618815690279,-1.616862950196862,-0.0011137398173108,9.806642985737325,0.0115505235746095,-0.6985102891921997,0.7089882493019104,0.2226054668426513,-0.2355005916379623,-0.2352990584774699,0.666367346336779,0.6671794194794218,-0.0093173431232571,-0.0092054549604654,0.0003666480770334,-0.0060591697692871,-0.0087622851133346,-0.0010185837745666,0.0054781134240329,-0.0137956831604242,0.0004874912559986,-0.0721946209669113,-0.0358166518557816,0.0163543379515409,61
1733388839941506000,-1.0109767854422331,-0.504362895822525,-1.7209318119585513,0.1489145136496052,9.796858089303967,0.4120516553392633,-1.3241899013519287,1.0666731595993042,0.5886728167533875,-0.2566391282378376,-0.2362132308075165,0.6505340279420074,0.6746445070064147,-0.0095525002107024,-0.0065202433615922,0.0111846076324582,-0.0068913102149963,-0.0039958208799362,-0.0012866854667663,0.0011824532411992,-0.0079921558499336,-0.043014381340146,-0.0717499256134033,-0.045640345929563,0.0114314945966005,62
1733388839981506000,-0.7015251979537308,-1.2256506327360868,-1.1296312219172715,0.3940197030317038,9.74721289164722,1.0034871603392064,-1.5613269805908203,1.1170188188552856,0.8038430213928223,-0.2861621030066499,-0.2330557570894184,0.6281093928827937,0.6850364618827308,0.009815071709454,0.0104003101587295,0.0229684300720691,-0.0092911720275878,-0.0002129077911376,0.0006765127182006,-0.0015386010054498,-0.0119816157966852,-0.0488134230077266,-0.0678851604461669,-0.0524907232809811,0.0403869554460048,63
1733388840021506300,-1.5136924985796212,-0.9294348127871752,0.1521224063128232,0.6595610563188791,9.658843703320622,1.5627240943826737,-1.0499086380004885,1.0989724397659302,0.8610842823982239,-0.3186033965335372,-0.2305540683232886,0.6059439445935498,0.6914974165838327,0.0126699805259704,0.0073508843779563,0.009149620309472,0.0005452036857604,0.0034840852022171,-0.0045980811119079,0.0095106894150376,-0.012681926600635,-0.0169388598412275,-0.0561739355325698,-0.0206554692115634,0.0100499771103262,64
1733388840061506300,-1.8474664802894,-1.35919810243845,0.0297068637385964,0.9539802021093666,9.576548281949758,1.8841582344792784,-0.537471354007721,1.044777512550354,1.1059198379516602,-0.3479308284743546,-0.2287680687660312,0.5929585417599521,0.6892093991891795,-0.0066768191754817,-0.008751013316214,-0.0175617523491382,-0.0003425478935241,-0.0060588419437408,-0.004385232925415,0.0239737164229154,-0.0263447612524032,-0.0425806660979986,-0.0790622681379318,-0.0115807668741792,-0.0445730089589953,65
1733388840101506300,-1.3128998771220446,-1.4901292521625755,0.2177870108783245,1.3515062327615917,9.483620407405494,2.098752732926607,-0.2935858070850372,2.125324010848999,1.6272393465042114,-0.3846468081059392,-0.2294883780364696,0.5833767892315951,0.6775348580126453,0.0182780642062425,0.0012910749064758,0.0279009379446506,-0.0089199542999267,-0.0018339455127716,-0.0087947845458984,0.0085374554619193,-0.0207353085279464,-0.0309077639609575,-0.1387967616319656,-0.0715367845345288,0.0539526855923235,66
1733388840141506300,-0.5678147927746177,-0.6910153482466935,-0.9688615448988972,1.786313800190389,9.333184931266308,2.4230396321058274,-0.7170841097831726,2.50996732711792,1.7902071475982666,-0.4390794699795019,-0.2392231513882603,0.5650058792096202,0.6563153496708938,0.0650703385472297,0.0027194344438612,0.0470356829464435,-4.905462265014648e-05,0.0103965252637863,-0.0090364813804626,0.0052695348858833,-0.0027341954410076,-0.0421837757349014,-0.1673566997051239,0.001746405275911,0.170865246836096,67
1733388840181506000,-0.0144879595577716,-1.1714391500771044,-0.5955068095594644,2.179444956884533,9.073052816611527,3.0166429461315274,-1.5561918020248413,2.2040483951568604,1.6905657052993774,-0.4926037071071828,-0.2395594628428039,0.5374060630836416,0.6412080205667054,0.0194088425487279,-0.0151043031364679,-0.0203604698181152,0.0168383717536926,-0.0059374868869781,-0.0008860831148922,0.0346345193684101,-0.0445893034338951,-0.1474503228485584,-0.2370520085096359,0.204965084836632,0.2241784654811024,68
1733388840221506000,-0.0698047731101512,-0.9646282912433148,1.3397861304819585,2.447995209664106,8.67291017372012,3.867602188096941,-1.85460901260376,2.688650608062744,1.6636641025543213,-0.5466711946608693,-0.2337378658456988,0.498170426495805,0.6311446311342666,0.001362997572869,-0.0356271527707576,-0.026455245912075,0.0140672922134399,-0.0160950869321823,0.0016924142837524,0.038648348301649,-0.1249513253569603,-0.1153390283167362,-0.3926904201507568,0.3605509294763207,0.1944257167741656,69
1733388840261506300,0.4507181071355938,-0.7684685902833938,1.7810680084913968,2.5254244863033293,8.18869925456643,4.768420854991674,-1.630812168121338,2.435618162155152,1.462039351463318,-0.6028027581761871,-0.2318962316354782,0.4506687575845362,0.616239229234453,0.048247680068016,-0.019637856632471,0.1107871010899543,-0.0204042196273803,-0.0072290897369384,-0.0071768751367926,-0.0702773481607437,-0.1460236459970474,0.1716360850781202,-0.619525134563446,0.1408285666212439,0.0224462250858545,70
1733388840301506300,-0.1396510472744703,-0.4483966784507036,2.5057448033213614,2.5319071263208985,7.781537088301778,5.404398791149259,-1.0574040412902832,1.8511693477630613,1.2750927209854126,-0.6427750113603921,-0.2286234399431547,0.4149502055274284,0.6019867639420869,0.1882894784212112,0.0252120662480592,0.2418778836727142,-0.0562928915023803,0.0237322300672531,0.0030385861173272,-0.2074329853057861,-0.0571304261684417,0.0455120433747768,-0.8335785269737244,-0.1913671329211443,0.0492927309572696,71
1733388840341506300,0.273506852273643,-0.7194827333182096,1.953067666184902,2.4748867237210272,7.415913970127701,5.920263908717036,-1.0138760805130005,2.226550817489624,1.435351014137268,-0.6804962872326128,-0.2292892311540368,0.3815455267266016,0.5820430686346361,0.2258592247962951,0.0480107516050338,0.1803539246320724,-0.0227494239807128,0.0466111004352569,0.0099881887435913,-0.3528012037277221,0.0394324213266372,-0.0562274986565113,-0.7783702611923218,-0.343259895196557,0.2833554615929722,72
1733388840381506300,0.7031004844464361,-0.0713379740267992,1.7601351105779408,2.351302137367427,7.033227488949895,6.416811746874451,-0.9687108397483826,1.9998040199279783,1.2085174322128296,-0.7154653657035175,-0.2287913692788432,0.3471140367613234,0.561494186286673,0.079620786011219,0.0077890809625387,-0.0902975425124168,-0.0028354525566101,0.0199941098690032,0.0171623826026916,-0.4594313502311706,0.0820551514625549,-0.0096785134494304,-0.5308624505996704,-0.2472655457537621,0.0506447300881147,73
1733388840421506000,0.2519679512910545,-0.3116524585336446,1.2196364870131016,2.1106601744718847,6.730357471808791,6.813059135892987,-0.6247091889381409,2.1714937686920166,1.0482070446014404,-0.7446124241020311,-0.2328062378349371,0.3137385855219503,0.5412223128199017,-0.1553270071744918,-0.0888892039656639,-0.3256718516349792,0.0144136548042297,-0.0224952101707458,0.0185575485229492,-0.4365430176258087,0.0886707156896591,0.0054863224565982,-0.335472047328949,-0.2295167577691376,-0.2225277756646275,74
1733388840461506000,0.6584951806530356,0.1659551168322563,0.1844184097617864,1.7509692228257656,6.477953905579447,7.151265839353203,-0.6597530245780945,2.1230924129486084,0.9250569343566896,-0.7716855807776284,-0.241221096441131,0.2778476383738835,0.5187623719607478,-0.2420704215764999,-0.1009069383144378,-0.3361303508281708,0.0012263655662536,-0.0376581102609634,0.0169960260391235,-0.3464633524417877,0.0955438539385795,-0.1626145742326974,-0.2111736834049224,-0.1638208812825381,-0.2982365121215581,75
1733388840501506300,0.8633684955529868,0.489778490152955,-0.1022200190246105,1.4302766948767005,6.216080500215291,7.448827228692173,-0.7698279023170471,1.4222476482391355,0.5345197319984436,-0.7917160847517539,-0.2435167581268869,0.246809816589597,0.5029612283995938,-0.1402031779289245,-0.0256049875169992,-0.1654588729143142,-0.0024209022521972,-0.0476078689098358,0.016412615776062,-0.2188840061426162,0.0231014490127563,-0.2466682374477386,-0.1167368590831756,-0.0037086452595889,-0.3168579182222485,76
1733388840541506300,0.345101577540487,0.6551297958731651,0.0895616129815578,1.190778714384511,5.98743307262659,7.67483437090516,-0.6019050478935242,1.039899826049805,0.4027043879032135,-0.8048179465326408,-0.2420334187675571,0.223857501344939,0.4935339817716234,-0.0868768468499183,0.0176355857402086,0.004975514486432,-0.0088559389114379,-0.0618476271629333,0.0057877302169799,-0.0568284541368484,-0.0628920793533325,-0.2136427506804466,-0.0604087896645069,0.0972884078413248,-0.3516805175393819,77
1733388840581506300,0.4742608222212642,0.760616707739234,-0.2252916874200105,0.9296391031876206,5.76807194429934,7.876261783134937,-0.6868940591812134,0.9714657068252563,0.2448096424341201,-0.8160609873897485,-0.2406754883673189,0.2012404390074715,0.4854090865545192,-0.13331039249897,0.0010317894630134,0.1114507541060447,0.0136060118675231,-0.0494656264781951,-0.0129250288009643,0.0736419707536697,-0.1044057160615921,-0.0284562791556119,-0.0416536927223205,0.0867183523796498,-0.2781552626013756,78
1733388840621506300,0.2712058818548917,0.4900146369963884,-0.3845423381775617,0.7122123769890517,5.555194917294383,8.050027865979075,-0.6690290570259094,0.7021014094352722,0.0901159644126892,-0.8238166725622984,-0.237087220591633,0.1826265362969157,0.4814180138328617,-0.1599180400371551,-0.0273035522550344,0.1471616923809051,0.0224102139472961,-0.0211554616689682,-0.0106422901153564,0.1818079650402069,-0.0962146893143653,0.0543067597270011,-0.0140091609209775,0.0813929195731878,-0.1449292799383401,79
1733388840661299500,-3.5883915712237355,-1.8710609986275435,15.385165587127208,0.8500233493547886,5.524014181610942,8.058108881103992,1.7037805318832395,-0.7850524187088013,0.1843491196632385,-0.8233288793441377,-0.2316175423841411,0.188425342358099,0.4826788796577404,-0.2019062340259552,-0.068500205874443,0.1046044379472732,0.0085307359695434,-0.0061016380786895,-0.0154792070388793,0.2341934889554977,-0.0658153370022773,0.0631194775267969,0.0157193951308727,0.0215087821222492,-0.0433780361539218,80
1733388840701299700,-0.6305998233158141,-0.0566460163295269,-0.8048626767009496,0.8679252090092748,5.884432132357358,7.796829349979758,0.4622130692005157,0.6642249226570129,0.3423639833927154,-0.8211810943974751,-0.2512089557390592,0.1984096807821497,0.4724290494074816,-0.2246152758598327,-0.08005241304636,0.0659451931715011,-0.0071672797203063,0.0004781335592269,-0.0138162970542907,0.2077305912971496,-0.051803633570671,0.0054191024392843,0.0170456115156412,0.0285747909687459,0.0177186120420694,81
1733388840741299700,1.7726487013228236,0.6664858871459961,-0.63201312417984,0.6600097499344497,5.930287290081382,7.78244601984024,0.0391155742108821,0.7507238388061523,0.0094599993899464,-0.8252203423129297,-0.2607972042839291,0.1875913466324492,0.4645489314691452,-0.169135496020317,-0.0616592839360237,0.0679005458950996,-0.0147553086280822,0.0118474066257476,0.0082852225750684,0.1640278548002243,-0.0334670469164848,-0.0030927053183317,0.0006347354501485,0.0189369017906487,0.0550830047965049,82
1733388840781299700,-0.39367596762795,0.3298720058351755,-0.3124976771861315,0.5727923254588618,5.930366200536489,7.78929018664658,0.1231206655502319,-0.0389779172837734,0.0810937881469726,-0.8263501192807571,-0.2634361151525754,0.1829156358644375,0.4629132824168674,-0.0576435960829257,-0.0169531218707561,0.138132706284523,-0.0232371687889099,0.0327500402927398,0.0055089574307203,0.1116911619901657,-0.0146286152303218,-0.010429039555788,-0.0037257336080074,0.0216033445209264,0.0663844432726502,83
1733388840821299500,0.585154926893115,-0.0653787733614444,0.306039879348874,0.6140406835071742,6.019010114151239,7.717827709457278,0.4409373700618744,-0.1502061039209365,-0.0333031415939331,-0.8248719769052342,-0.2671385383581663,0.1874494838702489,0.4616124081282014,-0.0710808411240577,0.003539475146681,0.1472106873989105,-0.0222226977348327,0.0312093496322631,0.0037093758583068,0.0684148147702217,0.0037572048604488,-0.0243581961870193,0.0028005875647068,0.0243514741852879,0.0029024434432387,84
1733388840861299500,0.3405101580969989,0.5704185455322265,0.3538596151441335,0.6629597588464617,6.1456163864135736,7.613295321837067,0.3565500378608703,-0.3290871381759643,-0.0897996351122856,-0.8212554669451767,-0.2721387989118682,0.1943461639860609,0.4622872972094151,-0.1075586900115013,-0.0082577429711818,0.0737687647342681,-0.0117465257644653,0.0378817617893219,0.000825822353363,0.0501928441226482,0.0190710201859474,-0.0474731143146753,0.0218216944485902,0.0068850833386182,-0.0473781295076012,85
1733388840901299500,-0.0590952361125498,1.062426402172446,0.5138216290414334,0.7839397887248546,6.261885389056801,7.506305019670725,0.4411707520484924,-0.4658207297325134,0.0242423824965953,-0.8169219602928184,-0.2744577509557167,0.2048362605642177,0.4640620789097889,-0.1073339208960533,-0.009656274691224,0.0084167178720235,-0.0092079043388366,0.0391074866056442,-0.0114218592643737,0.046558991074562,0.0315140634775161,-0.0385889661133289,0.0485764183104038,-0.0077348320357501,-0.0607514058217406,86
1733388840941299700,-0.5708313641168177,0.9853718040645122,0.0288297886431217,1.002086865087226,6.401338867932558,7.361321963718533,0.5506646633148193,-0.7222732901573181,0.4172800183296203,-0.8139727713277346,-0.2765779126626103,0.2195032533574326,0.4612713251045148,-0.0526610910892486,-0.009635342285037,-0.0183083694428205,-0.0118042230606079,0.0385568588972091,-0.0156700611114501,0.0409322679042816,0.0432523190975189,-0.0357329921603202,0.0642673671245575,-0.0333551571130752,-0.03629296413064,87
1733388840981299700,0.0578287963733077,0.09834171628654,0.7392787361562252,1.332454180158675,6.594499387076497,7.134951248890161,0.9226326942443848,-0.5097714066505432,0.5621786713600159,-0.8115285278880382,-0.2802587055751951,0.2401536460305866,0.4529931674433846,0.0167110599577426,-0.0111875925213098,-0.0213389135897159,-0.0097513794898986,0.030109629034996,-0.0154843339696526,0.0334583520889282,0.0448688007891178,-0.034504327148199,0.0613780170679092,-0.054879591178894,-0.0203363933250308,88
1733388841021299700,0.0621893296703696,1.002283775898814,0.0828764361292123,1.6076166906848548,6.842167741477489,6.838909616464376,1.2356135845184326,-0.3897788226604461,0.6141635179519653,-0.8088690214596344,-0.2899015528905403,0.2593640876966265,0.4409287777939505,0.0446380339562892,-0.0112246638163924,-0.0327444337308406,-0.0134255290031433,0.0159220993518829,-0.0021106023341417,0.0161836463958024,0.047261506319046,-0.0287473710566759,0.0565114952623844,-0.0810603266179561,0.0253700035780668,89
1733388841061299500,-0.3335987712733447,1.6555980467826128,-0.5120604645878076,1.7895726558558642,7.1215452393502,6.500108454242349,1.0293740034103394,0.1893381625413894,0.831520140171051,-0.8071028109557455,-0.3059204822015697,0.2738601195497751,0.4242620744414084,0.0309381987899541,-0.0129218427464365,-0.0524824522435665,-0.0133525729179382,0.001711294054985,0.005604088306427,-0.0069167651236057,0.0418572910130023,-0.0265466461420059,0.0548163205385208,-0.0835214560344815,0.058322425109148,90
1733388841101299500,-0.3986845530375838,0.9547019405126572,-0.7375719322383404,2.100064107786119,7.213565351399779,6.302743469145894,0.4274248778820038,0.0945351794362068,1.5268378257751465,-0.8136016574045292,-0.3122720479952931,0.2848432404810972,0.399252706162307,0.044622853398323,0.0115759894251823,-0.0508387498557567,-0.0188167691230773,-0.0032416731119155,0.0146506410092115,-0.032313086092472,0.0229302290827035,-0.0391360786020755,0.04476785287261,-0.0620377923704683,0.0634095191150903,91
1733388841141299500,-0.8555445239290594,0.574826425102353,-0.4623638290047645,2.5507892291843888,7.096943297535181,6.268751767694949,-0.1902617365121841,-0.0885234177112579,1.4870051145553589,-0.8246500043041571,-0.3047851704004224,0.2957847134998501,0.3735904005716894,0.0431661047041416,0.0420916602015495,-0.0294338595122098,-0.0119589567184448,-0.0113255679607391,0.0150791984051465,-0.0511791259050369,0.0184836965054273,-0.0015676877081394,0.0198152083903551,-0.0675536331824958,0.0442465534836053,92
1733388841181299500,-0.6491641654670238,-0.0306026435345411,-1.0036953962624071,2.940115294507146,6.835072814780474,6.388104707828163,-0.6659783720970154,-0.063173659145832,1.1979355812072754,-0.8366875483878663,-0.2887729199901322,0.301508709547119,0.3544806657159034,0.073255568742752,0.0660076439380645,0.0151806138455867,-0.0082824230194091,-0.0062066167593002,0.0083973407745361,-0.0785171315073967,0.0210824627429246,-0.0442395392209291,-0.0031578131020069,-0.0449516330130398,0.0400198756992816,93
1733388841221299700,-1.071348836557567,-0.7976362325787544,-0.7152946339786053,3.26922566832006,6.514241024491191,6.561036677935719,-0.5290705561637878,0.0671454444527626,1.4246492385864258,-0.8491288910660907,-0.2706575382118643,0.3036852379465957,0.3368973027272284,0.0537633523344993,0.0627836212515831,0.0275307577103376,-0.0102959275245666,-0.0094091743230819,-0.0003449916839599,-0.096599742770195,0.0070567373186349,-0.0703074619352817,-0.0197233129292726,-0.0198759362064301,0.0079594345718622,94
1733388841261299700,-1.4595213479310274,-1.044024484041333,-1.0270295100986957,3.6391429765567183,6.17300240598917,6.694852443185448,-0.2315246611833572,0.4260895550251007,2.08911657333374,-0.8638224345637217,-0.2551171149551804,0.3058966576442294,0.308469060596137,0.058429479598999,0.0512016415596008,0.013303019106388,-0.0001121163368225,0.0020874738693237,-0.0076390504837036,-0.0981127321720123,0.0049266461282968,-0.0535287610918283,-0.0369834415614604,-0.0135927642837166,-0.0188829796463251,95
1733388841301299500,-1.8510975302681325,-1.6209674629062414,-1.081577092844248,4.05840211558938,5.7707174903720615,6.811649853616952,0.1186595112085342,1.0040361881256104,3.0389387607574463,-0.8827757166852092,-0.2428595126046831,0.3061401009382444,0.2607768045630569,0.090870514512062,0.0505192317068576,-0.0030761533416807,-0.0004620552062988,0.0074908882379531,-0.0132823586463928,-0.0980801284313201,0.0040528811514377,-0.0420031584709882,-0.0507801473140716,0.0001256722062826,-0.0322854820549488,96
1733388841341299500,-1.008602749787271,-1.581465473601222,-1.2250801393717528,4.440391262152791,5.261054150053859,6.983883320066332,0.1900694221258163,1.335929274559021,3.3127012252807617,-0.9044066453819252,-0.2317429285056468,0.3003602302789411,0.1952631080470807,0.103285901248455,0.0302066132426261,-0.012563731521368,-0.0022827386856079,0.0047346353530883,-0.0054665203206241,-0.0956537649035453,0.01287192851305,-0.018871873730421,-0.0452981665730476,0.0035214521244168,-0.0323719912946224,97
1733388841381299500,-1.7402195730134844,-1.43922499435544,-1.2924866191685198,4.682394430398941,4.7345443043529984,7.199281389981508,0.056582648307085,1.3316435813903809,2.9129765033721924,-0.9216865408343988,-0.2201215227421473,0.2906635917349535,0.1324952153933063,0.0893535763025283,0.0290684830397367,-0.0263999849557876,-0.001985490322113,-0.0039290189743041,-9.614182636141776e-05,-0.0880373790860176,0.0183990933001041,-0.003847323077917,-0.0251469537615776,0.0007274374917149,-0.042104280757904,98
1733388841421299500,-1.0145061286121606,-0.8577867498978972,-1.4686556715011596,4.854206748826802,4.229571167677641,7.397147894859313,0.0605500377714633,0.8853128552436829,2.4422590732574463,-0.9333899356583236,-0.2077412753153064,0.2823012188956511,0.0770258688844295,0.0764393731951713,0.0319044850766658,-0.0318099968135356,-0.0013195276260375,-0.0109280049800872,0.0100185861811041,-0.0742622166872024,0.022658223286271,-0.0225222129315137,-0.0037107672542333,0.0083748835049569,-0.0401408717304468,99
1733388841461299700,-0.0039461072772741,-0.732766577783227,-1.5822697757214308,4.966527598366141,3.866327638116479,7.520338805720209,0.1275738626718521,0.5468319654464722,1.6241841316223145,-0.9392136873865494,-0.1992080940963426,0.2772824655153497,0.0361684597899376,0.0637435540556907,0.0330920927226543,-0.0288026221096515,-0.0030211806297302,-0.0190784037113189,0.0121222725138068,-0.0512826591730117,0.0190150830894708,-0.0196697461098432,0.0172595810145139,-0.0047710137940943,-0.051060032890737,100
1733388841501299700,-0.2525111182570457,-1.2733210231885312,-0.2886877625316381,4.9738767920851705,3.607218729029596,7.643226349720359,0.0945771262049675,1.3339526653289795,1.512279748916626,-0.9432281504884534,-0.193814022192102,0.2697035946805011,0.0041012745614764,0.0403900258243083,0.0344174429774284,-0.0169076807796955,-0.0004575848579406,-0.0237480103969573,0.0074847340583801,-0.0255834870040416,0.0152849843725562,-0.0444178183972835,0.0224005039781332,-0.0112725046426057,-0.0453735116869211,101
1733388841541299500,1.0813543900042772,-0.5196808764636516,-1.8117478089153765,4.561928560587764,2.986307136839628,8.151144892197847,-1.8423937559127808,1.5220426321029663,1.02375066280365,-0.9563252358128328,-0.1672043033750214,0.2375920966205356,-0.0321660599139003,0.0320516675710678,0.0345699898898601,-0.0070078447461128,0.0009950399398803,-0.0278249233961105,0.0072871441952884,-0.0026392750442028,0.0019918400794267,-0.0538268672555685,0.0263667590916156,-0.0008854045324027,-0.0125429629698395,102
1733388841581299500,0.1667658486932516,-0.423437447630614,1.3001917867183683,4.2439521597296,2.1875151583544907,8.565864341974258,-1.6831321716308594,1.1120566129684448,0.5342649817466736,-0.9669990995391732,-0.1245191463456987,0.2185347677881264,-0.0406236056067999,0.0062736002728343,0.0284657049924135,0.0189317446202039,0.0020455121994018,-0.0250417441129684,0.0008416769560426,0.0186728313565254,-0.0078624309971928,-0.0429985992491245,0.019407307729125,0.0104778471335768,-0.0075455930739641,103
1733388841621299500,-0.4441021961271763,-1.0156490150369704,2.558245390409231,3.763662797933817,1.8096259944558144,8.873020073610544,0.1316406428813934,2.132871389389038,0.7151153087615967,-0.9745131956571166,-0.1049199532877114,0.1912947902121715,-0.0521740716438953,0.0053279120475053,0.0168608725070953,0.0317557305097579,0.0018633008003234,-0.0146986991167068,-0.0049944519996643,0.0282923504710197,-0.006936565041542,-0.0457207176893949,-0.0034395512193441,0.0186627610243856,0.0010948094993829,104
1733388841661299500,0.6692790249958634,-0.1796016571298241,0.9143699301242828,3.0912635950908065,1.8989377243295311,9.110900608968734,-0.0091207176446914,0.3948723375797272,0.4673550128936767,-0.979484491467296,-0.1100319511902765,0.1528604514581898,-0.0716713374843395,0.0064421780407428,0.0140498531982302,0.0412369146943092,-0.0011724829673767,-0.0034483075141906,-0.0032035708427429,0.0312244314700365,-0.005591201595962,-0.0409141941905021,-0.0309601183980703,0.0171403737626969,0.0320125103324651,105
1733388841701299700,2.0901932866349817,0.5541141842022538,3.247062936350703,2.8954321031719443,1.778885696016252,9.199044756367805,-0.0768754035234451,1.3976489305496216,-0.9114511609077454,-0.9820260633838516,-0.1022988351654321,0.1432277872411769,-0.0681585242031648,0.0241367518901824,0.0166922416538,0.036283902823925,-0.008437156677246,0.0081310272216796,-0.0029845237731933,0.0079384315758943,0.0033020423725247,-0.0108148240029811,-0.0464135035872459,0.0364487392142415,0.0792982853814959,106
1733388841741299700,-1.6979484112560748,-1.4880723196327683,1.772428774961829,2.532178344477713,1.7978221594154833,9.301951004090904,-0.0731052681803703,0.5001540780067444,-0.4421510696411133,-0.9856047808427868,-0.0998055568471484,0.1255839636665195,-0.0533938657663698,0.0470697656273841,0.0128872776404023,0.0239606574177742,-0.0047342777252197,0.015158399939537,-0.0013719201087951,-0.02429667301476,0.0160883497446775,0.0084480948716402,-0.0644216313958168,0.0238015852175652,0.0657867696404457,107
1733388841781299700,-1.5802078747555612,-1.670395364550501,2.146754839551449,2.459627779790759,1.9065233571529387,9.299773075529933,0.700611412525177,0.186506375670433,0.8575752973556519,-0.9851829417171484,-0.1059986910911403,0.1208627285236629,-0.059757566927647,0.0754417553544044,0.0191164631396532,0.0150093734264373,-0.0075597763061523,0.0126224011182785,0.0046092867851257,-0.0527879111468791,0.0403286963701248,-0.0120469961464405,-0.0688222199678421,0.0293820156984031,0.0449175846129655,108
1733388841821299500,0.2221544123075902,0.4886290278568863,-0.3224292886137962,2.3908174245454368,2.044436328588426,9.288415230691433,0.3668660223484039,0.3389485776424408,0.5686398148536682,-0.983663646227508,-0.1150020089824841,0.114878886194511,-0.0773514973500109,0.0861817523837089,0.0351146049797534,0.0075750928372144,-0.0075164437294006,0.0047189742326736,0.0031521916389465,-0.0711898654699325,0.0542515963315963,-0.0330956293940544,-0.0575431659817695,0.0219707165285944,-0.0263765502721071,109
1733388841861299500,-0.1178434123530983,0.0877713685639202,0.0510129788786172,2.3227533576227724,2.1139964792877435,9.290114435824751,0.3241096436977386,0.3652262389659881,0.5580268502235413,-0.9827285681772442,-0.1196039588006991,0.1096854199776248,-0.0889307489806605,0.0793693885207176,0.0333689041435718,0.0003270334564149,-0.0033917427062988,-0.0064195096492767,0.0003824234590865,-0.06621003895998,0.0722306370735168,0.0013975918382406,-0.0546199306845665,-0.0314360256187617,-0.1037657871618866,110
1733388841901299500,0.6399677364461124,1.0069989678524434,-1.1967273205906153,2.25656735953167,2.168909534344822,9.293767697635293,0.2113062888383865,0.1856460720300674,0.6274814009666443,-0.981430136626048,-0.1236337312873858,0.1042325125787143,-0.1031756396814325,0.0427652969956398,0.0063211466185748,-0.0124784428626298,0.0028440356254577,-0.0184632986783981,-0.002794861793518,-0.0397362448275089,0.0872714072465896,-0.0406394689023494,-0.0434797629714012,-0.0478790647670626,-0.1239768005415797,111
1733388841941299700,0.5314708291091025,1.0309839468128978,-2.222062886252999,2.27617953023538,2.1274168096140027,9.298574805656076,-0.2383902221918106,-0.1574955582618713,0.2906418144702911,-0.9805958025722332,-0.1225266410342032,0.1043640618806368,-0.1119258533358772,0.0041872798465192,-0.0022234455682337,-0.0322893001139164,0.0040426850318908,-0.0218532681465148,2.3841741494834423e-05,-0.000265572220087,0.0803962796926498,-0.0808364547342062,-0.0295159928500652,-0.0596526507996022,-0.1570005337432026,112
1733388841981299700,0.9550953237444162,0.790508864916861,-0.5969020633101463,2.458437693223357,1.9659654339417807,9.287703867551684,-0.4246083199977875,-0.5559337735176086,0.064567856490612,-0.9800636618074204,-0.1155971237450552,0.1144385418327635,-0.1140892041992281,-0.0179992485791444,-0.0145451463758945,-0.022654116153717,-0.0028457641601562,-0.0254837125539779,0.001688003540039,0.0444159805774688,0.0601706616580486,-0.0617494769483804,-0.0158720575273036,-0.0781469233892858,-0.1470738907516002,113
1733388842021299700,0.4133946309134363,-0.0887206321127712,0.4864741879105567,2.573521577735245,1.9104088202841576,9.268101925981044,0.0921377390623092,-0.2620554268360138,-0.3110570609569549,-0.9800104858705272,-0.1130056271323087,0.1211942735068546,-0.1100955938544687,-0.0032639785204082,-0.0020775576122105,0.0185128934681415,-0.0016798377037048,-0.0169616192579269,0.006983995437622,0.0874737203121185,0.0376385450363159,-0.0782709881603717,-0.0319909006357193,-0.072654901844263,-0.179342713932693,114
1733388842061299500,0.069113283714652,-0.1444547942943871,-0.6874550254166126,2.77699393979609,2.073433144361525,9.1738524474442,0.5747268199920654,-0.947446882724762,-0.3063799738883972,-0.9782851159717708,-0.121998299847269,0.1318337015341959,-0.1034140020563114,-0.0647939145565033,-0.010730167850852,0.0135816531255841,-0.00067138671875,-0.020985409617424,0.0032848119735717,0.1141417473554611,-0.0155547894537448,-0.1069464630246162,-0.0657187849283218,-0.0222923496983945,-0.1530748847320675,115
1733388842101299500,0.0252615747675299,-0.2329455631740391,-0.7613046900033951,3.1271538236394525,2.304827970962226,9.004391368317604,0.3900213539600372,-0.8111192584037781,-0.0615412965416908,-0.9744554642368706,-0.1356264900022729,0.1500308757554889,-0.0976362542130004,-0.1015932112932205,-0.0260566603392362,0.0091173965483903,0.0020790100097656,-0.0120971202850341,0.0012052059173583,0.1450796276330948,-0.0728473737835884,-0.0758972447663545,-0.1480892598628997,-0.0160028941653668,-0.2418131986320018,116
1733388842141299500,0.0438438179016113,-0.4546776584163308,-1.5812299112796782,3.354276233617961,2.381561082030833,8.902100037622452,0.2782962918281555,-0.7079803943634033,0.1587934643030166,-0.971627363668744,-0.141452685351251,0.161587002006311,-0.0991012837078946,-0.0902577266097068,-0.0245276875793933,0.028314659371972,-0.0008342266082763,0.0047708600759506,-0.0048415660858154,0.1908562183380127,-0.1192656457424163,-0.0386357278645038,-0.2999131679534912,-0.0458922748640179,-0.2180743033871054,117
1733388842181299500,0.3985658950939774,-0.464595241318643,-1.8482605532765388,3.720508131340146,2.5004148404702544,8.722163157188891,0.3391197919845581,-1.0888655185699463,0.1502772569656372,-0.9668331746893086,-0.1504910742865111,0.180681706963224,-0.0997006713386061,-0.0883053690195083,-0.0291399620473384,0.0319538004696369,0.002334177494049,0.0156982690095901,-0.0063550472259521,0.2304577082395553,-0.1494208872318267,-0.0018751462221145,-0.4375741481781006,-0.0763904351107776,-0.1648468633294105,118
1733388842221299700,-1.3560446068435907,-1.1186302276924251,-2.4417805729329585,4.221604718843103,2.4869167687326668,8.494920920222997,0.3204971849918365,-1.7559568881988523,0.8597438931465149,-0.9600769930984672,-0.1550596476111057,0.206968751377233,-0.1066428466004694,-0.0960863232612609,-0.0442307628691196,-0.0155936758965253,-0.0037056803703308,0.0163796544075012,-0.0022203922271728,0.2609489858150482,-0.1471450924873352,0.040401568493247,-0.4865762591361999,-0.1046359941251575,0.0962055810406804,119
1733388842261299700,-0.6499293046206236,-0.8289064001113176,-3.4791491062164304,5.079052738305926,2.492128365901112,8.010175163540243,0.2094379514455795,-2.852611541748047,0.5177759528160095,-0.9462475909707184,-0.1648855750911207,0.2537862457439901,-0.1141093726260751,-0.0791275799274444,-0.0200711525976657,-0.0390481352806091,-0.0097571611404418,0.0204275548458099,0.0007820129394531,0.219596192240715,-0.1328784376382827,0.073074588561058,-0.4206880331039428,-0.0970735960468649,0.3067836834535002,120
1733388842301299500,-0.2956061636179685,-1.9354633281722664,-0.3999444899708032,5.967020399194955,2.345021449662745,7.420641583171486,0.0064983377233147,-2.3315837383270264,0.71201092004776,-0.9298988862286628,-0.167026149181164,0.30619411478825,-0.116771055312638,-0.0599381737411022,-0.0209947377443313,-0.0637227222323417,-0.0164186358451843,0.0108261406421661,0.0005090235499665,0.1566303074359893,-0.1040428355336189,0.1073743330478668,-0.3372223377227783,-0.118387748362869,0.3140753017663955,121
1733388842341299500,-0.8897054444670677,-1.6580710127674043,-1.318746849584579,6.769864721810817,2.238964190562814,6.73248513148725,0.6522512435913086,-3.053814172744751,0.9002432227134705,-0.909665594261311,-0.1745468218993598,0.3553479755235202,-0.1255778489508075,-0.0752630680799484,-0.0139291565865278,-0.0783891528844833,-0.0173723697662353,0.0003836005926132,0.0110166072845458,0.0822659134864807,-0.0910340696573257,0.0085158994108438,-0.2324610650539398,-0.0689710987649857,0.3065583502650261,122
1733388842381299500,0.3743248955458402,-1.4189169503420591,-0.2785445541799068,7.625451039054989,2.09512928173244,5.799423944896459,0.2640390992164612,-2.674506425857544,1.0371904373168943,-0.8816209506309485,-0.1846973450978043,0.412551285137368,-0.1357678029874723,-0.0649094954133033,0.0040632653981447,-0.048078779131174,-0.0018026232719421,0.0028510242700576,0.0107123851776123,0.0422031953930854,-0.0917894765734672,0.0015641805768013,-0.1535728275775909,-0.0465729506045579,0.0884577433928847,123
1733388842421299500,-0.1447889946848154,-1.1975875906817617,0.5317758034050464,8.23090582665503,1.7931452536456285,5.020676537182927,0.485685646533966,-2.420073270797729,1.214019775390625,-0.8566608097206686,-0.1861534224653841,0.4575627038876533,-0.1487126830281362,-0.0524674765765666,0.0264065489172935,-0.0393492728471756,-0.0135471224784851,-0.0064134001731872,0.0110379457473754,0.0295985788106918,-0.0784733742475509,0.0013525836527347,-0.1307178288698196,-0.0360012877076864,-0.0554810642033815,124
1733388842461299700,-0.2800005982071161,-1.2456418658852575,0.0460486344695091,8.842264869862793,1.5287563583292063,3.955710387399793,1.2778334617614746,-3.4594972133636475,1.3541457653045654,-0.8207104278085297,-0.1989059713568619,0.5086760373489903,-0.1676889009474497,-0.0511436201632022,0.0511067248880863,-0.0085994834080338,-0.0134406089782714,-0.0103621482849121,0.0116456747055053,0.0178659670054912,-0.0760147273540496,-0.0659808309078216,-0.091101735830307,0.000429769719392,-0.0463365115001797,125
1733388842501299700,0.911208251222968,-1.2715478760361671,0.5238488097980618,9.354380279508232,1.1334321485701948,2.716852482566237,0.9919321537017822,-2.722036123275757,1.635461688041687,-0.7759241765648179,-0.2128552578356624,0.562291479148754,-0.1909518220789478,-0.0426659807562828,0.0677372589707374,0.0321626588702201,-0.0022245645523071,-0.0067624002695083,0.0029289731755852,0.0153747871518135,-0.0592879801988601,-0.0244312614232301,-0.057640254497528,0.0064463996604084,-0.0741387106612324,126
1733388842541299500,1.2977987541019915,-0.6949183470346033,-0.0962803998425602,9.618412324211,0.5566527627691626,1.8293828343272207,0.6455379128456116,-1.942817211151123,1.7960214614868164,-0.739075296230574,-0.2146368301600109,0.6005484670752093,-0.2168873836644124,-0.0370839945971965,0.0604985803365707,0.0290795192122459,-0.0042896270751953,-0.0040184706449508,-0.0037791728973388,0.0102949561551213,-0.0384328067302703,-0.0597667786985635,-0.0274379141628742,0.0135797586716711,-0.0773094496518373,127
1733388842581299500,2.085130450287461,-0.3172388803638518,-0.5035791980989277,9.734742701652646,-0.1746200510586611,1.1724595061007888,-0.1458120644092559,-1.3049899339675903,2.058253765106201,-0.7081727654226843,-0.2027694103257359,0.6317481836815375,-0.2413919385527206,-0.0699434056878089,0.0371536277234554,0.001318528316915,0.0034922957420349,-0.0056476891040802,-0.0059102764353156,0.0087239136919379,-0.0417994037270545,-0.0781043994218111,0.003739321604371,0.038884295798093,-0.0843900555625557,128
1733388842621299500,3.319538974496722,0.3435186922632157,0.1439168149601668,9.717786306154728,-0.9883071268640458,0.8707759222652762,-0.9776210784912108,-0.2394315898418426,1.913840889930725,-0.6907782343823826,-0.1720321574866891,0.652692670057524,-0.2592731890102747,-0.0919520333409309,0.0203291065990924,-0.0083998795598745,-0.0027217268943786,-0.0077958405017852,-0.0072005968540906,0.0213169325143098,-0.0444823578000068,-0.1172124209731817,0.0169313736259937,0.0320987273111939,-0.0989893665403127,129
1733388842661299500,2.47478852404356,0.4826657355383038,0.6571048222731799,9.63029390066266,-1.6947303259924054,0.7454481455061585,-1.040952444076538,-0.2775437235832214,1.630897879600525,-0.6825801179712381,-0.1354169410784005,0.6660742995793564,-0.2684987384377624,-0.0879642143845558,-0.0009081636089831,-0.0001561969984322,-0.0025895237922668,-0.0081270188093185,-0.0034131985157728,0.0364632122218608,-0.047608807682991,-0.0975941127896308,0.0199286602437496,0.0187684133559465,-0.0850303992927074,130
1733388842701299700,2.092391381201148,0.5217980147480964,0.9780734637498856,9.510807689538597,-2.334059033882618,0.5168062343427912,-0.8231408596038818,-0.4245075583457947,1.5420355796813965,-0.6705872267884029,-0.1034695117210549,0.6804000853643245,-0.2768800695463086,-0.0949323773384094,0.0057174614630639,0.0075857453048229,-0.0063663125038146,-0.0042455345392227,0.0030672550201416,0.0436288304626941,-0.0359925553202629,-0.0804728821188211,0.0127442451193928,-0.0017407061874866,-0.0988785996422171,131
1733388842741299700,2.023402600648999,0.9031064855709672,0.7077022791534662,9.381227369901538,-2.8377710645809766,0.3316807722901925,-0.6831636428833008,-0.2070655226707458,1.1113961935043335,-0.6607293542854311,-0.0773473898323802,0.6907288678873587,-0.2834567435870562,-0.0655398666858673,0.0048307888209819,0.0182427838444709,-0.0121647119522094,1.5616416931152344e-05,-0.000231385231018,0.0442333109676837,-0.0018017329275608,-0.0932984614223241,-0.0014257794246077,0.0006752689130604,-0.038709962144494,132
1733388842781299700,1.528780177596211,0.5896759114488959,0.4407113846451044,9.256199891263249,-3.234071352830529,0.1841748833294957,-0.5440022945404053,-0.206749677658081,0.989561915397644,-0.6528412157185614,-0.0558891031385672,0.6982020497366735,-0.2884243318299695,-0.0256174877285957,0.0154372006654739,0.0267871357500553,-0.0184165239334106,0.0063822269439697,0.0032379627227783,0.0464609824120998,0.022673362866044,-0.1051367832541465,-0.0126453284174203,0.007474865925312,-0.0445499203443527,133
1733388842821299500,1.5878841084718702,0.6872650558024644,0.425663453117013,9.134398388934136,-3.568237840989232,0.028785919818643,-0.4194956719875335,-0.2793726325035095,0.826307475566864,-0.6445988722418389,-0.0384350610394482,0.7050213278151946,-0.2931892743293224,-0.0030149731319397,0.0239774789661169,0.0280042681843042,-0.0022208094596862,0.0111438482999801,0.0001068115234375,0.0566094443202018,0.0114503996446728,-0.0734749860554933,0.0227192919701337,-0.0092138185471296,-0.0318006211474537,134
1733388842861299500,2.011962338224053,0.917972630791366,0.7632008790135383,9.020218467524646,-3.8462303142443295,-0.1119781461820472,-0.3563092648983001,-0.1710565537214279,0.6896353960037231,-0.6369191066831275,-0.0242991243457191,0.7107171370758372,-0.2976989535052884,0.0243695117533206,0.0223717521876096,0.0013351065572351,0.0069160461425781,0.0118895471096038,-0.0017565470188856,0.0594677031040191,-0.0049238139763474,-0.082269117885828,0.0509205758571624,-0.0161849727340042,-0.0141495213836431,135
1733388842901299500,2.333874324965477,1.0651873913183807,1.1480945148468016,8.928000787076353,-4.0534503384009,-0.1753012382558547,-0.5163734555244446,0.2326681315898895,0.4755232632160187,-0.6338541073352322,-0.0102306616577832,0.7133254582124471,-0.2988161943892742,-0.0266867466270923,-0.003541390877217,-0.0507531948387622,0.0002397894859313,-0.0068153291940689,-0.0054417848587036,0.0530317574739456,-0.0477611385285854,-0.0827823281049728,0.0825341641902923,-0.021166852799803,0.0166378310680389,136
1733388842941299700,1.9155279168635608,1.205890577994287,1.6225369041800497,8.86675867512822,-4.187718815854192,-0.1182293429307639,-0.3511050343513489,0.4482616782188415,0.2753474712371826,-0.6369319140322687,0.0033710314903233,0.7113484764341869,-0.2971358224179282,-0.0370128862559795,-0.0147855225950479,-0.0415921211242675,-0.0036664605140686,-0.0085965096950531,-0.0036916732788085,0.0479833409190177,-0.064390629529953,-0.0909060133278369,0.0923121497035026,-0.0265232652664184,0.0206327459231019,137
1733388842981299700,1.3411498200505971,1.1643801714763045,1.151040505170822,8.841689115801453,-4.241976768003404,-0.0236705769657506,-0.0383112579584121,0.2311847954988479,0.0486909039318561,-0.6410750068534908,0.0101502121005389,0.707886881295614,-0.2963377015735572,0.013159736059606,0.0033285524696111,0.00039754062891,-0.0139902234077453,-0.0078957229852676,-0.0002789497375488,0.0434369780123233,-0.0672721564769744,-0.0430295789092779,0.0647819861769676,-0.0243717863209545,0.0046758828565478,138
1733388843021299700,0.8119330534785986,0.9342758230775594,0.6891326032400131,8.847024047088622,-4.230792233905196,0.0307737668843241,0.1271833181381225,0.0525858364999294,-0.1050966456532478,-0.6430069918850979,0.0095880645714472,0.7059313306263784,-0.2968350712992282,0.044008195400238,0.0205148886889219,0.0379520393908023,-0.0091760158538818,-0.0010566562414169,0.0072960872203111,0.01596375182271,-0.0486888438463211,-0.0302682970136404,0.0342908166348934,-0.0170579561762511,0.0274880186453461,139
1733388843061299500,0.4158201044946908,0.6209121767118573,0.3901362126618623,8.874429355886578,-4.1724104798242445,0.0765836789608234,0.1079085022211074,0.0747624635696411,-0.1877787560224533,-0.6450133665194897,0.0061456160729215,0.7043135313892102,-0.2964158887485369,0.0557034686207771,0.0342927537858486,0.0328928343951702,-0.0054637193679809,0.0029809921979904,0.0064846295863389,-0.0105091594159603,-0.0319786816835403,0.0143599492639303,0.0245231501758098,-0.0240568751528859,0.0011672902137041,140
1733388843101299500,0.2591027716070413,0.3306614026471972,0.3915864114701747,8.905302048534155,-4.104521477207541,0.1373825360869057,0.1355414390563964,0.1282789260149002,-0.2068497240543365,-0.647775698967884,0.0026372015232295,0.7021313874956205,-0.2956199365179464,0.0765245929360389,0.0361612290143966,-0.0038681109435856,-0.0049797892570495,0.0040806233882904,0.003858208656311,-0.0189481377601623,-0.0078272446990013,-0.0259352362453937,0.0340354964137077,-0.0045624856099486,-0.0495186486676335,141
1733388843141299500,-0.1255108782410621,-0.0064797174081206,0.1471253286778926,8.937968054339288,-4.030293919219076,0.1995853280270472,0.2039446532726287,0.051592793315649,-0.1877111494541168,-0.6503586976891492,-0.0018347073426062,0.6998718555260646,-0.2953126661567164,0.0535164773464202,0.0279542710632085,-0.0157465413212776,0.0001649260520935,-0.0046748965978622,-0.0033967513591051,-0.0170749258249998,0.0041292952373623,-0.0417570747554302,0.0361211411654949,-0.0047097851261496,-0.056045127826929,142
1733388843181299500,-0.2175648925602435,-0.1844376989841461,-0.033217831001617,8.962534924840927,-3.973242536959052,0.2380720941412262,0.2054330259561538,0.001699342043139,-0.1186995133757591,-0.6514228856190293,-0.0066928576496206,0.6984389072302065,-0.2962877223294552,0.028760265558958,0.0123934736475348,-0.0105249481275677,0.0001853108406066,-0.0124432891607284,-0.0056575536727905,-0.0126920379698276,0.0050351633690297,-0.072800447794795,0.0325562804937362,-0.0083493106722831,-0.0675575787052512,143
1733388843221299700,0.1124362926125526,-0.1396504627525806,-0.0944376945853233,8.97685045044124,-3.937824602097273,0.2829807647953741,0.0929772555828094,0.1324223428964615,-0.0909444689750671,-0.6527756277645889,-0.0096301856806058,0.6967634145679282,-0.2971733689439147,0.0067993085831403,-0.0060868933796882,-0.0039220401085913,0.0035985708236694,-0.0120904594659805,-0.0056849718093872,0.0029992088675498,0.0034845382906496,-0.0544663342028856,0.0328372195363044,-0.0223497789740562,-0.0693204967245459,144
1733388843261299700,0.0290945770591497,-0.1661523929700255,-0.0413367669841274,8.989564970585704,-3.9030928959339857,0.3521341065257787,0.1307922452688217,0.1217488795518875,-0.0957606732845306,-0.6553997646018714,-0.0112987361734615,0.6942034977196428,-0.2973300320316696,-0.0239934921264648,-0.0223117768764495,-0.0129676656797528,0.0030853748321533,-0.0158732682466506,0.000629661604762,0.013358031399548,-0.0016053467988967,-0.071157356762886,0.045760191977024,-0.0486845359310507,-0.0288356338620185,145
1733388843301299500,-0.0877986949622631,-0.1785764057353139,-0.2990828998178243,9.004104952591657,-3.864780993196368,0.399938863947615,0.2047087103128433,0.0062645347788929,-0.1005464047193527,-0.656726827855725,-0.0146574919819679,0.6923828059659732,-0.2984981212075379,-0.0282622724771499,-0.0183142125606536,-0.0062347291968762,-0.0072514414787292,-0.0134493559598922,0.002426030114293,0.0154358055442571,-0.0213734433054924,-0.0688023180693388,0.0493820309638977,-0.0381074662066996,-0.0130874451100826,146
1733388843341299500,-0.2479074238538741,-0.261063550285995,-0.5033691720774397,9.01652195109427,-3.8339196987256408,0.4168783448433503,0.1329862028360366,-0.0314875654876232,-0.0428347513079643,-0.656711705957457,-0.0182859299868302,0.6916724260166451,-0.2999744863313888,-0.0203287173062562,-0.0072082444094121,0.0277183763682842,-0.0094040632247924,-0.0055165588855743,0.0084496717900037,0.0192041955888271,-0.0347749851644039,-0.0471720855414867,0.0410649292171001,-0.0141582892119884,0.008517360715568,147
1733388843381299500,-0.1268079323142767,-0.2381236964643001,-0.4676168906947597,9.019472617593408,-3.826183843776584,0.424072713326849,0.0419494099915027,-0.0164114795625209,0.0112794060260057,-0.6565792852555661,-0.0196990684772047,0.6913683939695351,-0.3008744491165282,0.0217313859611749,0.0015165912918746,0.0328456945717334,-0.0047294497489929,0.0036945044994354,0.0044122915714979,0.0254450514912605,-0.029504595324397,-0.0080061963230371,0.02463274076581,-0.0197919111847877,0.0005567570999264,148
1733388843421299500,-0.0407943672031164,-0.1317278530597686,-0.4040858275592326,9.016806028732656,-3.833519008970261,0.4144106030229479,-0.0025109578855335,-0.0543392561376094,0.0304217804223299,-0.6559403201682967,-0.0199143818447252,0.6917184083112637,-0.3014488488788672,-0.0160471517592668,-0.0083438688889145,-0.0076214368455111,-0.0054239034652709,0.0030194669961929,0.003305435180664,0.0300400238484144,-0.0208564847707748,0.0012993921607732,0.0147956404834985,-0.0052403848715126,0.0043985272198915,149
1733388843461299700,-0.0846247411012649,-0.0987248703852295,-0.243709351109527,9.010957887226343,-3.849763164545596,0.3903542393267154,-0.0543943718075752,-0.0489069856703281,0.0671026185154914,-0.6549598731934335,-0.0191999605992328,0.692624598481339,-0.3015464609021642,-0.0303914695978164,-0.0094833290204405,-0.0238903556019067,-0.008139431476593,0.0020004510879516,-0.0033107995986938,0.0249884519726037,-0.008782222867012,-0.0120376437962055,0.0057165855541825,-0.007257569912821,-0.0111035778164863,150
1733388843501299700,0.0604132599085569,-0.0287231133982539,-0.1306774672240018,8.998796909311412,-3.8813071805834767,0.3570791251799091,-0.070546731352806,-0.0790486708283424,0.0976977348327636,-0.6535535534608236,-0.0176169582550824,0.6938902470345601,-0.3017843596699044,-0.0135925160720944,-0.0161439478397369,-0.0084661254659295,0.0023542046546936,-0.0015314519405364,-0.005742073059082,0.0192099101841449,0.0038379346951842,-0.0225204593658447,-0.00344302598387,-0.0160989018857479,0.0108387894004583,151
1733388843541299500,0.1566179641664028,0.0656359629929065,0.0491080585727468,8.985492606580257,-3.91596143759638,0.3107704150021076,-0.0885411649942398,-0.0896410271525383,0.0923344865441322,-0.6516869160125163,-0.0158955908493678,0.6956309714213437,-0.3019092430085046,-0.0099740792065858,-0.012256852351129,0.0040535945445299,-0.0084026455879211,-0.0058097690343856,-0.0025607347488403,0.00721977930516,0.0068863043561577,-0.0263093302547931,0.0152143957093358,-0.0249167068526148,0.0210959795206785,152
1733388843581299500,0.2836965301156043,0.0410509723126888,0.1598918530042283,8.973931932646035,-3.94449721172899,0.282586669177562,-0.1117358207702636,0.004011308774352,0.0684860572218895,-0.65078464171256,-0.0137173984510541,0.69670935285917,-0.3014750079501955,-0.0032623808365315,-0.0095121981576085,0.0164365619421005,-0.0054913759231567,-0.0021315366029739,-0.0006341952830553,0.0039619277231395,0.0076905032619833,-0.0344826998382806,0.0201925337314605,-0.0252767723366618,-0.0158075177237391,153
1733388843621299500,0.3193628867805004,0.1064002273187041,0.2243248699481599,8.964602963286637,-3.966301924040913,0.2733698914883658,-0.0969220474362373,0.037450224161148,0.039548210799694,-0.6507640953695373,-0.0113968670879275,0.6970883201457266,-0.3007392103913419,-0.0049814507365226,0.0003041605232283,0.0177104845643043,-0.0056671500205993,-0.0019216388463974,0.0041607618331909,0.0094962753355503,0.0029190727509558,0.0025409166544675,0.0139236599206924,-0.050050125195831,-0.0203778943791985,154
1733388843661299500,0.1336170278072357,0.1255611471235752,0.2108539967447519,8.95971109959185,-3.977382705503702,0.2727747386068105,-0.0719658881425857,0.0269035715609788,0.0237946081906557,-0.6511055670852225,-0.0096987926721497,0.6971357774350039,-0.2999487679340593,0.0081255622208118,0.006165511906147,0.0051767164841294,-0.0046064257621765,0.0039708465337753,-0.001450777053833,0.0161852613091468,0.033179834485054,0.0144148943215608,0.0103389862924814,-0.0780422939710319,-0.0034936873346567,155
1733388843701299700,0.1338251175999641,0.0306201791912317,0.2180593980789184,8.95471402195692,-3.988834073844552,0.2696097535035572,-0.0297322142869234,-0.0018556828144937,0.0374847203493118,-0.6511444139139995,-0.0084834873245779,0.6972673507930407,-0.2995951411285075,0.0044658463448286,-0.0040543689392507,-0.0080681825056672,-0.0118053555488586,0.0026108175516128,-0.0033531188964843,-0.0042527355253696,0.0216941349208354,-0.0687690003216266,0.0012434562668204,-0.0446554265454411,0.0327002003356814,156
1733388843741299700,0.2908621839612722,0.1957628105968236,0.2350660624593496,8.948511660185456,-4.00329163826406,0.2611321402764879,0.0072684148326516,-0.0128787728026509,0.0258499030023813,-0.6506129270513925,-0.0079672188599947,0.6975833209584511,-0.3000281672000423,0.0197273567318916,-0.0033702026121318,-0.0013712643412873,-0.0055768489837646,0.0023499131202697,0.0009381752461194,-0.0111584812402725,0.0178132578730583,-0.0617588292986154,-0.0018298109062016,-0.0432690867535769,-0.0230059047952294,157
1733388843781299700,0.160263627192378,0.1094566922798752,0.0408107338160276,8.947279488041996,-4.006169531787932,0.2592127713201567,0.0117622334510087,-0.0164151843637228,0.0075260228477418,-0.6504151340585926,-0.0080608699632356,0.6976523843543369,-0.3002938428604649,0.0289906300604343,0.003353479783982,-0.0009624691447243,-0.0013904571533203,-0.000143751502037,-0.0005401354283094,0.0040066856890916,0.0005830582231283,-0.076978025740385,-0.0059661665000021,-0.0162470781847834,-0.056420098619163,158
1733388843821299500,0.209106276294589,0.0844260036587715,-0.0205745494624599,8.94647167879045,-4.008373471572995,0.2529615654382854,-0.0184342861175537,-0.0164362229406833,0.0006446813931688,-0.6501394274251865,-0.0080681676109248,0.697880687807224,-0.3003602268047574,0.0251322425901889,0.0004008865798823,-0.0063007087446749,-0.0044085383415222,-0.0019722133874893,1.5256926417350767e-05,0.0012748949229717,0.001698978128843,-0.0322965879708528,-0.009906530380249,-0.0512993946045637,-0.0092038816750049,159
1733388843861299500,0.154062434464693,-0.0004041968867182,0.0311024097502231,8.94794408943057,-4.005544093365967,0.245577373471111,-0.0237921103835105,-0.0091339070349931,-0.0052714711055159,-0.6500575404372451,-0.0079332226343361,0.6981519191903383,-0.2999103108299061,0.0191371999680995,-0.0023382809013128,-0.0016034918371587,-0.0030581355094909,-0.0060750693082809,-0.0035963058471679,-0.0120028331875801,0.0058926246128976,-0.0205938752174377,-0.0006222380325198,-0.0425227984309196,0.0180246092513203,160
1733388843901299500,0.0119704237788915,-0.0226908474966883,-0.0016588913892395,8.946533053588867,-4.009294385810196,0.2355426304625347,-0.001267671585083,-0.0414429679512977,0.0264516584575176,-0.6496698650055452,-0.007799347500758,0.6985197481984391,-0.299897207231207,0.0027558307629078,-0.0059241210110485,-0.0006424236344173,-0.0051658153533935,-0.0084528177976608,0.0038644075393676,-0.0110864089801907,0.0143800228834152,-0.0058148237586021,0.005482418462634,-0.0820204038217663,-0.0039525370180606,161
1733388843941299700,-0.0195686238229274,-0.051518882574141,-0.0816530318140983,8.940364009565114,-4.024160531030595,0.2154286294502206,0.0147111732512712,-0.086249366402626,0.0598122105002403,-0.6485857168164709,-0.0076696518921074,0.699254870241911,-0.300533496673262,-0.020928194746375,-0.0034048771485686,-0.0056595527566969,-0.0091972351074218,-0.0105619132518768,0.005373241379857,-0.0164042320102453,0.0162984691560268,-0.0072141691625118,0.008644831366837,-0.0541005696304142,0.0159667999386787,162
1733388843981299700,0.0059141924798488,0.0039165889218449,-0.2109106953680515,8.929995175763963,-4.048920293755829,0.1784394814826548,-0.0033688638359308,-0.1276632845401764,0.0781083479523658,-0.6466392481073349,-0.0075105880580674,0.700603817821968,-0.3015885914583959,-0.0173329263925552,0.0106980521231889,0.0094182007014751,-0.0058876276016235,-0.0040961503982543,0.0049697160720825,-0.0308109112083911,0.0236942786723375,-0.0118535194009542,0.0231381375342607,-0.0350941097348928,0.0125642980188131,163
1733388844021299700,0.0707271486520767,0.0036596915513277,-0.137978730148077,8.919050587901472,-4.074550701835752,0.1376797837341204,-0.0448324978351593,-0.0879579037427902,0.0740472972393035,-0.6447383113534929,-0.0068810421104648,0.7020918286021169,-0.3022122303678054,-0.0190354846417903,0.0142304152250289,0.0103894546627998,-0.003665804862976,-0.0015792697668075,0.0002526026219129,-0.0559964068233966,0.0376621633768081,-0.0039303251862525,0.0435573607683181,-0.0230132113188505,0.0092822076082229,164
1733388844061299500,0.0531587587356567,-0.0473626396775245,-0.0637374358952045,8.906991316795349,-4.1019384749770165,0.0999496629398316,-0.0784174352884292,-0.0745327919721603,0.0811246857047081,-0.643220701590234,-0.0054312732243435,0.7034731599710082,-0.3022633654768479,-0.0236739125102758,0.0085094664245843,0.0042677130550146,-0.0052397847175598,-0.0002293437719345,-0.0014628171920776,-0.1000040099024772,0.0727362185716629,0.0200946935236453,0.0893512070178985,-0.0178908998690545,0.0446449051514267,165
1733388844101299500,0.0903793591052293,-0.0430342550843954,0.0514408443352906,8.893712148505449,-4.131405684740841,0.0612361799642676,-0.0548526421189308,-0.0825663357973098,0.0852932929992675,-0.6416484320038057,-0.0038523519521397,0.7048850850351047,-0.302339953509385,0.0054632006213068,0.0118906162679195,0.0065463799983263,0.0001548528671264,-0.0009339749813079,-0.0031095724552869,-0.1468719244003296,0.1281856447458267,0.0434960273772478,0.1551304459571838,-0.0114557522550225,0.0183136553257703,166
1733388844141299500,0.1020464160233736,-0.0614545856550335,0.0386672920465469,8.879650889927149,-4.161916558338701,0.0250780668602092,-0.0350922495126724,-0.0836283266544342,0.0906811654567718,-0.6399806975128146,-0.0025873940875311,0.7061973377006869,-0.3028255112944676,-0.0399205274879932,0.0120695792138576,0.0106220822781324,-0.0071663260459899,-0.0027534812688827,0.0016586799174547,-0.1854653507471084,0.1736613363027572,0.0381464830428361,0.2956317663192749,0.0112231125429272,-0.0255380536213517,167
1733388844181299500,0.1350502754807472,0.0100870942503213,0.0231786332969204,8.86310599783957,-4.197096008269488,-0.0100106885628425,-0.0485443323850631,-0.0769519135355949,0.1067983135581016,-0.6382367637449192,-0.0011907306652744,0.7074665965304369,-0.3035511697636973,-0.011915523558855,0.0207526572048664,0.0101222060620784,-0.0140350461006164,0.0013960599899291,0.0004017353057861,-0.1688759326934814,0.1892007291316986,-0.033916882649064,0.45685476064682,0.0058517947681248,-0.1512602365255355,168
1733388844221299700,0.1239274084419012,0.0205666949495673,0.0995534301638603,8.844752010503411,-4.235409080050886,-0.0453846587020205,-0.0525631457567215,-0.0804113298654556,0.120103932917118,-0.6365241863353689,0.0005716103303194,0.7087408884205431,-0.3041759425447145,-0.0065929293632507,0.0306710675358772,0.0253475662320852,-0.0093683004379272,-0.0020711421966552,0.0016521215438842,-0.1315149515867233,0.1796220391988754,-0.0610310995459556,0.5962470769882202,-0.0386048943348228,-0.0868269273206591,169
1733388844261299700,0.1518874285131692,0.08565028475672,0.2407259879171848,8.820682568129897,-4.284780721463263,-0.0812123662413563,0.0038308326620608,-0.088836021721363,0.1387275457382202,-0.634452271517469,0.0024450432100621,0.7100244364017748,-0.3054989920397832,0.0167179852724075,0.027835227549076,0.0457668863236904,-0.0149253010749816,0.0035858303308486,-0.0048947352916002,-0.1098737493157386,0.1788722425699234,-0.054469256812334,0.6703479290008545,-0.0290624283552169,-0.0820595667883753,170
1733388844301299500,0.277404736495018,0.1229644086286425,0.1380956345260143,8.798714481949805,-4.329127812711894,-0.1080185492355376,0.0481733232736587,-0.082238383591175,0.0982290431857109,-0.632361509571752,0.0032147144010411,0.7109831776451155,-0.307589876527306,0.013601554557681,0.0275240633636713,0.0434723757207393,-0.0103377103805542,0.0014898031949996,0.0094455499202013,-0.0914971008896827,0.1388989090919494,-0.0939227308005094,0.6576935648918152,0.0133737147055566,-0.0268175720378756,171
1733388844341299500,0.1061772322177886,0.0803027862489223,-0.1281646076202392,8.781697296175361,-4.363080643457174,-0.125322488662647,-0.0116950524970889,-0.0516528934240341,0.1071503907442092,-0.6309097257312317,0.003924729880155,0.7115997927231966,-0.3091331054668012,0.0187784731388092,0.0484138987958431,0.03256306797266,0.0098201036453247,0.0123691707849502,0.0029389895498752,-0.0968498140573501,0.1256627142429351,-0.0542787026762962,0.6489296555519104,0.0149780811622738,-0.0665828884541988,172
1733388844381299500,0.2375485269248485,0.1561389484778046,0.0226794675861485,8.76539673423767,-4.395072403262556,-0.1467282647848594,-0.043324802070856,-0.0421832762658596,0.077357068657875,-0.6296951067332079,0.0053473616336827,0.7123569787190701,-0.3098434166697223,0.0365944877266883,0.0538738593459129,0.022750848904252,8.040666580200195e-05,0.0050468295812606,-0.005587100982666,-0.0918797552585601,0.0976022407412529,-0.1167068095386028,0.5727981328964233,0.035192966999486,-0.0537090860947966,173
1733388844421299500,0.0567541528791189,0.0793400786966085,0.0911760807071812,8.751512585791945,-4.421972685147821,-0.1659947912555187,-0.0514526441693306,-0.0343485958874225,0.0858287066221237,-0.6287935495213244,0.0069247670434875,0.7130325563906222,-0.3100890944398481,0.0266166888177394,0.0301035493612289,0.0295416451990604,-0.0050683617591857,-0.0038255304098129,-0.018100019544363,-0.093508280813694,0.0933557152748107,-0.078113751772046,0.5251043438911438,0.0154416800860315,-0.0037514614880084,174
1733388844461299700,0.1396370187491178,0.0859714795351028,0.1515478212952613,8.7356685354501,-4.452397049506009,-0.1861135963071137,-0.044697068631649,-0.0364948362112045,0.092324748635292,-0.6277534981210248,0.0085458037657936,0.7137339292139563,-0.3105420637896718,0.0413445010781288,0.0242826770991086,0.0462769493460655,0.0010390281677246,-0.0031732022762298,-0.0106756687164306,-0.0872416347265243,0.062268353998661,-0.1405921275168657,0.4642468690872192,0.0219146024271845,-0.0846709183305501,175
1733388844501299700,0.3289098828047513,0.1452399533227086,0.2217944746877066,8.720724648818374,-4.480989814522863,-0.200246513615828,-0.0359850227832794,-0.0090365316718816,0.0694113299250602,-0.626951841130141,0.0101191445600911,0.7142179872372336,-0.3110012532776946,0.0643632709980011,0.0306729841977357,0.0527261942625045,-0.0068499445915222,-0.0011196881532669,-0.0038379430770874,-0.0513815097510814,0.0775698646903038,-0.0002823240727186,0.3999382853507995,-0.078020520530641,-0.0051923079460859,176
1733388844541299500,0.1774450636178255,0.0184659232780337,0.2908767787422053,8.710431218340993,-4.500561360955238,-0.2091752864101901,0.0079277195036411,-0.0288114231079816,0.0593223869800567,-0.6263916997696403,0.01111796795418,0.714521771864223,-0.3113978840061852,0.0204181801527738,0.0138360010460019,0.0415096245706081,-0.0174915194511413,-0.0066565722227096,0.0063566006720066,-0.0403241924941539,0.0973629206418991,0.0220434895038604,0.3968806564807892,-0.0789443573772907,0.1445952256783843,177
1733388844581299500,0.1314443599432706,0.099404669342935,0.2101905643999576,8.69732389948666,-4.525684988556802,-0.2124352197878994,0.0964646339416503,-0.0461558662354946,0.0785705000162124,-0.625393400030818,0.0111441047972103,0.7146376642396474,-0.313132485991047,0.0120113808661699,0.0123754702508449,0.0470310226082801,-0.0079362392425537,0.0078250020742416,0.0099549330770969,-0.034390814602375,0.0682828873395919,-0.0412695834994316,0.3618744015693664,-0.0393348891098052,0.0824918207257986,178
1733388844621299500,0.2368079376906156,0.2371805703952908,-0.1844330410753376,8.683838979491592,-4.551682184122503,-0.2086649988004937,0.0344486609101295,-0.0100511964410543,0.0642650425434112,-0.6245440094852839,0.0110648913012152,0.7145043894023103,-0.3151284939243686,0.0076563134789466,0.0198987927287817,0.0149003826081752,-0.0018534660339355,0.0120966136455535,0.0021536387503147,-0.0212210193276405,0.0562571138143539,0.0490448936760425,0.3157832324504852,-0.0247927882120013,0.1133589604154229,179
1733388844661299500,0.3123527157574892,0.1837538083732128,-0.1730582085694186,8.67772429600358,-4.5630476277455685,-0.2146529689026065,-0.0347629003226757,-0.0298179779201746,0.0099293626844882,-0.6241323186088832,0.0115176417544779,0.7147108502666678,-0.315459243721445,0.0453120805323123,0.0200258269906044,-0.0042658541351556,0.0023362636566162,0.0134312808513641,-0.0025863647460937,-0.0364305675029754,0.0594776384532451,0.0328553908973932,0.3019809424877167,-0.0212017779827117,0.2237669620707631,180
1733388844701299700,0.1253553954184055,0.1153556871905922,0.0796878326883539,8.67483325073719,-4.567673533980548,-0.2324678991923108,-0.0178835950791835,-0.0327012613415718,0.0295371878892183,-0.6235346999455754,0.0118841692270948,0.7153400108794316,-0.3152016398634152,0.0506258830428123,0.005364220123738,0.0034905357751995,0.0015556216239929,0.0014335066080093,-0.014742374420166,-0.055354468524456,0.055712666362524,0.0009317278921604,0.2489553391933441,-0.0107903471488505,0.2029356248356401,181
1733388844741299700,0.2121522198617458,0.1501753638982772,0.0082616323888301,8.670335354796052,-4.575707495093345,-0.2419954963963478,0.0007334556430578,-0.0307696461677551,0.0134981712326407,-0.6230177912970186,0.0120930133402184,0.7156759708191498,-0.3154528115736998,0.052843764424324,-0.0056200409308075,0.0038380119949579,-0.0055890083312988,-0.0103116184473037,-0.0055166482925415,-0.0719171613454818,0.0673089027404785,0.018469138148427,0.1676683127880096,-0.0271955385047942,0.1907822457052767,182
1733388844781299700,0.1880845310539007,-0.0064534139230847,-0.0587152055527083,8.668515738153458,-4.578292835411429,-0.257768015871942,-0.0161523781716823,-0.049957912415266,0.0089650247246027,-0.6223630156560831,0.0120116511941202,0.7162389488413455,-0.3154706456896775,0.0367651954293251,-0.0097951320931315,0.0130480220541358,-0.0009869337081909,-0.0083455145359039,0.0006748437881469,-0.0862019881606102,0.068709559738636,0.0082820906549692,0.0983295142650604,-0.0203953569706529,0.1764265342250466,183
1733388844821299500,0.0994482162237167,0.0042108956933021,0.067429294416774,8.666770355790852,-4.58057743921727,-0.2752748665931634,-0.0233915708959102,-0.0283645931631326,0.0176482256501913,-0.621756274869256,0.0121476313408792,0.7168595032648882,-0.315252279811041,0.0210983511060476,-0.0099486904218792,0.0019072201102972,-0.0067021250724792,-0.0063028633594512,0.0090416651219129,-0.0760360732674598,0.0690556839108467,0.0082061028093099,0.0339346006512641,-0.0394144571520388,0.1262768941774964,184
1733388844861299500,0.0491062684744596,-0.044025311948359,0.08454056994915,8.661597921589017,-4.589652726076543,-0.2867006803676485,0.009344108402729,-0.0344801060855388,0.041469182819128,-0.6211816875559677,0.0124593120447271,0.7172603653402003,-0.3154610019145794,0.0103343883529305,-0.0039906129240989,-0.0085258465260267,-0.0078186392784118,-0.0028543025255203,0.0126082897186279,-0.056703969836235,0.0690723210573196,-0.002271452063322,0.004687376320362,-0.0574091096565127,0.1192103167921304,185
1733388844901299500,-0.0168956052213907,0.0077384852975606,0.0417676326820626,8.650085762971639,-4.610440954822302,-0.300341192783229,0.0396712683141231,-0.0748268514871597,0.0789975523948669,-0.6200548061210915,0.0126587945874652,0.7177415234731476,-0.3165734722888756,0.0045390836894512,0.0002805116819217,-0.0098805967718362,-0.0095953345298767,-0.0027328431606292,0.010698202997446,-0.0342127010226249,0.0508665293455123,-0.040823008775711,-0.0060016019269824,-0.0773736009292304,0.1168856732368469,186
1733388844941299700,-0.0609703092694282,-0.019159166239202,0.0089490666637197,8.630565654465556,-4.645044650691747,-0.3275271962746978,0.0520395375788211,-0.1368556469678878,0.1203884556889534,-0.61796795773927,0.0128709164859025,0.7187027058313831,-0.318459292628426,0.0126867583021521,0.0056924810633063,0.0024348590523004,-0.0074692964553833,-0.0028135329484939,0.0075173377990722,-0.0137834250926971,0.0213917922228574,-0.045910687303543,-0.0102020222693681,-0.0892083425644785,0.1367072489075362,187
1733388844981299700,-0.0432528662711381,-0.0385153163552284,0.0327285861799493,8.60357009551227,-4.691828321437537,-0.3683653295543044,0.057253498584032,-0.1442496180534362,0.1562445312738418,-0.6149895047720279,0.0131531357997651,0.7201447079568823,-0.3209460864817235,0.0096366396173834,0.0039220647886395,0.0049460865557193,-0.002914011478424,-0.0074688792228698,0.0059946756809949,0.0018030721694231,-0.0095899291336536,-0.0310065481603145,-0.0056461840867996,-0.0800480077702552,0.1419303903833031,188
1733388845021299700,0.0582803395330905,-0.0685009970352053,0.0602466711699962,8.569973530858755,-4.750129119236767,-0.4027678402958438,0.0740840211510658,-0.1334056258201599,0.1761789917945861,-0.6119757602475773,0.013891349779549,0.721347679649157,-0.3239602981797143,-0.012291295453906,0.0001762222382239,0.006324871443212,-0.002687394618988,-0.0056705623865127,0.0032801628112792,0.023600984364748,-0.0184932500123977,0.0039934535503387,0.0091957598924636,-0.0648297611765563,0.128211661632359,189
1733388845061299500,0.1462847862005233,0.0140209265679121,-0.0109141561916097,8.535090433526038,-4.810055472411215,-0.4312655839730054,0.0445552207529544,-0.1044696494936943,0.1699625551700592,-0.609187380336687,0.0148899193815707,0.7223342136266467,-0.3269592039902604,-0.0165017545223236,9.425025200471282e-05,0.0037406065966933,-0.0054537057876586,-0.0032490491867065,0.0003634691238403,0.0376346744596958,-0.0123491659760475,0.0007557868033647,0.0558805949985981,-0.0392689112015068,0.1376633805885911,190
1733388845101299500,0.2231523373037576,0.0926446736887097,0.0601601253977045,8.502367144575715,-4.865485975471139,-0.4552040203779935,0.0614284425973892,-0.1026849672198295,0.1442712098360061,-0.6067242960820896,0.0159444448533632,0.7231560834412014,-0.3296617033804711,-0.0090443696826696,-0.0025569265708327,-0.0014256594004109,-0.0080268383026123,0.0005193650722503,0.0001196805387735,0.0511732995510101,-0.0092568360269069,-0.0097486560761928,0.0634913891553878,-0.0202740686785429,0.0259293910264968,191
1733388845141299500,0.2692202609956264,0.0652542701989412,-0.1107621853878721,8.477545422530174,-4.906778355324268,-0.4744712135689333,0.0280860271304845,-0.0699580833315849,0.1028066053986549,-0.6046690375881524,0.0163887146056439,0.7238250548417927,-0.3319397678658333,-0.0102204214781522,0.0078463926911354,-0.0018413121579214,-0.0019664764404296,-0.0003199279308319,0.0060216188430786,0.0585347898304462,-0.0037607154808938,-0.0184252990067005,0.0395625531673431,-0.0228002992205321,0.0189712424516677,192
1733388845181299500,0.1529050811231136,0.0218956054657697,-0.0484755693554878,8.4572426392138,-4.939885090634227,-0.4929132079821079,-0.0412618555128574,-0.0359984263777732,0.1095679476857185,-0.6033255296546531,0.0176492214338862,0.7244446733651183,-0.3329665259420935,-0.0094337239861488,0.0102063789963722,0.0045902882702648,-0.0023523569107055,0.0002468973398208,0.0003017224371433,0.0507981516420841,-0.0024012010544538,-0.0324865575850009,0.0143840406090021,-0.0174723821960389,0.0482797545224428,193
1733388845221299700,0.2183364614546299,0.1081359650701284,0.0776503355113789,8.435054772803188,-4.975696408727765,-0.5124963352544233,0.0007132403552532,-0.0634106546640396,0.1117878034710884,-0.6019853095679547,0.0192490421024855,0.7250927629771661,-0.3338914689136945,-0.0033191058319061,-0.003394650761038,-0.0027622999623417,-0.0060485005378723,0.0018906891345977,-0.0063614882528781,0.0331416316330432,-0.002561250468716,-0.0367401233762502,-0.0211250204592943,-0.0390109178524464,0.0766641374856233,194
1733388845261299700,0.3251104905217886,0.2029506762742996,0.0699112291593104,8.413724400004744,-5.0090106493085615,-0.537977872915566,0.0264042410999536,-0.0983817353844642,0.0843349173665046,-0.6000914028964626,0.0198847223305892,0.725970960930486,-0.3353520153222334,-0.010475818067789,-0.0113110039383172,-0.0085498820990324,-0.0052396655082702,0.0005660653114318,-0.0036422032862901,0.0116554126143455,-0.0170629899948835,-0.0318500132471323,-0.0436710640788078,-0.0256803847014904,0.0695633655697107,195
1733388845301299500,0.346439694276452,0.1846831981778144,0.0134358566889539,8.401224983915686,-5.028002934548258,-0.5558726817747578,0.0071057216264307,-0.0385677926242351,0.0373894833028316,-0.598746802286655,0.0199315616856364,0.7265977925949466,-0.3363936059540877,0.0156729612499475,-0.0073376200161874,-0.0094249295070767,-0.0006473064422607,0.0039343833923339,-0.0053216274827718,0.0070719416253268,-0.0042896177619695,0.0157464351862668,-0.0449475161731243,-0.0612563596691936,0.0934074747547507,196
1733388845341299500,0.248284440472722,0.0425812506198883,-0.0263864506116136,8.39448369296193,-5.037932792410254,-0.5676750555103645,-0.0396763868629932,-0.0255649331957101,0.0367286130785942,-0.5981864469936153,0.0204473552685052,0.7269974402396271,-0.3364960354127907,-0.0072576543316245,-0.0127176856622099,-0.0123632624745368,-0.0064717531204223,-0.0104033648967742,0.0022491253912448,0.0128048444166779,-0.0063334694132208,-0.0045458267360925,-0.0441631600260734,-0.046153629213944,0.0751749218411743,197
1733388845381299500,0.1836497634768485,0.1233405484646558,0.2146668330311775,8.385796528637409,-5.050158652254939,-0.5871143903978169,0.0149275790899991,-0.0769325420260429,0.0422315746545791,-0.5972595949611351,0.0209350751269282,0.7276649131956859,-0.3366697472379366,0.0037963278591632,-0.0092718210071325,-0.0004709161585196,-0.0007166266441345,-0.0055806189775466,0.0032714642584323,0.0115447118878364,-0.0217238515615463,-0.0465092377185821,-0.0455448217689991,-0.0408801457904279,0.0741955554150044,198
1733388845421299500,0.0959410848855972,0.0418552744328975,0.315499197089672,8.3722005494833,-5.070576586383581,-0.6048975921086966,0.1342596113681793,-0.108880378305912,0.0787026360630989,-0.5954834156382236,0.0201863994172202,0.7283087965433052,-0.3384646569597841,0.013454814441502,-0.0032959536183625,0.0030381982214748,-0.0078974962234497,-0.0024370849132537,-0.0037908591330051,0.0049077491275966,-0.0286983773112297,-0.0164291567534208,-0.049062579870224,-0.0366297948695719,0.0452579224832355,199
1733388845461299700,0.2488426588773727,0.0449573321014642,0.0516120407503098,8.355320726352929,-5.09807015798688,-0.6072160981841385,0.1570498347282409,-0.0877718031406402,0.0499606318771839,-0.5935355282402007,0.0185776625827681,0.7284327528065309,-0.3416962368349158,0.0015637999167665,-0.0154724586755037,-0.0048221880570054,-0.0049726963043212,-0.0044196248054504,-0.0019835252314805,0.0034955989103764,-0.006844937801361,0.0249836346089839,-0.0615481361746788,-0.0619970219686627,0.0941233679391443,200
1733388845501299700,0.1884872666358947,0.0151858786940574,-0.0309855053722858,8.348039337173104,-5.110196649110317,-0.605423442613706,0.0204257294535636,0.0004842666094191,0.0119316205382347,-0.5925158217300502,0.0173382379164223,0.7284005703677088,-0.3435943861452151,0.0076227579265832,-0.0041859825141727,-0.0008827074198052,-0.0061389803886413,-0.0016796588897705,-0.0006443262100219,-0.0086246002465486,-0.0103362631052732,0.0009919336467981,-0.05034139752388,-0.0349480523277074,0.099930739043653,201
1733388845541299500,0.0779325499862432,-0.0363350497066974,0.1151812439391389,8.345915769147872,-5.114789237597584,-0.5958170080197974,0.0156777705997228,0.0285823326557874,0.016264621168375,-0.5927378323610041,0.0175195299828345,0.72805994146172,-0.3439238813287473,0.0270923282951116,0.0024025714956223,0.0150419967249035,-0.0029619932174682,-0.0024672597646713,0.0018700361251831,-0.0135694490745663,-0.0051827556453645,-0.0119610714286565,-0.0505964681506156,-0.0446755925506353,0.0477402408182621,202
1733388845581299500,0.0530073675662279,-0.0425292281717062,0.0598959580361843,8.342559444457292,-5.121614115181565,-0.5840759725499898,0.0415522158145904,0.0050410320982337,0.0211461149156093,-0.5928676736633789,0.0175488854065992,0.7276480078850863,-0.3445697250348613,-0.0036599903833121,0.0021900513675063,0.0061574256978929,-0.0058832764625549,-0.011527881026268,0.0023915767669677,-0.0147880744189023,1.70236453413e-05,-0.0150368256121873,-0.0435958914458751,-0.0421381830275058,0.0474510486133396,203
1733388845621299500,0.0354085825115442,-0.0127753104209899,-0.0145745418626815,8.337115792098642,-5.131616453757882,-0.5739498614635318,0.0409902594983577,-0.0026175912935286,0.0298236608505249,-0.5927363070076569,0.0174225325612593,0.727296194307032,-0.3455437494769173,-0.0059942509979009,-0.0011923228157684,0.0017067505978047,-0.0068176388740539,-1.4320015907287598e-05,-0.0060715675354003,-0.0110542103648185,0.0108373956754803,-0.0084089319050312,-0.0362118519842624,-0.0643969957824796,0.0157006963483989,204
1733388845661299500,0.1089408517122268,-0.0092564886450767,-0.0519196453947573,8.330023203489183,-5.143514396822452,-0.5704231851747259,0.0229537338018417,-0.0144713213667273,0.0407386273145675,-0.5924012365750739,0.0175062308702443,0.7271705581873109,-0.3463775452477891,-0.0038195138331502,-0.0065126260742545,-0.0065455203875899,-0.004220962524414,0.0013108253479003,-0.00381875410676,-0.0078285075724124,0.0075785052031278,-0.0412374347954988,-0.0337300933897495,-0.0526055818323045,0.0250407716237008,205
1733388845701299700,0.1292903967797756,0.0239385094702243,0.0253507143557071,8.320745087534188,-5.158453607279062,-0.5709293080659583,0.0270210914313793,-0.0116243530064821,0.0462596304714679,-0.591875100458022,0.0177437102699336,0.7271825447803117,-0.3472386227702709,0.0197196342051029,-0.0024126898497343,-0.0037066568620502,-0.009693443775177,0.0050255805253982,-0.0015739202499389,-0.0158191081136465,-0.0046741450205445,-0.0267839620292186,-0.0137297268956899,-0.0771965638618916,0.0641534693501889,206
1733388845741299700,0.2462047115892171,0.0441945310354232,0.0114893622636795,8.312018760243058,-5.17287376229763,-0.5675426247697323,0.045664720237255,-0.013014811091125,0.0288111101835966,-0.5914295123380288,0.0178342100471378,0.7270615945362721,-0.3482449038897145,0.0186221450567245,0.010999521240592,-0.0029057110659778,-0.0063565373420715,-0.0006983429193496,0.0023061018437147,-0.0190688632428646,-0.0159680526703596,-0.0231307002186775,-0.0123783033341169,-0.0572861408639699,0.048143268661201,207
1733388845781299700,0.1520131007194519,0.0678688366115093,-0.0833224263310432,8.307748243317008,-5.179788656252622,-0.5670027457393706,0.0467576906085014,-0.048024121671915,0.0107256118208169,-0.5909103997277814,0.0173188928162372,0.7270551223691699,-0.3491644449693498,0.0067186141386628,0.0073992479592561,-0.0087716560810804,-0.006787359714508,-0.0079898387193679,-0.0006592329591512,-0.0195819903165102,-0.0187244527041912,-0.0299696063280105,-0.0160340182483196,-0.0714244832664728,0.0835956903144717,208
1733388845821299500,0.1158282731384038,0.0783072285175323,-0.1398621327418834,8.304879409882426,-5.182745167970657,-0.581841016572155,0.0196026656776666,-0.0810972899198532,0.0037102692294865,-0.5898943711813819,0.0165029371839164,0.7275941787706478,-0.3497986844505795,-0.0001294380053877,-0.0016785095212981,-0.0032717627473175,-0.0096108317375183,-0.0052966922521591,-0.0017285346984863,-0.0239081941545009,-0.0258501507341861,-0.047143443968892,-0.0248950682580471,-0.0397343367561697,0.0674206544525921,209
1733388845861299500,0.2499579266428947,0.0044014498293399,-0.0378583137512207,8.304524605095386,-5.181114351898431,-0.6010937793789431,-0.0295341238379478,-0.0125068519264459,-0.0121274255216121,-0.5891213255787546,0.0161020104488972,0.728277405435245,-0.3496981607049478,0.0275956653058528,0.0098192617297172,0.0080283619463443,-0.0061870217323303,-0.000253677368164,0.0008516311645507,-0.0175733380019664,-0.0282503813505172,-0.0147550860613584,-0.0342094041407108,-0.0361927186265587,0.0424590855449438,210
1733388845901299500,0.0563876576542854,-0.0223643920212984,0.0544645806372165,8.305810553252696,-5.178739439460635,-0.6037847720285877,-0.0358596816658973,0.0206966884434223,0.0081008309498429,-0.5893869929674982,0.0166369064136287,0.7283595743611869,-0.3490537795689198,0.0172354374080896,0.0038106916472315,-0.0070348093286156,-0.0042439103126525,-0.0040109455585479,4.589930176734924e-05,-0.0112819150090217,-0.0168906860053539,0.0255599731922149,-0.041405864059925,-0.0595053512834012,0.0258652397491037,211
1733388845941299700,0.106978611728549,-0.0160772745758295,0.1114448704224079,8.302057338199019,-5.184129315805435,-0.6091388098750263,0.0120052276179194,-0.0305102579295635,0.0207362044602632,-0.5891373491771181,0.0169661324512431,0.7285393514944776,-0.3490843173860015,-0.0024485185276716,-0.0033171526156365,-0.0135166766121983,-0.0030480027198791,-0.0080900639295578,0.0014385022222995,-0.0141033018007874,-0.008708618581295,-0.0029191023170948,-0.0486912056803703,-0.0512494910482317,0.0286859962582588,212
1733388845981299700,0.1655734240382909,0.0203559748083353,0.0031143326282501,8.297928860092163,-5.190185547104478,-0.6137860511589796,-0.0136057417839765,0.0026504818815737,0.0130970198661088,-0.5887608789833664,0.0170403044011804,0.7287002183664546,-0.3493798366384282,-0.001166472909972,0.0018094857223331,0.0007643910357728,-0.0076209306716918,-0.0067718625068664,0.0004796981811523,-0.0242130048573017,-0.001165494788438,-0.0067196636438369,-0.0650610476732254,-0.0546828264977782,0.0185837044388055,213
1733388846021299700,0.1349029759645462,0.0304728796750307,0.0748305653829127,8.29508048492372,-5.194466000902652,-0.6160698512472212,-0.0247425902634859,0.0035700958687812,0.0132718598470091,-0.5887919961541523,0.0176425095082754,0.7287657813684577,-0.3491605776234366,-0.0048903711140155,-0.0057233721017837,-0.0018884502351284,-0.0057808756828308,-0.0027702450752258,0.0025568008422851,-0.0410625413060188,-0.002348811365664,-0.0043991117417812,-0.0554092898964881,-0.0564111846603453,0.0750512954615056,214
1733388846061299500,0.162473704457283,-0.0145820675820112,0.0503717583656311,8.29429547202587,-5.19460160998106,-0.6254296541363,0.0045608188956975,-0.0538772456347942,-0.0060354508459568,-0.5884122551116697,0.0175231380382831,0.7290960013368887,-0.3491174802411861,0.0083580566570162,0.0114553486928343,0.0014751222915947,-0.0151835083961486,0.0013850480318069,0.0010255556553602,-0.051614299416542,-0.0080123757943511,-0.0241951145797967,-0.039737544953823,-0.0229774093531072,0.0158925656586885,215
1733388846101299500,0.1274438921302557,-0.0173719905614852,0.0819313372988253,8.294009640821814,-5.193308063039184,-0.6397802510499954,-0.002212073188275,-0.0087726889178156,0.0048706391826272,-0.5878225506368123,0.0171938489493968,0.7296054321513431,-0.3490627574460824,-0.0089184017851948,0.0068919686600565,-0.0106483185663819,0.000697910785675,-0.0045479536056518,0.0077110528945922,-0.0360887646675109,0.0051388405263423,-0.0153419460386037,-0.0286336690187454,-0.0564368305582553,0.0404097517997026,216
1733388846141299500,0.1302232937157154,-0.0452753120094537,-0.0516097757279872,8.294673073166608,-5.191741544374823,-0.6439058065474033,-0.018203467130661,-0.0249738134443759,-0.0055433912202715,-0.5877293453805131,0.0171534587387601,0.7297505173592961,-0.3489186456804022,0.0141797270625829,0.0234725959599018,-0.0125612672418355,-0.0093061923980712,-0.0027722120285034,0.0004533529281616,-0.0328338928520679,0.0050280317664146,-0.0109755675226449,-0.0162814036011695,-0.0524535330757498,0.033712738379091,217
1733388846181299500,0.152663673582673,0.0100216277986764,0.0934778365772217,8.292883267140388,-5.193618444162607,-0.6517758092701434,-0.0052474406547844,0.0006587986717931,0.0114175314083695,-0.5874448194560338,0.0172823052259001,0.7300223549906794,-0.3488227853823608,-0.0038874244783073,0.016016012057662,-0.0010722578736022,-0.0045827627182006,-0.0071600973606109,0.0025866068899631,-0.0421706028282642,-0.0127698723226785,-0.0420189405620098,-0.0215549394488334,-0.0476939174585044,0.0367677420355379,218
1733388846221299700,0.1197609364122152,0.0638870734989643,-0.045914121369645,8.294061663269996,-5.191518257012963,-0.653492915386334,-0.0074272528290748,-0.0095700891688466,-0.0147986747324466,-0.5874487934479369,0.0172281124008166,0.730083595608882,-0.3486903845130423,0.0070187523961067,0.0154550429433584,0.0043524014763534,-0.0007827877998352,0.0004806369543075,-0.0025769472122192,-0.0542358569800853,-0.0190841387957334,-0.0460924736112356,-0.0347264595329761,-0.0299515592146664,0.0313885332152247,219
1733388846261299700,0.1127870057463645,-0.0151771108657121,-0.0436007298607379,8.295202065476774,-5.189219332420826,-0.6573023176066577,-0.03125711530447,0.0097643630579113,0.0028184449765831,-0.5874760411348512,0.0173536506814313,0.7302136283216951,-0.3483661203985327,0.0179510284215211,0.0111370477825403,-0.0091032870113849,-0.0067951083183288,-0.0006959289312362,-0.0069497823715209,-0.0791786611080169,-0.0184743907302618,-0.0104781393945217,-0.0576073378324508,-0.0329477453559637,0.0222635619953274,220
1733388846301299500,0.1823018559992313,0.0005552957952022,0.0477403138834983,8.29586491329968,-5.1874429703980685,-0.6629002837441861,-0.0195646993815898,-0.0161855984479188,-0.0037276425864547,-0.5875258430898075,0.0177015844595628,0.7304006866109737,-0.3478718675629651,-0.0028794181998819,-0.0109551521018147,-0.0263932608067989,0.001258373260498,-0.0015176832675933,-0.0024241246283054,-0.1081384494900703,-0.0044748075306415,-0.0370399831056594,-0.0874631851911544,-0.0184049868710339,0.0094857673563063,221
1733388846341299500,0.2293015075832605,0.0908271028727293,0.0694167236406356,8.297498067459463,-5.183891999918222,-0.6702119219318032,0.0189885683357715,-0.0186662636697292,-0.0232144929468631,-0.5872163188660315,0.0172614859771031,0.7306663672950948,-0.3478587821117894,0.0051952861249446,-0.0112230125814676,-0.0353700444102287,-0.0114093422889709,-0.0003549307584762,-0.00804078951478,-0.1399745494127273,0.0046404767781496,-0.0413800581365823,-0.0973104611039161,-0.0258081757996231,0.0467772410050034,222
1733388846381299500,0.1668786614179611,0.0721820236355066,-0.0955319195628166,8.305154135170579,-5.171681922164559,-0.6697142015427351,-0.0195078682154417,0.0096169896423816,-0.0446849018335342,-0.5874886271586747,0.0167234704056374,0.7306615139412993,-0.3474352083514004,0.0233383364975452,-0.024776317179203,-0.043569516390562,-0.0099983215332031,0.0024228990077972,-0.0021098870784044,-0.1758841276168823,0.0195864625275135,-0.0160188223868608,-0.098319724202156,-0.0293829655464738,0.0178124278053641,223
1733388846421299500,0.0896405234366655,0.0166121121048927,-0.0671463675558567,8.313408753296732,-5.157411404749751,-0.6773001266270876,-0.0188681781291961,-0.0289542209357023,-0.0277690198272466,-0.5876289064767327,0.0163078658296704,0.7309355292192351,-0.3466404780617085,-0.0383750945329666,-0.0398479476571083,-0.0685222744941711,0.0010226368904113,-0.0041496902704238,0.0060318708419799,-0.2005307823419571,0.0191199090331792,-0.0665571694910526,-0.1170650720596313,-0.0214158591248095,-0.0327170053400099,224
1733388846461299700,0.1999573396772146,0.1235585751295089,-0.0009434183299541,8.318312891951203,-5.147940396571159,-0.6890359379325062,-0.0337032563984394,-0.0057849413715302,-0.0368265323340892,-0.5875162565725346,0.0160821770456302,0.7313497243065792,-0.345967680034057,-0.0179425235837698,-0.0309351459145545,-0.0836145356297493,-0.0056419372558593,0.0027071833610534,0.0035030879080295,-0.2159582376480102,0.0147809255868196,-0.056054480177164,-0.1010760068893432,-0.0159632197421044,0.0121992640987038,225
1733388846501299700,0.1693903519779443,0.0865618466436862,0.0738170044261962,8.327181842583418,-5.1321916232973335,-0.6993026265334338,-0.0134924687445163,-0.0215879436582326,-0.0473905801773071,-0.587632394296375,0.0156863222928403,0.7317160988393321,-0.3450124541299165,0.0004213037900626,-0.0198987927287817,-0.0665381476283073,-0.0122279524803161,-0.0040141642093658,-0.0019938964396715,-0.2128259092569351,0.0182227678596973,-0.0027905075013637,-0.082220122218132,-0.0283829947236925,-0.030234540874511,226
1733388846541299500,0.1790630202084779,0.000589198064804,-0.034636356030032,8.338757714086771,-5.112059520372748,-0.7087634786441922,-0.029829379171133,-0.0140342246741056,-0.064121127128601,-0.5877259442699937,0.0148035555845235,0.7320640237928225,-0.3441530629899643,-0.0123685272410511,-0.0280522182583808,-0.0481695309281349,-0.0024706721305847,-0.0089208930730819,-0.0010584611445665,-0.1873742192983627,0.014671760611236,-0.0501321043908596,-0.0696293413639068,-0.0157816526301205,-0.0394100732378661,227
1733388846581299500,0.1170563536286354,-0.0380617273688316,0.1304897626321762,8.35063812149465,-5.091216054308414,-0.718865624333173,-0.060773741453886,0.0192649699747562,-0.0507638715207576,-0.5881680137806986,0.0146542439324351,0.7324187318639814,-0.3426463888251786,0.0171859022229909,-0.0121735483407974,-0.0488827899098396,-0.0023697614669799,0.003024935722351,-0.0030412673950195,-0.1541297435760498,0.0071060215122997,-0.0459767382770776,-0.0586921200156211,-0.0140302058529108,-0.0635157559685409,228
1733388846621299500,0.0622130028069019,-0.0181692784190177,0.2145160263836383,8.360438800019026,-5.075494753563404,-0.7161013472516089,-0.0031806048937141,0.0300370696932077,-0.0403017364442348,-0.5888637064952089,0.0145628220346231,0.7323243360493159,-0.3416555665381018,0.0077069131657481,-0.0150972735136747,-0.0484662055969238,-0.0057711601257324,-0.0010222345590591,-0.0061063785105943,-0.1103278324007988,0.0018422738648951,-0.0532727405041456,-0.0454776026308536,-0.0099705551985651,-0.0653458940051496,229
1733388846661299500,0.0228378547519445,-0.0533662640064954,-0.0402781613092869,8.368388882240653,-5.063191736829281,-0.7103034746278077,0.0029717902652919,-0.002617938676849,-0.0337244048714637,-0.5893118927190101,0.0140210875885633,0.7321330523893081,-0.3413152138824907,0.0144537659361958,-0.0182477924972772,-0.0449417755007743,-0.004367709159851,0.0049950331449508,-0.0058845281600952,-0.0613835155963897,-0.0083672665059566,-0.0351730201900005,-0.0246077757328748,-0.0176171244289726,-0.0561952038221061,230
1733388846701299700,0.0229079973787069,-0.0397965883374214,-0.022844284492731,8.37430541280806,-5.052969618022441,-0.7133722876138985,-0.0388758555054664,0.0104520134627819,-0.0217741671949625,-0.5895323129242273,0.0138257908675012,0.7322436149150215,-0.3407049199048819,0.0233947951346635,-0.0108077721670269,-0.035727173089981,-0.0003289580345153,0.0065290927886962,-0.006057858467102,-0.0262275338172912,-0.0184066109359264,-0.0327834947049617,-0.0158411189913749,-0.0132469465207308,-0.0515573148883879,231
1733388846741299700,0.1722001487016677,-0.0489595534801483,0.0772633454877883,8.379289630961418,-5.044105343565344,-0.7175624327801168,-0.0409726202487945,0.0198096353560686,-0.0278820414096117,-0.5898694164650745,0.0140855545015923,0.7323845294487777,-0.339806672350783,0.0597954131662845,-0.0115031776949763,-0.0249286536127328,-0.0022252202033996,0.0079999268054962,-0.0053895711898803,-0.012795615941286,-0.0304349046200513,-0.0519955601751804,-0.0068158991634845,-0.0184773214548826,0.0085546239860355,232
1733388846781299700,0.1069721819877624,-0.002681786429882,0.0904980901140719,8.386607260498405,-5.032323720356822,-0.7147866844564675,-0.0321348160505294,0.0407856591045856,-0.0347510874271392,-0.5905273811574876,0.0142708518537479,0.7322843181415677,-0.3388707874578707,0.0551777593791484,-0.0149249667301774,-0.0282983519136905,-0.0038141012191772,0.0051526129245758,-0.003372548148036,-0.0131166987121105,-0.0359652079641819,-0.0290834711432456,0.0069864215329289,-0.0129502285964787,0.0336712373249232,233
1733388846821299500,-0.0097813893020153,-0.0341419235765933,-0.0601099661130458,8.393827274879813,-5.021215466365218,-0.7081301491767168,-0.0162035357207059,0.0190556421875953,-0.0215860661119222,-0.5912025171329772,0.0142676861940607,0.7320526082208224,-0.3381937766053368,0.0480002723634243,-0.0125804794952273,-0.0282088704407215,-0.0080525279045104,0.0009295493364334,0.0010257959365844,-0.0142011903226375,-0.0366332903504371,0.0047813890576362,0.0153840938583016,-0.0072907415300607,0.0520556197993457,234
1733388846861299500,0.0402174440979957,-0.0660457128375768,-0.1418389127075672,8.397247896978259,-5.015348035636544,-0.7091499937437474,-0.0692718178033828,0.0251050125807523,-0.0077299056574702,-0.5915949494174262,0.0146824087683668,0.7320799228017485,-0.3374297586793315,0.0631813555955886,-0.007020597346127,-0.021265210583806,-0.0064964294433593,0.0037747770547866,0.0090534687042236,-0.0164686515927314,-0.0348415076732635,0.0346171398729085,0.0180019866675138,0.0060610536046326,0.0546197711989283,235
