frame,pose_x,pose_y,pose_z,ori_x,ori_y,ori_z,ori_w,phone_acc_x,phone_acc_y,phone_acc_z,phone_gravity_x,phone_gravity_y,phone_gravity_z,phone_gyro_x,phone_gyro_y,phone_gyro_z,phone_ori_w,phone_ori_x,phone_ori_y,phone_ori_z,watch_gyro_x,watch_gyro_y,watch_gyro_z,watch_acc_x,watch_acc_y,watch_acc_z,headphone_gyro_x,headphone_gyro_y,headphone_gyro_z,headphone_acc_x,headphone_acc_y,headphone_acc_z
0,0.028969,0.228128,0.318436,0.161597,0.134051,-0.648778,0.73144,-1.86802733002007,15.55026964008808,-3.698944534307718,-0.3479557613952085,9.799236508873104,-0.1557195722882635,-1.993754744529724,0.5733335018157959,0.1315877586603164,0.381570771901588,0.3662125872548213,0.6114146136487055,0.5886120433601594,1.6497844457626345,1.7606326341629028,-1.0820471048355105,-1.5683302879333496,1.0126752853393557,-0.3071987628936767,0.206733226776123,0.0306842327117919,0.5153922393590211,-0.79490065574646,0.0314525018295273,0.2046707780651748
1,0.030695,0.216361,0.317741,0.163003,0.127147,-0.652921,0.728669,3.0548756461530924,9.094988754087684,-6.947907166799903,-0.408684261265397,9.764436413648724,0.8118675870269536,-2.885337352752685,0.2766208052635193,-0.4976058304309845,0.3932851912399742,0.3377176503860721,0.5869864236198714,0.6218685011490097,3.1807048320770264,2.491422414779663,-2.000202178955078,-1.0118587017059326,0.9521340727806092,0.0128232240676879,0.1560060381889343,-0.0723293349146843,0.4041284976571798,-0.6576107740402222,0.2180252035483717,0.798550717075169
2,0.033032,0.192381,0.30873,0.147216,0.109875,-0.660886,0.727657,2.6675419236913323,-2.1397727255791423,-6.236138368859887,-0.6915773660436272,9.587684592992067,1.941239865747094,-2.70808744430542,-0.7889884114265442,-0.922622799873352,0.4263552730604976,0.309933489666059,0.552236857414772,0.6459078187504573,2.0680856704711914,2.2200803756713867,-2.7984728813171387,-0.0879019498825073,0.4017518758773803,0.5893118381500244,0.1108724474906921,-0.03245210647583,-0.0468985292971134,-0.3884386718273163,0.207359542225115,0.6339230494543909
3,0.043443,0.124007,0.27675,0.076535,0.05277,-0.692814,0.715099,1.3662427602529523,-11.160741719210147,-4.741814003095031,-1.021776996397972,9.317804406782985,2.881818296100199,-2.3379228115081787,-0.0832647234201431,-0.8926307559013367,0.4560051737145429,0.281513429216407,0.5232765456252947,0.6625640731887897,1.8928860425949097,1.697795033454895,-2.466555118560791,0.8038634657859802,-0.0664014220237732,0.6996009349822998,0.0772755891084671,0.0850129351019859,-0.5540244600921869,-0.1842698901891708,0.0188192667603492,0.0743839175939559
4,0.047004,0.091713,0.266923,0.047308,0.034695,-0.706048,0.70573,-0.7578207203451544,-16.96930291028619,-0.4275517510816454,-1.2019828299660236,9.031476359120012,3.6274019776195288,-1.4307535886764526,-0.5352872610092163,-0.1767496168613433,0.4785415099319735,0.2612997535195732,0.4967659519102369,0.6752362229466424,0.5157505869865417,0.8155475854873657,-1.4547972679138184,1.351942777633667,-0.5697624683380127,0.5511072874069214,0.0496287271380424,0.1792117059230804,-0.7785615297526121,-0.1346387863159179,-0.0515921670060604,-0.4306320353098213
5,0.049141,0.065737,0.258933,0.023403,0.014464,-0.712834,0.700793,0.4165962764989584,-15.974976230871675,2.052411252990365,-1.098045924020931,8.936471678301691,3.8864059650272127,0.0431377477943897,-0.466626763343811,0.1856397539377212,0.4854904779137872,0.2623125158570593,0.4827427687584954,0.6800371532865391,-0.207089364528656,0.2434450536966323,-0.2337071150541305,1.371883749961853,-0.6250182390213013,0.328055202960968,0.0256656091660261,0.2161041647195816,-0.7321288644015789,-0.2071855217218399,-0.0432034741714596,-0.6209622994638979
6,0.04929,0.048889,0.253029,0.003407,-0.00626,-0.713881,0.700231,0.4966036599978804,-13.087861289668082,2.73880741700381,-0.9654184917729348,9.058571286794542,3.630517187030613,1.3986560106277466,-0.0251671057194471,0.328494131565094,0.4802651589856686,0.275333213158148,0.4889649844052698,0.6741293555462116,-1.052118897438049,-0.2769646346569061,1.1225109100341797,1.2575054168701172,-0.6259588003158569,0.3921239972114563,-0.0027235206216573,0.1999480724334716,-0.463259901061654,-0.2941118478775024,-0.2084014890260994,-0.278409821884334
7,0.047962,0.038703,0.251287,-0.006051,-0.016528,-0.711376,0.702591,-0.2456394789218902,-7.98412711457014,1.842036856456101,-0.7976338214259594,9.35794937016666,2.821867685267329,2.9521617889404297,0.151213601231575,0.7650197744369507,0.4609971934118878,0.3001239751892455,0.5158007308580181,0.6567775318357515,-1.899113416671753,-0.7404425740242004,2.2339084148406982,0.9116061329841614,-0.3820057511329651,0.3377229273319244,-0.0180535018444061,0.2142387926578521,0.1479758080273866,-0.1008141636848449,-0.0214257959969341,0.7799601445041596
8,0.046468,0.034227,0.251712,-0.006874,-0.023148,-0.706184,0.707617,0.3174618389321491,0.7794581863313913,-2.5515058530211445,-0.4367228629982099,9.63950771920979,1.7491493139222265,2.3816919326782227,0.4879733622074127,1.1113123893737793,0.4261877734015417,0.3313868946597116,0.5486355164777468,0.6383930210899854,-1.926838755607605,-1.64763605594635,2.041935920715332,0.2747668027877807,0.1022230386734008,0.251567929983139,0.0119410380721092,0.137169063091278,0.4263689710378646,0.0578806698322296,0.0024259850379079,0.3210493785627186
9,0.046015,0.034275,0.251189,-0.003557,-0.023011,-0.704795,0.709029,1.4640981543272733,4.8925902554959055,-2.353932193610072,-0.1016477720946073,9.757678756082058,0.973525225860998,1.764638066291809,0.3145255148410797,0.6657485961914062,0.3963886948779447,0.3528839406524683,0.5708212947390803,0.6265077227765573,-0.7186352014541626,-1.2587887048721311,1.454331398010254,-0.6275637745857239,0.3288862705230713,-0.0040801465511322,-0.0655832812190055,0.0719963461160659,0.2495166126161813,-0.0244593322277069,-0.0343824543341994,0.0755496003724634
10,0.0456,0.034926,0.251814,-0.001286,-0.022497,-0.703978,0.709864,1.9327555305182933,9.027446665212512,-0.3786100255191326,0.0445558523282175,9.803397720205783,0.2485749113192781,1.855635643005371,-0.081657201051712,0.1349898874759674,0.377759831913938,0.370994315734134,0.5913454358189217,0.6082526312895615,-1.5619105100631714,-1.3474361896514893,1.066376805305481,-0.4732155799865722,0.2991508245468139,-0.0941227078437805,-0.1050116270780563,0.0765675008296966,0.0627805735617876,-0.1290455162525177,-0.0651728024605661,-0.1612152288287878
11,0.045503,0.034826,0.251878,-0.001669,-0.02267,-0.704016,0.70982,0.7478659472376108,6.17522008203864,-2.668911750739813,0.0187274705658492,9.802633165574074,-0.2799967805485241,0.774625837802887,-0.0234793554991483,-0.2124276161193847,0.3682594199223383,0.3800908424359968,0.6081174348580667,0.5917001515013128,-0.8891425132751465,-0.8508071303367615,0.5271034836769104,-0.5201258063316345,0.4468727111816406,-0.1001455187797546,-0.0911682248115539,0.0499291382730007,0.0652349809765815,-0.1520183533430099,-0.0641769232910126,0.0292221489615738
12,0.046483,0.032703,0.249047,-0.003698,-0.023876,-0.704035,0.709754,0.0882291770677082,4.333270611605048,-1.3861948304355145,-0.0768568013803567,9.795361128744483,-0.4640744323149323,0.2395751327276229,-0.1207519844174385,-0.2211407423019409,0.3687285059398514,0.3817993779552968,0.6147279442028407,0.5834192589582409,-0.454816609621048,-0.427520602941513,0.0981127023696899,-0.5524666905403137,0.302642285823822,-0.1797018051147461,-0.0243515446782112,0.0658359974622726,-0.0378518840104341,-0.15397709608078,-0.0944417862385511,-0.0974792542383074
13,0.046635,0.031647,0.246389,-0.010581,-0.029432,-0.702151,0.711341,0.0593571019191294,1.9371078805089,-0.8380476648788898,-0.1533294622813351,9.793431621986628,-0.485346535587497,-0.0951577052474021,-0.1417809575796127,-0.1564578115940094,0.3720029215535667,0.3812978027395023,0.6159202648363161,0.5804033206811164,-0.1077558621764183,-0.1076830998063087,-0.0032445460092276,-0.206770658493042,0.1958394050598144,-0.0538848638534545,0.0225740931928157,0.0368959717452526,-0.002232289096713,-0.1614772081375122,-0.0442603628132492,-0.1928533528909087
14,0.047287,0.038754,0.245216,-0.007678,-0.033195,-0.701023,0.712325,0.2222275506090372,0.3854167829245328,0.1217278525710105,-0.200979193538241,9.79517817339301,-0.4295326227005571,-0.15116848051548,-0.0954292863607406,-0.0822718292474746,0.3759466235939871,0.3802695739468512,0.6142435354653336,0.5803138391560609,0.0082863252609968,-0.01454324927181,-0.0986317843198776,-0.0866879820823669,0.0935883522033691,-0.0403365492820739,0.0554037131369113,-0.0125684663653373,-0.0428016153723001,-0.1227529942989349,-0.032870223140344,-0.1698296201780438
15,0.048645,0.060876,0.247181,0.004259,-0.012064,-0.703921,0.710163,-0.0618948402358218,-0.6483534336060285,0.5451637292990461,-0.2215185986220836,9.79629811733365,-0.3922342078544199,-0.0067221168428659,-0.0072534335777163,-0.0045016249641776,0.3779280904858353,0.379595358121709,0.6131115253856301,0.5806650644319429,0.0647088512778282,-0.0501375682651996,-0.0490734204649925,0.039893627166748,-6.568431854248047e-05,0.013267159461975,0.0657123178243637,-0.0208899360150098,-0.1076817915618419,-0.0509566068649292,-0.0489531237393617,-0.1916027683079242
16,0.046393,0.097904,0.253842,0.030364,0.026696,-0.701259,0.71176,0.2295160088504664,-0.8027700883358716,0.5058441108236089,-0.214103134733811,9.795390939360855,-0.4181567672813311,0.1279776096343994,0.0425617136061191,0.0024527260102331,0.376769500381115,0.3798655436702421,0.6140213597024048,0.5802797917846689,0.050143226981163,-0.1012592911720275,0.0503676831722259,0.0596351623535156,-0.0385137200355529,0.0094978809356689,0.0526757910847663,-0.0148557508364319,-0.1409668060481548,0.0132521092891693,-0.0728832307074218,-0.1894645872354507
17,0.041403,0.14212,0.26737,0.068287,0.064268,-0.690374,0.71735,0.1992234724447131,-0.1979839937776327,0.3433282842576503,-0.2206217228475958,9.792148596438764,-0.4853350278127938,0.2119909524917602,0.0641062632203102,-0.0295312274247407,0.3752883380176668,0.3805575093635333,0.6163774671226669,0.578284995981763,-0.097014270722866,-0.1876608729362487,0.0980291441082954,0.0457324981689453,-0.0552783012390136,0.0089358687400817,0.0457311943173408,-0.0049034534022212,-0.1868190411627292,0.0416641682386398,-0.0433743737589567,-0.2015615600034594
18,0.025741,0.214474,0.303323,0.145687,0.114726,-0.653675,0.733704,0.0818951517405919,2.748288654315472,-0.1057423113992437,-0.2557740655757486,9.785057176873089,-0.5980035582786426,0.3426884710788727,-0.1859892159700393,-0.2119526118040084,0.3735770984488606,0.381006451951335,0.6207445367515274,0.5744130950357998,-0.1773993819952011,-0.1567953079938888,0.152220144867897,-0.0623893141746521,0.0509877204895019,-0.0163229703903198,0.1244941651821136,-0.0222470164299011,-0.3311211291134357,-0.0866593718528747,-0.1209450316302478,-0.2521443307712674
19,0.019362,0.230683,0.31586,0.170383,0.1225,-0.640126,0.739055,-1.807604717761278,10.071397499495744,-1.485044496244192,-0.316800562011823,9.782520351871849,-0.6101806470781564,-0.5892030596733093,0.0211557354778051,0.1560387015342712,0.3784333291072386,0.382890335556538,0.6200851112498361,0.5706817846192742,-0.1193944066762924,1.0769455432891846,-0.0873780623078346,-0.8066057562828064,0.3834226131439209,-0.2211018800735473,0.1906910240650177,0.1406609565019607,0.3096405341893434,-0.3023436665534973,0.0271072756994515,-0.2784168361470103
20,0.017456,0.231026,0.320375,0.178262,0.121437,-0.637663,0.739501,2.27189396187067,14.74119548317194,-4.082565081465244,-0.2778233637658879,9.802665314278006,0.0311268569216015,-2.566710948944092,0.5950939655303955,-0.0819857642054557,0.3846718962688385,0.3665055908575608,0.603395909742276,0.5946550479584191,3.02795958518982,1.8400511741638184,-1.18639075756073,-1.1663367748260498,1.2380012273788452,-0.4804196357727051,0.1724349111318588,0.0706953555345535,0.5959381867140531,-0.4020262360572815,0.0998950832083821,0.0184381584882736
21,0.019531,0.216196,0.317241,0.172532,0.114457,-0.642866,0.737466,2.5976781138703227,6.901189254766702,-5.383854600292444,-0.4288306849762797,9.72863620147109,1.1576396111749112,-3.146212577819824,-0.0242283456027507,-0.7194112539291382,0.4058140036279113,0.3355189301666741,0.5730653145934924,0.6279635223385032,3.02522611618042,1.8458205461502075,-2.0309157371521,-0.6845278739929199,0.6815420389175415,0.0581690073013305,0.1382279247045517,-0.0033193528652191,0.6099661275446414,-0.2188019901514053,0.1852564680211245,0.5193612891204655
22,0.024315,0.188778,0.306653,0.151232,0.097427,-0.654755,0.734121,2.64891554915458,-3.204721924227476,-4.449130448925495,-0.7871245562408119,9.480822301119565,2.3800911556087434,-2.975750207901001,-0.5259943008422852,-1.2146037817001345,0.4427196784707457,0.3022951403010666,0.5359727353449631,0.6521887587347224,2.320225477218628,1.414447784423828,-2.437946557998657,0.0982388854026794,0.1964393854141235,0.4935916364192962,0.0917002260684967,-0.0540919639170169,0.1839344256371259,0.0791952162981033,0.1673727285452187,0.4865156889647245
23,0.037754,0.120115,0.275467,0.077683,0.043882,-0.687448,0.720732,0.8931851032763719,-10.64375782674551,-2.3818816922873256,-1.1677703253712504,9.150674400952456,3.3274417104452847,-2.008227825164795,-0.6362875699996948,-1.0957006216049194,0.4782983318748536,0.2741996705909578,0.5051358489063891,0.663990282731524,1.437670350074768,0.7885823845863342,-1.8782776594161987,0.8564426302909851,-0.2428368628025055,0.6414036750793457,0.052911527454853,-0.0356693491339683,-0.4696498943597078,0.2323303818702697,-0.0641455783046782,-0.0463476174160838
24,0.041758,0.090355,0.262095,0.042739,0.013413,-0.698326,0.714377,0.0973572352938354,-16.05592900546193,0.0522840217277407,-1.381547150760144,8.903999149242043,3.87046546857357,-0.7447816729545593,-0.530185341835022,-0.4356727302074432,0.5030308387806292,0.2601503334478783,0.4847504368726261,0.6665573567617799,0.1018128097057342,0.2835620045661926,-0.8669725656509399,1.2124221324920654,-0.5768431425094604,0.6205388307571411,-0.0238747522234916,0.1254219710826873,-0.9190911134272812,0.2012676745653152,-0.2754730377800762,-0.5500488344594836
25,0.042664,0.068241,0.254198,0.019424,-0.008292,-0.701382,0.712472,-0.4094667899452149,-15.606011985576153,-0.0954614846751093,-1.3710704726703464,8.875162346336245,3.939800870606303,0.3081239759922027,-0.1513486504554748,0.1454771310091018,0.508337191798751,0.2618540744217433,0.480165073386757,0.6651820304180426,-0.244725152850151,-0.0333035700023174,0.3245952427387237,1.332636833190918,-0.5624014735221863,0.4859568178653717,-0.0800408720970153,0.1439120024442672,-0.7466799523234366,0.0951463282108306,-0.2129877939030528,-0.5904755373939872
26,0.039638,0.054024,0.249737,0.005057,-0.021822,-0.698429,0.715329,-0.441302847732231,-12.867779445850848,1.3347440446615215,-1.22341571329087,9.034362143689393,3.613023323655128,1.5777801275253296,0.2165295034646988,0.6240647435188293,0.4972350872802289,0.2744834629133224,0.4903528337606188,0.6610372399166817,-1.014253854751587,-0.2963841557502746,1.506247878074646,1.104542851448059,-0.5348163843154907,0.4812127351760864,-0.1052960753440857,0.1091847270727157,-0.2754021645009517,0.142197385430336,-0.1226934827327728,-0.0320467048630118
27,0.037183,0.046836,0.248963,-0.002155,-0.023027,-0.696293,0.717385,-0.2565774178478867,-6.649907386043667,1.640306369626522,-0.9707501351244748,9.344730992153286,2.81141263448745,2.6580114364624023,0.1584304869174957,0.9056284427642822,0.4735120553314259,0.3008685005549866,0.5158837083671782,0.6474013505670223,-2.018422365188598,-0.7736042141914368,2.297114610671997,0.6787012815475464,-0.4040473103523254,0.3037020564079284,-0.1064415946602821,0.1319243311882019,0.2009948660314083,0.4074658155441284,-0.0540630140990018,0.7558841262593865
28,0.034033,0.043854,0.252359,-0.001184,-0.017825,-0.694208,0.719553,0.582081510797143,2.832656790307164,0.9630752165824176,-0.6334072088867425,9.629462126013635,1.7443179482430218,2.861804485321045,0.81905198097229,1.0089924335479736,0.4371487909336385,0.3298416687476423,0.5497899677128263,0.6307427441306136,-1.9301387071609497,-1.3633579015731812,2.059886932373047,-0.0760289430618286,0.2272307872772216,0.185928463935852,-0.0529639348387718,0.0493837520480155,0.2545201199918985,0.5002908706665039,0.1431216459944844,0.2900700106702745
29,0.031449,0.041846,0.253726,0.002518,-0.013901,-0.694162,0.71968,2.512064069470763,5.327058946359157,-3.438347140228748,-0.3764364443397149,9.776014038717744,0.6769348004460335,2.3052568435668945,-0.019835639744997,0.3996212780475616,0.4065021221114362,0.3572459893232504,0.5812583191905975,0.6076760274587427,-1.460382342338562,-1.311872124671936,1.422026515007019,-0.5148128867149353,0.3691986799240112,-0.1634348630905151,-0.147517442703247,0.1903497576713562,0.1101502275019884,0.3824565410614013,0.039147330648452,0.1346867028653621
30,0.03055,0.04119,0.25456,0.003767,-0.013971,-0.69374,0.72008,3.6013217799454926,8.450272800201176,-2.126883433389664,-0.3357804626939818,9.800876092773676,-0.0219123259884188,1.4204964637756348,0.1025730222463607,-0.2231591790914535,0.3908852047957135,0.3713414587947563,0.6026796318523551,0.5882955070167686,-1.2945160865783691,-1.0591706037521362,0.7022622227668762,-0.4888703823089599,0.4726070165634155,-0.1151673793792724,-0.1787766069173813,0.1820558309555053,0.0373866045862436,0.2935501635074615,-0.0453181282378733,0.0192331082582473
31,0.029998,0.039691,0.25411,0.001718,-0.016742,-0.692873,0.720863,-0.8039530145101249,5.396047726911306,-3.1208827805459496,-0.4407324274331331,9.790223181334138,-0.3572941927026957,0.3474438786506653,0.2824417054653168,-0.1926922798156738,0.3864519633800952,0.3735001983759758,0.6153978684447551,0.5765742963167918,-0.6468164324760437,-0.6709645390510559,0.1473060846328735,-0.5248971581459045,0.4384402632713318,-0.1755619049072265,-0.1858839243650436,0.2901458144187927,0.0145364748746156,0.2172427773475647,-0.0414089919701218,-0.0449153926558792
32,0.028911,0.035265,0.252427,-0.003577,-0.020873,-0.691851,0.72173,0.2737029228350147,3.4504262850791214,-0.9485714749336244,-0.4978598706040531,9.785018598428367,-0.4194157543664797,0.0041582942940294,0.1395294219255447,-0.1474064886569976,0.3837305308394362,0.3694614189245492,0.6203890007571274,0.5756444373900391,0.0087521113455295,-0.2157701104879379,-0.0393671952188015,-0.3349022269248962,0.2963642477989197,-0.098764419555664,-0.1744715571403503,0.2255835235118866,0.0405126276522874,0.0691521614789962,0.0871399387925863,-0.1770379441216588
33,0.029624,0.0332,0.24804,-0.013226,-0.0282,-0.691467,0.721736,-0.5718562501851469,1.0139584316015242,-0.8932979160010814,-0.5236407930705697,9.786734754696488,-0.3406142029933631,-0.3727296888828277,0.0229166392236948,-0.0086172353476285,0.3856161640589621,0.3667138390921834,0.6187790001797299,0.5778700232445029,0.0028540091589093,-0.0879844427108764,-0.1353970468044281,-0.1517103910446167,0.0588173270225524,-0.0594608783721923,-0.1499491035938263,0.1921923011541366,-0.0307698167949914,-0.0503971949219703,0.1371234284929931,-0.0818586373887956
34,0.032533,0.041639,0.247787,-0.008905,-0.023604,-0.695071,0.718498,0.1571573682727292,0.0242255097180604,0.8491337801039218,-0.5263135924763978,9.790206814721229,-0.2127249051831662,-0.1926946938037872,-0.042633693665266,-0.023736223578453,0.388084088030573,0.3641042797375542,0.6150398569736841,0.5818461049273091,0.0815972909331321,-0.1268981248140335,-0.1561082601547241,-0.0140441060066223,0.01554536819458,0.0104559063911437,-0.1177036091685295,0.1628551930189132,-0.0882353328138589,-0.1084990203380584,0.1429002583287656,-0.0119780225634574
35,0.035872,0.063911,0.249109,0.002161,0.000586,-0.699233,0.71489,-0.0644957799818366,-0.8717804961979388,1.030134490376711,-0.5410873101729899,9.78958196082115,-0.2041349176228046,0.1264848411083221,-0.0458156280219554,-0.057143460959196,0.3893356001806715,0.3641601147576729,0.6146506285140371,0.5813860113728697,-0.2446460574865341,-0.157059758901596,-0.0228894874453544,0.0439227819442749,-0.1164677143096923,0.0179929062724113,-0.0898115113377571,0.1613445729017257,-0.1311369014292955,-0.1321534961462021,0.070871087167412,-0.0636680239208042
36,0.035799,0.100048,0.254957,0.024864,0.034221,-0.69425,0.71849,0.1724375376541167,-0.743188018554449,1.08021164970994,-0.5694264292223379,9.785189863342046,-0.3101758831750601,0.3921853601932525,0.0476264916360378,-0.0782108232378959,0.3882106557525129,0.3653866307425416,0.6183099375227742,0.5774755309381602,-0.3317862749099731,-0.2714132964611053,0.085203155875206,0.0794126391410827,-0.0532159209251403,0.0191497839987278,-0.105303093791008,0.2020055949687957,-0.1370417415589094,-0.1047004386782646,-0.0129734633415937,-0.1524362945675849
37,0.033232,0.144175,0.266078,0.06238,0.058102,-0.682272,0.726111,0.0096168098574504,0.1481049873650073,0.5839525653660297,-0.5929040431825444,9.777207632416486,-0.4744175106203183,0.4165420532226562,0.140572503209114,-0.0532993897795677,0.3847424548462782,0.3667133393805741,0.6242674816515283,0.572524878848305,-0.2757853269577026,-0.2724378705024719,0.1121948286890983,-0.0054327249526977,-0.0045827627182006,-0.0224308371543884,-0.1268386840820312,0.1723846644163131,-0.0996802714139223,-0.0596832744777202,0.034142508098483,-0.2168665350325405
38,0.025338,0.219964,0.295496,0.132121,0.102722,-0.655392,0.736515,-1.2807700240202249,3.1631998272717,-0.3676877225536852,-0.594189370285347,9.769380884313582,-0.6136361212942749,0.2089979648590088,-0.0910968631505966,0.0650109648704528,0.3815722780728047,0.3687546995993334,0.6287342109388713,0.5684329427659759,-0.1884994357824325,0.2263638973236084,0.1370666325092315,-0.2839601039886474,0.1446092128753662,-0.1558446288108825,-0.1553943008184433,0.161901518702507,-0.3837964882463217,-0.0335504859685897,-0.2437155251219868,-0.2052890560939907
39,0.022194,0.239071,0.305419,0.153057,0.121125,-0.646537,0.737491,-2.639714590089023,9.77690192746818,-1.7956652736425398,-0.5150949369128793,9.779834473788735,-0.5098014336146414,-0.8951249122619629,0.2926619946956634,0.4306390285491943,0.3818241890244193,0.3699186853575649,0.6238211321448963,0.5729028386118545,0.86054927110672,1.5191408395767212,-0.1187511682510376,-1.0559390783309937,0.6400058269500732,-0.3072476387023926,-0.1299530565738678,0.2431211769580841,0.3676058164238929,-0.0947017148137092,0.0523275686085224,-0.2674836464613676
40,0.02053,0.243674,0.309705,0.16044,0.127605,-0.643541,0.737449,2.5753613603830336,13.44292560442686,-2.740119376385212,-0.4110029500039294,9.797588741666075,0.0933298977402038,-2.179081439971924,0.6615373492240906,-0.1647252142429351,0.3837559348617155,0.3549646100868076,0.6076525530081851,0.5979045466205182,2.3559730052948,1.9004887342453003,-1.035381555557251,-0.9901496171951294,0.8888381123542786,-0.3436943292617798,-0.1014757081866264,-0.0013789683580398,0.7454097862571477,-0.2801622450351715,0.1529826764039695,-0.0549400891944766
41,0.020534,0.233942,0.308312,0.155643,0.125912,-0.644711,0.737746,2.5754659898012875,8.311701364856958,-4.039418013656139,-0.6285309811525046,9.731300452244282,1.037837758230418,-2.497653245925904,-0.5579909086227417,-0.8794293999671936,0.4056824564007918,0.3279213428123347,0.58271141595829,0.6231666286885462,1.6747901439666748,1.725463628768921,-1.7021887302398682,-0.6566117405891418,0.4935016632080078,0.0337035655975341,-0.0698590129613876,-0.0343494564294815,0.5593424402445555,-0.1336076706647873,0.0599447656139731,0.6867750803284347
42,0.023317,0.21126,0.301348,0.141773,0.115274,-0.650375,0.737309,1.2998638699382543,-1.4398352352082728,-4.166489565342665,-0.942080432413891,9.53702524985671,2.0803923158496618,-2.516004800796509,-0.8793779015541077,-0.9173540472984314,0.4447896813246417,0.3062196242107636,0.5478677359319081,0.6389309072892343,1.5021470785140991,1.2120723724365234,-2.084679126739502,0.0437461733818054,0.2223248481750488,0.4546166658401489,-0.0182582028210163,-0.0508539080619812,0.3075467767804861,0.142964020371437,0.2084523424305021,0.6727478701502084
43,0.036639,0.143399,0.279859,0.09458,0.067551,-0.682274,0.721799,1.0963349553845825,-9.3402132224679,-2.325918105264008,-1.2000340339858084,9.270183992952107,2.9654692237332463,-2.134210586547852,-0.1292340755462646,-0.6230734586715698,0.4732760071052673,0.2820988480345555,0.518867410139177,0.6536105731206026,2.0154473781585693,0.6847391724586487,-1.783191800117493,0.7888782024383545,-0.1035511195659637,0.5832314491271973,0.0128710493445396,-0.0930404514074325,-0.2987304331183433,0.2274630963802337,0.207418469338119,0.157699329662323
44,0.041083,0.11231,0.269884,0.071718,0.037856,-0.696201,0.713252,1.181915828166902,-14.069298092371223,-0.8454787647277117,-1.3396337163992225,9.020974254328012,3.6052450908690687,-1.1634100675582886,-0.1967045664787292,-0.2433744072914123,0.4899232251618907,0.2629868288906776,0.4970126649489382,0.6661768481122854,1.366020917892456,0.2262675017118454,-1.0063506364822388,1.199848175048828,-0.445237398147583,0.5271743535995483,0.0011493247002363,-0.063241422176361,-0.5700479586541652,0.1480222344398498,0.1661938940241932,-0.3229651490561664
45,0.043581,0.08824,0.261787,0.05137,0.015893,-0.704217,0.707946,1.0690807454951108,-13.978803582453727,-0.695005586926639,-1.373293993938714,8.944394872516392,3.7791859457582233,0.069564864039421,0.1316805928945541,0.0044219056144356,0.4941562717377505,0.2576387239375455,0.4908537687092515,0.6696972996578954,0.201574295759201,0.1587247252464294,-0.1303685307502746,1.2686243057250977,-0.5390241146087646,0.5818536281585693,-0.0580630376935005,-0.0042589083313941,-0.7306447633236646,0.0180718153715133,-0.0260034791760146,-0.5142829629428685
46,0.044797,0.072076,0.255324,0.032544,0.000101,-0.706631,0.706833,0.0584068885222077,-12.532588875341414,-0.8939894053965807,-1.3589075950592755,9.01820011343956,3.604973580451309,0.8945038914680481,0.1418330520391464,0.234030619263649,0.4889245403748695,0.2611886240086783,0.4979739001794298,0.6668998472876099,-0.543178141117096,-0.062576338648796,0.8570048213005066,1.101171612739563,-0.5732154846191406,0.5568958520889282,-0.1339818388223648,0.0936041548848152,-0.4700017765372991,-0.1192711591720581,-0.0808706492647528,-0.3960496744893491
47,0.04553,0.061513,0.2507,0.014864,-0.010064,-0.706784,0.707202,-1.0528811597138643,-9.221358879506589,0.6019689913108944,-1.223256284945458,9.24559958679378,3.0319799237340685,2.069387435913086,0.1317913979291916,0.7391144037246704,0.4723081348140723,0.2775389540447192,0.5180580763938091,0.6568963712829218,-1.446315050125122,-0.2316307127475738,1.6511489152908323,0.8210291266441345,-0.4439000785350799,0.5858660936355591,-0.1885726749897003,0.1314937621355056,-0.3034387569397688,-0.0456375926733017,-0.259524796411395,0.409666111909598
48,0.043953,0.053879,0.246542,-0.005057,-0.014773,-0.703447,0.710576,-1.5112472973845898,-0.796344439202547,-0.6362614292740821,-0.8042452754549682,9.507347904473542,2.2658152264788747,2.074409484863281,-0.2116777598857879,1.2734724283218384,0.4476351093913951,0.3095997027183683,0.5372370056335416,0.6443192460298717,-1.8811098337173464,-0.8192174434661865,2.059979200363159,0.2130259275436401,-0.1198126673698425,-0.0466479957103729,-0.0762876868247985,0.0247782468795776,0.7240478492766619,0.1448418796062469,0.3223530085071921,0.6706152420356869
49,0.042981,0.05334,0.247696,-0.00422,-0.010183,-0.702619,0.711481,3.520618011680245,6.0145198169946665,0.4834058863811195,-0.4689087571362033,9.690245388278363,1.431655874275416,2.076310396194458,-0.402109682559967,0.5069937705993652,0.4258358708411531,0.3410655959689762,0.557386870840271,0.6258257464843161,-1.53046452999115,-1.0257422924041748,1.4917370080947876,-0.4260619878768921,0.3328811526298523,-0.0935415029525756,-0.1165473982691764,0.0174708627164363,-0.3467781324505806,-0.0143085867166519,-0.3416524599999189,-0.1756818533375859
50,0.042646,0.053547,0.249494,-0.001602,-0.004571,-0.703075,0.711099,0.8457504212759435,7.327843472486734,-0.6054437547493726,-0.3203727579427883,9.771693837431071,0.7627129493661224,1.5067988634109497,0.1618528664112091,0.1734663099050521,0.4091617863984649,0.3598080092077312,0.5758911862014359,0.609486718020559,-0.8720101118087769,-1.0104295015335083,1.101691961288452,-0.4518534541130066,0.4444201588630676,-0.1521638035774231,-0.1194327101111412,0.1008944660425186,0.2228133146077394,-0.0667292773723602,-0.126112497396022,0.3706530751653015
51,0.042155,0.053669,0.250865,-0.000278,-0.000367,-0.703504,0.710691,-0.032577377673611,5.3577393313050266,-1.2190075414597987,-0.2960269280469976,9.799502466332912,0.2291550300509668,1.1706336736679075,0.3133878707885742,0.0063196355476975,0.3962079559758247,0.369311279344575,0.5932331111524483,0.5955694237861212,-0.879097580909729,-0.5994299650192261,0.6834299564361572,-0.6185464859008789,0.3832321166992187,-0.1698009967803955,-0.0151684135198593,0.1469178795814514,0.1228074645012617,-0.0139589272439479,-0.1220199673853814,0.1477075124800205
52,0.040877,0.051081,0.251681,-0.004101,0.002957,-0.704787,0.709401,0.8564440300520509,3.64032341851294,-1.5902186888992786,-0.32074140859209,9.799976513585449,-0.1672754421832039,0.7841170430183411,0.5033462047576904,-0.1148282811045646,0.3836812183268503,0.3705505655041869,0.6092790433284176,0.5867368344652226,-0.5261131525039673,-0.2456927895545959,0.361374169588089,-0.2905384302139282,0.2916661500930786,-0.0828818529844284,0.00687194801867,0.0789444297552108,0.0271159704625606,-0.0146098705008625,-0.0936205329835414,-0.0296805602535605
53,0.040563,0.048459,0.250968,-0.013476,0.004151,-0.70811,0.705962,0.3767907011374831,1.7207114472061396,-2.040678145098686,-0.3712538175374269,9.794200852793455,-0.3258408140903339,0.0226317774504423,0.1456870138645172,-0.1476162672042846,0.3789181660834217,0.36861685704266,0.6170371709840697,0.5829302500439475,-0.2524096965789795,-0.1309488415718078,0.0166499316692352,-0.2036847472190857,0.1806915998458862,-0.1438148468732834,-0.0073267864063382,0.0850490182638168,-0.1200748246669769,0.0111746685579419,-0.1094084692239761,-0.1333361650392413
54,0.039105,0.046898,0.250653,-0.015491,0.003456,-0.708491,0.705541,-0.4744974439887329,0.4168190524041652,-0.4103530712604522,-0.4017803636284545,9.795198631659147,-0.2510454478849657,-0.3413592278957367,0.203908771276474,0.0067525375634431,0.3793505449215414,0.3642267118113207,0.6165538565605096,0.5859123937163506,0.0762914717197418,-0.0505040735006332,-0.1574939042329788,-0.0682937502861023,0.1483342051506042,-0.0156911611557006,-0.0188042297959327,0.0573052354156971,-0.0389466935098171,0.0202068351209163,-0.0243486977063119,-0.0990752912580966
55,0.038192,0.046353,0.250045,-0.017556,-0.002145,-0.707577,0.706415,0.4539029477167874,0.0430617276132106,0.3854863410294055,-0.3829747965998947,9.798455003106591,-0.1183832000519149,-0.3045402467250824,0.1232430562376976,0.0285370126366615,0.3798097980871665,0.3607530602196104,0.6131012095683709,0.5913617653035297,0.065760001540184,-0.003475951263681,-0.2297417372465133,-0.0225151181221008,0.0234103798866271,-0.0036491751670837,-0.0193463563919067,0.0385428816080093,-0.059086979740858,0.0120022119954228,-0.0278871009655296,-0.0493286790534853
56,0.03738,0.046293,0.250059,-0.021103,-0.005941,-0.706053,0.70782,-0.1772462896427139,-0.5815472577899694,1.0106640662312507,-0.3626461116572841,9.79982219980657,-0.0486437563960906,-0.0278274323791265,0.2885669469833374,0.0952786654233932,0.3785868372756329,0.3580913923518343,0.6117603256225413,0.5951402487575048,-0.0464472249150276,-0.0111052151769399,-0.1141465604305267,0.0596637725830078,-0.0019484162330627,0.0220139026641845,-0.0037181843072175,0.024193238466978,-0.0406675259530544,0.0095244515687227,0.0206476512312889,-0.0072767130047082
57,0.036189,0.046188,0.250542,-0.02543,-0.005719,-0.70459,0.709135,0.2487469799505546,-0.3849444892376661,0.2623345931351185,-0.3036640901282429,9.801489840757846,-0.0947400111333001,0.2041114568710327,0.3957489132881164,0.1480901688337326,0.371297602902698,0.3560322806328639,0.614875118534193,0.597752251762295,-0.0794184952974319,-0.0758918300271034,-0.1014491468667984,0.0366948843002319,0.0191967487335205,0.0295932441949844,-0.0061266282573342,0.0240665115416049,-0.1293196228742599,-0.0324646383523941,0.0010272972211241,-0.1365479666925966
58,0.036461,0.046122,0.251714,-0.035891,-0.002401,-0.702432,0.710842,0.3339649742372333,0.0103361005753278,-0.0752758614649996,-0.2503173162735067,9.802148596927523,-0.1599541228517889,0.086262047290802,0.0748605504631996,0.1266427040100097,0.3662721309625593,0.3566555037438776,0.6172132876469363,0.5980712268499889,-0.4307770431041717,-0.1036786139011383,-0.1114647537469863,-0.0006197690963745,-0.0939012765884399,-0.0038503408432006,-0.0254345946013927,0.0041867084801197,0.004912321960926,-0.0730699747800827,0.0763955496773123,-0.0818478237338364
59,0.036764,0.045708,0.252322,-0.036555,-0.002927,-0.702147,0.711087,0.5134780032355338,0.5486719931483268,0.6017044951558113,-0.2323089275046251,9.80191011199653,-0.1973839455252513,0.2104997187852859,-0.0027926545590162,-0.0460555888712406,0.3640710429545029,0.3569172965727385,0.6186063561749998,0.5978197300973167,-0.3776991963386535,-0.1487001031637191,-0.1129504740238189,0.0105649828910827,-0.0231386423110961,-0.0408858209848403,-0.0253388192504644,0.0054842396639287,-0.0183750301241874,-0.0367594249546527,0.0170015498138964,-0.033860037895292
60,0.037557,0.045508,0.253876,-0.033823,-0.002068,-0.703073,0.71031,0.568304622118175,-0.0970242039471864,-0.5814239602038637,-0.287734297731705,9.797282452195882,-0.3175986535869539,0.3065313994884491,-0.0605812817811965,-0.2698955237865448,0.3650268219158732,0.3589302401422139,0.6223842123766282,0.5920831978077348,-0.6621407866477966,-0.0764979049563407,-0.1439222991466522,-0.0492282509803772,-0.0141277909278869,0.0166122317314147,-0.0530453324317932,0.0018482345622032,-0.0729746353179216,-0.0102247297763824,-0.0182660167917609,-0.0666531772114336
61,0.03843,0.044945,0.254937,-0.025853,-0.010752,-0.706398,0.707261,-0.3999446726338937,-0.1998094556391239,-0.8291431314766406,-0.4356319990215823,9.787839501067996,-0.4228750645074993,0.1711099743843078,0.1460578888654709,-0.4436575770378113,0.3669806891842277,0.3555637410900238,0.628597688586998,0.586314457233931,-0.5759353041648865,0.0250224806368351,-0.2180636376142501,-0.0165481567382812,0.0639224648475647,0.0178018882870674,-0.0727922767400741,0.0096677225083112,-0.0326782807648181,0.027759376913309,-0.0221302910044789,-0.0306564195483922
62,0.03803,0.044273,0.254525,-0.019638,-0.020853,-0.707148,0.706485,-0.3463997275922447,0.2371013676792383,0.327331125713326,-0.5500790104020387,9.779788881081345,-0.4727789131004363,0.0585965737700462,0.4383808970451355,-0.1736972332000732,0.3654056539105004,0.3483789499243062,0.6346157285337005,0.5851270614330174,-0.3585657179355621,0.1261610239744186,-0.1762830913066864,-0.0117658376693725,0.0067257285118103,-0.0047979950904846,-0.0630857795476913,-0.0291906241327524,0.0741197136998176,0.0313041321933269,0.0795624892756342,0.0010445406168699
63,0.037894,0.04358,0.254209,-0.024696,-0.017836,-0.705964,0.707592,0.1797655059220269,0.141902625593543,0.3163011976549402,-0.5864805129410698,9.774281515836716,-0.5383628536451608,0.2359901964664459,0.1089459359645843,-0.0825818181037902,0.3620091284722934,0.3447942171298627,0.63919153253489,0.5843804099098256,-0.2224853634834289,0.0992557033896446,-0.1365729123353958,-0.0098851919174194,-0.0198650360107421,-0.0015845373272895,-0.03041922301054,-0.0787932425737381,-0.0077723875671625,0.0083067771047353,0.0587416734345257,-0.0003353694342076
64,0.037791,0.04316,0.253677,-0.031667,-0.013019,-0.705637,0.707746,-0.0439844684813171,-0.1888257048100233,-0.7498094825208187,-0.5940702008850872,9.771617849585413,-0.5770274422779679,-0.0851078033447265,0.0074806977063417,0.0369172170758247,0.361264456806921,0.3449440904501697,0.6406510641341835,0.5831533672545285,-0.0882253050804138,0.0736117511987686,-0.1478493958711624,-0.0165587663650512,-0.0072176456451416,-0.0221124216914176,-0.002714755013585,-0.0676014944911003,-0.0536947653084993,-0.020237311720848,0.0584226706132292,0.0057074178613722
65,0.037208,0.043134,0.253223,-0.037262,-0.008264,-0.70504,0.708139,-0.103416206539236,-0.3748357676774263,0.7555893080312758,-0.5575330527350306,9.77716437779665,-0.5163191084129736,-0.1505968272686004,-0.4613234996795654,0.3385966420173645,0.3625441561711207,0.3464345782652518,0.6374229607305505,0.5850100054480311,-0.0507002957165241,-0.0304581932723522,-0.1452719867229461,0.0154767632484436,0.0278785228729248,-0.0324745252728462,0.0169364605098962,-0.0687984079122543,0.0226759421885013,0.0044315233826637,0.1070890863656997,0.1359137604422867
66,0.036101,0.043099,0.252903,-0.028225,-0.016381,-0.70513,0.708326,0.8426643648941069,0.0755231507569551,0.2094960793297737,-0.4452271450364962,9.780957340338826,-0.55231557381507,0.2556928694248199,-0.7990279197692871,0.1895313411951065,0.3675803554296828,0.3605803051027478,0.6309850248296324,0.5802797046305768,0.0107710547745227,-0.0089505054056644,-0.0344016663730144,0.0188266634941101,0.0039058327674865,-0.0140544846653938,0.0309304054826498,-0.086005762219429,0.0045218613386154,0.0129721593111753,0.127431178779155,0.0541862020872533
67,0.034671,0.042756,0.252554,-0.017931,-0.026734,-0.704027,0.709443,-0.1380773682169616,-0.1264028586447239,0.2476806293606758,-0.5173353727834299,9.774885911470651,-0.5952886367641389,0.0744890868663787,0.2164380699396133,-0.2903778851032257,0.3729719909196123,0.3634998336079503,0.6310460724151638,0.574926666026308,0.0297569967806339,0.0280706826597452,-0.0186410117894411,0.0322808027267456,0.0401881337165832,0.0208428502082824,0.0280894581228494,-0.0788896381855011,-0.0725631319075822,-0.0198629964143037,0.0808471222586929,0.020083149216324
68,0.032276,0.041997,0.252856,-0.009502,-0.030081,-0.705816,0.707693,0.2521859048906713,0.0767108992367982,0.1604851609885692,-0.548019484056346,9.772585817834734,-0.6055073580374941,-0.0015191657003015,0.4547165930271148,-0.0369028523564338,0.3698167729487845,0.3584475723221508,0.6343403042658462,0.5765095989635866,-0.0143934218212962,0.0308549646288156,-0.0347117893397808,-0.0560836195945739,-0.0738282799720764,0.0013746693730354,0.0344120599329471,-0.0688855275511741,-0.0177776487529277,-0.054195150732994,0.1063943820998072,0.0437884344525635
69,0.032261,0.04114,0.253674,-0.006161,-0.03396,-0.708232,0.705136,0.5160491323651746,0.177841369459033,-0.4183306260108947,-0.5471736808819696,9.770066528490185,-0.6455928828515112,0.0661120489239692,0.9210169315338136,-0.0820632800459861,0.3614984314752066,0.3508876164270226,0.6401515112415473,0.5800024385618391,0.137318879365921,0.0632360205054283,-0.064560167491436,0.0028237700462341,0.0034093260765075,0.0357161238789558,0.0398480407893657,-0.0611461922526359,0.0247375508934259,-0.0659324079751968,0.0606381547056138,0.0740815736465156
70,0.032265,0.040089,0.253118,-0.003513,-0.046433,-0.710715,0.701937,0.3770541013140231,-0.2075286517143249,-1.7247955016493797,-0.5509329238176346,9.770119719982146,-0.6415741487294435,-0.1699299067258834,2.316539764404297,-0.0947307646274566,0.3447719145379502,0.3320498951652525,0.6499646488641194,0.5902721169157453,0.2062968760728836,0.0385263077914714,-0.1439694315195083,0.0135561823844909,0.0583794116973876,0.0255863144993782,0.0484866499900817,-0.0783599317073822,0.0196995567262172,-0.0337529294192791,0.0414069461435079,0.1551918768860399
71,0.03215,0.038853,0.251386,-0.000658,-0.068001,-0.712028,0.69885,-0.4267683821516111,-0.0577238746941089,-0.0217862268071621,-0.4067129246598109,9.777284204784037,-0.6400611138179898,-0.0895895734429359,2.557868242263794,0.3473897278308868,0.3098280276386076,0.3034307092951409,0.6637498320894674,0.6094034233905907,0.003321926575154,-0.1833105832338333,-0.0324730724096298,0.0370106101036071,-0.063379168510437,-0.1529536843299865,0.0680517703294754,-0.0914565771818161,0.0731318717062473,-0.0119713600724935,0.0822023362599313,0.1289575115635991
72,0.031846,0.036747,0.250108,0.002352,-0.08861,-0.711608,0.696962,-0.3882294657250866,-0.177471951624751,0.4075110527675599,-0.1622876438332721,9.78510510766804,-0.629124417001009,-0.100795954465866,2.481323719024658,0.5358847379684448,0.2715620387422174,0.2784380344355683,0.6742022536077898,0.6278358206902027,-0.1547353416681289,-0.2057844698429107,-0.0216188263148069,0.0334664583206176,0.0886143445968627,0.0319907069206237,0.0608009845018386,-0.0950280129909515,-0.0687584789276123,-0.0250362921506166,-0.0046143619276583,0.0603168137967586
73,0.031375,0.034785,0.247531,0.001217,-0.11167,-0.708609,0.696708,-0.3324317002553492,-0.3423907111465931,0.2953694322526454,0.0991465298634022,9.787516260463,-0.604221921336837,-0.0179545637220144,2.3086063861846924,0.5451993346214294,0.2334745192434869,0.25525674823413,0.6823860616094043,0.6439587780133851,0.1210008859634399,-0.0223759263753891,-0.0457749627530574,-0.0190515518188476,0.0564154386520385,0.0545427873730659,0.0474821925163269,-0.0576208122074604,-0.0661760612189769,-0.0435872301459312,-0.0150116911709308,0.0794580059878528
74,0.031906,0.03311,0.247882,-0.001976,-0.109733,-0.709653,0.69595,-0.4840055693073198,-0.0627180297195911,0.05423427901268,0.4196614727558568,9.779435829859972,-0.5974185249323025,0.0943588986992836,2.241451978683472,0.8333153128623962,0.1926264580580982,0.234519736005233,0.6895363382590548,0.6575980594968254,0.1425613164901733,0.0208187345415353,-0.040238182991743,-0.0370040535926818,-0.0251041650772094,0.0247098729014396,0.0711662024259567,-0.0663587674498558,0.0071960489839315,-0.0630110502243042,0.0437238447837531,0.1148642504118382
75,0.032321,0.032193,0.248311,-0.004836,-0.103939,-0.710912,0.695541,-0.1230452187798917,0.0321580562829971,-0.0622714549958705,0.8368163695182651,9.754739780020714,-0.5614184428010136,-0.0482941940426826,2.0993869304656982,1.0400328636169434,0.1509232222149592,0.2198641203798104,0.693025354674374,0.6697745041968101,0.0570149831473827,-0.07288309186697,-0.0119888354092836,0.0064806938171386,-0.0478225350379943,-0.0104329586029052,0.0966396927833557,-0.0850507766008377,0.0048304888963699,-0.0913202315568924,0.0397651702858507,0.0676066785439848
76,0.032699,0.031411,0.248724,-0.007418,-0.096724,-0.712496,0.694938,0.2589002347722649,0.0329857392787933,0.2541209280738606,1.266954264635593,9.711863345846533,-0.4948872114688157,0.1277046948671341,1.7974134683609009,0.9014022946357728,0.1096148604947305,0.2068804613790074,0.6945737550755846,0.6802589864671731,-0.1002729088068008,-0.0724212005734443,-0.0014250742970034,-0.0018096566200256,-0.0811153650283813,0.0228772833943367,0.0984953120350837,-0.103516973555088,0.010792612171173,-0.1079573184251785,0.0566090453200042,0.0363546311900019
77,0.033336,0.030976,0.251565,-0.009637,-0.090216,-0.714903,0.693312,0.0901186623424291,0.0082616323888301,0.4150338860204443,1.5879172800891102,9.666409170138836,-0.4576806761572137,0.1624281555414199,1.3619009256362915,0.6307588219642639,0.0766559888525366,0.1957993281311897,0.6964178660072439,0.6861405081312173,-0.2270119339227676,-0.1170776113867759,0.0061673983000218,0.0105126500129699,-0.0486028790473938,0.0048913285136222,0.0856686979532241,-0.1055021584033966,-0.0307633870542049,-0.1109260693192482,0.0283677240893244,0.0249681447789072
78,0.033018,0.029093,0.251892,-0.013613,-0.087253,-0.717096,0.691357,-0.012937515245378,-0.2636187877267599,0.4251811129601672,1.8217571617543693,9.625697805044055,-0.444484729171358,0.1563196927309036,0.8198586106300354,0.4671293795108795,0.0538300303420831,0.189376075716746,0.6977099087478195,0.6887961273561155,-0.1535893827676773,-0.0183061379939317,-0.0485581643879413,-0.014862835407257,0.046265423297882,0.069931149482727,0.0591410472989082,-0.0914348140358924,-0.0744078829914331,-0.1167193055152893,0.0214615979626774,-0.0327840792268514
79,0.031789,0.028015,0.253633,-0.018511,-0.084145,-0.713113,0.695734,0.0892301890701055,-0.1771761835485696,0.2735971609055996,1.9810059128157795,9.5943195009619,-0.4416404456561431,0.1318773329257965,0.705069363117218,0.3108613193035126,0.0380350043844037,0.184914063534025,0.6988019638580188,0.6899536343632146,0.1265850067138672,0.098968394100666,-0.0475357100367546,-0.0009935498237609,0.0324393510818481,0.0285867452621459,0.0333736017346382,-0.0802221298217773,-0.0678454557359218,-0.1185598820447921,0.0387174147985875,-0.0296168473675847
80,0.029647,0.026889,0.254208,-0.025813,-0.081711,-0.707186,0.701815,0.0923548969618976,-0.1094815344601869,-0.1457317919602617,2.0818794856674967,9.573610474932194,-0.4267819722855463,0.0193717032670974,0.5901376008987427,0.1918945908546447,0.0251923453160456,0.1791014534781928,0.6997731737315313,0.691090078534963,0.2722697854042053,0.0717789605259895,-0.0478295907378196,0.0053311586380004,0.0141089558601379,-0.0402783155441284,0.0308398008346557,-0.0648674219846725,-0.0401741894781589,-0.1144171208143234,0.0354607510901987,-0.0127338093668222
81,0.026895,0.025693,0.25419,-0.03077,-0.085248,-0.699443,0.708918,0.1173043370403349,-0.2292711124449968,0.1200304010033607,2.166015712599456,9.558128243640065,-0.3477786147300153,-0.1185479536652565,0.60340416431427,0.2297053784132003,0.014604292442033,0.1737478066891545,0.6982431344760959,0.6943018023167258,0.7016328573226929,0.1273311078548431,-0.0323927104473114,-0.0167914032936096,0.0143587589263916,0.0079032853245735,0.0287763178348541,-0.0752773806452751,-0.0008978256225585,-0.1162448152899742,0.0761757694467902,-0.0250417945370078
82,0.023424,0.02327,0.253972,-0.034084,-0.092452,-0.692244,0.714905,0.423509197692573,-0.0641366643458604,-0.0897042363226413,2.269518611041456,9.536945170357823,-0.2576043680091388,-0.0587913133203983,0.7690467238426208,0.2544728815555572,0.0014780712434589,0.1673116640142044,0.69652062063722,0.6977562105662353,0.7110559344291687,0.086001843214035,-0.0263034589588642,0.0133238434791564,0.0115161538124084,0.0116857960820198,0.030208546668291,-0.046078186482191,-0.1113899984300136,-0.1045005470514297,0.0415068993866443,0.0254518366426229
83,0.019257,0.019351,0.255,-0.039975,-0.094194,-0.686958,0.719457,0.3727262281775474,-0.0058083940178155,-0.3689244978070259,2.370131048738956,9.51468014705777,-0.1540585985397919,-0.1456867903470993,0.8489771485328674,0.2585250437259674,-0.0121069898293414,0.160296612755222,0.694377274206722,0.7014261455331681,0.8600693941116333,0.099187895655632,0.0158481877297163,0.0137174129486083,-0.0185478925704956,0.0637769773602485,0.0391594991087913,-0.0345348231494426,-0.0741793349325656,-0.1064889654517173,0.087330785189569,-0.0229532978251576
84,0.018564,0.017284,0.256201,-0.044351,-0.094889,-0.68657,0.719479,-0.0269222014561295,-0.1441851835727691,-0.4140934268325567,2.504472006906569,9.481422020578384,0.0254846954493201,-0.2788270115852356,1.1621845960617063,0.4377945065498352,-0.0303375638480362,0.1509292661237753,0.6898702767684586,0.7073747530151573,0.7158623933792114,0.3651937842369079,0.0205406788736581,0.0128732919692993,-0.0104753971099853,0.1090086102485656,0.0362202152609825,-0.0305394679307937,-0.05680792889297,-0.1077587455511093,0.0985179496362805,-0.0181888599023222
85,0.017595,0.015034,0.257796,-0.044623,-0.097416,-0.686852,0.718856,-0.4060778781592846,-0.1215232699096202,-0.2106961393019184,2.684310395401716,9.42928266801834,0.2313461468870751,-0.2602445781230926,0.829533040523529,0.5492284297943115,-0.0495757250136754,0.1442790107752438,0.6836579527470646,0.7136790312447404,0.363709956407547,0.0971952155232429,-0.0431295111775398,0.0622605681419372,0.0276942253112792,-0.0407968163490295,0.0245953947305679,-0.0123091526329517,-0.0819552296310663,-0.1036848127841949,0.0462915033146738,-0.0125324415758252
86,0.016805,0.012396,0.260072,-0.041559,-0.102637,-0.688531,0.716703,-0.7219345103845,-0.2703793679028749,-0.1872849051088094,2.9060449748620387,9.357571769025922,0.4014166083499789,-0.1022616922855377,0.863244354724884,0.7187427878379822,-0.0695475940423672,0.1406689109730877,0.6780455043929866,0.7180735958222092,-0.0737856477499008,-0.0435673929750919,-0.0081652021035552,0.0422019958496093,-0.0137670636177062,-0.0182439088821411,0.0225245524197816,0.0127401072531938,-0.0653150604754686,-0.1073480993509292,0.0492645277760922,-0.096758246487379
87,0.016309,0.009541,0.260992,-0.04031,-0.103862,-0.690401,0.714797,-0.8036667449146508,-0.4501496595978737,-0.5831161145418882,3.184251090867817,9.262607420217993,0.4848047568609938,0.153722882270813,0.8574976921081543,0.8611480593681335,-0.0928052433091287,0.1387522574468501,0.6752996727610411,0.718404739672604,0.0429633446037769,-0.1281515061855316,-0.0022019848693162,0.0527769923210144,0.0341968536376953,-0.0762080699205398,0.0068618562072515,0.0255621057003736,-0.0957107832610607,-0.1013754159212112,-0.0197916189238429,-0.0151081372827291
88,0.013754,0.004494,0.263894,-0.039239,-0.112152,-0.690329,0.713672,-1.1712377822861075,-0.6693652419745921,-0.3524200107950717,3.5410482207685705,9.13032310231924,0.5182182930978014,0.2278222441673278,0.6847158074378967,1.2074450254440308,-0.1178188554623886,0.1413461844391543,0.6734979415485273,0.7159192917451092,0.0921162441372871,-0.1303752064704895,0.0057918922975659,0.0077734589576721,0.0323945879936218,-0.0465659946203231,0.0421142131090164,0.0326879471540451,-0.0534399137645959,-0.0626813620328903,-0.0088176588363945,0.0672542118445038
89,0.012241,0.00108,0.264612,-0.03977,-0.11882,-0.688427,0.714401,-1.525186244757473,-0.9357920728594064,-0.368262234506011,4.047627331335843,8.918958233442902,0.489169893267937,0.5499783754348755,0.737992525100708,1.689151406288147,-0.1490354964778645,0.1496397408054049,0.6728054874636088,0.7090339751063389,-0.0593662224709987,-0.1108983904123306,0.0656686797738075,0.0214776396751403,0.018627643585205,-0.0366554856300354,0.0879201591014862,0.02333047054708,-0.0208411279767751,-0.0561524741351604,0.0086481474883854,0.0272501182362437
90,0.010714,-0.002208,0.264892,-0.041815,-0.121388,-0.688023,0.714241,-1.4940771130055188,-1.2583365122854708,-0.1222428163558244,4.681507418431341,8.603896843248606,0.4762856425797566,0.534065842628479,1.6265171766281128,2.1130683422088623,-0.1914074213876024,0.1577689390105764,0.6714351441798959,0.6983173543761104,-0.1484425663948059,-0.0532384999096393,0.1158104762434959,0.0132126808166503,-0.0075960755348205,-0.0011575669050216,0.0914693176746368,-0.0163421723991632,0.0143126029908657,-0.0687571018934249,0.0229573894783854,-0.003841770119965
91,0.009283,-0.005831,0.264642,-0.045545,-0.122202,-0.688355,0.713555,-1.642857807675004,-1.6314117000311612,0.4758634351123124,5.4716357595980165,8.10488524532616,0.7365009420059621,0.4682594835758209,2.4791438579559326,2.981801748275757,-0.254868502789927,0.1608455101213373,0.6607402087917651,0.6874541369127843,-0.0080172810703516,-0.0207277480512857,0.2199242860078811,0.0098479390144348,0.0029716491699218,0.034520998597145,0.0691272765398025,-0.0092797484248876,-0.0611041647821664,-0.0753293633460998,-0.0253274796105921,0.0020206921726465
92,0.008724,-0.01039,0.263818,-0.049338,-0.122517,-0.688703,0.712912,-0.7777917144238948,-1.2167436881810425,-0.0506460452623665,6.394738446754217,7.330186820742488,1.243406946440041,0.576648473739624,2.9686453342437744,3.6437599658966064,-0.339236962740929,0.1624433854992667,0.6404810980077109,0.6695628226205869,-0.0611540041863918,-0.0458897203207016,0.1779743134975433,-0.0015844106674194,-0.0003836750984191,-0.0102205276489257,0.0649188905954361,-0.022211180999875,0.0021714988201856,-0.133686751127243,0.0379626509085297,0.0069268766537308
93,0.006839,-0.016414,0.264081,-0.046576,-0.123192,-0.686839,0.714778,-0.1268476798027753,-1.4113105669915675,0.0441010075330734,7.257528411766886,6.312091727727651,1.912111532548815,0.2609268724918365,2.858606100082397,3.907799243927002,-0.4266507580942132,0.1693750464103062,0.611409465204049,0.6445616569112778,-0.1736126244068145,-0.0896911099553108,0.1946184784173965,-0.001135766506195,-0.0104085803031921,0.0290336012840271,0.0778412595391273,-0.1134709045290947,0.0359177010774612,-0.2284716665744781,0.0568215190269053,-0.0122539168953895
94,0.00613,-0.018241,0.266198,-0.040303,-0.121485,-0.68531,0.716915,-0.3045096010416745,-1.3602841441094875,2.204451533977687,7.861357643991708,5.142822907426953,2.814393111602962,0.6036642789840698,3.5309877395629883,4.055392265319824,-0.5150560099441883,0.1731874371778174,0.5714122768916284,0.6149889500223724,-0.197035402059555,-0.1588307619094848,0.2268769294023513,0.0112065076828002,-0.0262985229492187,-0.0114503651857376,0.0991317182779312,-0.1101371943950653,-0.028368600872159,-0.2275135219097137,0.0373974182412028,-0.0286167304143309
95,0.00609,-0.020315,0.268216,-0.03317,-0.119724,-0.684694,0.718164,0.4919260235756635,-1.1883455689534543,1.7478513830661773,8.115228944686054,4.056150537270307,3.723048755733669,1.680283784866333,3.490861654281616,3.674613475799561,-0.6044555286119566,0.1604439212696451,0.5333245601820424,0.5696106219264118,-0.0706303343176841,-0.2060031294822693,0.3262982666492462,0.0284736156463623,-7.909536361694336e-05,-0.0088136196136474,0.0894603580236435,-0.1292470693588256,-0.0965033949434757,-0.1614476591348648,0.0457389839984476,-0.0976619173288345
96,0.006699,-0.023078,0.269358,-0.028193,-0.12169,-0.684638,0.7181,-0.4485299494415521,-0.7012620169728994,-0.9404913365915416,8.11102214064598,3.156964440013468,4.518326150226593,0.7395983934402466,2.405848741531372,3.2073779106140137,-0.6777763173885888,0.1453833396979904,0.4984908853477832,0.5205667359845331,-0.0162885263562202,-0.1962755471467971,0.3947711288928985,-0.0251752734184265,-0.0143150687217712,0.0071210712194442,0.0771510377526283,-0.0995067954063415,-0.1544201618611812,-0.0988481417298317,0.0674396514140069,-0.1961491795659065
97,0.008599,-0.027165,0.268296,-0.027508,-0.126457,-0.684505,0.71743,1.2979367012679577,-0.1539089974686503,2.166227601784468,8.091672712531686,2.2925296304032203,5.04376106017232,0.1204511821269989,1.2378596067428589,2.333536624908448,-0.7228519791912307,0.1523501843152351,0.4686460939461976,0.4844020263874711,-0.0506686046719551,-0.2854536473751068,0.4797229170799255,-0.0060215592384338,-0.0788710117340087,-0.0443978756666183,0.0510181635618209,-0.0556742027401924,-0.208979435044527,-0.076058879494667,0.0488132768772542,-0.2238292136520147
98,0.01073,-0.034366,0.267391,-0.02923,-0.137701,-0.681626,0.718033,-0.1155026944458484,-0.3536071016877889,1.7653841171473263,8.085351108294725,1.722791029959172,5.275364414957165,0.564556360244751,1.018891215324402,2.0711090564727783,-0.7506296034341465,0.1572930096664027,0.4541917928337779,0.4533474404974674,-0.0907411947846412,-0.2413746863603592,0.4623677432537079,-0.0560880899429321,-0.0415107011795043,0.0029665827751159,0.0361962206661701,-0.0442621707916259,-0.0758387925773858,-0.0694019570946693,0.0661366059914231,-0.1673272819682955
99,0.011652,-0.039451,0.26296,-0.029148,-0.140998,-0.681757,0.717271,0.6841390327364206,0.2736355201546102,0.9742600429415702,7.920172821053862,1.1212862951591611,5.673091813400387,0.2456022053956985,1.5406230688095093,2.1851396560668945,-0.7827276381481757,0.1583069871351243,0.4309196161221735,0.4202197764097786,0.002749080536887,-0.2193474173545837,0.3800424039363861,-0.0394468903541564,-0.0238153338432312,-0.0158072263002395,0.0343670956790447,-0.0491584129631519,-0.0059901803255081,-0.059980247169733,0.0941334509417414,-0.1131724979326128
100,0.012772,-0.042539,0.262837,-0.027389,-0.141219,-0.682559,0.716534,1.4362544541120528,0.486479119814001,0.7937988463729619,7.620411875844002,0.4752418326152488,6.154174371400475,-0.1040800288319587,1.4871169328689575,2.0275917053222656,-0.8128942167141505,0.1625361537814731,0.3997579589515063,0.3911248935467526,0.0269825160503387,-0.1632508486509323,0.3225440680980682,-0.0286864638328552,0.0092085599899292,0.035475417971611,0.0313249304890632,-0.0672008246183395,-0.0828290898561477,-0.0767171531915664,0.0585676320418715,-0.1212108429595828
101,0.014133,-0.04497,0.263183,-0.025034,-0.144736,-0.683498,0.715021,2.497555651646852,0.3869939325807616,1.7312649899244308,7.213326866468787,-0.0902625369256828,6.643053282365202,-0.1044022366404533,1.9216779470443728,1.56001877784729,-0.8385964955120984,0.1659924023478776,0.365711705912302,0.3680454749540993,-0.1133615523576736,-0.1127237752079963,0.3524633347988128,-0.0222719311714172,-0.0092765688896179,0.062590554356575,0.0286538936197757,-0.0492507219314575,-0.0503711738437414,-0.0826702192425727,0.0673531421743333,-0.0498889432847499
102,0.015127,-0.047035,0.265071,-0.0221,-0.150202,-0.685661,0.711913,1.069034422135353,-0.0302353445921093,1.1967431026816366,6.726635820937156,-0.478382870587334,7.119964692160487,0.1335688233375549,1.3111413717269895,1.347272276878357,-0.8607617364784392,0.1631933111780652,0.3321908574324657,0.3494371310256997,-0.3179034888744354,-0.1158710941672325,0.3382287621498108,-0.0006825327873229,-0.0299578309059143,0.0199301093816757,0.0320223048329353,-0.0486112833023071,-0.0830541307836771,-0.0733405575156211,0.0344610725283622,-0.0057312371283769
103,0.016606,-0.048948,0.266434,-0.018775,-0.147381,-0.688353,0.709997,1.6128005230635405,0.1596651498425751,1.196546703326702,6.362734704250097,-0.7166163110364228,7.427816589367389,0.2441479265689849,1.1965807676315308,0.8993054628372192,-0.8764792130701847,0.1591663122439917,0.3097625413606423,0.3324117271872906,-0.4088411331176758,-0.1782209724187851,0.3120585978031158,-0.010882556438446,-0.0028042197227478,-0.0001533031463623,0.020797174423933,-0.0072144120931625,-0.1174608427762985,-0.0608801804482936,0.0077589435636997,0.0080491586819291
104,0.016135,-0.049022,0.269617,-0.017434,-0.14486,-0.688561,0.710349,-0.1165408053219318,0.0569289979893714,0.0086140990883111,6.056105626836419,-0.833248740164563,7.668094248995184,0.4394151270389557,0.3204226195812225,0.9048956036567688,-0.8889898564908253,0.1523443602676525,0.2929627907244319,0.3172714411793091,-0.1412760019302368,-0.1473568975925445,0.2761370241641998,-0.0243558287620544,0.0184912085533142,0.0105241015553474,-0.0017147623002529,-0.0184875428676605,-0.0271101252436637,-0.0821907892823219,0.0545280012622475,-0.0992512323468923
105,0.015955,-0.049759,0.27089,-0.014224,-0.141026,-0.687826,0.711902,1.6384242091417311,0.0523755724687129,0.0775228001415729,5.97768090941906,-0.8806195631485432,7.724132362559438,0.293241798877716,0.3935238718986511,0.4307084083557129,-0.8952815688658513,0.1485614162838574,0.2900143869018348,0.3037959520905944,-0.1576616317033767,-0.1324517875909805,0.2049791663885116,-0.0369547605514526,0.0128333568572998,0.0257596969604492,-0.0313558802008628,0.0048856474459171,-0.0566957006901502,-0.0888372808694839,-0.018712445385009,-0.0194701318845152
106,0.015794,-0.050819,0.272041,-0.010651,-0.134865,-0.687775,0.713207,1.2135317403972148,0.7798571225211024,-1.8232050224751235,5.826618241292238,-0.8528802000906318,7.841779083296656,0.1497357338666916,0.1227340102195739,0.0856645405292511,-0.900390936501154,0.1420693588008517,0.2828371309229881,0.2985222423618039,-0.0754003152251243,-0.1104312166571617,0.0953948125243187,-0.046923816204071,0.0254552960395813,0.0126276016235351,0.0160153619945049,-0.0072973687201738,0.1227776538848876,-0.0782747343182563,0.0851817904621362,0.0566416324153542
107,0.015543,-0.052845,0.273442,-0.010524,-0.132998,-0.689723,0.711676,0.0947334626615047,-0.1566913216635584,-1.2622317661583422,5.733501566177607,-0.9034910279091448,7.904495359450578,-0.5114076733589172,0.3566316366195678,-0.1167218163609504,-0.9007669778510023,0.1439459764970831,0.2761565517538022,0.302714374758505,0.0297170467674732,-0.1248554289340972,0.025810407474637,-0.0177704691886901,0.0192930698394775,0.0022103227674961,0.0711397975683212,-0.0686617121100425,-0.011827800437808,-0.1026942431926727,0.0153434073433279,0.0339671515315771
108,0.016957,-0.056608,0.274522,-0.010714,-0.149885,-0.69217,0.705918,0.0971551368504762,-0.4884672614239156,0.2694604994922876,5.628877408620715,-1.05698998327218,7.960458069691062,-0.3918506503105163,0.4237363040447235,0.0844816416501998,-0.9011586921738092,0.1506326678667707,0.2672815064282855,0.306240598667555,0.1021520942449569,-0.1358473598957061,-0.0015762087423354,0.0016674399375915,0.0225816369056701,0.0155031122267246,0.0848686322569847,-0.0751806870102882,-0.0314630597561597,-0.0691559612751007,0.0198638073772191,0.0035310967355966
109,0.017742,-0.057932,0.275457,-0.012247,-0.153851,-0.694808,0.70244,-0.0979085855662822,-0.7209012948792427,0.5742454103440046,5.499826081293821,-1.1890731525756415,8.031712457087636,-0.1275841295719146,0.3547858297824859,0.433582991361618,-0.9038699515063956,0.1540319740231374,0.2584004148834068,0.3041752638718841,0.023008543998003,-0.1249556615948677,0.0168357547372579,0.0178076028823852,0.0062458515167236,0.0232050418853759,0.089737169444561,-0.0644901320338249,-0.0446539652407169,-0.0129795260727405,0.0745223031513392,-0.0161544314652681
110,0.019262,-0.059323,0.277223,-0.011656,-0.149312,-0.69941,0.698853,0.9287795637488364,-0.3556723636545241,0.744935739004612,5.297042578279972,-1.3008157638356088,8.149822703683375,-0.0845819562673568,0.7641570568084717,0.2893388867378235,-0.9087139751100344,0.154211810945518,0.2463603198015296,0.2996070140590208,-0.0111238583922386,-0.114380843937397,0.0741413161158561,0.0234856605529785,-0.0131763219833374,0.0096737183630466,0.0657279789447784,-0.0470677018165588,-0.1223071137636899,-0.0014035133644938,0.0426475938543677,-0.0858054753184318
111,0.021044,-0.060778,0.279299,-0.008733,-0.14701,-0.703341,0.69543,0.2415437340408563,-0.0810382609166204,1.0012813208580016,4.9821553756088015,-1.367603234951198,8.335356381210683,0.1649853289127349,0.7444140315055847,0.3443147242069244,-0.9149375907230224,0.1503780560432385,0.2289137978659774,0.2964354903670498,0.0104642584919929,-0.1067095026373863,0.1331985145807266,0.016899824142456,0.0041038393974304,-0.010195255279541,0.025445494800806,-0.0144293494522571,-0.0928068785130977,0.0027487962506711,0.0602158376403152,-0.094917587056756
112,0.022067,-0.06286,0.281305,-0.006705,-0.14523,-0.706345,0.692777,0.2967605943500995,0.1720658547975123,-0.2661421687245369,4.994873987406492,-1.2879134660340843,8.34043762999773,0.2430066466331482,-0.2125311940908432,-0.1549855470657348,-0.9152848692804776,0.1463756096527411,0.2309333469005429,0.2957999454402205,-0.0428413078188896,-0.084499754011631,0.1229013428092002,-0.0186372995376586,-0.0017164349555969,0.0041388273239135,0.0017830580472946,-0.0193854421377182,-0.1081114151507616,-0.0248459707945585,0.0564788430690765,-0.1058861403167247
113,0.025119,-0.066222,0.282994,-0.005817,-0.14786,-0.709923,0.688559,0.1050759929776191,0.3434577558562159,-0.7482219210684299,5.040063374698161,-1.2269180223233995,8.322428510576486,-0.0474011003971099,0.071169726550579,-0.168346881866455,-0.9140951377094426,0.1446875135003083,0.2339652956294254,0.297919147489405,-0.2303725779056549,-0.0621278621256351,0.0681725814938545,-0.0246914625167846,-0.0023553967475891,0.0053440928459167,-0.0086707053706049,-0.0068265162408351,-0.0777951873421669,-0.0469425916671752,0.0185481947340071,0.0005064882174134
114,0.024862,-0.068058,0.283015,-0.006012,-0.148466,-0.712126,0.686148,-0.5416343495965004,-0.0480162812806665,-0.3831687117367983,4.924968676531314,-1.2393158777341249,8.389229425695538,-0.1150748878717422,0.505540668964386,0.0058473837561905,-0.9149757145604012,0.1437661557197717,0.227155535769315,0.3009172409727628,0.0199823975563049,0.0009940046584233,0.0615319199860096,-0.0216751098632812,0.0065835118293762,0.0042540431022644,0.0185622386634349,-0.0030546879861503,-0.0111591073960065,-0.0022315196692943,0.0516081682927906,0.1042006714478135
115,0.025307,-0.069755,0.282582,-0.008097,-0.148718,-0.714284,0.683825,-0.4308791419386863,-0.1912659375689923,-0.0340559988588094,4.804487024629116,-1.268598524711281,8.45446323762834,-0.0298631843179464,0.2621573507785797,-0.0104706259444355,-0.9163334646832042,0.1431949111384094,0.2200853493208864,0.3023089218384903,0.1533732116222381,0.0833064019680023,0.0953257009387016,-0.0061332583427429,-0.0074183940887451,0.0338059104979038,0.0271760430186986,-0.002385368803516,-0.027518121522665,0.0170968435704708,0.0180327925577759,0.0401283045098185
116,0.026045,-0.071057,0.282196,-0.010279,-0.151039,-0.714742,0.682807,0.1779781475812196,-0.0037669513180851,-0.048482583618164,4.707689615175128,-1.2759338360354304,8.507645377239584,-0.0180115867406129,0.3475532233715057,0.065647579729557,-0.917775893105116,0.14167681788241,0.2148452199816682,0.3024179371205924,0.0721079111099243,0.108324721455574,0.1049081534147262,-0.0043928027153015,-0.0197085738182067,0.0127416253089904,0.0263647381216287,-0.0008416243363171,0.0230500361979007,-7.40736722946e-05,0.0928368352599442,0.017277298015356
117,0.025782,-0.071922,0.282825,-0.01055,-0.151166,-0.71618,0.681267,0.4299541360482573,0.1494558174520731,-0.3400397641062736,4.565397990263998,-1.3052565227620303,8.580432965552806,-0.1789829730987548,0.4067403078079223,-0.0552832037210464,-0.9192750726366932,0.1407375916034154,0.2066702449611525,0.3039963236649592,-0.0636645630002021,0.0809491872787475,0.1164987012743949,-0.0035968422889709,-0.0193175673484802,-0.0043730176985263,0.0082777794450521,-0.0049766553565859,-0.089096918079257,-0.0277146678417921,0.0369897142231464,0.0379670348227024
118,0.02773,-0.074598,0.28471,-0.008624,-0.14887,-0.722192,0.675428,0.5588593329027295,0.0302402399629354,-0.1776280189692974,4.485723565046489,-1.3871538847260176,8.60955676870644,-0.327631264925003,0.1572570651769638,-0.0912849232554435,-0.9191726797405791,0.1439474201207415,0.2007832112031702,0.3067356620709278,-0.0915649086236953,0.0289700850844383,0.1190601214766502,0.0061618685722351,-0.0017579197883605,-0.0220199823379516,0.0048118834383785,-0.013461260125041,-0.0239911164402961,-0.054043211042881,0.0810914524085819,0.0015121581286191
119,0.028265,-0.076352,0.287374,-0.005347,-0.146528,-0.7264,0.671449,-0.0402101375743746,-0.1308174602165818,0.2675970437079668,4.4254897533580655,-1.4706041752204295,8.6268621237725,-0.2199839502573013,0.2381736040115356,-0.0750837698578834,-0.9184630838581418,0.1477652568909404,0.1957495310336432,0.3102790778356383,-0.0228231251239776,-0.0573068000376224,0.0611078739166259,0.0017217397689819,0.0225162506103515,-0.0345696806907653,-0.0081649608910083,0.006193358451128,-0.0463648608118295,-0.0506430938839912,0.0402986926406621,0.0067015434652566
120,0.029587,-0.078278,0.289197,-0.002756,-0.143808,-0.731132,0.666902,0.2772659125462174,0.0403610903523862,-0.0693342329889535,4.357160313497484,-1.5253645239338278,8.65209827183783,-0.1532865166664123,0.132217451930046,0.0036575880367308,-0.9186500094925012,0.1495128047480254,0.1910803003967926,0.3117955634026747,-0.0806179866194725,-0.0806130766868591,0.0259773228317499,0.0098984241485595,0.0050101280212402,0.0056287050247192,-0.0043039675801992,-0.0048370556905865,0.0046796822488307,-0.0490624457597732,0.0732876467898488,-0.0028100889846682
121,0.030848,-0.079847,0.28978,-0.002412,-0.142608,-0.733941,0.66407,0.3452005078703165,0.0604898322761058,0.0608142419248819,4.313317080117762,-1.5692854987248777,8.666199862426518,-0.1115493550896644,0.1464481055736541,-0.0405398607254028,-0.9185811308801556,0.1511528842295406,0.1878817917043953,0.3131484596766901,0.0149410320445895,-0.0860285684466362,0.0475685037672519,0.0165706872940063,0.0090631246566772,-0.0183740854263305,-0.002989113330841,-0.0019160765223205,-0.0183270993292331,-0.0445435792207717,0.0536122015915811,-0.0002899228572845
122,0.030877,-0.080559,0.288086,-0.003028,-0.145471,-0.73276,0.664749,0.0177758951872587,-0.053266310763359,-0.0853641612917184,4.268743194375932,-1.6032219628572464,8.682044497290253,-0.107583150267601,0.0992158055305481,-0.002814547624439,-0.9186617332249242,0.1522042546709107,0.1848588469538548,0.3142000304336729,0.0560131035745143,-0.0346381850540638,0.0647246539592742,0.0025813579559326,0.0099128484725952,0.0002867598086595,0.0031313966028392,0.0093022119253873,-0.0589326659619808,-0.0170714017003774,0.0339252120859921,0.0174099844843149
123,0.030705,-0.082139,0.284923,-0.010196,-0.152517,-0.728437,0.667843,-0.0131762924373149,0.0851375129289925,-0.0428793567836284,4.251810764275491,-1.6284997581072151,8.68564807474017,-0.0475568324327468,0.0158308167010545,-0.0225067138671875,-0.9184806390398552,0.1533154228989715,0.1834382375734416,0.3150208561503159,0.1728174835443496,0.0284850168973207,0.0981752872467041,-0.0015870332717895,0.0077126622200012,-0.0078969597816467,-0.013044387102127,0.004160146228969,-0.0153559745639562,-0.0169280711561441,0.0669255644120276,-0.0124438865095376
124,0.029938,-0.083462,0.283156,-0.012671,-0.154076,-0.725951,0.670145,0.0614540011331439,0.227252758359909,-0.4900801034480333,4.250203913600743,-1.6535983973979949,8.681691446068882,-0.1512858867645263,-0.0057002208195626,0.0351120606064796,-0.9183234880999624,0.1545853688351447,0.1829215613722327,0.3151587044600326,0.2065914273262024,0.0728089660406112,0.1356619298458099,-0.0054280161857604,0.0012673139572143,0.0156075954437255,-0.0060226265341043,-0.0010058633051812,-0.0671101271986961,-0.0287422314286232,0.0459073263026773,-0.0083671385899186
125,0.029656,-0.084676,0.282286,-0.01514,-0.155164,-0.722299,0.67378,0.1304229079410433,0.2532154671341181,-0.6031739831864833,4.255454965996742,-1.7964280747085808,8.650683728864788,-0.6416498422622681,-0.0190265569835901,0.0424106568098068,-0.9174056562315978,0.1619897261296233,0.180823669188981,0.3153234991046419,0.2067179232835769,0.1087090671062469,0.1646017730236053,-0.0054407715797424,0.0008614063262939,0.0099492073059082,0.0073998514562845,0.0234194528311491,-0.0738087480545044,-0.0624899566173553,0.0904550546899437,-6.80968001484e-05
126,0.028952,-0.085557,0.28172,-0.015779,-0.155881,-0.715892,0.680404,0.343088338021934,-0.2779505338095128,0.3785498197644948,4.235523061819374,-2.024373637638241,8.610031400480866,-0.5671780705451965,0.154746413230896,-0.0791365951299667,-0.9150774125614168,0.1739006227108483,0.1754113558690372,0.318783262075999,-0.0915001928806305,0.0098426230251789,0.1524735540151596,0.0004302263259887,-0.0344771742820739,-0.0034531354904174,-0.0094423424452543,0.0295913778245449,-0.0746264941781759,-0.0932401865720748,0.0791498168215155,0.0084323127806186
127,0.024624,-0.087135,0.279606,-0.007924,-0.163824,-0.697607,0.697455,0.130173609355092,-0.2081716257929801,0.2319756952285766,4.163228517720103,-2.1347044824041426,8.61863965435028,-0.133617028594017,0.2137176692485809,0.0346760749816894,-0.9145303405284204,0.1784931547887476,0.1694457703045799,0.3210335050439068,-0.0780405774712562,-0.0990298017859458,0.0929339230060577,0.0126096010208129,0.0184215903282165,-0.0371255874633789,0.0014721835032105,0.0361241810023784,-0.0464431867450475,-0.0787815824151039,0.0525206069625914,0.0912260390624404
128,0.022949,-0.088198,0.27861,-0.006647,-0.169322,-0.688709,0.704958,0.1588262878656387,0.0349321971714496,-0.2483703651905059,4.143554095435142,-2.166070949918032,8.620295020341873,-0.1192090138792991,-0.0995221957564354,-0.0617964379489421,-0.9144226928611447,0.1797768875708001,0.1678319200829311,0.3214714985614668,0.0204497799277305,-0.0892587080597877,0.148894652724266,0.0249395966529846,-0.0193238258361816,0.0197731852531433,0.0213831067085266,0.0232351794838905,0.0642348640233278,-0.0575303845107555,0.0543773407451808,0.0013581366106867
129,0.020157,-0.089174,0.277113,-0.007379,-0.17535,-0.68126,0.710692,0.3983998908773064,0.0616727584503591,-0.1746083788871765,4.212682868979871,-2.198198611062765,8.578555481243132,-0.1187140941619873,-0.1281618624925613,-0.0897231251001358,-0.912699382313312,0.1831484666218309,0.1705052640184054,0.3230548662170274,0.1760345846414566,-0.1346466988325119,0.1908005475997924,0.0401787757873535,0.0378090143203735,-0.012797474861145,-0.0028367228806018,0.0152172185480594,-0.022853636842966,-0.0081925466656684,-0.0046013563156127,-0.032850130200386
130,0.018837,-0.09055,0.275547,-0.012903,-0.177839,-0.676277,0.714742,0.1554264162942767,0.092902301711589,-0.4923077163696289,4.221922406490147,-2.234366049117595,8.564657888793946,-0.1513270735740661,0.0356131866574287,0.0396262258291244,-0.9121337614428552,0.1852925310074172,0.1702664219476193,0.3235553226753915,0.2296821027994156,-0.2061003744602203,0.2670117020606994,0.0392467975616455,-0.0129516720771789,-0.0197204910218715,-0.0381434112787246,-0.0227747894823551,-0.0157306530952453,-0.0177225992083549,0.0488812275469303,-0.0884694338306784
131,0.018874,-0.092371,0.274472,-0.020074,-0.177912,-0.673804,0.716891,0.4092822271585464,0.0916037863336503,-0.5418500381737947,4.2291842141866685,-2.321952416503429,8.53773539507687,-0.3791449964046478,-0.067775547504425,-0.0890390649437904,-0.9110169077637892,0.1901422350592148,0.1689454904021638,0.3245790477574616,0.1949869692325592,-0.2835279703140259,0.2254830300807953,0.0148531198501586,0.0047577619552612,0.0012546777725219,-0.0170905422419309,-0.0013311002403497,-0.0818511847347021,-0.0337945893406868,0.0645771015897393,0.0371016501650214
132,0.020097,-0.095823,0.275584,-0.037842,-0.170597,-0.679239,0.712811,-0.1940212276265025,-0.2498974286273121,0.0923854382306337,4.210294512538612,-2.449714434672147,8.51132786514461,-0.41138356924057,0.1278173774480819,-0.0959028229117393,-0.9089394821333154,0.1970148981463392,0.165009625409247,0.3283077680350816,0.3551489412784576,-0.4368490278720855,0.2310253381729126,0.0361716151237487,-0.0118244886398315,-0.0061740837991237,0.0032819956541061,-0.0214236136525869,-0.008081015124917,-0.0689616501331329,0.1267617550849914,0.0195914201766252
133,0.021737,-0.098323,0.277376,-0.035384,-0.167288,-0.683502,0.709639,-0.178007373675704,-0.2279337263613939,0.3589513853251934,4.160761543084681,-2.532131874987483,8.511566350075602,-0.1360679417848587,0.0531864948570728,-0.0681037902832031,-0.9078825895782656,0.2007334631018286,0.1604274888528385,0.3312376488125652,0.6866826415061951,-0.4496769309043884,0.1556278020143509,-0.006357729434967,0.0402315855026245,0.013875775039196,0.008962775580585,-0.0185152348130941,-0.0241471837848424,-0.0494675002992153,0.1176139875113964,0.0877925574824213
134,0.021181,-0.100731,0.279196,-0.025287,-0.168795,-0.684145,0.709095,0.1983499044805765,-0.112443014614284,0.1945540193289518,4.165231966497004,-2.5219269995763898,8.51240923064053,0.048827264457941,0.0314173996448516,-0.1067953109741211,-0.9071797958440064,0.200653761214224,0.1603932426473804,0.3332218861457015,0.1526373773813247,-0.331764817237854,0.168010413646698,-0.0173977613449096,-0.0509868860244751,0.0979900956153869,0.0329608395695686,0.001414755359292,-0.027460253855586,-0.0278663914650678,0.1073908457912504,0.0168090959817171
135,0.020727,-0.102611,0.281155,-0.01681,-0.169863,-0.683325,0.709881,0.2845423332899808,0.1494438347533345,-0.2491325817346572,4.208476649461686,-2.486184655065834,8.501646429085731,0.024433709681034,-0.192061111330986,-0.1760057210922241,-0.9061523368667518,0.2001002516823644,0.1627775831567215,0.3351884986176477,0.3657030463218689,-0.2322567701339721,0.1470327675342559,-0.0076954960823059,0.0433052778244018,0.0336483791470527,0.029060672968626,-0.0053154602646827,-0.0717465502611128,-0.0527056753635406,0.0831417086024303,-0.0483650581857189
136,0.021246,-0.104861,0.282484,-0.0153,-0.167561,-0.685611,0.708256,-0.0608574965447187,0.1275160805836319,-0.5789186628520488,4.303831751152873,-2.458121759141981,8.461976681998372,-0.041400596499443,-0.2474427372217178,-0.1227301955223083,-0.904348555174699,0.2010853142105122,0.1677019410260819,0.3370377556206367,0.1957829892635345,-0.1511239409446716,0.1734127849340438,-0.0079816579818725,-0.0250870585441589,0.0358039140701293,0.0414876900613307,-0.0024271660950034,-0.0571206481039524,-0.0408673733472824,0.0782410314135253,-0.0012365560576319
137,0.023278,-0.11111,0.286482,-0.011985,-0.164859,-0.695123,0.69963,-0.2953948589548468,-0.054210021354258,-0.7189291910886764,4.415367003272474,-2.4790049726948142,8.398181378436089,-0.1536231040954589,-0.3158950805664062,-0.0303026381880044,-0.9023236222582384,0.2047624122479095,0.1728706437522019,0.3376390993697417,0.337714821100235,-0.0256694033741951,0.2063725292682647,-0.001377522945404,0.0104481577873229,-0.0151656866073608,0.0570043697953224,-0.0044554434716701,-0.0231891524076461,-0.0181603487581014,0.0701155926249921,0.0361032867774367
138,0.02456,-0.114824,0.288119,-0.009634,-0.163989,-0.700682,0.694305,-0.5726821065500378,0.013071663019061,-0.1153267533570528,4.443806915815174,-2.552421798822284,8.361106908538938,-0.2308025807142257,0.0795294716954231,0.1572997421026229,-0.9015544669126896,0.2090647670534143,0.1731880700423457,0.3368937928649044,0.3859385550022125,0.0557196214795112,0.1925804167985916,-0.0240457952022552,0.0317099094390869,-0.0196463465690612,0.0650582388043403,-0.0135644096881151,0.006495791760087,-0.0216461922973394,0.0825062876425683,0.0063429392859339
139,0.025692,-0.118692,0.289326,-0.007932,-0.164006,-0.705339,0.689591,-0.1164908287003636,0.1612181514382362,0.4402805920124054,4.372184279628097,-2.6713889545083043,8.361702536344527,-0.1912247687578201,0.143463522195816,0.2948812544345855,-0.9027540453468788,0.2130438255979428,0.1681788869794858,0.333711578382501,0.1641699373722076,-0.0017223665490746,0.2019538134336471,0.0057664811611175,0.0124217271804809,-0.0122379660606384,0.0577622093260288,-0.0324171781539917,-0.0069026189953088,-0.0421400666236877,0.0831796568594872,0.0027352701827883
140,0.026299,-0.122263,0.290438,-0.00701,-0.164281,-0.708116,0.686684,0.36780718421489,0.2440469490334391,0.3188116826385259,4.3336566883131855,-2.753619493949413,8.355081656900047,-0.0425448194146156,-0.0614184103906154,0.1857543289661407,-0.904017962551628,0.2157498756336599,0.1657147827578252,0.3297608334737958,0.3238573372364044,-0.0664114505052566,0.18388631939888,0.0216792225837707,0.000324547290802,-0.0499532222747802,0.0539453215897083,-0.0078230798244476,-0.0288800575256347,-0.0314645320177078,0.0445060812026262,0.028070202447474
141,0.026757,-0.125616,0.291772,-0.00612,-0.163584,-0.710817,0.684063,-0.3571212472885847,-0.0122521633297204,-0.0985936452209949,4.362470987126231,-2.792854356750846,8.327015838366746,-0.0367180816829204,-0.2068314403295517,0.1592587679624557,-0.9044641745117548,0.2178118977996648,0.1673270004718668,0.3263497031083543,0.2900660932064056,-0.0284684933722019,0.2063650041818618,-0.0016967952251434,0.0416743755340576,0.0209743231534957,0.0530898012220859,-0.0018611582927405,-0.0585883825689554,-0.0245389081537723,0.0306808233372867,0.0040130350336432
142,0.025651,-0.132908,0.293979,-0.003915,-0.159375,-0.711803,0.684047,-0.0769233729436993,0.0676785747364163,-0.1399246035188436,4.430030903919041,-2.824601786406338,8.280509523257614,-0.0303495768457651,-0.363321840763092,0.1618635207414627,-0.9044449296509948,0.220293924447693,0.1711201426092033,0.3227504705847123,0.4458639323711395,0.0232282038778066,0.2506706118583679,0.0187945663928985,-0.0003248453140258,0.0045874267816543,0.0528447516262531,0.0129288472235202,-0.0565489856958389,-0.0067176055163145,0.0078118427947163,0.0048991702184081
143,0.025235,-0.135849,0.295953,-0.000516,-0.154697,-0.712116,0.684806,-0.1478475054726004,0.0071127546146512,-0.2834755808413028,4.535521322916448,-2.8753663434818386,8.205589599090814,-0.1685907244682312,-0.3677570819854736,0.0717419013381004,-0.903392556653204,0.2247300687196452,0.1764306243433683,0.3197663767442766,0.384813904762268,0.0988289564847946,0.2543794214725494,-0.0091886520385742,-0.0097691416740417,0.0442148447036743,0.0460932180285453,0.0119115747511386,-0.041078444841504,0.0121502969413995,0.0066987669862806,-0.0046478258058428
144,0.023984,-0.140085,0.298069,0.004771,-0.148082,-0.711561,0.686826,-0.0926285993367433,0.0790203452229499,-0.3550035244822502,4.623355965974927,-2.9619384192585945,8.12538501251936,-0.2208224087953567,-0.2312819212675094,0.245423749089241,-0.9023706287581804,0.2305844438606741,0.1804202378236324,0.3162383091175809,0.0480691604316234,0.0163125079125165,0.2518500685691833,0.0111315846443176,-0.0364121198654174,-0.0193812847137451,0.0376477912068367,0.0011592768132686,-0.0443131889790296,0.0269335135817527,-0.0070531333819031,-0.0043096798926591
145,0.022824,-0.143571,0.300944,0.012819,-0.138031,-0.709436,0.691002,0.5514812053501605,-0.1353860833063721,-0.0689952102929353,4.627027347964048,-3.1205788291633128,8.063683466365934,-0.4273479878902435,-0.0167358722537755,0.2018440812826156,-0.9019157753891096,0.2384192353445926,0.1789492384057536,0.3125402164707226,0.0839051827788353,-0.0633031725883483,0.2385039031505584,0.0085608661174774,0.0165597796440124,-0.0179865360260009,0.0388650633394718,-0.0123079689219594,-0.0247048176676034,0.0195518489927053,0.0236496095262467,-0.0161626147717237
146,0.02237,-0.146773,0.303128,0.020449,-0.134802,-0.707757,0.693174,0.335219796603918,0.0836798614665865,0.3855132290363312,4.62915763799101,-3.2549498902082443,8.00915634188652,-0.1905777752399444,-0.2204401791095733,0.1425226628780365,-0.9011590996259812,0.2452598680572288,0.1774662407086508,0.3102669564057393,0.3307077884674072,-0.1330496072769165,0.2129118591547012,0.0115947127342224,0.0120415091514587,-0.029460072517395,0.0437705665826797,-0.0224326476454734,-0.0493009142637252,0.0077761001884937,0.0248905494980514,-0.0153352240368723
147,0.019118,-0.151633,0.304456,0.021242,-0.131859,-0.700909,0.700635,0.4638330247744918,-0.0764823511779308,0.1050865143716335,4.704650101348758,-3.317298502093553,7.939280841627717,-0.1799075603485107,-0.2774688899517059,0.0155736608430743,-0.8998747585183214,0.2499359717431884,0.1809456527761453,0.3082468286307108,0.1165161207318306,-0.1314622610807418,0.1794669479131698,-0.0082963705062866,0.0155636668205261,0.0302372574806213,0.0517520755529403,-0.0274717081338167,-0.0403501305669546,-0.0055494327098131,0.042529520432651,-0.028624036937952
148,0.018898,-0.152231,0.304521,0.020079,-0.132807,-0.700196,0.701202,0.0550651768788695,0.0761900902330875,0.129998252788186,4.808605858124793,-3.3650752755299207,7.856459935078024,-0.146766260266304,-0.3526439666748047,-0.0159708820283412,-0.8976594644708706,0.254827783009362,0.1857277918369972,0.3078563774376449,0.0762853473424911,-0.1841123700141906,0.1449725478887558,-0.0026136040687561,0.0089245438575744,-0.0019595623016357,0.0577006600797176,-0.0275691915303468,-0.0737514649093151,-0.0121495015919208,0.0589312046572566,-0.0301002469703555
149,0.018075,-0.15171,0.303795,0.019932,-0.13297,-0.700673,0.700699,0.0859124428242445,0.07785451631397,-0.2659872704237699,4.955976978257298,-3.4113314152702685,7.744126518318056,-0.1719384640455246,-0.5667887926101685,-0.065306156873703,-0.8949068670889673,0.2605101012722352,0.1931163315830711,0.3065653400123549,0.1697061210870742,-0.2060701698064804,0.1010369881987571,-0.0059567987918853,0.013283371925354,-0.0105116367340087,0.0532625243067741,-0.0192545689642429,-0.0970464157789945,-0.0095437671989202,0.0377593834213912,-0.0367450918123126
150,0.018428,-0.151874,0.304158,0.020263,-0.133063,-0.701299,0.700045,1.5673036772578954,0.1057397175833582,-0.333869551038742,5.168931746673584,-3.448942768523097,7.586654567670822,-0.2224785387516021,-0.3506261110305786,-0.1884005665779113,-0.8906562096969208,0.2675013381481661,0.2040375343479613,0.3058485379079952,0.3635174036026001,-0.1198776066303253,0.0857831984758377,0.003625750541687,0.0083705782890319,0.0006006360054016,0.0440123081207275,-0.0146140055730938,-0.0413765510052442,-0.0096957376226782,0.0540204901315271,-0.0735410370290279
151,0.01867,-0.152232,0.30427,0.019366,-0.133371,-0.701441,0.699869,-0.2476794603168964,0.0476928945451974,-0.3085118224203586,5.210709864217042,-3.566870059767365,7.503087811189889,-0.4216366708278656,-0.2001225352287292,0.1134198307991027,-0.8881386102247865,0.2751869926604976,0.2042574387312281,0.3062039431834614,0.5856918692588806,-0.0567769892513752,0.1469952762126922,0.0108932852745056,0.002260684967041,0.0098035037517547,0.0331990048289299,-0.0275943409651517,-0.0459714775800704,-0.00526336254552,0.0390861019805073,-0.0054109191328287
152,0.017192,-0.152034,0.306289,0.017487,-0.135575,-0.701269,0.699668,0.5409592268139124,-0.3831166892886161,0.5347615412175655,5.250165091770887,-3.6795436682671294,7.420721078148484,-0.3020612597465515,0.0723529458045959,0.0450591444969177,-0.8856659990572281,0.2825773467075975,0.2044469516792685,0.3065080129869109,-0.0390553586184978,-0.0598138980567455,0.2025807797908783,0.0114717781543731,-0.0256373882293701,0.0483567267656326,0.0342727936804294,-0.0212418567389249,-0.0117775315552949,-0.0064542666077613,0.0735886755630373,-0.004330430419743
153,0.017545,-0.152417,0.306401,0.017284,-0.136886,-0.701189,0.699499,0.1154436577349901,-0.1407122467651963,0.787948366779089,5.1070577665627,-3.782037243536114,7.468904386559128,-0.1151977479457855,0.4953887462615967,0.2965658903121948,-0.8873199799095799,0.2846370518029787,0.1953806268552392,0.3057309546351398,-0.0318784043192863,-0.0319493524730205,0.1188725084066391,-0.0265246629714965,0.0106847286224365,0.0015116482973098,0.0357238203287124,-0.022531209513545,-0.0448725764274597,-0.0083431834354996,0.0632215953275561,0.0193774851649999
154,0.017942,-0.151898,0.303704,0.017294,-0.138243,-0.700977,0.699444,0.5529284815490245,0.0606754179760813,0.366296487390995,5.006557410937547,-3.83812679502666,7.508232772862911,-0.0252251550555229,0.025309182703495,0.0059594577178359,-0.8889090735507742,0.2850552389654544,0.1895525964200074,0.3043914300483578,0.0462387688457965,-0.0451725348830223,0.027098910883069,-0.0309746265411376,0.0271300077438354,-0.0049709379673004,0.0343242809176445,-0.0095620173960924,-0.0489127917289733,-0.0098726339638233,0.0781298261240124,-0.0013493687823414
155,0.01839,-0.151906,0.302533,0.017042,-0.139957,-0.700722,0.699364,-0.0374877268731594,0.059320203974843,0.1566892758369445,5.040471370977163,-3.815971954102814,7.496825828185677,0.0854738652706146,-0.096390776336193,-0.0170443169772624,-0.8885593975648527,0.2846436056302791,0.191693217067976,0.3044569160319249,0.0037970342673361,-0.0499959960579872,0.009119844995439,-0.0111533999443054,-0.0163819789886474,0.0075917392969131,0.031507134437561,-0.0038424576632678,-0.0192220023423433,-0.0169855151325464,0.0985167805925011,-0.0154158880576491
156,0.01884,-0.152327,0.302385,0.015987,-0.141084,-0.700709,0.699176,0.1391448513180017,0.0765671068519353,-0.3314572292000055,5.033976748260855,-3.813017780472338,7.502689751783013,-0.0470771566033363,0.0298934467136859,0.0378057211637496,-0.8889411730131652,0.2841838766804057,0.1915954253398725,0.3038326142205546,0.0009578384924679,-0.0224738772958517,0.0544285364449024,0.0133525133132934,-0.020677626132965,0.014341652393341,0.0201902110129594,0.0130720622837543,-0.0335527255117893,-0.0103614218533039,0.0701116471022367,-0.0102232878506183
157,0.019192,-0.15208,0.301409,0.014573,-0.142139,-0.700801,0.698901,0.1995429136574268,0.0083992872938513,-0.2225456035822629,5.063959214070439,-3.834033972755074,7.471739317724108,-0.0759646594524383,-0.1712586730718612,-0.0200380831956863,-0.8882021216316415,0.2860096813116178,0.1929916842856511,0.3033968676587129,-0.1385838091373443,0.0160133820027112,0.0763467475771904,0.0040431022644042,-0.0131486654281616,0.0307300090789794,0.0069923596456646,0.0194630734622478,-0.0202443311274051,0.0090183392167091,0.0760188253194093,0.0098281510531902
158,0.019641,-0.15232,0.301616,0.014302,-0.142717,-0.700922,0.698667,0.2565957572221756,-0.122239893746376,0.0055488662987947,5.099382409629225,-3.856923557694256,7.435779531070589,-0.0869466438889503,-0.0531163625419139,-0.0220374334603548,-0.8870731806982379,0.288239210044474,0.1944194419357705,0.3036779249882474,-0.0832132324576377,-0.0051031964831054,0.0863844081759452,0.0082310140132904,-0.01176518201828,-0.0091946721076965,-0.0025793816894292,0.0292192883789539,-0.0173123693287372,0.0231419205665588,0.0894062762893736,0.0201850021556019
159,0.018684,-0.152333,0.302954,0.013612,-0.143388,-0.70114,0.698324,0.0664116235405206,-0.0247968798652291,-0.1120212820708751,5.113443668207526,-3.868923207567632,7.419872936886549,-0.013220690190792,-0.0838697701692581,0.0271925758570432,-0.8866876000922171,0.2892224523654547,0.195043913226127,0.3034689927555248,-0.0494089275598526,-0.0949210748076438,0.1021774858236312,0.0286900103092193,-0.0057712197303771,-0.0187789648771286,-0.0182130448520183,0.0376299619674682,-0.0190244339436292,0.0236560739576816,0.0625574323303997,0.0140299866572022
160,0.018989,-0.152737,0.30325,0.012654,-0.144255,-0.701409,0.697893,0.2681090848833322,0.0616302344828844,-0.022383681243658,5.142188116654753,-3.877239200492203,7.395626968902349,-0.0543115921318531,-0.0419186986982822,-0.0424927063286304,-0.8861058219857009,0.2903337578211035,0.1965560293064227,0.3031311000154472,0.0760344788432121,-0.1661188602447509,0.100167267024517,0.0137464702129364,0.0085414052009582,-0.0245827436447143,-0.0293513908982276,0.0413921028375625,-0.016309329766035,0.0183815006166696,0.0602075082033872,0.0120864513739943
161,0.019406,-0.153234,0.303297,0.011627,-0.14586,-0.701586,0.6974,-0.1256599313229322,-0.0252712193787097,-0.0283662627846002,5.143606751281022,-3.890744871014357,7.387543615689873,-0.04511583968997,0.0278812851756811,0.0335097126662731,-0.8856802932553308,0.2912634747030435,0.1962287007848206,0.3036943373429055,0.4316762089729309,-0.2304538190364837,0.169065237045288,0.0100272893905639,-0.0059796571731567,-0.01017427444458,-0.0257281623780727,0.0375954806804657,-0.0022825579792261,0.0129058295860886,0.0520566427126526,0.0397965883374214
162,0.020517,-0.154307,0.303078,0.009453,-0.148665,-0.70191,0.696514,0.0740016402781009,0.0591293575778603,-0.024632921475172,5.123211613506078,-3.912746567203104,7.390095053738356,-0.0413163378834724,0.0422340482473373,0.0540267452597618,-0.885978869160052,0.2918653451774259,0.1949990362837922,0.3030372654619464,1.0492054224014282,-0.2253105640411377,0.2465790063142776,0.0261121988296508,0.0121134519577026,0.024337962269783,-0.0062432251870632,0.0146578233689069,0.0183855515182018,0.0054047000594437,0.0618853782877326,0.0598880669906735
163,0.020852,-0.154681,0.303121,0.008574,-0.149879,-0.702073,0.696101,0.0450227985531091,0.0532423453658819,-0.0595136807203292,5.1087949656188485,-3.937984468834102,7.386668586421012,-0.0729361101984977,0.0083230640739202,0.0313414856791496,-0.885947081892845,0.2929045820450071,0.1938855626135872,0.3028416853248598,2.150063753128052,-0.1462655514478683,0.4092800617218017,0.0051330626010894,0.0444922447204589,0.0433325767517089,0.005783854983747,0.0069578676484525,-0.0219207399070262,0.0015758327208459,0.0592886397927999,0.0713899964749813
164,0.020406,-0.154958,0.302895,0.007893,-0.150587,-0.702144,0.695885,0.1250882689148187,0.0461012414395809,-0.1088198556810617,5.105793445715308,-3.962416607040167,7.37567080706656,-0.0516624152660369,-0.0377426408231258,0.0321298837661743,-0.8857709224522706,0.2941362316802515,0.1934666003218474,0.3024310278302457,2.80887770652771,0.129580482840538,0.4865517318248749,0.0009491443634033,0.0520231127738952,0.0693488419055938,0.0030218390747904,-0.0028117480687797,-0.0175187055557966,-0.0021902485750615,0.0608424451060593,0.0487675380393862
165,0.020079,-0.155358,0.303026,0.005653,-0.149524,-0.701951,0.69633,0.0653027855157852,-0.0374348276421427,-0.0917518165022134,5.122931627520918,-3.985571564917266,7.351269940781592,-0.0670660287141799,-0.0714705437421798,0.0537273399531841,-0.885374200300714,0.2956921407413525,0.1943082382057891,0.301534269109785,1.2523614168167114,0.1154522448778152,0.3562800586223602,0.0048224031925201,-0.0556080937385559,0.0935419201850891,-0.0017630932852625,0.0041475337930023,-0.0408645098298788,0.0044136778451502,0.0528628445290029,0.0612108400270342
166,0.019548,-0.15553,0.303458,0.003881,-0.147455,-0.701718,0.697018,0.0806926623493432,-0.0497390134200453,-0.0120469961464405,5.132382177433371,-4.015914388471842,7.328128719168901,-0.0364411547780036,-0.092745341360569,0.0689753368496894,-0.8851363194196874,0.2973922882468722,0.1947491986540701,0.3002736755026967,0.5420905947685242,0.0506532788276672,0.2535111010074615,0.010943055152893,-0.0371984839439392,-0.0063166618347167,-0.0022975502070039,0.0163205470889806,-0.0372556716829538,0.0001903288066387,0.0352804260872304,0.0552367340534925
167,0.01882,-0.154905,0.304867,0.007465,-0.147784,-0.702875,0.695752,0.2137339360952377,-0.013086568327248,-0.0411807361721992,5.148379957032203,-4.03880017401874,7.304291331985592,-0.056164089590311,-0.0627020075917244,0.0402567647397518,-0.8849055098724472,0.2988115847143606,0.1956947404293141,0.2989273899971414,-0.2590284645557403,-0.0739179477095604,0.1643921285867691,0.0174325704574584,0.0186511278152465,-0.01950603723526,-0.0003404940944164,0.0223254840821027,-0.0367068056285381,0.0003984855720773,0.0325339038580656,0.0517190813213586
168,0.019414,-0.154841,0.305422,0.008106,-0.147598,-0.70449,0.694149,0.1726513996005058,-0.0649517801210284,0.0689993019461631,5.146067588436603,-4.068487748534977,7.289429862940311,-0.0384149514138698,0.0256349649280309,0.0539092347025871,-0.8847339389292961,0.3002977978073747,0.195355446054529,0.2981667890018992,-0.3707494139671325,-0.0635440275073051,0.18205426633358,0.0003480017185211,0.021158218383789,-0.0338817238807678,0.0055314460769295,0.0299675427377223,-0.0265542449265718,0.0052963159978389,0.0285099090389907,0.0692255119174718
169,0.019515,-0.15448,0.306957,0.009557,-0.146431,-0.705724,0.693124,0.1076578261643648,0.0677972326800227,0.0158025492876768,5.1272635192453855,-4.084818997871875,7.293545481565594,0.0031952350400388,0.0153460530564188,0.0684812813997268,-0.8851556663611648,0.3005731287733982,0.1943925507927404,0.2972655247112448,-0.6427910327911377,0.0232109986245632,0.039702121168375,0.0159506499767303,-0.0200183987617492,-0.0330686867237091,0.0109279323369264,0.0242282971739768,-0.0496305846095085,-0.0008493359200656,0.0262492706306278,0.0518614124014973
170,0.019642,-0.1547,0.307066,0.01039,-0.149716,-0.705198,0.692945,0.03329027518332,0.1243190381079912,-0.0409346524566411,5.117984234246611,-4.0995916195899245,7.291774380239844,-0.025898402556777,0.022879846394062,0.0459534786641597,-0.8853846140107124,0.301012689427884,0.1939441633479897,0.2964306913075649,-0.947554647922516,-0.1428711265325546,0.0589768812060356,0.0311494171619415,-0.012420117855072,-0.010827898979187,0.0066056563518941,0.0230519883334636,-0.0412988095939159,-0.0159976314753294,0.0107268534585833,0.0263566765278577
171,0.018563,-0.155733,0.30554,0.004663,-0.153058,-0.702742,0.69477,0.0199018013000488,0.1464844004258513,0.0749111563384532,5.0766053451538085,-4.119063212779164,7.30970458920598,0.017240947112441,0.1532235145568847,0.1298882961273193,-0.886228692491204,0.3008998345800179,0.1917500419703082,0.2954486252888781,-0.8663610219955444,-0.1949337422847747,0.1089099571108818,0.016151875257492,-0.0685456991195678,-0.0445329248905181,0.0022793710231781,0.0240057352930307,-0.056923664227128,-0.024877406656742,-0.0067854223564267,0.0369613649114966
172,0.015843,-0.159108,0.301692,-0.001262,-0.162875,-0.697299,0.698029,0.2633721194893121,0.0686249156758189,-0.1462415315806865,5.0161418163627385,-4.1345775927752255,7.342613756117224,0.0432467944920063,0.0455851852893829,0.0889150500297546,-0.8877015580090535,0.2999735774911103,0.1888034647984453,0.2938623179543834,0.1749448180198669,-0.2454208880662918,0.2283114492893219,0.0531997084617614,0.0903488397598266,-0.0171248316764831,0.0070801153779029,0.0239543803036212,-0.0494914683997631,-0.0216909702867269,-0.0149380414128303,0.042598494015634
173,0.015237,-0.158835,0.302414,-0.001893,-0.15834,-0.698144,0.698226,0.2441238136619329,-0.10702332765311,0.0132142863601446,5.0083057159096,-4.1328088295370335,7.348955818620324,-0.0089533440768718,0.0693355351686477,-0.0032356542069464,-0.8879933046173663,0.29961044333156,0.1885235256010659,0.2935307830415991,0.1379788070917129,-0.2788662016391754,0.2270515114068985,0.0170126855373382,-0.1008814573287963,-0.0375820100307464,0.0187105797231197,0.0161744467914104,-0.029524785169959,-0.0166064165532588,-0.008549947810918,0.0102691728189587
174,0.014359,-0.157289,0.303186,0.000694,-0.154276,-0.699605,0.697675,0.2495037531346082,-0.0237666600346565,-0.0605307488083839,4.979283035042882,-4.139151476562023,7.3650903763413424,0.0072934813797473,0.0398753993213176,0.0215261373668909,-0.8884512833291643,0.2992756929564523,0.1868661843102417,0.293546296385248,-0.5117536783218384,-0.2687010467052459,0.2485767602920532,0.0504342317581176,-0.0674865841865539,-0.014217734336853,0.0070662666112184,0.0059891650453209,-0.0562818591922521,-0.0104683758690953,-0.0578770194292068,-0.0297398892253637
175,0.013696,-0.156458,0.303509,0.00188,-0.152612,-0.699845,0.697799,0.16553776820302,-0.0654436552911996,-0.2648164730787277,4.990375506943464,-4.143562571002542,7.355095052027702,-0.0603010058403015,-0.0473681613802909,-0.0272376723587512,-0.8881311068234296,0.2998201142876121,0.1873563604683296,0.293647191199901,-1.3829927444458008,-0.3415202796459198,0.3118846416473388,-0.0053393840789794,0.0009823441505432,0.097875028848648,0.004570108372718,0.0059048668481409,-0.0441992072105407,-0.0014684153720736,-0.0498005343489348,-0.0128027829498052
176,0.013423,-0.156676,0.303091,0.001402,-0.154568,-0.699204,0.698011,-0.1865951692789793,0.0458832147747278,0.2043517752438783,4.986220725351572,-4.165855359092355,7.345313662725687,-0.0678995102643966,0.0673453584313392,0.0510542094707489,-0.887737849331527,0.3010775281447536,0.1866696409317997,0.2939867423222361,-0.7295360565185547,-0.3402070105075836,0.1330046951770782,-0.0751225650310516,0.0385089516639709,0.0383288860321044,0.0177345965057611,-0.0067468206398189,-0.0291086055845022,0.0061486456543207,-0.0435087407283484,0.019608663572371
177,0.013272,-0.15898,0.301311,-0.005052,-0.156288,-0.698372,0.698445,-0.1866524524241685,0.0552513471007347,0.2795107688635587,4.962186354291439,-4.198716595208644,7.342878544533252,-0.0179888717830181,-0.0126715544611215,0.1216780990362167,-0.88809873552399,0.30212033405041,0.1853123997839975,0.2926826368338843,0.6996179223060608,-0.0247898679226636,-0.0206323247402906,-0.065257579088211,0.1477230787277221,-0.0448883771896362,0.0375202484428882,-0.014637179672718,-0.0170002346396446,0.0143335107713937,-0.0210774209506809,0.0120382283180952
178,0.011571,-0.159427,0.30031,-0.006201,-0.160362,-0.694537,0.70133,0.3021785277456045,0.0947860696315765,0.1634703142791986,4.963718386164308,-4.205929887588322,7.337713124594092,0.0352835692465305,-0.0408759079873561,0.0487412475049495,-0.8885105061333699,0.3022186779155054,0.1858618197572483,0.290978160993147,0.7459249496459961,0.0622256696224212,-0.10506471991539,-0.0261727571487426,0.1102576255798339,0.0454050302505493,0.0443008132278919,-0.0361946299672126,0.0235872118145227,0.0153830405324697,0.0297398892253637,-0.0164312025800347
179,0.010579,-0.159545,0.299376,-0.003939,-0.165915,-0.690571,0.703966,0.3303197496026754,-0.0682353318363428,0.0050642976522445,4.953533676758409,-4.211250790350139,7.341542912015319,0.0412710458040237,-0.0202883966267108,0.0531775690615177,-0.8890287275709092,0.3020202505993983,0.1856589267883738,0.2897283195346787,0.5984750390052795,0.1547687500715255,-0.1502536982297897,0.0053229629993438,-0.1536659002304077,-0.0247449278831481,0.030801810324192,-0.0352328643202781,-0.0432066890418529,0.02856420353055,0.0189187816120684,0.0169783150687813
180,0.010237,-0.159659,0.299272,-0.003978,-0.16573,-0.690043,0.704527,0.3667091598451137,0.0419306777566671,-0.2191805110633373,4.979842422491312,-4.18704164724499,7.337590959519147,0.0988673716783523,-0.1357832551002502,-0.0601263754069805,-0.8891405321086145,0.3011054989063429,0.1876764923817976,0.289036646286983,0.1039787605404853,0.096345342695713,-0.0213399939239025,0.0571882724761962,0.0780187249183654,0.0304267406463623,0.0083881579339504,-0.0312255509197711,-0.0273719910502433,0.0349868275225162,0.0699482732340693,0.0262725053757429
181,0.010265,-0.159873,0.299558,-0.004219,-0.164295,-0.691774,0.703163,0.0254956757843494,-0.0125859253287315,-0.6062362933665514,5.044675252407789,-4.158113074402511,7.309701666596531,-0.0304937735199928,-0.1379238218069076,-0.0666534230113029,-0.8883324054395025,0.3009992395856363,0.1915943273098722,0.2890618445011843,-0.545718789100647,-0.0577331706881523,-0.0519733354449272,0.0721191465854644,-0.0688021183013916,0.0081760883331298,-0.0017273901030421,-0.0266283955425024,-0.0606575900584459,0.0365877039730548,0.0712733843579888,0.0768088066533207
182,0.011205,-0.15994,0.299086,-0.004225,-0.164571,-0.694439,0.700466,-0.3380488825500011,-0.0660328533560037,-0.3434814289927482,5.065250422924756,-4.18367509342134,7.280829792377352,-0.1498962789773941,0.0072960155084729,0.030128214508295,-0.8873422453659272,0.3030889458253544,0.1921407526780993,0.2895562390544322,-0.9919447898864746,-0.1705568134784698,0.157736673951149,0.044056087732315,-0.034530758857727,-0.036165565252304,0.0001706226030364,-0.0135714383795857,-0.0674473963290453,0.0289118811488151,0.0749099872946739,0.0926484730809927
183,0.011538,-0.160157,0.298866,-0.005314,-0.163856,-0.695458,0.699615,-0.1756196017563343,-0.0627115999788045,0.3580909691035747,5.006370363932848,-4.241763709774613,7.287941085687279,-0.0818621963262558,0.2431989461183548,0.1733409613370895,-0.8877239098690165,0.3049160701960753,0.1882673569562672,0.2890120042985084,-2.1486306190490723,-0.4560244381427765,-0.256719559431076,-0.0502799153327941,-0.1200158596038818,-0.0526583194732666,0.0011093937791883,0.0047937547788023,-0.0370282926678657,0.017514880746603,0.0506802397929131,0.0397884050309658
184,0.011378,-0.160358,0.298418,-0.00715,-0.162769,-0.695894,0.699419,0.3450228132158517,0.086271339264512,0.1174520749479532,4.937932787522674,-4.284653587952256,7.309511112460494,-0.0223982203751802,0.03190878033638,0.0876443311572074,-0.8888701283016812,0.3054188437865188,0.1844938703854403,0.2873870785729578,1.3325064182281494,0.1166350096464157,-0.0891939401626586,-0.0359756648540496,0.295134425163269,0.0125749707221984,0.0066336644813418,0.0038259862922132,-0.0355605582028627,0.0069705564528703,0.0533462441317737,0.0260676304534077
185,0.011864,-0.159956,0.298754,-0.005197,-0.161761,-0.696578,0.698989,0.3350105377674102,0.0887754310399293,0.0642430473297834,4.940911511072517,-4.297631727468967,7.299872346499562,-0.0368361584842205,-0.0321454443037509,0.0108923567458987,-0.8887802837488282,0.3061258725526014,0.1846538602088115,0.2868090358412367,1.7928049564361572,0.2561043202877044,0.0351019762456417,-0.0093481242656707,-0.0657874941825866,0.1808791756629943,0.0112239113077521,-0.0091203078627586,0.0256079039871692,-0.0029215328395366,0.0787859519451856,-0.0181385910198092
186,0.012817,-0.159539,0.299085,-0.000544,-0.164413,-0.696926,0.698042,0.253926245751977,0.0143327689960598,0.0569487986683845,4.943735920843482,-4.313720400221645,7.28846247921288,-0.0264696069061756,-0.0291308108717203,0.0309964586049318,-0.8886151896503428,0.3070269195598695,0.1847330820917483,0.2863063674850874,1.9313268661499023,0.2627939283847809,0.0900270119309425,-0.0053842067718505,0.0497369766235351,0.0523039400577545,0.0066309948451817,-0.0069589568302035,-0.016346739166975,0.0110404817387461,0.0754819419637322,0.0049780806735157
187,0.011652,-0.161259,0.296237,-0.004445,-0.165951,-0.695932,0.698655,0.2219751102179288,0.0762888744324445,-0.1560083078354597,4.957281631115079,-4.315821171893179,7.278010058781504,0.0151941515505313,-0.0760911032557487,-0.0062389364466071,-0.8885073118068183,0.3073506746444559,0.1856349157501778,0.2857096009304278,0.7540707588195801,0.2910404205322265,0.0696961060166359,-0.0248940289020538,-0.1227415800094604,-0.0437930822372436,0.0005412208847701,-0.018947247415781,-0.0067927288800477,0.0118064759299159,0.114821872574836,0.0050339025139808
188,0.010996,-0.161273,0.295573,-0.003848,-0.167711,-0.693873,0.700285,0.0841337427139282,-0.1206377192467451,-0.2678057180225849,4.976011466026306,-4.321204910758137,7.262016955357789,-0.0685104429721832,-0.0411474741995334,-0.0081215417012572,-0.8880429078145868,0.3081197743306703,0.1865539717562406,0.2857266692917853,-0.0361186899244785,0.1391761153936386,-0.1053509414196014,0.071838766336441,-0.0830211639404296,-0.0361787676811218,-0.013014368712902,-0.0107370316982269,-0.0512333436310291,0.0182112157344818,0.0849606950573623,0.0410316830903291
189,0.010712,-0.161536,0.29481,-0.003275,-0.168126,-0.69365,0.700409,0.1659147848218679,-0.0972884078413248,-0.1001829602390527,4.994487618437409,-4.343058138386905,7.236250645938515,-0.0658542960882186,-0.0181317795068025,0.0078405868262052,-0.8873704549516716,0.3098012006287736,0.1872888281120184,0.285516712789983,-0.5469561219215393,-0.056037750095129,0.0359556525945663,0.014489859342575,0.0230087041854858,-0.0124781727790832,-0.0187479965388774,-0.009486224502325,-0.0153372698634862,0.0158455166965723,0.1064474274612963,0.0491521534428
190,0.010958,-0.16154,0.294524,-0.002691,-0.167864,-0.694391,0.699739,0.0848462748974561,-0.2051622148439288,-0.0759258863389492,4.977992410710454,-4.362974260473251,7.235636313432455,-0.0642653554677963,0.0955620855093002,0.0440752618014812,-0.8872772202547354,0.3106177628041037,0.186015626710411,0.2857516937178062,-0.5046241283416748,-0.301469087600708,0.0585626922547817,0.0578013062477111,0.0341694355010986,-0.1095627546310424,-0.0115303667262196,-0.0125020314007997,-0.0236228676497936,0.0018175654113292,0.1075429676130414,0.0563145924180746
191,0.011309,-0.161569,0.294176,-0.00246,-0.167541,-0.695312,0.698903,0.4062655096858739,0.1658867277711629,-0.2087386120259761,4.965425190082192,-4.376389330102503,7.236169397395849,-0.0331395678222179,-0.0563109256327152,-0.0966566279530525,-0.8870806161469181,0.311236724725452,0.1849046380624755,0.2864087517651904,-0.6323487758636475,-0.1979172825813293,0.0999303758144378,-0.0122348666191101,-0.031629741191864,0.0042409598827362,-9.10051167011e-05,-0.0050393193960189,-0.0243032511293888,0.000745284021832,0.1255820437811315,0.0320887904390692
192,0.011537,-0.161881,0.293011,-0.005575,-0.168448,-0.692991,0.700969,-0.2544803725033998,0.0106058574274182,0.1434334884226322,4.97868916080296,-4.369848530156911,7.231006900066137,-0.025799861177802,0.1011374592781066,0.0146541018038988,-0.8864811438036176,0.3114668074117424,0.1852287147674819,0.2878018941916817,-0.3188380002975464,-0.1161970645189285,0.1830241233110427,-0.048392504453659,-0.0566160082817077,0.0983363091945648,-0.0014830003492534,-0.0051204161718487,-0.0176496384590864,0.0016231449553743,0.1029787284374237,0.009662439097464
193,0.012066,-0.162141,0.291771,-0.007726,-0.169498,-0.692938,0.700748,0.1886100162327289,0.157960318686068,0.0650374125778675,4.929893857973814,-4.39240552214086,7.250745035237073,-0.0349000804126262,0.0967622175812721,0.0422514751553535,-0.8870607827607889,0.3115937604298781,0.1822751126593854,0.2877641968200951,-0.3464951813220978,-0.1434012502431869,0.1875678896903991,-0.0247190594673156,-0.0313457250595092,0.024557888507843,-0.0022617301438003,-0.0013007000088691,-0.0346323374420404,0.002761933254078,0.0846612737193703,0.0331043972223997
194,0.012774,-0.161653,0.293022,-0.002683,-0.170638,-0.694534,0.698927,0.2363087559968233,0.160517309692502,0.0840039788544178,4.916312491866946,-4.399900261810422,7.255421210354566,0.022678991779685,-0.0317257866263389,0.0112934587523341,-0.8873204783902631,0.311624538570956,0.1815670776089712,0.2873778184762997,0.4442537724971771,0.0786129012703895,0.0725270435214042,-0.0670734345912933,0.1205947995185852,0.1342073380947113,0.0002868210431188,0.0076567167416214,-0.0157142864823341,0.0075049558654427,0.0830951934464275,0.0437125927373766
195,0.012423,-0.162021,0.292458,-0.005456,-0.168448,-0.694739,0.699237,0.1758434736400842,0.0252870014697313,-0.1147615206897258,4.923207512077689,-4.396799957707524,7.252624273112416,-0.0003485640045255,-0.0229416135698556,0.0044776299037039,-0.8873043962188789,0.3115690855749058,0.1820542882901055,0.2871791856969833,0.1156066507101059,0.0539889894425869,-0.1539007723331451,-0.0290811359882354,0.0877074599266052,0.0234670341014862,0.0032968281302601,0.0051154289394617,-0.0022428104907274,0.0110662057995796,0.0994964392796158,0.0555415622189641
196,0.012325,-0.162,0.291635,-0.003667,-0.172737,-0.693582,0.699351,0.2008393832087516,0.0369949749201536,-0.1025935285121202,4.9312820974618194,-4.398930832256377,7.245843819192052,-0.0097976913675665,-0.0157373305410146,-0.00276172417216,-0.8871844044083854,0.3118419923467541,0.1825358909891532,0.2869479008053687,1.0739980936050415,0.3197194337844848,-0.2700970768928528,-0.0280803442001342,0.0272755622863769,-0.0240044295787811,0.0063935909420251,-0.0014567333273589,0.0205605574697256,-4.01549041271e-05,0.1170914249420165,0.0508387913554906
197,0.012249,-0.162655,0.289524,-0.001972,-0.169797,-0.693942,0.699721,-0.0295721314430236,-0.000853986480832,-0.3817389711946248,4.943071903976798,-4.402082574285567,7.235888826888799,-0.0107189128175377,-0.151944875717163,0.0061844498850405,-0.8870070249440416,0.3122433759025027,0.1832386511059501,0.2866115569649987,0.3799163401126861,0.1462612450122833,-0.0060468572191894,0.0770228207111358,-0.1320170164108276,0.0144368410110473,0.0061151785776019,-0.004503620788455,0.0328431159377098,0.0068257483653724,0.0835515589118003,0.0948740401759743
198,0.012195,-0.162699,0.288871,-0.002431,-0.169019,-0.693687,0.700161,0.1748340043365955,0.011827800437808,-0.1020242041915655,4.970006672653556,-4.410125887748599,7.212503859648108,-0.0536905005574226,0.0379903279244899,0.0157709568738937,-0.8863620311761796,0.3133533727580308,0.1845922640932,0.286527097324469,-1.9551798105239868,-0.4755701422691345,-0.2202066928148269,0.0371055305004119,-0.1296177506446838,-0.1266686618328094,0.0026210872456431,0.0133654717355966,0.0204892457991838,0.0187936089932918,0.0858417156755924,0.0621782237544655
199,0.01126,-0.162578,0.289285,-0.003424,-0.169509,-0.693617,0.700107,0.3434755837738514,0.0361135159105062,-0.2153898866087198,4.938581606820225,-4.450721809770166,7.209151626610756,-0.1102289855480194,0.1064426526427269,0.061359729617834,-0.8865680119970842,0.3147825014581108,0.1826130566891627,0.2855898518920081,0.0269958302378654,-0.2268536984920501,0.0833946764469146,0.0169927775859832,0.1393696665763855,-0.0268675088882446,0.0001277234405279,0.0076328595168888,-0.0300011705100536,0.0066389366984367,0.0703463326409459,0.0699079412236809
200,0.011529,-0.162828,0.288601,-0.003963,-0.170584,-0.693745,0.699717,-0.0081564184486865,-0.009709200848639,0.3314315102368593,4.92180582858622,-4.483308905120194,7.200427052885294,-0.0593923702836036,0.0440887100994586,0.0245214328169822,-0.8861744572374977,0.3163852890248183,0.1810545097012331,0.2860322002378904,-2.8725907802581787,-0.5511007308959961,-0.3358725011348724,-0.0224118530750274,-0.2119172811508178,0.0751740634441375,0.0030944673344492,0.0069742202758789,-0.0074836337536573,-0.0091832019388675,0.0564021245710551,0.0313882409542798
201,0.011817,-0.16326,0.288021,-0.005287,-0.170041,-0.693688,0.699897,0.0733452221959829,0.0283005040720105,0.22120821749866,4.895820031197369,-4.498125365979969,7.208897359588742,0.0598751977086067,-0.0123718278482556,0.1154257357120513,-0.8868661565742587,0.3163448524482425,0.1799290771348508,0.2846398099157985,0.4396814107894897,0.041431974619627,0.3036786317825317,-0.0127755403518676,0.1868065595626831,-0.0647185295820236,0.0112853618338704,-0.0012758178636431,0.0011328034222126,-0.0221509970724582,0.0675451576150953,0.0576961099043488
202,0.01134,-0.162835,0.288078,-0.006325,-0.166572,-0.695435,0.698988,0.3331140564963221,0.1049964980006217,-0.0713818131685257,4.891482878775895,-4.497010098214448,7.21253659287393,0.0328211076557636,-0.0184336807578802,0.0409722588956356,-0.8875207835636985,0.3158253099361513,0.1803256480353847,0.2829205323414205,0.602256715297699,0.1594169288873672,0.1425566673278808,-0.0009367167949676,-0.0162611007690429,0.1801907420158386,0.013198141939938,0.0077895103022456,-0.0292108969151973,-0.0136814340949058,0.034634967790544,0.047182606935501
203,0.012173,-0.162777,0.288247,-0.000312,-0.171347,-0.694956,0.698338,0.2366086157262325,-0.0255637725844979,-0.1343593706071376,4.88832967544198,-4.499028452299535,7.2134151292741295,-0.0035683608148247,-0.0107817873358726,0.0183477215468883,-0.8877141671443852,0.3157612886971372,0.1803135720904953,0.2823922609409435,1.7530802488327026,0.215262621641159,0.050862431526184,0.0031215846538543,0.1878407001495361,-0.0676230788230896,0.0011961879208683,0.000696477945894,-0.0084171152114868,-0.0083087161183357,0.0602180295974016,0.006374503467977
204,0.013433,-0.164119,0.284862,-0.002053,-0.17573,-0.696703,0.6955,0.1977145291864872,-0.0672074500933289,-0.156000124529004,4.894303489154577,-4.500779679881036,7.208270752122997,-0.0030654864385724,-0.029891500249505,-0.0095450617372989,-0.8876323951422749,0.3159659856766248,0.1806819558844596,0.2821850174549218,2.2851598262786865,0.6899476051330566,0.0162318162620067,-0.0480988919734954,0.0623005628585815,0.0845932364463806,-0.0019641921389847,-0.0006957706063985,-0.0341536140143871,0.0009765084832906,0.0667315031446516,0.0315144976824522
205,0.014489,-0.165189,0.283196,-0.00459,-0.179787,-0.696905,0.694247,0.0626443799614906,-0.0392199574932456,-0.203716399949789,4.902630587995052,-4.505872619105875,7.199423428800702,-0.035230878740549,-0.030860623344779,0.0050493273884058,-0.8873938935517902,0.3164569689553801,0.1810705243719783,0.282135420945302,-0.4667688608169555,0.1322674453258514,-0.0917197540402412,0.117905706167221,-0.293556272983551,0.0601596236228942,-0.0088333236053586,0.0109516633674502,-0.0346212315261363,0.0121009293943643,0.0562464956179261,0.029603111103177
206,0.012724,-0.166212,0.281317,-0.009178,-0.180478,-0.69493,0.696,0.1163917522400617,-0.0428051225036382,-0.2491717447012662,4.918763976672292,-4.517700419543683,7.180984101268649,-0.0521133430302143,-0.0385283380746841,-0.0056595387868583,-0.8869339669143121,0.3175002820687579,0.1818385896018118,0.2819158061146091,-1.6549973487854004,-0.0392651110887527,-0.0843923985958099,0.0176448225975036,-0.0614071488380432,-0.0854620933532714,-0.0297579355537891,0.0260774716734886,-0.0304898308098316,0.0153911942616105,0.0487131775036454,0.022598200777173
207,0.010414,-0.166211,0.280647,-0.010679,-0.17659,-0.693902,0.697999,0.1805021131008863,0.0375616688922047,-0.083414196267724,4.908073655831814,-4.538960065193474,7.174889291524886,-0.0784524381160736,0.1163330227136612,0.0255562309175729,-0.8866884048268566,0.318545435564352,0.1808625348552059,0.2821368610493855,-1.061907410621643,-0.4386633336544037,-0.0689492598176002,0.0509548485279083,0.1018805503845214,-0.120375245809555,-0.0299687404185533,0.0389080420136451,-0.0427186132639646,-0.001880750991404,0.039402766714245,0.047945408001542
208,0.010216,-0.16595,0.281021,-0.009757,-0.175861,-0.694477,0.697625,0.0148699446126818,0.0576797432914376,0.0321878668993711,4.858677172239124,-4.571049440154433,7.18812578971684,-0.0675452351570129,0.0868430510163307,0.0542537830770015,-0.8869876432494284,0.3193050067547756,0.1776285371835549,0.2823923138172667,0.3440600633621216,-0.117507554590702,0.0216944273561239,-0.0047824680805206,0.0605883598327636,-0.1096217930316925,-0.0045355428010225,0.0228586159646511,0.005773907226324,-0.0236561484634876,0.0746304397009313,0.0734890145808458
209,0.010215,-0.166245,0.280527,-0.01065,-0.177087,-0.694693,0.697086,0.0627300124183297,0.1466828456073999,-0.2161374901056289,4.868876494692266,-4.5915182276874775,7.16815092318058,-0.0877291113138198,-0.0900086760520935,-0.047420784831047,-0.8863182143438709,0.3208245101399457,0.1777573023378984,0.2826906142130472,-0.8908218741416931,-0.0453911237418651,0.124697707593441,0.0593424141407012,-0.2091595530509948,0.0761398375034332,-0.0070979404263198,0.0132992314174771,-0.0144482120692729,-0.0151591654866933,0.0591379792757332,0.031919571352005
210,0.010103,-0.166937,0.279599,-0.012909,-0.178818,-0.694215,0.697082,0.0587757218345999,0.0481482370972633,-0.2633317874789238,4.8937797575414175,-4.617780796191096,7.134241054794192,-0.1682050675153732,0.1373254209756851,0.0222456399351358,-0.8852443520770601,0.3230521295001226,0.1785840241587128,0.2829971621626195,-1.7314388751983645,-0.2665880918502807,0.229311466217041,0.0196327567100524,0.006515085697174,0.0282500088214874,-0.0188067406415939,0.0026254039257764,-0.0230728325515985,-0.0115880910307168,0.0712853670567274,0.0329939225852489
211,0.011023,-0.167563,0.27917,-0.013487,-0.180588,-0.695758,0.695073,-0.2629246679827571,-0.1465095348671078,0.3423556398332119,4.810411446242034,-4.694266654500365,7.1410209241926665,-0.1660851389169693,0.2204096317291259,0.1649094671010971,-0.8853764268916973,0.3256185831628533,0.1728635446758602,0.2831945855029402,0.0804593190550804,-0.060315478593111,0.2391636371612548,-0.0786589980125427,0.2139874696731567,-0.0110475420951843,0.0054230820387601,0.0209537614136934,-0.0623421821445226,-0.0157220214605331,0.0611089870877563,0.0799298612833023
212,0.01065,-0.166324,0.281151,-0.006279,-0.179364,-0.696209,0.695041,0.2516205991581082,0.0088072835728526,0.4110200107365846,4.756749998681247,-4.74094686487168,7.146127891942858,-0.0013279940467327,-0.0163364596664905,0.0698268190026283,-0.8859276119920876,0.3268607095669047,0.169737880459608,0.281928283420132,0.9667686223983764,0.2359624654054641,0.0339716672897338,-0.0381825566291809,0.0486906766891479,0.1474927812814712,0.0344860777258873,0.0267191287130117,-0.0438391417264938,-0.0203706733882427,0.0427034156948328,0.0149789579451084
213,0.011242,-0.166325,0.281031,-0.005828,-0.180562,-0.696667,0.694276,0.0632505291610956,0.0003229483440518,0.212205995875597,4.757624151167273,-4.743984625132382,7.143529692143201,0.0463822595775127,-0.0202490910887718,0.0858434215188026,-0.8863395236559504,0.326768895103046,0.1703039867407494,0.2803943993252041,0.1681087464094162,0.3116970956325531,-0.0359184704720974,-0.058432400226593,0.003809630870819,0.1059062778949737,0.032136220484972,0.0216274037957191,-0.012913257586956,-0.0284524708986282,0.046982262057811,-0.0635381139308214
214,0.01075,-0.166633,0.281638,-0.006036,-0.183134,-0.695986,0.694283,0.1973047793418169,-0.0646177258610725,0.0274421336770057,4.738192305466533,-4.754461303222179,7.1494766178488725,0.0295086055994033,-0.0072815832681953,0.0912743881344795,-0.8871025809646442,0.3265695471588468,0.1697953813906871,0.2785154169420651,0.730154275894165,0.4545000195503235,-0.1296877712011337,0.0038080811500549,-0.03249192237854,-0.154135912656784,0.0065020285546779,0.0152313336730003,-0.0161789813846349,-0.0152809787541627,0.0605013765834271,-0.047063364470005
215,0.010464,-0.167405,0.280869,-0.009449,-0.184868,-0.695407,0.694365,0.1904135585233569,-0.0691223438039422,-0.2678787832587957,4.751368013381958,-4.751303131452203,7.142828850397467,0.0349380895495414,-0.1444660276174545,0.0055255005136132,-0.8873381451228899,0.3264330071352097,0.1710513964732612,0.2771530839610072,0.1675010174512863,0.1071860045194625,-0.0456349439918994,0.0703434646129608,0.0284410119056701,0.0307144522666931,0.0037066666409373,0.0154860634356737,-0.0443769018650054,0.003359755501151,0.0464205365218222,-0.0136073773309588
216,0.009578,-0.167999,0.27992,-0.013917,-0.184877,-0.694542,0.695154,0.356432388241589,0.0600201689377427,-0.0217044668078422,4.784966039340198,-4.75085947933793,7.120662026774883,-0.0563163757324218,0.0999796614050865,0.0017752461135387,-0.8868747078855644,0.3271000974766815,0.1730688134666437,0.2765973639794051,-0.4431330561637878,-0.1933133751153946,-0.0643810704350471,0.0977982282638549,-0.0750601291656494,-0.1098213791847229,0.0212792232632637,0.024234551936388,-0.0408405444324016,-0.0066260704770684,0.0587185848198831,-0.0251847101390361
217,0.008559,-0.167477,0.281645,-0.012979,-0.180411,-0.694301,0.696584,0.2647989374220371,-0.0246548410460352,-0.0877262142479419,4.731451306773722,-4.78230324987173,7.135358076125383,-0.0379368849098682,0.1355374902486801,0.105593204498291,-0.8875105535241441,0.3275766052583363,0.1699751901636203,0.2759113418439859,0.0511387176811695,-0.0417389720678329,0.028334816917777,0.0526654422283172,-0.0506256222724914,-0.009564071893692,0.0142643442377448,0.0194205902516841,-0.0743079297482967,-0.0096937175840139,0.0454547602295875,-0.0205365920722484
