time_imu,phone_acc_x,phone_acc_y,phone_acc_z,phone_gravity_x,phone_gravity_y,phone_gravity_z,phone_gyro_x,phone_gyro_y,phone_gyro_z,phone_ori_w,phone_ori_x,phone_ori_y,phone_ori_z,watch_gyro_x,watch_gyro_y,watch_gyro_z,watch_acc_x,watch_acc_y,watch_acc_z,headphone_gyro_x,headphone_gyro_y,headphone_gyro_z,headphone_acc_x,headphone_acc_y,headphone_acc_z,frame_imu
1732866724082959600,0.2651614871241152,19.97522192556858,-2.033744546443224,-0.537352324895747,9.694472066062689,-1.3779932576708496,-0.0929308980703353,-0.6057491898536682,-0.4126706421375274,0.0207448706763963,-0.0179118385575743,0.754941899058313,0.6552187536003883,0.6982889175415039,1.813570499420166,-0.4461570680141449,-1.5838052034378052,1.473737716674805,-0.573737382888794,-0.2200119644403457,0.3391845524311065,0.571640013618581,0.3860829174518585,-0.0331317464536288,-0.0440218550493707,0
1732866724122720300,-0.7799437778912485,16.944017662382127,-6.171223121356964,-0.6854570565324276,9.745044315436482,-0.8571052704397588,-2.3845934867858887,-0.5170339345932007,-0.287226915359497,0.0354433711015246,-0.0130722829655125,0.7372444122487477,0.6745690998422914,1.9119738340377808,2.33779525756836,-2.044070243835449,-1.3914121389389038,1.3633302450180054,0.0786467790603637,-0.2800700068473816,0.0976603776216507,1.4537838271923362,0.306469053030014,0.4708056402660906,-0.0103623127288185,1
1732866724162481700,1.700447680725902,0.0334118557363748,-9.398851873919368,-0.90781736667566,9.760518947944044,0.2802354298762977,-3.34699821472168,-0.6440179944038391,-0.8360996246337891,0.0496030795489779,-0.016389606139203,0.6967376479479924,0.7154212842372484,2.2704195976257324,2.574122667312622,-3.16054916381836,-0.2436287403106689,0.4916545748710632,0.5094120502471924,-0.3558225631713867,-0.2245648503303527,0.5365528816137463,0.4313854277133941,0.4679637679036706,1.2316285381019114,2
1732866724202242800,1.4107394891053435,-17.885207794892786,-3.829750596347451,-1.1952614127565175,9.58391267323792,1.700108365768939,-3.5445916652679443,-0.1769354343414306,-0.5580234527587891,0.0683477115170994,-0.0223191846231999,0.6425110538102261,0.7628958486497462,2.40867280960083,2.1543259620666504,-2.1716196537017822,1.1112080812454224,-0.4386439919471741,0.8608444929122925,-0.2790680527687073,-0.0682401433587074,-0.3572231732930988,0.4978927373886108,-0.0276857651405734,-0.4468673499915748,3
1732866724241700000,2.114235987132042,-25.2262579549551,-1.6684838318407536,-1.2752179428510366,9.296137349376082,2.850620609281957,-2.3571107387542725,0.5102769732475281,0.2783368527889251,0.0634462300002293,-0.0340845732519651,0.5945561720376349,0.8008219610039901,1.752236008644104,0.1085144057869911,-0.447668969631195,2.6415696144104004,-1.1018656492233276,0.9471847414970398,-0.4012143909931183,-0.0871144384145736,-1.3622246106527744,0.1983792781829834,-0.0731749025637982,-1.0917059804096818,4
1732866724281550800,3.1195763741225004,-21.06256591137648,0.8361445346713066,-1.1331374034073205,9.19705270576775,3.2094577205777166,0.3771125078201294,-0.2674343287944793,0.4107048511505127,0.0562277776057468,-0.0310205414394834,0.5791380881417566,0.812696352959826,-1.384994626045227,-0.2233490645885467,1.276159405708313,1.8191182613372805,-1.3584542274475098,0.8291929364204407,-0.4485535025596618,-0.1109409779310226,-1.7343768383346496,0.1675151735544204,-0.3087975074939429,-0.4592313031326979,5
1732866724321402600,-0.3111312111385166,-10.37439143527746,1.6542486780002712,-0.9314592312868684,9.360746307408808,2.7711335233300924,1.8576949834823608,0.2210394889116287,0.658486545085907,0.0492341030672284,-0.0225507206667085,0.5985006113296827,0.7992899131226141,-1.9076790809631348,-2.1528632640838623,2.3143813610076904,1.1847213506698608,-0.6946160197257996,0.5036543011665344,-0.4668602049350738,-0.2343570739030838,-0.9829484493751078,0.2392055243253708,-0.3041683315896429,0.50290484250132,6
1732866724361253400,-1.7956338555909692,4.856425886180997,2.525261404696107,-0.6480979244749993,9.610836920520663,1.8390685081698,2.925789833068848,-0.0241220612078905,0.8319258689880371,0.0358719615155125,-0.0132322356281375,0.6372272037786189,0.769726997817319,-2.656466722488404,-1.9952366352081297,2.0863683223724365,-0.4087308645248413,0.236977219581604,0.1200098991394043,-0.4252242147922516,0.4216329455375671,-0.0673690201634774,0.5680968165397644,-0.972461615217477,1.2404625635512172,7
1732866724401104000,0.2200439594922587,12.88471187595129,-0.9027688511144368,-0.475475495240651,9.76683178435266,0.7438535697910934,2.513446807861328,0.157264307141304,0.0949042588472366,0.0285209181858929,-0.0066259693186644,0.6797279738461236,0.732879675209959,-1.3959009647369385,-0.6331899166107178,1.1044862270355225,-1.7156254053115845,0.8501664400100708,-0.0819336771965026,-0.1555307060480117,0.1818687319755554,0.8795989148639142,0.3481883108615875,0.751044065817073,-0.0270261527376598,8
1732866724440955600,1.06226069021672,9.909901115638018,-4.925204823374748,-0.4530860053107142,9.796173614171147,0.0087116211998771,1.0367538928985596,-0.22477987408638,0.0037031222600489,0.0279469450330156,-0.0047373828702969,0.7067767597539446,0.7068685369011433,-0.737188994884491,-0.4772111177444458,0.207777053117752,-0.7476603984832764,0.881271481513977,-0.3249500393867492,-0.0068096984177827,-0.1408047080039978,1.1432057929571715,-0.0229926500469446,0.8396689094051718,-0.4041511844130233,9
1732866724481011700,-0.3382992040492594,5.231624057430029,-2.0307576395869256,-0.4921895333500579,9.794086286503076,-0.0634213419836247,-0.3721098005771637,-0.2129614055156707,-0.1217914074659347,0.0335049935801997,-0.0018844258074716,0.7093870857420149,0.704019810355176,-0.3279039859771728,0.0891009196639061,-0.1508832275867462,-0.5004878044128418,0.4640995264053345,-0.158674955368042,0.0487103126943111,-0.1840393841266632,-0.0108248544899397,-0.1502899378538131,0.0568451053984696,-0.3166854111995548,10
1732866724520766200,-0.0922172055242583,0.4955085582375526,0.8236147234439849,-0.5238406630242243,9.792225753328204,0.0909704659993294,-0.3001027405261993,-0.0075339414179325,-0.0801321119070053,0.0358008217306612,-0.0021300818995135,0.7038162117098262,0.709476147428667,0.1307061910629272,0.4065971672534942,-0.2238841354846954,-0.1808234453201294,0.2093225717544555,-0.0040404796600341,0.0923616737127304,-0.014423232525587,-0.4967327662702649,-0.2164288163185119,-0.0831088840450625,-0.3750109050486236,11
1732866724560519700,0.5025619838804006,-2.5072014318704605,1.646621544122696,-0.5829173405667767,9.787968680405616,0.1620480629237368,-0.0384801179170608,0.0225335415452718,-0.2221485823392868,0.0377497041052793,-0.0045643330101171,0.7012253664486789,0.7119249313482362,-0.2072409391403198,0.1584664136171341,-0.0890849083662033,0.1520935297012329,-0.2351487278938293,0.0032850485295057,0.1130457073450088,0.0426301136612892,-0.3072259473282843,-0.2029612958431244,0.1185169277004897,-0.349351234341599,12
1732866724600274400,0.3248720055907964,-3.401013727134466,2.640217571175098,-0.6807102273315191,9.78290788988471,0.0415876090731937,0.684349775314331,0.0703373029828071,-0.2469213306903839,0.0409447308735903,-0.0082237967519541,0.7055579290863713,0.7074205842521634,-0.5454381704330444,-0.3079103529453277,0.1897222250699997,0.2895150780677795,-0.2996238470077514,0.0411990880966186,0.0696242004632949,0.0336978882551193,-0.1190343117712531,-0.1227919682860374,0.0573547947865445,-0.3221626735668629,13
1732866724640028000,0.4945727386921644,-0.9920435369133948,1.759219164776802,-0.7868149788349866,9.768438635027408,-0.359060763983801,1.316916823387146,0.0734403729438781,-0.3080710172653198,0.0434567495517824,-0.0127551936736755,0.7198224146288955,0.6926792552353334,-0.9600343108177184,-0.6712973117828369,0.5673291683197021,0.2280620336532592,-0.1674261689186096,0.0185571946203708,-0.0089284656569361,0.0134914778172969,0.0021858869634976,0.0109422244131565,0.0656545991947175,-0.1710335343413986,14
1732866724679778600,-0.7195841478660703,8.855598398688436,0.4922352356553077,-0.899943637625873,9.722508658501503,-0.9128664667587728,1.3496332168579102,-0.23372183740139,-0.2973591685295105,0.0486701321527314,-0.014755718040364,0.7391383530511214,0.6716308759431794,-1.1944563388824463,-0.1732644885778427,0.8579650521278381,-0.3216506242752075,0.3778724670410156,-0.2248839139938354,0.021837867796421,0.0012906464980915,-0.2245792100354097,-0.0472215712070465,-0.3021287885860539,-0.4137809633499011,15
1732866724719534800,-3.123868518358469,22.345972567510604,-4.562042542356252,-1.029921797474101,9.6770720184505,-1.2099282360125332,0.1007172241806984,-0.9525211453437804,0.0871436446905136,0.0606860904240611,-0.0106698716294458,0.749383297594852,0.6592632536818163,0.7270300388336182,1.8951213359832764,-0.0265852473676204,-1.9410851001739504,1.7395193576812744,-0.6101112365722656,0.1019073352217674,0.2460220009088516,0.6452253647133708,-0.0884069427847862,0.2271741401657462,0.6697658586647361,16
1732866724759290000,-0.543624573565647,15.068096364241836,-12.874557561683654,-0.8961884498108178,9.741519063919782,-0.6856019448958337,-2.820253610610962,-0.4198184311389923,0.3832577466964721,0.0676475127407674,0.0055756629986629,0.7313855914211671,0.6785778491436619,3.1251187324523926,2.352370023727417,-1.6707890033721924,-1.269314527511597,1.6766068935394287,0.1109638810157775,0.2198380231857299,0.1486789882183075,1.1056072991859167,-0.1712757647037506,0.3637667131850495,0.4283246351502836,17
1732866724799046400,1.23274117551893,-3.331361514237523,-8.737786842778325,-0.8730123760804533,9.73689841838181,0.7752703792527318,-4.095778942108154,-0.1810212135314941,-0.1336491107940673,0.0696459348058037,0.0037587234448994,0.6785706167234633,0.7312162687055529,3.4753997325897217,2.6551666259765625,-3.0546000003814697,-0.2030417919158935,0.5194017291069031,0.8292256593704224,0.0970176085829734,-0.085800290107727,-0.1235529308400116,0.2986031770706177,0.3887607230575755,1.8073209323838355,18
1732866724838801700,3.3586732995331285,-25.67977212255001,-3.7001059793025255,-0.97255199691467,9.46354500310421,2.3803027525328098,-4.165737152099609,0.7824656367301941,-0.314762145280838,0.0703640445442314,-0.0080147160433419,0.6152837542480888,0.7851181787913304,4.388759136199951,1.8838269710540767,-0.8210315704345703,1.3045639991760254,-0.6979096531867981,1.2033747434616089,0.3112967908382416,-0.0676478594541549,0.1683576661956496,0.4803501069545746,0.8562443427614868,-0.4333056749658658,19
1732866724878558000,4.402467189688981,-30.05443915890455,1.4415630819141865,-1.0820087622597814,9.166975547412036,3.3115257639110087,-0.5976784229278564,-0.355366051197052,0.1188140362501144,0.0669156053450805,-0.020468937512465,0.5751001611293511,0.8150847611480017,-0.6981585025787354,-0.2830418944358825,0.0685012564063072,3.0071136951446533,-1.900686502456665,1.29467511177063,0.4604895412921905,-0.2135326266288757,-2.11082880903706,0.0540359839797019,-0.5451486778603867,-1.2154197461009024,20
1732866724918313000,0.2625828688077628,-20.28207019869089,2.0268357899680733,-0.8530527801785618,9.255722921401262,3.1263837160497903,1.4575589895248413,-0.3499480783939361,0.7639386057853699,0.0669780638868596,-0.0054448271710334,0.5835830261678993,0.8092682552204951,-2.178060531616211,-1.4150731563568115,1.7112414836883545,2.0223255157470703,-1.268965244293213,0.7860882878303528,0.4014331698417663,0.1554912477731704,-1.3942333215929568,-0.0043074060231447,-0.840897209091112,-0.2628589092701673,21
1732866724958069500,-2.541407945115864,-1.8865473215729,2.2488971171647307,-0.4684028169080614,9.536021625772118,2.2394826614789665,3.0582950115203857,0.4456087350845337,1.2488224506378174,0.0487263001873415,0.0081585618495465,0.6210890428061929,0.7821813272361915,-2.678931713104248,-4.029509544372559,2.832884788513184,0.7529785633087158,-0.4104493856430053,0.4865028858184814,0.0952668786048889,0.318311482667923,-0.3702400008523837,0.1593901813030243,-1.1625410464156418,0.6423996397681534,22
1732866724997826000,0.6127980630349368,11.45181140844226,0.1349627433277666,-0.1718162091516889,9.75109002534151,1.0281706429578363,3.202880620956421,0.4311032295227051,0.4005857110023498,0.0283309076728104,0.0137194151929403,0.668871934306454,0.7427109851479523,-1.2401076555252075,-0.8147265315055847,1.4892407655715942,-1.8313565254211424,0.9564632177352904,0.1207489222288131,0.0602132342755794,0.1743981540203094,1.1189016650449484,0.2719724178314209,0.3145753602430224,0.5629764493653551,23
1732866725037584000,1.755489038337767,12.305951034009455,-5.401279197824001,-0.0966067365869414,9.80509984794855,-0.1451884331980254,2.278594970703125,-0.4180895686149597,-0.0005320205818861,0.0259423082168925,0.0193148328109926,0.7120600306592707,0.7013733006546228,-1.7665475606918335,-0.802709698677063,0.6031481027603149,-0.6944944858551025,0.7575412392616272,-0.2530099749565124,0.1015238985419273,-0.190385103225708,0.7601725441683084,0.131415769457817,0.5798843295464292,-0.0947917595868464,24
1732866725077340400,-0.3063071154503151,8.296976089411974,-4.719295297294855,-0.1242002523002214,9.79480817103684,-0.4654982911055907,-0.3986884951591491,-0.0327904000878334,-0.0050581917166709,0.0308827454263758,0.0232159075233521,0.7233220792041181,0.6894290547365718,0.1007986366748809,-0.0512525178492069,-0.1263375431299209,-0.7659125924110413,0.8468735814094543,-0.3002487421035766,0.047315489500761,-0.0310578849166631,0.4426628475064411,0.0232135746628046,-0.4895686833271756,-0.0836048417353071,25
1732866725117097000,0.6779083947185427,3.826417068010569,0.6045183835327624,-0.0920773677953053,9.8039237899065,-0.2121687326051294,-0.5818842053413391,0.2326159924268722,0.0582548603415489,0.0280190363475351,0.0219238269473593,0.7143787093662717,0.6988544359536754,0.3920160830020904,0.3599251508712768,-0.3512136042118072,-0.3026384711265564,0.4262862801551819,-0.0042220344766974,0.0579322092235088,0.0986558720469474,0.1837761480691842,-0.1454883366823196,-0.0476069287282181,-0.2861916896658949,26
1732866725156854500,1.220458763181418,-0.391212901982665,1.3586954136133194,-0.1316954851601272,9.80506360759139,-0.1173020080859307,0.0118362065404653,-0.0466451421380043,-0.266486257314682,0.0286745759747934,0.0194717917573694,0.7110566694974133,0.7022798638647365,-0.2528920471668243,0.1826605498790741,-0.149009495973587,0.093146800994873,-0.1311171650886535,-0.0007163286209106,0.1793791949748993,-0.1030847281217575,0.1027511941587086,-0.3101249933242798,0.0916587039918173,-0.4139444102833047,27
1732866725196612400,0.2011879957170225,-2.4557822102785107,1.5351999815106392,-0.2537106485062279,9.802089560216665,-0.158235153572075,0.1826645284891128,0.2166212946176529,-0.2863754630088806,0.0319848228673767,0.0140702896058172,0.7126498257717744,0.7006490853220895,-0.2735454142093658,-0.1900991797447204,0.0070829009637236,0.2270368933677673,-0.153097927570343,-0.0103529701009392,0.2121805548667907,-0.0677365213632583,-0.31732838527821,-0.3060263395309448,-0.2620249974629841,-0.3191355442980304,28
1732866725236372200,0.0172105163894593,0.0171428579807281,1.992600050628185,-0.3227705397995188,9.7968393846035,-0.2969065238931216,0.5399835109710693,0.242024227976799,-0.147501915693283,0.03061004284219,0.0079231620987551,0.7176874272224806,0.6956472137975322,-0.3169980645179748,-0.4203733503818512,0.3533370494842529,0.0811222791671752,-0.0316086411476135,-0.0792838335037231,0.0427327752113342,-0.0095861451700329,-0.4036083097079768,-0.1318064481019973,-0.3087051895679906,0.041501428627083,29
1732866725276130300,0.1048291055444628,9.146433110120892,1.050178915017843,-0.4070969920739531,9.783621591112016,-0.534228347656317,0.5089309811592102,-0.1259668171405792,-0.3753767609596252,0.032174630471676,0.0037941079034109,0.7261016946567347,0.6868236262548002,-0.4502831697463989,0.3020219802856445,0.5416633486747742,-0.5386484861373901,0.4406551718711853,-0.357049822807312,-0.0971776321530342,0.1684313118457794,-0.0990669435548596,-0.0317738018929958,-0.0699964460576186,-0.0587013779567554,30
1732866725315810000,-1.58397321863845,18.34115474259257,-2.5329426068484784,-0.6086664431229233,9.772308169937132,-0.5494430871186777,-0.483441412448883,-0.8142313957214355,-0.3512007594108581,0.0456841544861994,0.0031547034055759,0.7266387337261866,0.6854918539143268,0.7860462069511414,1.5803349018096924,-0.159172311425209,-1.558551549911499,1.2422373294830322,-0.5781376361846924,-0.1955391019582748,0.4430480897426605,0.8963120031252503,-0.3481338620185852,-0.2054236605254001,-0.0443423328751232,31
1732866725355626800,-1.393203101762384,10.96382798501253,-8.627064952868222,-0.5809657681075856,9.789411280429364,-0.01704989045916,-2.135583877563477,-0.344231903553009,0.3350569605827331,0.0541804706184234,0.012376001418371,0.7076129853818515,0.7044112327968433,2.5028696060180664,1.7408480644226074,-1.6057275533676147,-0.9928454756736756,1.4166278839111328,0.1037582159042358,-0.2683424353599548,0.2133621722459793,1.2474224656917154,-0.6577332615852356,0.3978562855198979,0.7108074055619538,32
1732866725395444700,0.0698248660501092,-2.896258032602072,-9.578378419986366,-0.4684594789987429,9.734247611612082,1.0933278825230897,-3.556630373001098,0.4340406954288482,0.253397136926651,0.0504807081705095,0.0131160728320691,0.6663960996288637,0.7437714385009215,2.91530179977417,2.144339799880981,-2.737742185592652,-0.1518853306770324,0.575086236000061,0.7478927373886108,-0.3214946687221527,-0.0717305168509483,0.5443454351861029,-0.3265827000141144,0.7076020336493849,1.6358105195119976,33
1732866725435465200,2.4584242492198944,-16.51569638823271,-2.459083297650516,-0.4933830539835617,9.463575398242472,2.5234271750062702,-3.655355215072632,0.7941391468048096,-0.1659821569919586,0.0405913905441803,-0.0005304862986355,0.6093773419353403,0.7918403959062507,3.492662191390991,2.680337190628052,-1.819038987159729,0.7692807912826538,-0.2831108570098877,0.8123865127563477,-0.2517156302928924,-0.111325703561306,-0.6847123756449669,-0.0297809150069952,0.0762101694733137,0.2725372217901982,34
1732866725475219500,1.7222689057812093,-24.40563598358631,3.4081039776563644,-0.5940014464978128,9.14619228710234,3.4877953540086746,-1.128990888595581,-0.1904236823320388,0.0138670047745108,0.0383938907488883,-0.0103316311397673,0.5675078689416313,0.8224074607779144,0.2515884041786194,0.2207293063402176,-0.6715641021728516,2.205963373184204,-1.6061710119247437,0.8862210512161255,0.0335468724370002,-0.0255992393940687,-1.0631496749456972,-0.4925833642482757,0.1940678797798231,-1.75104974071607,35
1732866725514972700,1.1186240902125837,-23.471909026563168,2.51220143211484,-0.4742847145535051,9.179273887971044,3.418535355299711,1.2407944202423096,-0.3167008459568023,0.3279319107532501,0.0410559381384716,-0.0009157419967769,0.570703401450422,0.820128826042401,-1.5934652090072632,-0.2758032381534576,1.198941946029663,1.8507213592529297,-1.4012329578399658,0.6743178963661194,-0.0233245305716991,-0.0208508297801017,-1.3950760560274122,-0.4786049723625183,-0.6032603462956846,-0.090139431135822,36
1732866725554727000,-1.5804145032435657,-12.639348291361332,2.620488496093452,-0.2319960073642432,9.439496603518725,2.6481021869450805,2.950613021850586,0.2975527346134186,0.9050846695899964,0.0304525763039086,0.0082474068107091,0.604083063900473,0.7962965168622831,-2.351364850997925,-2.0085134506225586,2.142247676849365,1.4088585376739502,-0.988049328327179,0.7024332880973816,-0.3418468534946441,0.1834253370761871,-0.4747881340309977,0.1496180891990661,-0.6283034560069441,1.0161295650955289,37
1732866725594479900,0.2526288628851995,6.775500681871176,0.5518862790197133,0.0919865020409226,9.706931734663248,1.391906193819642,3.427565574645996,0.1736137717962265,0.5696583390235901,0.0132306845373751,0.0176742323940186,0.6547672539840786,0.7555080787177982,-3.651915073394776,-3.487262487411499,2.6627023220062256,0.2071582078933715,-0.2073495388031005,0.2799617648124695,-0.4825828969478607,0.1390299648046493,0.0803819524323567,0.6201232075691223,-0.0293433504887158,1.624226464702189,38
1732866725634233900,0.3841670385917648,13.704630082964895,-4.120177896022796,0.1606633488333784,9.80508465037942,0.070086110802181,2.966143846511841,-0.4637503325939178,-0.0713642165064811,0.0108355860059497,0.0222990542397453,0.7042225181369769,0.709546433214434,-1.4337328672409058,-0.9081433415412904,0.936647653579712,-2.069553852081299,1.2045302391052246,-0.2788680791854858,-0.1602013260126114,-0.3895184397697449,1.3384899531915784,0.2623920738697052,0.6567281709805131,-0.1265414633978158,39
1732866725673987000,1.541442383031547,12.048639821994303,-6.506178714066744,0.0134420409762125,9.777799753090738,-0.7515449280112981,1.375137448310852,-0.524528443813324,-0.5337666273117065,0.0219541782358779,0.0247144910145241,0.7332852923444624,0.679116933925507,-1.3060883283615112,-0.3662752211093902,0.2473509758710861,-0.7861499190330505,0.9000651836395264,-0.0340156555175781,-0.2829086482524872,0.088341549038887,0.1243610414856579,0.1908360719680786,0.0242301653435803,0.4924352152068167,40
1732866725713738500,0.9956779478929936,5.476326547762751,-5.57800939117074,-0.1888319336214102,9.761121005490422,-0.9247922476783396,-0.5189762711524963,-0.1567660123109817,-0.4317550659179687,0.0339504327356768,0.0230226033177161,0.7393383813826542,0.672083367552035,0.0829791650176048,0.1007238551974296,-0.4492116570472717,-0.4222403764724731,0.811493992805481,-0.0955437421798706,-0.1577014327049255,-0.2641929090023041,0.7414961199447512,0.0848080217838287,0.8050187440454959,-0.1067403003274928,41
1732866725753494300,-0.6346318553108722,0.3695592885792255,-0.8869850795924663,-0.3142201901298016,9.786045603388548,-0.5522293933689594,-1.1575552225112915,0.1621932238340377,-0.161932960152626,0.0381174887437737,0.0170201214853896,0.7265439964324588,0.685850689017062,0.7062059640884399,0.2836700081825256,-0.3861085772514343,-0.0492388010025024,0.2835997343063354,-0.0287089347839355,-0.1055229231715202,-0.0902695655822753,-0.9578346125151962,-0.1797925233840942,-0.557987518504262,-0.1508260554925072,42
1732866725793249000,-0.1929287562146782,-1.6327017398416994,1.4408558104276656,-0.3352918023942038,9.800070621609688,-0.1286830968027003,-0.8943279981613159,0.1304533630609512,0.0002643373736646,0.0366950617854551,0.0128549078305119,0.7116148980983347,0.7014929627686128,0.6881574988365173,0.3163262903690338,-0.2452721893787384,0.0430312752723693,-0.094875156879425,0.015471164137125,-0.1148294061422348,0.1268284767866134,-0.5497185795918107,-0.116202175617218,-0.0776925124189816,0.2704167773038148,43
1732866725833005000,0.366881849530898,-1.2457961796641348,2.561680625554919,-0.3635897491829469,9.799529938861728,0.0860071353703737,-0.2509360015392303,0.2378379106521606,-0.2527857422828674,0.0361646238591427,0.0097556805983742,0.7039315899019073,0.7092793890462545,0.3501788973808288,0.164809837937355,-0.0520191006362438,0.1158851981163024,-0.2612807750701904,0.1136370301246643,-0.0839545205235481,0.066023364663124,-0.1814625008319504,-0.0864598453044891,0.0640093390386085,0.1080506705400068,44
1732866725872759800,0.3213244691770524,-0.9400807099640368,2.452760816630721,-0.5489232279630377,9.791144387832285,0.0505269808933837,0.4676811993122101,0.1278858184814453,-0.48404660820961,0.0384392754386642,-0.0012385914093944,0.7052817215455902,0.7078831593080352,-0.2786900997161865,-0.0462326146662235,-0.0707975775003433,0.0489773750305175,-0.2030040621757507,-0.0561503767967224,-0.0452091507613658,0.1123367100954055,0.1166769441233016,-0.1705166101455688,0.0711071974782273,-0.1551436538301408,45
1732866725912515600,0.987859456161782,-0.1631429820209741,1.8568997868061063,-0.693522581827268,9.779155843874811,-0.2399163520347327,0.8048697113990784,0.4451194703578949,-0.4799573719501495,0.0427613971992636,-0.0068236099238298,0.7156715504294332,0.6970934809065032,-0.2464581131935119,-0.2015836983919143,-0.014028176665306,0.0489462614059448,-0.0343625545501709,-0.01487922295928,-0.0236941650509834,0.1121104061603546,-0.0128349841693765,-0.302589476108551,-0.0406889705998823,-0.2860488653954118,46
1732866725952270800,0.1235208004023879,-0.761450235953927,-0.2900620465595275,-0.8585408562008291,9.753324652525782,-0.5531456679636613,0.7808002829551697,0.2492792904376983,-0.3300031125545501,0.0455145690398468,-0.01561526810245,0.7266076953589418,0.6853655619552154,-0.6229516267776489,-0.061775304377079,-0.0109720658510923,-0.0221139192581176,-0.0034587383270263,-0.0344653129577636,-0.0297385994344949,0.0940712466835975,-0.0755349690589122,-0.3117749691009521,-0.0627988307376857,-0.1210591138634365,47
1732866725992028200,0.7717539686296134,0.8972323328405618,-0.9444340828679502,-0.9593992314834148,9.725240129292011,-0.8182961587697267,0.5830659866333008,0.4271510243415832,-0.3927821516990661,0.045917795260359,-0.0224090056599509,0.7356761026141133,0.6754035235029484,-0.2399466931819915,0.0381046347320079,0.0319491028785705,0.0026677250862121,0.0975593924522399,0.0272714532911777,-0.0635177418589592,0.1124833822250366,-0.041130170462164,-0.2393243610858917,-0.0950736087355297,-2.08977992006e-05,48
1732866726031784400,0.3617091596007347,0.409719449532032,-0.7908604548335075,-1.0879004506468772,9.691118079459669,-1.0339702691473067,0.5165113210678101,0.1883790343999862,-0.2336313873529434,0.0451818020825037,-0.0328353803852821,0.7427244767174501,0.6672636707313344,-0.1654048264026641,0.1048029661178588,-0.1005915626883506,-0.0446804165840148,0.1377567648887634,-0.090247631072998,-0.0708095654845237,0.105054534971714,-0.0224050345589406,-0.1057301238179206,0.0356998479425441,0.178043796695955,49
1732866726071541800,-0.0185929106585681,-0.3043056029021739,-1.5379086559474466,-1.1584562613200395,9.661742931893468,-1.2161713681858033,0.3262236714363098,-0.3347023129463196,-0.0175795760005712,0.0492410314883031,-0.0336184647448284,0.7489174068222759,0.6599755672133653,-0.3173829019069671,-0.0698374882340431,-0.1181914657354354,0.0583032369613647,0.0650081634521484,-0.0840800404548645,-0.0308431088924407,0.0600112341344356,0.1590138463269919,-0.0315265581011772,0.1424533548114821,0.0867453043186571,50
1732866726111298000,-0.7255310735717415,-1.089980179530382,-1.038261609665677,-1.092266463836655,9.670199794593453,-1.210193974276632,-0.4436997175216675,0.4000723361968994,0.3603497147560119,0.0476606795236487,-0.0302868738495214,0.7488560771728052,0.6603224371150488,0.3404439687728882,0.0346252135932445,-0.0324941352009773,0.0382863283157348,0.0757644176483154,0.0420451760292053,-0.0252249035984277,0.0585645511746406,0.0056302506971347,-0.0286447964608669,0.0004532972962741,0.0227680957176722,51
1732866726151055600,-0.2416734248351305,-0.5688368292987346,-0.535452446091175,-0.9660516751099376,9.71349007026553,-0.9408714219503104,-0.9293839931488036,0.6250039339065552,0.2777185440063476,0.0333496658591809,-0.0366313292107454,0.7393437889431088,0.671503315030801,0.436910331249237,0.0218812953680753,0.0332441292703151,0.0014674663543701,-0.0150501728057861,0.0391033329069614,-0.0449016541242599,0.0643527060747146,0.0209546439543832,-0.03370863199234,0.0256652008320903,-0.0097210214338847,52
1732866726190813200,0.3777336810760199,0.2141805108189582,1.469070682042837,-0.7759194908112287,9.748991591757536,-0.7249227324150502,-0.1370859891176223,0.2136183530092239,0.5356115698814392,0.021229127579717,-0.035320397795565,0.7319243411925344,0.6801386739760755,-0.3273343443870544,0.0047138682566583,-0.1097416505217552,0.003047227859497,-0.0087009668350219,0.0117298364639282,-0.0243929289281368,0.0385796651244163,0.0387086652365513,-0.0667742490768432,0.1047925455268938,0.0487650218553142,53
1732866726230573800,1.8034927523978053,0.8199433414548635,0.5347861642021685,-0.679115651616454,9.746715463519095,-0.8430387511644512,0.6223835349082947,-0.0816757753491401,-0.0781251788139343,0.0172016938439458,-0.0324974075441768,0.7361568668562716,0.6758113966316244,-0.3820164799690246,0.0414943061769008,-0.0224832464009523,0.0213602781295776,-0.0291856527328491,0.0390699505805969,0.0537452138960361,0.025644514709711,-0.0138097783100616,-0.0574891902506351,0.0580645459245191,0.0103154219718358,54
1732866726270331400,0.0759838270712643,-0.1128565638512373,0.8374677460990846,-0.7312471861962229,9.722435008743403,-1.0535448843196034,0.7046915292739868,0.1263796389102935,-0.1729524880647659,0.0201860952061124,-0.0333624433211004,0.7433725767558955,0.6677400962360103,-1.5606505870819092,0.1811800748109817,-0.1333310008049011,-0.0061919093132019,-0.1433473825454712,0.0759282112121582,0.0574597083032131,0.0066959438845515,-0.0771411804128438,-0.0596821829676628,0.0073148621911648,0.0511562461070949,55
1732866726310090000,0.3278608852084725,-0.0578612373381853,-1.6249766985476015,-0.7525324777439236,9.699610597994925,-1.233550153814256,0.0688677430152893,0.9529810547828674,-0.1426703184843063,0.0123803507285287,-0.0440164812014942,0.7489700278408523,0.6610243960695201,-0.0388537980616092,-0.0615827552974224,-0.1707329005002975,0.0383057594299316,0.1597634553909301,-0.1485342979431152,0.0453309342265129,0.0270897764712572,-0.0007791173038967,-0.0668341591954231,0.0437432025047717,0.0194629395253257,56
1732866726349843700,0.593557575187832,-0.183046536886692,-0.5183446594238281,-0.7840463178392499,9.70882675462961,-1.1376952859073877,-0.4282817244529724,0.5090439319610596,-0.2633075714111328,0.0039093661131092,-0.0557495153872277,0.7449149676198326,0.6648146087691965,-0.6282342672348022,0.1076943129301071,0.0466827750205993,-0.0042291283607482,-0.1898726224899292,0.0152395963668823,0.0170867349952459,0.0389481820166111,-0.0888972033892292,-0.0640614032745361,-0.0078493646476214,0.0140829247041256,57
1732866726389641000,0.5755863766241819,-0.3149965082645416,0.029328970336914,-0.875759555896744,9.70715034584999,-1.083825383227691,-0.0290936306118965,0.5998620986938477,-0.3432419002056122,-0.0004288171714422,-0.0674318700385012,0.7421001683571277,0.6668884420366047,-0.0366633459925651,-0.0393612347543239,-0.0170792266726493,0.047483205795288,0.1566848158836364,-0.0314707681536674,-0.0057430351153016,0.0243169907480478,0.0240356177357258,-0.0772001817822456,0.0850896369329653,0.0688986819827463,58
1732866726429566500,-0.3841458862058818,-0.0711602793723344,0.1194823386665433,-0.9809976075682788,9.696298112446067,-1.0907790748231112,0.0862043052911758,0.401094526052475,-0.2569240629673004,-0.0034759474894751,-0.0788963346886896,0.741208218306059,0.6666134626838789,-0.7958128452301025,0.0348358713090419,0.0252484567463397,-0.0061654448509216,-0.1370736360549926,0.0112140327692031,-0.0150105198845267,0.0716193094849586,-0.076857586831646,-0.0684796050190925,-0.0506859708473784,0.0401561743308557,59
1732866726469322200,0.8080133227515965,0.2416542086780071,-1.0564730467259884,-1.0071809002906082,9.691589204102756,-1.108632638356462,-0.2723747193813324,0.5978836417198181,-0.1227559074759483,-0.0086498120578431,-0.086743383843208,0.7409454218391127,0.665883347742085,0.4575136005878448,0.0175057221204042,-0.0895076841115951,-0.0124931335449218,0.1804317235946655,-0.0607067346572876,-0.0113792913034558,0.0475636944174766,0.0210026204151101,-0.1432321965694427,0.0430379174793604,-0.1430104955038987,60
1732866726512749600,0.0609228899311274,0.5392044921010732,0.9733002579987048,-1.047782959792018,9.693613403406738,-1.0518608767554165,0.1756680011749267,0.4720639884471893,-0.1158100068569183,-0.0173078831612586,-0.0990971236867561,0.7374345660043714,0.6678851426826079,-0.3375584781169891,-0.0143209686502814,-0.0516456589102745,-0.0087930560111999,-0.0777681469917297,0.0015676096081733,-0.0291580464690923,0.0701980739831924,-0.0228806253145914,-0.1514817029237747,-0.0016886232321558,0.0500022765992674,61
1732866726552557600,-0.3992888756062835,-0.105786771595478,-0.7825790948309004,-1.0979852798748762,9.670623572963477,-1.2016152387626469,0.3010776340961456,0.5573239922523499,-0.1501272618770599,-0.0225008073388556,-0.1097555109083203,0.7410931482836589,0.6619882994794533,-0.2329569458961486,-0.0426725558936595,-0.0343424379825592,-0.0146283507347106,0.0474331974983215,0.0035915374755859,0.0384119339287281,0.019718088209629,0.0688338776848046,-0.1470599472522735,0.1004551739097107,-0.0109652447747415,62
1732866726592312000,0.4728744824294,-0.2977858457446098,0.2619089150689542,-1.083096849757433,9.679017307299375,-1.1462674455501138,-0.4624185562133789,-0.1176447868347168,0.0329218097031116,-0.023722289793149,-0.1095638051253366,0.7392152251773504,0.6640737622019967,0.3052319288253784,0.1423206776380539,0.001976755913347,-0.0649974346160888,0.0238969326019287,0.0489674806594848,0.0412780568003654,0.071049228310585,-0.1180675490983296,-0.161295935511589,-0.0791346740513108,-0.0860467184620909,63
1732866726632067600,0.5580380065824836,0.4516624022483825,2.805315778917074,-1.090149252486974,9.674612934860589,-1.176360970518738,0.681114673614502,-0.1019544005393982,-0.0262831375002861,-0.0241290798389666,-0.11078452309238,0.7400706092850672,0.6629027578599237,-0.1982980370521545,-0.0294171515852212,0.1216848418116569,0.0835760235786438,-0.0527276992797851,-0.0013240575790405,0.042238924652338,0.0003548876848071,0.1455718156255781,-0.1298243403434753,0.2640277155875228,0.0957053490341175,64
1732866726671822600,0.2264552513066679,-0.6014104806452989,0.5713875366948544,-1.155704989850521,9.618872927460076,-1.5205387112125754,0.9318894743919371,-0.385337084531784,-0.2333898246288299,-0.0163734414597078,-0.1096341500063717,0.7520014953504464,0.6497739070231586,-0.4998403191566467,0.0104093039408326,0.0551400408148765,-0.0040561556816101,-0.0280966758728027,-0.0214971303939819,0.0506833270192146,-0.0303790420293808,-0.0774048545840196,-0.1352414041757583,0.0421848580137128,-0.074348051696131,65
1732866726711577000,-1.1258498036824167,-0.405868034800887,-0.6471651006042957,-1.2263038359478116,9.562791559275984,-1.7943214578181503,0.4712192714214325,0.3657437562942505,-0.0570143200457096,-0.0121930764359589,-0.1123582843612407,0.760828857031224,0.639035541038663,0.0542529746890068,-0.1057660356163978,-0.0448243729770183,0.0644601583480835,0.1269187331199646,-0.0470434427261352,0.0215083751827478,0.0228850357234478,-0.0834309008073527,-0.1787022799253463,-0.0622818165596807,-0.0989756668085232,66
1732866726751333400,1.0164898497752846,-0.2173018577098846,-0.7310825702190399,-1.2304716231517494,9.52745428843498,-1.970773857136816,0.365161657333374,0.3028906881809234,-0.2187072038650512,-0.0168955628526328,-0.1197624572369085,0.7655967955564746,0.6318489536044779,-0.0330723412334919,-0.0616175904870033,0.0285212136805057,0.02064710855484,-0.0270134210586547,-0.037309393286705,-0.0242422986775636,0.0292268618941307,0.0017502349217684,-0.1353025883436203,0.0079029020578105,0.1001157128222752,67
1732866726791090700,0.2013216137677431,0.1863011547684669,-1.0034778079889717,-1.2547701981060206,9.503780567380783,-2.067384219586104,0.0407449789345264,0.5322314500808716,-0.0549734644591808,-0.0201232760320633,-0.1265038513573139,0.7677265355635945,0.6278437283515252,-0.0247480981051921,0.0017090768087655,0.0361386574804782,-0.0132723450660705,0.0216266512870788,0.0235436111688613,-0.0175686310976743,0.0395329929888248,0.0499211878868052,-0.0756289139389991,0.0883264360302593,0.2275906850773841,68
1732866726830847000,0.0654736120380461,0.3661801675349473,-1.0389804985247553,-1.2021207771319895,9.511696747332811,-2.062258254874497,-0.2796386182308197,1.1143572330474854,-0.0287069752812385,-0.032085833859971,-0.1368199097335015,0.7657847099743628,0.6275544381906009,0.1244387254118919,0.0029544241260737,-0.020747996866703,-0.0121652483940124,0.0533648133277893,-0.0346495956182479,0.0308877304196357,-0.0160319563001394,0.0406147226201603,-0.0735611245036125,0.1039468154177535,0.144988133986108,69
1732866726870604300,-0.4207251199319958,0.4507160613089799,-1.4938663928642868,-0.9767407538414,9.551661093452571,-1.9955340582534669,-0.431031197309494,2.884675979614258,0.4749068319797516,-0.0636690794193454,-0.1563665330043356,0.7597982838746119,0.6278554169865377,-0.3202063739299774,-0.09457628428936,0.016662623733282,0.0038716197013854,-0.0343475341796875,-0.0549920797348022,0.0702069029211998,-0.0315422005951404,0.0217699355427757,-0.1129960045218467,0.086059943269845,0.1137502156221773,70
1732866726910360600,-0.7470528772890568,0.1477344004869461,0.0967689140118658,-0.4373286468716338,9.602950551185012,-1.939705788047612,-0.2793944180011749,3.939588069915772,0.7705654501914978,-0.127872641290873,-0.1905723842803047,0.7500530879218372,0.6202830749516353,0.0461529716849327,-0.1373399347066879,-0.038899902254343,0.0409116744995117,0.1130387187004089,-0.0312329605221748,0.0968773886561393,-0.0152680613100528,-0.0262651257868856,-0.1475560963153839,0.0200186143464408,0.1188870305213611,71
1732866726950118100,-1.1378696195609868,0.0619616583943367,1.004189901781082,0.2060761878836899,9.61225906227827,-1.931942752830684,0.1169965714216232,3.1192662715911865,1.13807213306427,-0.192348253779026,-0.2189903480803445,0.7419871281429901,0.6037387877713336,0.2534363865852356,-0.1495247632265091,-0.090066485106945,0.0445286035537719,0.0554415583610534,0.0521265268325805,0.1073843985795974,-0.0324694402515888,0.00115499127949,-0.15681953728199,0.0834010079925879,0.1189009677151683,72
1732866726989876200,0.5214662985756993,-0.2047667857855558,-0.4447583219483494,0.8502616150900721,9.581359481623767,-1.9091915534488848,0.0896614268422126,3.5482819080352783,0.9046390652656556,-0.2517090608115204,-0.2426655397687672,0.7337950096534935,0.5824954616278386,-0.1860347390174865,-0.0508768483996391,-0.1398331671953201,-0.0110515356063842,-0.0338966250419616,0.03973388671875,0.0954437553882598,-0.0215666107833385,-0.0595791563051287,-0.226023644208908,-0.0089470927606977,-0.0293993001933442,73
1732866727029635000,-0.5581073454916476,-0.7032680960983038,-1.5026770374380052,1.421516173055023,9.54206090593636,-1.7603208424083887,-0.2329395413398742,2.6054532527923584,0.9565712213516236,-0.30844161410727,-0.2666064113610633,0.720189145082986,0.5613486361355754,0.0092863012105226,-0.0970470085740089,-0.1819515377283096,-0.0011024475097656,0.0200453400611877,-0.0170502662658691,0.1018272042274475,-0.0373382940888404,0.0454378045282093,-0.214616522192955,0.1076397607847116,0.1840042760029435,74
1732866727069392600,0.5431600978590547,-0.7567413276106119,0.1310216044865548,1.9201742813646792,9.515480357524751,-1.3924664580509063,-0.5766567587852478,2.703540325164795,0.778226912021637,-0.3581939942754149,-0.2799364410036652,0.7018772122414061,0.5483621990768323,-0.027355333790183,-0.1661286652088165,-0.2152853310108184,0.0192388296127319,0.0252220034599304,-0.0303660482168197,0.1226839870214462,-0.0392769165337085,-0.0644502192404819,-0.2112444639205932,-0.0300127536332816,0.0648740432762773,75
1732866727109151500,-0.0496362836979329,-0.3710749538391828,1.0462183408237993,2.300035914380103,9.48370399403572,-0.9693044663608074,-0.5605069398880005,2.09287428855896,0.6384263038635254,-0.4032249482965693,-0.2930474985092123,0.6808406108539821,0.5366458466145198,0.0550479292869567,-0.1640047878026962,-0.1343955993652343,0.0081875324249267,-0.0158465504646301,-0.0199777036905288,0.1339000612497329,-0.0400650985538959,0.0148930994426948,-0.1871758699417114,0.1555957815118133,0.1221228249716572,76
1732866727148909000,0.0227145206332206,-0.4722200371086597,2.6679180635273454,2.6203341823145747,9.42937677604258,-0.6253642607498914,-0.0599123872816562,2.367573976516724,0.6659367680549622,-0.4415333099275926,-0.30429997431159,0.6627867136908117,0.5226505492547702,-0.1038373261690139,-0.1176041588187217,-0.049879316240549,-0.0237706303596496,-0.0591359138488769,-0.0028972625732421,0.1427086442708969,-0.0822924077510833,-0.0699763896502787,-0.2387849390506744,0.0679137671652017,-0.0847537286426406,77
1732866727188667600,-0.3130965198621153,-0.0779343035519123,2.0762731900930405,2.881177367848158,9.357710300713777,-0.5499700336022302,0.6256207227706909,0.9732116460800172,0.4912247061729431,-0.4673224769925451,-0.315689079707546,0.6545082684786627,0.5035564047495944,0.1245234087109565,0.0533320046961307,0.0869441777467727,-0.0263034701347351,-0.0360327959060668,0.03816819190979,0.1551184803247451,-0.0582249164581298,-0.0456571737667778,-0.2813425660133362,0.0950025710596237,-0.0268551207194221,78
1732866727228423400,0.4532926337987184,-0.0969406173169612,-0.6087537560801952,3.0274273749962446,9.299353388813138,-0.7260137425221502,0.6109857559204102,0.5369561314582825,0.1925271600484848,-0.4758192663196102,-0.3251189925889927,0.6567450331228465,0.48639453866604,0.1039480939507484,0.1039014905691146,0.1433114558458328,0.005317211151123,-0.0482041835784912,0.0565180778503418,0.1493820548057556,-0.0570192448794841,-0.0819642623208928,-0.3119133710861206,0.0036219162533845,0.0121401155067025,79
1732866727268183600,0.4449015298113226,-0.1423328337043523,-0.2861913426060229,3.091483667582273,9.272322758546473,-0.7982330294281244,0.3114402890205383,0.931721031665802,0.0854327380657196,-0.482796861925744,-0.3337205717400987,0.6552321266958769,0.4756141080908764,0.164897471666336,0.2075050622224807,0.100538820028305,-0.0288517475128173,0.0017759203910827,0.0319412797689437,0.1281040161848068,0.0109179308637976,-0.0842579992812592,-0.2826557159423828,-0.0359113307021791,0.0537767490701051,80
1732866727307942100,-0.0621709172308444,0.2298445284187793,-0.6974900241535157,3.1623627919256685,9.25239056210816,-0.7504034298259764,-0.0428727753460407,0.774284303188324,0.1851968765258789,-0.4936190060847937,-0.3412409518006644,0.6494725088002453,0.4669906744744912,-0.1222940906882286,0.0773936659097671,0.0392138063907623,0.0321839451789855,-0.0337617993354797,-3.622472286224365e-05,0.1319685131311416,-0.0085834795609116,0.0296658695745049,-0.2589439153671264,0.0855429336584173,0.0916667777004186,81
1732866727347702300,0.1477791164115071,0.166515088802576,0.0829740878174081,3.287750043787062,9.219652660110592,-0.5992237842559814,-0.1516757607460022,0.7746064066886902,0.2788492739200592,-0.5076290729707609,-0.3439859310184219,0.642047965797645,0.4601746698209769,0.0685698613524437,0.0736732333898544,-0.050982266664505,-0.0200735330581665,0.0573620796203613,-0.0395553186535835,0.1270364820957183,0.006653765682131,-0.0376814456472406,-0.2615353465080261,0.0278606559165986,0.0772434260777663,82
1732866727387537700,-0.1636830802470445,0.4129465948849916,0.3655751873791217,3.3816397491008043,9.192141552850604,-0.4893251934275031,-0.0034339278936386,0.4432086646556854,0.1827062517404556,-0.5181362239507389,-0.3462116550904737,0.6364637711117298,0.4545176074168335,-0.1167595162987709,0.0424865446984767,-0.0514063090085983,0.0210739970207214,-0.0101736187934875,0.0126480013132095,0.1450809240341186,-0.0210202429443597,8.1239409511e-06,-0.2510387897491455,0.0636343910792609,0.1397192719387821,83
1732866727427357400,-0.2744546545177698,0.1772089167743921,-0.1758020091185346,3.4509617071300744,9.169306620708108,-0.4302299938475712,-0.1129582449793815,0.2025196105241775,0.1699762642383575,-0.523875585628822,-0.346225701876012,0.634084685788096,0.4512415043806875,-0.0665796995162963,0.3115334212779999,-0.1108492612838745,-0.0266292095184326,0.0144769549369812,0.092294231057167,0.1427110731601715,-0.0015358149539679,-0.0148487933684431,-0.2511982917785644,0.0121765647847729,0.1605306258318014,84
1732866727467298800,-0.3101514063209295,0.1111848312467336,-0.3145838358104229,3.510750113138556,9.1489886398226,-0.3755443543381989,-0.0860633701086044,0.4267043769359588,0.2543465197086334,-0.5282299468177906,-0.3451943516246367,0.6324462772640893,0.4492501780825163,0.1804159581661224,0.1750348955392837,-0.1888418644666671,0.0281283855438232,0.0569461584091186,-0.0456950664520263,0.1514911949634552,0.0140203516930341,-0.0427083293319679,-0.2750675082206726,0.0155436380565864,0.1754093565391376,85
1732866727507053300,-0.1583648078337311,0.0824614255875349,-0.4152279838204383,3.642377428433299,9.10214505558312,-0.2333014274070039,-0.1016917452216148,0.9121436476707458,0.4064505994319916,-0.5412211426213405,-0.346491270540921,0.6259703363935376,0.4417970398286298,-0.0456299446523189,0.1801795810461044,-0.2032404392957687,0.0315913558006286,0.0451616644859313,0.0226119756698608,0.2118740975856781,0.0175422430038452,0.0157520155436825,-0.3354233801364898,0.0452276643422897,0.2288418907148763,86
1732866727546807000,-0.4519596316292881,-0.1958756233215332,0.1540145036697387,3.83137556720078,9.027037499889731,-0.0594436705243075,-0.0489573366940021,1.1214203834533691,0.6367092728614807,-0.5584041873057017,-0.3480087688394754,0.61799731441968,0.430295207851454,-0.0025261500850319,0.2351093590259552,-0.155605748295784,0.0221698284149169,0.054537296295166,0.0397543981671333,0.2603490054607391,0.007406108547002,0.016423282993416,-0.4283986389636993,0.0276058135058498,0.0799820481282658,87
1732866727586561800,0.2011132317140698,-0.3466875315576792,-0.1479436593234539,4.088996868078411,8.912243245974183,0.1497393197017256,-0.031161056831479,1.3105870485305786,0.7388491034507751,-0.5803082665612433,-0.3496818382637012,0.6083486098930858,0.4133726643966979,0.0254383720457553,0.2421470284461975,0.0155231244862079,0.0586822628974914,-0.0713691711425781,0.0004812404513359,0.2691103219985962,-0.007499502506107,-0.0323908923579147,-0.4900269210338592,0.0053076853747508,0.1045817979861982,88
1732866727626315000,0.1610176604300737,-0.2968891891658305,-0.0360018722295761,4.313445674933493,8.799746747606992,0.3592192424811423,-0.0279566850513219,0.9885352849960328,0.6330750584602356,-0.5999676388108514,-0.3504946455223696,0.5990312342244218,0.3979371427190821,0.0767721310257911,0.3062431812286377,0.1017166003584861,0.0149782299995422,-0.0490275025367736,0.0584000423550605,0.2958297431468963,0.009947745129466,-0.0419292164519429,-0.5015899538993835,-0.0281995644481852,0.1559464215803891,89
1732866727666069800,-0.3108899497285485,-0.2318517765879631,-0.4032598250638693,4.526331469766795,8.682786255568265,0.5403279431730509,-0.0132464738562703,1.0776453018188477,0.7130152583122253,-0.6173291742939606,-0.3506280982236601,0.5911944509268217,0.3826929463648802,-0.1346279978752136,0.2375733256340026,0.0426279120147228,0.0308889746665954,-0.0024679899215698,-0.0211855247616767,0.3218255043029785,0.0137426489964127,-0.0388283095608465,-0.5199195146560669,0.0080940367199829,0.0980617485676892,90
1732866727705822500,-0.9567027589410544,-0.3931915085792541,-0.6245376737326384,4.757348549096286,8.540360482883452,0.7747742662988603,-0.1328587681055069,1.0295042991638184,0.8825739622116089,-0.6363203453722353,-0.3486337227421246,0.5821958720283311,0.366877328919365,-0.4686722755432129,0.2704873979091644,0.0728378146886825,0.0221195220947265,-0.0388209223747253,-0.0224442407488822,0.3030850887298584,0.0548095703125,-0.0104813839476672,-0.534249484539032,-0.0446497913890983,-0.064999126394093,91
1732866727745578800,-1.1123819809526203,-0.2138338893383741,-0.5765681542031467,5.080622179579734,8.327634847047925,1.004082422818616,-0.1270694434642791,0.8697099685668945,1.23598051071167,-0.6557847580485273,-0.3415876492098295,0.5763019367874938,0.3480523596129262,-0.032169796526432,0.299259603023529,0.0663855671882629,0.0363869071006774,0.0308591723442077,0.0127830505371093,0.2529787421226501,0.0192928668111562,0.0883817555472254,-0.3974725306034088,0.0167225730423117,0.1308843149077147,92
1732866727785334000,-0.9488234038680792,-0.4985545018047094,-0.4708255140103399,5.49376575834155,8.023080237820745,1.2724341573514044,-0.1410121619701385,1.3359929323196411,1.621672511100769,-0.6787157204997634,-0.3314194287020697,0.5703376824476899,0.3228327549211252,0.0160067863762378,0.1997420042753219,-0.0205701645463705,0.0212045311927795,0.0526350140571594,-0.0427817106246948,0.2256532311439514,-0.0027657537721097,0.0217337614009855,-0.270553857088089,-0.0180780005310371,-0.0291839609592105,93
1732866727825090300,-0.9623743748366832,-0.4802665654420852,0.1399871473610401,5.981219604939222,7.594336938866973,1.6496787397362291,-0.1349603980779647,1.4884332418441772,2.047880172729492,-0.7069145035222589,-0.3169502890157093,0.5616336030187087,0.2904859681362122,0.1061902120709419,0.3149559497833252,0.0729771628975868,-0.0025269985198974,0.0044856071472167,0.0100725851953029,0.1666573137044906,0.0185326468199491,-0.07581856264011,-0.2361828386783599,-0.0047979959866759,-0.1100590329540427,94
1732866727864845800,-0.6609060411870479,-0.2893020950376987,0.1969023360207676,6.487644109466672,7.056811778154969,2.069358734529465,-0.0178220830857753,1.6451796293258667,2.195062160491944,-0.7366455943506243,-0.3007559735917224,0.5513963270016434,0.2507211114823977,0.1447810232639312,0.1612263619899749,0.1059431731700897,0.0535318255424499,0.0104596614837646,-0.0517374239861965,0.113027773797512,-0.011598645709455,0.0308607099488377,-0.2023514211177826,0.1226822763521689,-0.0624410165762295,95
1732866727904602400,0.6145587160319089,-0.5249895042657852,0.8644573137030005,6.910266879713535,6.5070514052480455,2.4651290075555443,0.1891478449106216,1.551341533660889,1.9372092485427856,-0.7626300410984279,-0.2861537861068678,0.5407674312011018,0.209956825140101,-0.0686934515833854,0.3287140429019928,0.1239028573036193,-0.0441545248031616,0.0130417346954345,0.0021517276763916,0.0827658399939537,0.0157394520938396,0.0154802162899111,-0.1680178493261337,0.0164632633773551,-0.036381701860018,96
1732866727944357600,-0.5601876588970423,-0.3462473865747451,0.2080567672416567,7.254374331650138,5.97456599226892,2.801604357178509,0.3105468451976776,1.343651533126831,2.098099946975708,-0.7842044165227114,-0.2755586034340349,0.5303068790139722,0.1669293860221851,-0.0365565568208694,0.3385716378688812,0.1492731422185897,-0.0100555419921875,0.0001998543739318,-0.0120983123779296,0.0478685721755027,0.0002195209963247,0.0116282501445617,-0.1104217246174812,0.0644164174355799,0.0441808130373246,97
1732866727984116200,-0.3312169907033443,-1.035833578801155,0.3675637308478355,7.550632821696996,5.391784224247932,3.176004363787174,0.024140790104866,1.3134111166000366,2.0984365940093994,-0.8037779671337244,-0.2605423817106083,0.5197946860876449,0.1259848554672693,-0.0614589750766754,0.3006832897663116,0.1075173616409301,-0.0054435729980468,0.0197718739509582,-0.0204979181289672,0.0204360131174325,-0.0058017773553729,0.0084475537322345,-0.1274733543395996,0.0947477286488749,-0.0241165032354998,98
1732866728023873300,0.3233803057283163,-0.0597401829525828,0.9313535058900714,7.818550767922401,4.752524782201648,3.529044186981022,0.0005338536575436,1.0301588773727417,1.9146333932876587,-0.8200644379929624,-0.241730590447273,0.5115028341732198,0.0861709023667514,0.0645610094070434,0.2305582910776138,0.0827737972140312,-0.0007614493370056,-0.0006415247917175,-0.0447186231613159,0.0329494476318359,0.0212675910443067,-0.061165443682461,-0.1157764717936515,0.0380357572439359,0.0063116839186783,99
1732866728063631000,-0.7593254988849163,-0.4164937659725546,0.7309042910426855,8.037249048426746,4.21145303492397,3.7197666653230783,0.2019770145416259,0.0222017485648393,1.7529500722885132,-0.8287248450888766,-0.2261894214737346,0.509100211274475,0.0535760046526646,0.2167665362358093,0.263648509979248,0.0395359136164188,-0.0082930922508239,0.0005490183830261,-0.0297185182571411,0.0259679146111011,0.0527784004807472,-0.0660446259921882,-0.0850228741765022,-0.0466642958495533,-0.0391342519711703,100
1732866728103389000,0.1833592560976743,-0.1243862581253051,1.872484601689875,8.348228137743472,3.700275782911479,3.5756706213384866,0.9801669716835022,-0.0576768554747104,1.8520877361297607,-0.825802445597739,-0.2165237294624114,0.5203931311575005,0.018939024984969,0.0824220329523086,0.0859293639659881,-0.0267554894089698,0.0426281690597534,0.0252907872200012,-0.0644521713256836,-0.0035141534171998,0.0630306676030159,0.0271283892694278,-0.0687294602394104,0.057748844738584,-0.1287052721018902,101
1732866728143145700,-0.6670674864262343,-0.3079050886988639,0.8338435642525553,8.578556650286913,3.163289259120822,3.545749822588265,1.431551218032837,0.841775119304657,2.333190679550171,-0.8245048760069222,-0.2153884900449645,0.5223264008854486,-0.0312180079773084,-0.2029902637004852,0.0592854991555213,-0.0209095850586891,-0.0061394572257995,-0.0285969376564025,-0.037765622138977,-0.0480212420225143,0.071634292602539,0.0359112873196951,-0.0305900052189826,-0.0126327201875916,-0.0408547601874219,102
1732866728182903600,1.0843781217396258,-0.2354623683005571,-0.7317997785776853,8.728856517347692,2.5807328242883085,3.649284431342781,0.976241409778595,0.5588511824607849,1.938958048820496,-0.8240626056827456,-0.2122546251531032,0.5185424340927333,-0.0835618159824829,-0.1703817248344421,0.1492399871349334,0.0960477963089943,-0.0321408510208129,-0.0752095580101013,0.0024912962689995,-0.0724034905433654,0.0592634826898574,0.0300691120465751,-0.0554522275924682,-0.0853444884768687,-0.0661600690654013,103
1732866728222665000,1.8999755429446696,-0.4689794477522372,0.8240946159154177,8.821858041650056,2.158537777934223,3.699449561220408,1.1722702980041504,0.229252815246582,1.4412823915481567,-0.8207549859544784,-0.2111186008410879,0.5165360600820443,-0.1223957968458623,0.1207174882292747,0.0033242837525904,0.2069422751665115,0.0261098742485046,-0.0768949389457702,-0.0688623189926147,-0.0875988453626632,0.0602728687226772,-0.0077120573732943,-0.0412059016525745,0.0322719193204771,0.0214057510060374,104
1732866728262424300,0.7487778013855219,0.6194108322381973,-0.2732785964757204,8.950282761511206,1.7943936462715266,3.58371101219207,1.1538240909576416,-0.253215342760086,1.561463475227356,-0.8106702611676994,-0.2154392708890754,0.5204493373829542,-0.1597880731148746,0.0598333626985549,0.0097664175555109,0.2144002616405487,-0.0341605544090271,-0.0692352056503295,-0.0148926964029669,-0.042110551148653,-0.0211302824318408,0.0406626990808872,-0.0661788359284401,0.1213195274984463,0.0116986633410269,105
1732866728302182100,0.5484259094327688,-0.0273088626861572,-1.3948124366551635,9.058308251944185,1.493607888058573,3.447690722635388,0.4309927523136139,-0.3517520129680633,0.981925129890442,-0.8007364124814194,-0.2173656642350702,0.5262783102437653,-0.1860228510198674,-0.2508680522441864,-0.0707776919007301,0.174172818660736,-0.0096247196197509,-0.0557213425636291,-0.0436586141586303,-0.0262216385453939,0.0208013597875833,-0.1804795724755153,-0.0588966012001037,0.0288902113101794,-0.0485943323303712,106
1732866728341941200,0.9182546626031398,0.4937601071350276,-0.167013101452589,9.16851693163514,1.1142455098021775,3.296533946484327,0.3814515769481659,0.0285026431083679,1.1471054553985596,-0.7908499324058579,-0.211726393517894,0.5358129169283797,-0.2064770931399095,-0.3545070886611938,-0.1841584742069244,0.1195906028151512,0.0125398635864257,0.0063956379890441,-0.037788987159729,-0.0541122071444988,-0.0039119184948503,-0.1775625525176525,-0.0804677158594131,0.033428898202721,-0.105801311577484,107
1732866728381699600,-0.9571376432269812,-0.0087621292568743,-0.8137868646517395,9.175532947877048,0.7538076122462749,3.378126480282843,0.1720753014087677,0.1942978352308273,1.2534364461898804,-0.7875636519730392,-0.2036903171784183,0.535045540492453,-0.2279910532421838,-0.224711000919342,-0.1381561011075973,0.1564725190401077,-0.0123524069786071,-0.0002210736274719,-0.0375953912734985,-0.0740716457366943,0.0660106390714645,-0.1096199930828064,-0.0435179099440574,0.0156130591641413,-0.1101632239808794,108
1732866728421458700,1.108617075461149,0.333793307464756,-0.212431621325016,9.165500214162469,0.3111447647398337,3.473783195269108,0.1454442292451858,0.5504751205444336,1.0440930128097534,-0.783714198750037,-0.1914582121720003,0.5350047683983356,-0.2508100113625018,-0.0728101655840873,-0.1875087767839431,0.1612587422132492,0.026149034500122,0.0422801375389099,-0.0649987459182739,-0.0840131267905235,0.0160049628466367,-0.1306544334082864,-0.0492397919297218,0.0565727684302255,-0.2266241963990964,109
1732866728461220900,-0.6326262876421213,0.3326946255078539,0.1576853011369705,9.058121204939484,-0.0169590840702818,3.757732531102001,0.1796701848506927,0.7852431535720825,1.0320522785186768,-0.7864295529368694,-0.1795907881615197,0.5255055755556778,-0.2704065998206829,0.0110346656292676,-0.0700018033385276,0.1972373276948928,-0.0208873748779296,0.0015961527824401,0.0166822671890258,-0.114972673356533,0.0282411854714155,-0.1213479681416414,-0.0317174196243286,0.0409523890427313,-0.1440216453078202,110
1732866728500936700,1.6404606834053992,0.2360387434164062,0.3811369136482477,8.94565159457922,-0.3460223091145977,4.00324458425194,0.1006956100463867,0.9046941995620728,0.7385953068733215,-0.7876277883013993,-0.1677287471529617,0.5174537586552982,-0.2893979349178152,0.1132395938038826,-0.1070264056324958,0.1585951894521713,-0.0058454871177673,0.0129570364952087,-0.0394244194030761,-0.1326119899749755,0.0252444203943014,-0.1374795301879756,0.007785995490849,0.0189801335775991,-0.0952844841403886,111
1732866728540757200,0.1265074880629778,0.2439427580066025,0.7679863597244024,8.713782866856455,-0.5442653922198339,4.46588810698092,0.1568552106618881,1.4667717218399048,0.6577381491661072,-0.7968040419603948,-0.1556008919766277,0.4980877837628574,-0.3046315061244664,0.1782833039760589,-0.0681044161319732,0.2414103895425796,-0.0092330574989318,-0.0687875151634216,0.0306370239704847,-0.1299862563610077,0.0279038622975349,-0.0896002918909769,0.0066494806669652,0.0937701066552195,-0.0965287120478227,112
1732866728580578800,1.8125673086047167,0.6240696178294718,-0.5600795223474502,8.447185355579853,-0.7220822482921183,4.928899001717567,0.0976410880684852,1.2204313278198242,0.4676298797130584,-0.8054592997649846,-0.144095671890867,0.4774228097205552,-0.3202175176410034,0.0969032347202301,-0.1302548199892044,0.2183172404766082,0.0230042934417724,0.0130425691604614,0.0277347564697265,-0.1540636718273162,0.0388500206172466,-0.1213959446023684,0.0034883031621575,0.0235796723954612,-0.0107321632462961,113
1732866728620399400,3.2162019341409205,0.4147077593386173,-0.6739648447245359,8.178551954561472,-0.7889514063417911,5.353431989499926,-0.2217166721820831,1.370815396308899,-0.2232450246810913,-0.816896538972972,-0.1328218911238318,0.4576125792047196,-0.325006513022445,0.1491398215293884,-0.0451649017632007,0.1689785271883011,-0.0304452180862426,-0.0193755030632019,-0.0131447315216064,-0.145363375544548,0.0302599500864744,-0.0857682485805824,-0.0032247649505734,0.0689477863880572,-0.0405868527991231,114
1732866728660221000,0.2437520577400922,0.2505318540733307,-2.253410210675001,8.016543529528379,-0.7392480487570167,5.59990499663651,-0.7090503573417664,0.6912683844566345,-0.423997700214386,-0.8278944321827711,-0.1249069018578324,0.445962512574817,-0.3163963044453576,0.2814403176307678,-0.0454147607088089,0.192589446902275,0.0044627785682678,0.0900080800056457,0.0158857069909572,-0.1194972917437553,0.0325025059282779,-0.0952866486980114,-0.0657642111182212,0.0123097022032365,-0.1257266033509746,115
1732866728700042200,-0.709390378370881,0.2684089446127414,-1.577170406755805,7.812986704054475,-0.8424188657004386,5.866681956133246,-1.185080885887146,1.0108098983764648,-0.3356662690639496,-0.8407532163557595,-0.1062165742246124,0.4354314052371973,-0.3037294364609716,0.3780576586723327,0.0717264637351036,0.2542315721511841,-0.006946325302124,0.0099548697471618,-0.0090993642807006,-0.1012499779462814,0.0536384060978889,-0.0555351918436819,-0.0748433396220207,0.0384890585359651,0.0290797744989511,116
1732866728739824600,-1.01943072553277,-0.3336082697540521,-0.1978992381036281,7.62084325299859,-1.097675410208106,6.073569387334585,-1.2900660037994385,0.6379889249801636,0.0269908774644136,-0.851386068300931,-0.080904325195927,0.4287057587677894,-0.2912176530189981,0.1875316798686981,0.0508296974003315,0.2927513420581817,0.0010827779769897,-0.0224962830543518,0.0321219563484191,-0.0915797799825668,0.0319992639124393,-0.0213660126506933,-0.0158687755465507,0.0815878302239347,0.0278285848444793,117
1732866728779580200,0.3426046461582183,-0.2721381942689418,0.8528443250596522,7.467430806875228,-1.3759703735411166,6.2060097725778816,-0.8973376750946045,0.5037941336631775,-0.0290670022368431,-0.8580437425827278,-0.0583183155353621,0.4244767640273967,-0.283159506488253,0.4182961583137512,-0.1381707489490509,0.2466436922550201,0.0343088507652282,0.0024095773696899,-0.068320095539093,-0.0753624066710472,0.0150417536497116,-0.0208424408677383,0.0154832238331437,0.1363490100543946,0.0225806217379984,118
1732866728819334700,0.5605290196806192,0.0151876322597265,0.2904816602110862,7.369964704379439,-1.5410421316675842,6.283247910559177,-0.6966673731803894,0.3182349503040313,-0.1333465874195099,-0.8627542103974164,-0.0436532163783977,0.4215897534253492,-0.2757023398339466,0.2153723537921905,-0.2302666306495666,0.1707780957221985,0.0088889002799987,0.0163304209709167,0.0189365167170763,-0.0491848737001419,0.0174899436533451,-0.074196103404276,0.0212742257863283,0.0523571006636833,-0.0028358359181002,119
1732866728859090400,0.4317471569448709,-0.0365051455765962,-0.1960007110059261,7.281472766456008,-1.6692137535504996,6.353288830512762,-0.8667764663696289,0.3215407431125641,-0.3048714995384216,-0.8679653088670798,-0.030038573568858,0.4185332925272534,-0.2656387382040724,0.4194623529911041,-0.2772574722766876,0.1830960065126419,0.0186724662780761,-0.0418229699134826,-0.0425597429275512,-0.0241352580487728,0.013189548626542,-0.0629075518091674,0.0086677009239792,0.0937672479778528,0.0459152538808062,120
1732866728898844700,0.1324549982905387,-0.0641474780008196,0.5461380907565355,7.243182491028309,-1.7627781724326312,6.371757968661188,-0.5362551808357239,0.2655079662799835,-0.3033108115196228,-0.8719381811065824,-0.0187800472630142,0.418064676787773,-0.254151376111401,0.3397217392921448,-0.2388097941875457,0.1902762949466705,-0.0029125809669494,0.0014135241508483,0.0256585516035556,-0.0024798004887998,0.024626862257719,-0.1246526631096843,0.0317586958408355,-0.0039652851893129,0.0510451001830864,121
1732866728938600200,-0.1667711093902587,0.0273009716406464,-0.1433639303177595,7.195548633193969,-1.8129264973059296,6.411533514210581,-0.4965366423130035,0.2565797865390777,-0.1996742486953735,-0.8755078850289613,-0.0111560181302262,0.4159066146267922,-0.245729943850529,0.5017122626304626,-0.2304205149412155,0.229096457362175,0.017475426197052,0.0136461853981018,-0.0461924038827419,0.0252966098487377,0.0212599691003561,-0.058404239907395,0.0209234021604061,0.0513230814408278,-0.0470027157573727,122
1732866728978357800,-0.3840951789319515,-0.0696096889294684,-0.2431312954932451,7.134546759742498,-1.885405458061397,6.45862785834074,-0.4879985749721527,0.2341739386320114,-0.1652152091264724,-0.8789322193799601,-0.0026352337604477,0.4131521284861031,-0.2382781364449122,0.0371248573064804,-0.2633224427700043,0.1673500090837478,-0.0102313756942749,0.0117343664169311,0.0052670910954475,0.047368373721838,0.0183048602193593,-0.063694793196721,-0.0222669020295143,0.0738760594033636,-0.0743410876658046,123
1732866729018114800,-0.1122726264834404,-0.3010822569414973,0.2583633514165878,7.110374441516399,-1.968920192094147,6.460364472874999,-0.4734074473381042,0.0962597876787185,-0.132819578051567,-0.8807974614736608,0.0054290179299891,0.4130176728441098,-0.2314795012638339,-0.2867507040500641,-0.23133285343647,0.1092686578631401,-0.0118277668952941,-0.0072110295295715,-0.032585859298706,0.0344523601233959,0.0266340710222721,-0.1425344572236761,-0.0326169580221176,-0.0338404427122557,-0.0003334554675122,124
1732866729057870800,0.2625169639647007,-0.2373914366669952,0.403656203970313,7.100850241845846,-2.0317131867460905,6.45139147734642,-0.2934750914573669,-0.0150495711714029,-0.170437291264534,-0.8819871450415527,0.0115577391713172,0.4134452802434095,-0.2258938939304539,-0.0114477397873997,-0.1851032078266143,0.0911053046584129,0.0174593925476074,0.0664130449295044,0.0380724072456359,0.0485964566469192,0.047094490379095,-0.0769373832027427,-0.03933060541749,0.0159389358258631,-0.0860258218045346,125
1732866729097628200,-0.077241060590744,-0.330862332046777,0.0305552972614765,7.146569790491461,-2.03356144496128,6.400121308836341,-0.2519237399101257,-0.2222178876399994,-0.2579981684684753,-0.8820309020287332,0.0137254457573547,0.4165288138637668,-0.2198563668077178,0.4003821611404419,-0.1547194123268127,0.1681416183710098,0.0425338745117187,-0.0499652624130249,-0.002725601196289,0.0255115665495395,0.0625812262296676,-0.1102993901817128,-0.0765645578503608,-0.0303994856452569,-0.1010226715993601,126
1732866729137385500,-0.35367958240211,-0.1625409244745969,0.3802478558540344,7.248232175633311,-1.9923900611393155,6.297928177818656,0.0173174403607845,-0.4709159433841705,-0.2269062399864196,-0.8804049106962474,0.0123982792426005,0.4227780734604299,-0.214457948521766,0.8785167932510376,-0.0710911452770233,0.1735721379518509,0.0393031239509582,0.0248311758041381,0.0500016771256923,0.0064068436622619,0.0540797710418701,-0.0581206463261973,-0.1137444674968719,-0.0066777515977155,-0.0580027921001892,127
1732866729177141500,-0.5980243453383446,-0.3085767043501138,-0.0159422500193119,7.363139826795458,-1.9421226399309928,6.179215873676538,-0.0872477442026138,-0.4359567761421203,-0.1657858788967132,-0.8777755351476061,0.0094085798397319,0.4299525067799501,-0.2110979079802621,0.4945070445537567,-0.0155053306370973,0.1284832209348678,0.0224130153656005,0.0161309838294982,0.0517532303929328,-0.0024222210049629,0.0373505018651485,0.0061257722792506,-0.1128722950816154,0.0147109295425121,0.0143052302518743,128
1732866729216902400,-0.3869897313296794,0.1894990740269422,0.3805494691491127,7.487144392126798,-1.888634064719081,6.045338149106502,0.2219984829425811,-0.4741381108760834,-0.0937829241156578,-0.8742612154824012,0.0052068218286853,0.4378885824641119,-0.2095085798860182,0.5460214018821716,-0.0086702741682529,0.0794139578938484,0.0166737437248229,0.0279329419136047,0.0042484328150749,-0.0310494303703308,0.0302405096590518,-0.0485025258610723,-0.1016666367650032,-0.0397954101604875,0.0168145758744329,129
1732866729256662000,-0.1517950740545988,0.0737364134706556,-0.203365686815977,7.525637496650218,-1.8282373175539075,6.016038404864072,0.2700206935405731,0.0770559906959533,0.1379654854536056,-0.872768026043295,-6.03086187199e-05,0.4396218872184246,-0.212152302001996,-0.0330062955617904,-0.0276758708059787,0.0200885813683271,-0.0153431892395019,-0.0498967766761779,0.0547803193330764,-0.0264523588120937,0.0209749601781368,-0.05559129224536,-0.1060142219066619,-0.0425180491905659,0.0226499743468943,130
1732866729296420600,0.1965560068011283,0.3602313421331345,-0.2720136911064386,7.466535319340228,-1.8214425428472456,6.091270463719964,0.227466195821762,0.1905485540628433,0.1497128903865814,-0.8736656757423908,-0.0020210086892245,0.4352327590573703,-0.2174317307683811,0.236333817243576,-0.0677546858787536,-0.0482979342341423,0.001050591468811,0.0455917716026306,-0.0816001892089843,0.0064598489552736,0.0274137314409017,-0.0283550541207077,-0.0954647958278656,-0.0108905606868909,0.0233415961731341,131
1732866729336178200,0.8449655545085668,1.4453493224546312,-0.9567080196380616,7.3756748987197875,-1.8267754283078013,6.199411104965209,-0.0183664411306381,0.123067207634449,-0.1698768883943557,-0.8760976962474049,-0.0015291244581207,0.4288538863660981,-0.220306484490359,0.1822562217712402,-0.0685300901532173,-0.0381283871829509,0.0088758468627929,0.0080102086067199,0.0081626772880554,0.0093985442072153,-0.0022881468757987,-0.0503805353271309,-0.084335021674633,0.0015538823742506,-0.0761936430301982,132
1732866729375936500,0.1050742394119501,-0.1589820629492402,-1.1601029325485228,7.551283394560217,-1.7617662189111112,6.003721944126487,-0.736370861530304,-0.402179092168808,-0.6066860556602478,-0.873691072856301,-0.0014172926564018,0.4403332230289858,-0.2068055442995741,0.6244677305221558,0.0761835798621177,-0.1193160489201545,-0.0179898738861084,0.0833297371864318,-0.0054535865783691,-0.0332334302365779,0.0205390825867652,-0.0816607401965185,-0.0824229344725608,-0.0775097579969093,-0.1353643372654449,133
1732866729415694000,-1.0626362455308436,-0.4182955546975135,1.0434668501585722,7.5389517362535,-1.8602362377524373,5.989500526550412,-0.5330763459205627,0.627286434173584,0.2124944180250167,-0.8755749446210108,0.0091648312329261,0.4410628810017128,-0.1968453022780303,0.3726080358028412,0.1393326073884964,-0.0649125277996063,-0.0043448209762573,-0.076999545097351,0.0138009190559387,-0.0481688305735588,0.0158531889319419,0.0027612014917773,-0.0741899833083152,0.0132873264801804,-0.0533143968219403,134
1732866729455457300,-0.2035135708540678,-0.2664554724574089,1.2106301737368106,7.277332013389468,-2.0554710789524018,6.243866332763433,-0.0297542437911033,1.081125259399414,0.5316853523254395,-0.8818514307221141,0.0214768424281692,0.425664379731371,-0.2017093334948839,0.3105537295341491,0.1252681910991668,-0.0466409139335155,0.0083698034286499,0.0321210026741027,-0.0324593782424926,-0.0321535728871822,0.0023475661873817,0.0348205238077673,-0.0486534833908081,0.0486077626341022,-0.0136066421120194,135
1732866729495215900,-0.3508943355977535,-0.4920411743879317,0.1962888802975416,7.011264078944921,-2.2005377215348183,6.493858746197819,-0.1007760763168335,0.5104262232780457,0.4437751471996307,-0.8872116008592528,0.0295988884649985,0.4099137217341514,-0.2096434441645642,0.2496387064456939,0.0490125715732574,0.0640985816717147,0.0474530458450317,0.0086143612861633,-0.0226203650236129,-0.0408440791070461,-0.0162458568811416,0.0420651086581405,-0.0383973643183708,0.0425817620765417,-0.0233346298595191,136
1732866729535004200,1.1944792494028806,-0.0614142536446452,0.8603145148098468,6.910791195848584,-2.301812276402861,6.56605070670545,0.167932316660881,0.1477775275707245,0.255622923374176,-0.8877382299598978,0.0335943305751772,0.4050876581950439,-0.2160934678274947,0.1106147840619087,0.0511233396828174,0.1588268131017685,0.0476677417755126,0.0003847479820251,0.0075207352638244,-0.0370749235153198,-0.0333656668663024,0.0051908312291634,-0.0093328850343823,0.0672027693516341,0.0376607590522384,137
1732866729576071200,1.1057914966464042,0.0775723383717238,0.233836228403449,6.82081223423779,-2.298643290977925,6.660566727223992,0.2332378327846527,0.4465671479701996,0.1411525458097458,-0.8892693005476158,0.0326364392000314,0.3991747468754144,-0.2208947540675092,0.3757692277431488,-0.0164451058954,0.1457366645336151,0.0095139145851135,0.0450175404548645,-0.0395872443914413,-0.0195976831018924,-0.0223274137824773,-0.0638985949733993,0.0031711845658719,0.0652519869103096,0.0628409756792476,138
1732866729615890700,1.1370716010510922,0.4273220339789986,-0.936669440215826,6.7139639708906405,-2.246616020490229,6.785704095977544,0.0351756401360034,0.2886997163295746,-0.2151680886745453,-0.8926093821495081,0.0310849960388189,0.3912276818467137,-0.2218625800693745,0.4981547892093658,0.0547703765332698,0.1358732283115387,-0.0131781101226806,0.0243914127349853,-0.0131221115589141,-0.0230350606143474,-0.0071071507409214,-0.0998940328956115,0.0241320747882127,-0.0436259556335397,0.0940510333552956,139
1732866729655711200,-0.2267985848516225,0.0576971328176557,-0.4444675223082304,6.666003365319967,-2.209036815941334,6.845065801006555,-0.2502461373806,0.3349968492984772,-0.2309232652187347,-0.8958392269936472,0.0325437419649613,0.3872204362404394,-0.2155763648758545,0.496575266122818,-0.0962010845541954,-0.0600616484880447,-0.0382521152496337,0.0522364974021911,-0.0901453495025634,-0.0394577272236347,0.0173744019120931,0.0183773156961076,0.0300509352236986,0.0441327863442478,0.0429156884723342,140
1732866729695530500,-0.4863730656236409,0.2806301282823085,-0.4971265148282051,6.608046850913762,-2.2616823644578457,6.883958718502521,-0.3051292300224304,0.0817490220069885,0.0095186559483408,-0.8978648137199918,0.0378456553969013,0.3841659625725466,-0.2117143002762257,0.6290028095245361,-0.0702891647815704,0.0187376923859119,0.0387691855430603,0.0772923827171325,-0.0141238570213317,-0.0238158106803894,0.0337456800043582,-0.0140217040276911,0.0038032452575862,-0.0141939199310843,0.007778209953173,141
1732866729735309800,0.0862497119545936,-0.206748899513483,0.0278133050769567,6.597163637849688,-2.3508570239484308,6.8644941395759576,-0.3431452810764313,0.0591576658189296,-0.0530585050582885,-0.8979310879955933,0.0438854077969168,0.3848145800776284,-0.2090728457152964,1.0280938148498535,-0.0157218966633081,0.0831331312656402,0.0343208909034729,0.0133136510848999,-0.0022715330123901,-0.0518913306295871,0.0144512625411152,-0.0010907642254554,0.0011979144765064,0.0612404816800495,0.0272481180754024,142
1732866729775063800,-0.3489677514493465,-0.0723195324100554,0.0347597632139921,6.681631142562628,-2.39535419119224,6.766718240478634,-0.1610869318246841,-0.5302293300628662,-0.0920299440622329,-0.8960148677247207,0.0467179273288206,0.3909102444571619,-0.2053389955797394,1.3268823623657229,0.0562018267810344,0.1429822742938995,0.0130631327629089,-0.015407383441925,-0.0343158543109893,-0.0736567452549934,0.0081563843414187,0.0177540224238124,0.0100251054391264,0.0791273492613807,0.0584860410059103,143
1732866729814818600,0.0638490795761346,-0.2924159892745316,-0.1470733062297105,6.801373958796263,-2.424404344587773,6.635808133542537,-0.1220931187272071,-0.3651909828186035,0.0482180714607238,-0.8924356395602244,0.0469257766077067,0.3993318228664472,-0.2046718565313002,0.9536221623420716,0.0016994359903037,0.3075556457042694,0.055964708328247,-0.0782250165939331,-0.0259101390838623,-0.049250092357397,-0.0094171268865466,0.0617532398080453,0.011864872649312,0.1613669305254705,0.1345894347696565,144
1732866729854573600,0.0938087490320205,0.4949108846053481,-0.3034679830342531,6.908333281302451,-2.468331310728192,6.507891947725415,-0.0573988817632198,-0.5760394334793091,0.0243592467159032,-0.8885772697071119,0.0474096067132696,0.4073600105028414,-0.2055252767030835,0.4275256097316742,-0.195367082953453,0.3876590132713318,0.0024794042110443,-0.0557867884635925,0.0873757302761077,-0.030399739742279,-0.05562649294734,-0.0028048222940284,-0.0057233753614127,0.1574755308438092,0.0700665841178037,145
1732866729894327300,-0.0273801743566989,0.0967746131002903,-0.2949257801383733,7.064537988492846,-2.496812139803171,6.326817587694525,-0.188530221581459,-0.6192668080329895,-0.0766600668430328,-0.8836289740346577,0.0472489660039039,0.4185565702719398,-0.2043963595392143,-0.0404655411839485,0.0113543542101979,0.4033840298652649,-0.0505671203136444,-0.0544474124908447,-0.0341450273990631,-0.0297453366219997,-0.0410420596599578,-0.0596988051960011,-0.0036488166078925,0.1039394906278233,0.1174274610965046,146
1732866729934082300,-0.3777817580014467,0.2753630015343427,-0.167913849684596,7.203051556169986,-2.53414233802706,6.153417415553331,-0.2063850462436676,-0.3300225734710693,0.1004516929388046,-0.8789636956045412,0.0479993740555139,0.4289045042004635,-0.2028787047293583,-0.1180183887481689,0.0547555163502693,0.3805845081806183,-0.0181080102920532,-0.0072667598724365,0.0783897638320922,-0.0141775319352746,-0.0481613539159297,-0.0336094309849548,-0.004479928407818,0.1158003530850168,0.1389374008460901,147
1732866729973839400,0.425735933831334,0.15621289049685,-0.287324657484889,7.20682932114303,-2.6488760939270257,6.100446288344264,-0.2802731394767761,-0.0226136725395917,0.2042406350374221,-0.8771075368100141,0.0535199003084377,0.4313924198343923,-0.2042511329438772,-0.3057097494602203,-0.0427103750407695,0.2923427522182464,-0.026600033044815,-0.0224682688713073,-0.046601116657257,0.0178667157888412,-0.0541664436459541,0.0192686362293548,-0.018341401591897,0.1624037810262292,0.0363123492511222,148
1732866730013596000,0.5689414587169885,-0.0698778383463621,0.008493103057146,7.216254152092337,-2.760068523958325,6.039708618786931,-0.3063150346279144,-0.1213462054729461,0.0981238782405853,-0.8753606378620931,0.0594932080170939,0.4341901724455524,-0.2041647124382195,-0.1559165120124817,-0.1449597775936126,0.3792566061019897,0.0380781590938568,0.0292608141899108,-0.0068197548389434,0.0199236031621694,-0.0412895493209362,0.0260177017809008,-0.0304482001811265,0.1421201590680517,0.0350472269694204,149
1732866730053351700,0.2705722601264715,-0.1450672271043062,0.295004690593481,7.257994860234856,-2.840801518318057,5.951617078357935,-0.1848764717578888,-0.3619832098484039,0.0106127392500638,-0.873027849095734,0.0638157676092124,0.4387248733435015,-0.2031515190826237,-0.6973251700401306,-0.1131077855825424,0.4599682986736297,0.0393503308296203,-0.0715987682342529,0.0111643373966217,0.0294641386717557,-0.064481034874916,0.0447066635423339,-0.0156835131347179,0.168755670803599,0.0701777391749667,150
1732866730093108200,0.3772428288191556,-0.0898956672415137,0.2538502579063177,7.349294256794452,-2.865895627564192,5.826224273538589,-0.1691311597824096,-0.221410647034645,-0.0071701505221426,-0.8696678556287392,0.0645512551993561,0.4458456816727676,-0.2018228961756224,-0.7193167805671692,-0.0965903773903846,0.3707785606384277,-0.0416438579559326,0.0212493538856506,0.0297748446464538,0.0592046417295932,-0.0478616207838058,-0.0418450635661371,0.0180738531053066,0.0933110925750341,0.165591124091763,151
1732866730132864800,0.4036947824150323,0.2236065108120441,0.4148497981578111,7.378358438715338,-2.892842086678743,5.775957144591212,0.0036941475700587,-0.234396755695343,-0.0402785688638687,-0.8683674972078946,0.0660012453875498,0.4484996974470376,-0.2010716129995573,-1.1037343740463257,-0.1909001618623733,0.2617363035678863,-0.0488005876541137,-0.0005730986595153,-0.0606241226196289,0.0846951007843017,-0.0354370102286338,-0.0711431821070611,-0.0147944577038288,0.0712779874678701,0.0725689679933246,152
1732866730172620300,-0.5939589955955743,0.0335045024558901,-0.1271194824814796,7.512453020906448,-2.8628523143455387,5.615826788389683,-0.0226981528103351,-0.7664971947669983,-0.096280038356781,-0.8637479117309108,0.0625894154502108,0.4579902499681379,-0.2006666473795411,-1.1041463613510132,-0.2458190619945526,0.2226635962724685,-0.031389445066452,-0.0127753615379333,-0.0800771564245224,0.0825248286128044,-0.0241322796791791,-0.006069670165106,-0.0604852326214313,0.0662961804673075,-0.0078754295289953,153
1732866730212377000,-0.6527239037752152,0.4643094101145863,-0.0643283875256776,7.690330046200752,-2.846390424366295,5.378408609846234,-0.036247681826353,-0.6936237812042236,-0.0325154960155487,-0.856896029472986,0.0593952666950687,0.4714336357232185,-0.1998795649793948,-0.4347595870494842,-0.1882932484149933,0.2701010406017303,0.0117338299751281,-0.007508099079132,-0.0178108066320419,0.0830879583954811,-0.0350053943693637,-0.0635869489080738,-0.0577753745019435,0.0477547031684545,0.0550558016957482,154
1732866730252137500,-0.0980921254396438,0.1419762753516435,0.047298342269659,7.77465025139749,-2.9276299069434404,5.210967053848504,-0.1734759956598281,-0.0778626650571823,0.4249205589294433,-0.8512363614689696,0.0610140052174202,0.4801998732336521,-0.2026869555928786,-0.7001065611839294,-0.1102076545357704,0.2847901284694671,-0.0172584950923919,-0.0243831872940063,0.0150278806686401,0.0771373435854911,-0.0228592026978731,-0.0945473837711848,-0.0162493679672479,0.0148281752720999,0.1278192099823616,155
1732866730291895300,1.149119766241312,0.1117880578368902,0.2050976251751184,7.630267499426007,-3.0949633263915777,5.326406035408377,-0.1024822816252708,0.5481511354446411,0.3865764439105987,-0.853258250537027,0.0693179644522928,0.4728888876049944,-0.2086178975772968,-1.527044415473938,-0.1725533157587051,0.1484998166561126,-0.02264404296875,-0.0611611604690551,-0.0308867692947387,0.0760746449232101,-0.0027007111348211,-0.0577809477767441,-0.0252375416457653,0.0163285219486278,-0.0625730682909488,156
1732866730331652400,0.7427882055819034,-0.0443663804709911,0.3813444189190864,7.533218745559454,-3.194090640097856,5.405440993678569,-0.1178860068321228,0.2183926701545715,0.1103850305080413,-0.8549797697632056,0.0749257588486889,0.4677449604441875,-0.2112118805647807,-0.6710845232009888,-0.1691973656415939,0.092896744608879,0.0085473656654357,0.090859055519104,-0.042408287525177,0.0714057460427284,0.0027691056020557,-0.0837144943885505,-0.0769287124276161,-0.004280985804426,-0.087975595032284,157
1732866730371410700,0.1849988399982452,-0.0594438303545117,0.4793593874692916,7.490213132047653,-3.2198642560407515,5.449731386303902,0.0202950704842805,0.0462754815816879,-0.0081845605745911,-0.8563406673484206,0.0771174938663854,0.464966582799267,-0.2110442770281607,-0.4642141461372375,-0.223316952586174,0.0833445191383361,0.032757818698883,-0.0198675394058227,0.0049198269844055,0.0459487251937389,0.0180454272776842,-0.1294838735252618,-0.0328668169677257,-0.0712926279145758,-0.1276903137725312,158
1732866730411167700,0.1966506993472576,-0.0509767385214567,-0.0386199457734823,7.4911314159363505,-3.210225197818875,5.454154463443159,0.0442398190498352,0.0017498235683888,0.0246428940445184,-0.8563044125985109,0.076199974628209,0.4648753451485316,-0.2117246147680782,-0.2582474052906036,-0.1953204274177551,0.1114306151866912,0.0267484188079834,-0.00485360622406,-0.0050804615020751,0.0290159359574317,0.0267340466380119,-0.1322251533237285,-0.0113781439140439,-0.1077107801943086,-0.2108803002297878,159
1732866730450931000,0.2326280216574668,-0.0093947280719876,-0.3320207083016633,7.49495652718246,-3.216342803916335,5.445286681854725,-0.0755416229367256,-0.0372979789972305,-0.0006210001884028,-0.8560455696255318,0.0764905225036167,0.4653137029573066,-0.2117033407540316,-0.0948789864778518,-0.3461716175079345,0.1291828453540802,0.0887250900268554,0.0133594870567321,-0.0411025360226631,-0.0171300750225782,0.0365631580352783,0.0024694776905846,-0.0144353732466697,0.0076537678686407,-0.1820335969844833,160
1732866730490690300,0.3060720280528068,-0.1321992699638009,-0.0976882208138704,7.491842194554209,-3.243475433252752,5.433465311157703,-0.0830280929803848,0.059578962624073,0.0354054197669029,-0.8557989492968027,0.0782745798317711,0.4656645345114914,-0.2112763726692697,0.1028964146971702,-0.524788498878479,0.2059431374073028,0.090099811553955,0.0209976434707641,-0.0090704578906297,-0.0622826628386974,0.0271658599376678,-0.043135948193469,-0.0131964022293686,-0.0044721181833097,-0.085921630777698,161
1732866730530448600,-0.0106301150858402,0.0255684487596154,-0.274987738481164,7.47964263819456,-3.2673174966111778,5.43598869215548,-0.1103091686964035,0.0385902300477027,0.0176446270197629,-0.856013853235056,0.0800933425620007,0.4652168966696549,-0.2107099378687561,1.7124742269515991,-0.5755653977394104,0.2671012580394745,0.0472208857536315,0.1129902601242065,-0.055926501750946,-0.0776540711522102,0.0301776081323623,-0.0506921813924564,-0.0148102212697267,0.0190511621203506,-0.0684084690466988,162
1732866730570207700,-0.1118067625373601,0.0518605356186628,0.0437146385639905,7.463502235254645,-3.303485665318369,5.436313686326145,-0.1207915991544723,0.0922308415174484,0.0538665279746055,-0.8562150522628615,0.0827712747570783,0.4647300873739771,-0.2099302029165026,2.228832960128784,-0.6078549027442932,0.3077724277973175,-0.0102657079696655,0.0379899740219116,0.0599530786275863,-0.0522548891603946,0.017144676297903,-0.035359665335901,-0.0470432341098785,0.1078974618728272,0.0388216925903921,163
1732866730609966300,-0.0431488213747739,0.0869514304831624,0.1747802283227443,7.437790286371111,-3.343215033638477,5.44725418253541,-0.0892738476395607,0.065345361828804,0.0543391294777393,-0.8566128098309512,0.08552639101179,0.4636297629744053,-0.2096360945750377,1.9725348949432373,-0.4609949886798858,0.1908748298883438,-0.066121757030487,-0.0251107215881347,0.0579360425472259,-0.0197672545909881,0.0325924009084701,-0.0444305134820751,-0.0298197083175182,0.0481442870079306,0.0785085506427567,164
1732866730649981700,0.0252115981459617,0.2255488770514726,0.1989841107308864,7.420455705210566,-3.372278046515584,5.45297782087922,-0.0179424509406089,0.029594000428915,0.0825795754790306,-0.8566361938138612,0.0870776061522795,0.4630259259959257,-0.210235516905515,1.7501055002212524,-0.0886004716157913,0.0153703922405838,-0.1178210973739624,0.0178650617599487,0.0755041539669036,0.0052791880443692,0.0323641635477542,-0.0428161781871924,0.000660122022964,0.0416649942914955,0.046012471744162,165
1732866730689848000,0.2501712771326303,0.2743348275303841,0.0879284588217735,7.4058870816320175,-3.391136476242542,5.461082216879725,-0.015272319316864,-0.0055996067821979,0.0311174765229225,-0.8566592193128878,0.0878649325436108,0.4624305841155029,-0.2111225654427506,1.0197945833206177,0.0215966049581766,-0.1422791630029678,-0.0496046841144561,-0.00457763671875,0.082087904214859,0.0160258132964372,0.0115726850926876,-0.0326545642458018,0.0036883782595396,0.040177678343188,-0.0209225021003163,166
1732866730729600500,-0.0299327814489603,0.154008366189897,0.1818237170934677,7.398238028183579,-3.4110207418859004,5.459064447316527,-0.0408244989812374,0.0422073975205421,0.1039514914155006,-0.856478217310679,0.0888203883404924,0.4623592786628181,-0.2116123343352128,0.5186448693275452,0.021398464217782,-0.1769034415483474,-0.0371679365634918,-0.0190096497535705,-0.0622149109840393,0.0183801539242267,0.0186160914599895,-0.0360191338916309,-0.0079556051641702,0.0387540752808563,-0.0885421337407082,167
1732866730769354000,0.3196802821666002,0.029675884078443,0.0373170464813709,7.382915371367335,-3.435577090993524,5.464408730953932,0.0210327990353107,-0.0015658828197047,0.0828650742769241,-0.8562442444660613,0.0895597447384997,0.4619217859326302,-0.2131977145424264,-0.0861483439803123,-0.1715002506971359,-0.0124356728047132,0.0713272094726562,-0.0456050038337707,-0.0166009962558746,0.0252142325043678,-0.0076140714809298,-0.0456852262509055,-0.013267227448523,0.0544990217629354,-0.0300700207954505,168
1732866730809106200,0.2935673512667417,-0.1626446771100163,0.1206722060382366,7.380148244741559,-3.43748613948524,5.466945555955172,0.0524414777755737,-0.0659665837883949,-0.0120534738525748,-0.8561019941108812,0.0892367668436722,0.4618442866363599,-0.214070529144586,1.0108519792556765,-0.0965674817562103,0.1601456254720688,0.041605144739151,0.138912558555603,-0.0790975987911224,0.0259013008326292,-0.0175904966890811,-0.0193122561753727,0.0253920834511518,0.0083590540356963,-0.0195601596719701,169
1732866730848859600,-0.0758551591902971,-0.1646960566818714,0.1398369252353906,7.417974994310736,-3.400270507551729,5.438952218136191,0.1485962718725204,-0.1799403578042984,-0.0325889512896537,-0.8551779698308797,0.0863987861410729,0.4639244107215006,-0.214429766319334,0.0884793922305107,-0.027856271713972,0.0776084661483764,0.052262008190155,-0.1087228059768676,0.0671086907386779,0.0164252109825611,-0.0197537411004304,-0.0795427616618573,0.0454279221594333,-0.0060970291003119,-0.0366040074077667,170
1732866730888611800,0.1347206051349639,0.2879913047000765,-0.1131178451359272,7.433948808512091,-3.3742665899842974,5.433332624688744,0.0857055410742759,-0.0362567044794559,0.0197687149047851,-0.8546334068780521,0.0838957428588553,0.4646919655355292,-0.2159271643281921,-0.3385009765625,0.0038595793303102,0.1105793341994285,-0.0283417403697967,-0.0480753183364868,-0.0066408812999725,-0.0005190190859138,-0.0123764332383871,-0.0255938526289304,0.0503957420587539,0.0023967652224673,-0.0299728029320947,171
1732866730928365000,0.1473170518577098,0.09564677811414,-0.1237450376123189,7.425392577090859,-3.375253847455978,5.444409314498305,0.0029876108746975,0.091435931622982,0.0480851158499717,-0.854789653034131,0.0837107160190232,0.4641173419810914,-0.2166154830760206,-0.9376320242881776,-0.0411933287978172,0.0676274672150611,0.0079277753829956,-0.0780160427093505,-0.0117407441139221,-0.0158643722534179,-0.0108142103999853,-0.0375337488388177,0.0387372709810733,-0.0445223747503012,-0.0663684374193428,172
1732866730968122000,0.6033189446151256,0.1203118482932448,-0.1812140607625245,7.39286510297358,-3.3851047948628663,5.4824254491597415,0.0115868840366601,0.1007059589028358,-0.0057598357088863,-0.8557536785220939,0.0844052931304376,0.4618980860740323,-0.2172820656143786,-1.1858497858047483,-0.2060507237911224,0.0637705475091934,0.012816846370697,-0.0252685546875,-0.0703486502170562,-0.0169401690363883,-0.0204618386924266,0.0236877952453214,0.0002504436997696,-0.0015510259801725,-0.0662503183318534,173
1732866731007876400,-0.2286667168110609,-0.057576282916963,-0.1170247894465923,7.39211808399856,-3.379449837841093,5.486920422491431,-0.0869490951299667,-0.0497996546328067,-0.0411523655056953,-0.856227533149347,0.0848286961262711,0.4615723345344589,-0.2159386802491427,-1.444488525390625,-0.3221575617790222,0.0665085464715957,0.0353195667266845,-0.0280003547668457,-0.0910500586032867,-0.0108452755957841,-0.0338165275752544,0.0336736576108727,-0.0236311890184879,0.0288411365876207,0.0072116740988596,174
1732866731047631600,-0.531129322195053,-0.2287444582223892,0.0233107329607009,7.411914671358466,-3.3799157017871737,5.4598593970865,0.0471508577466011,-0.0888464674353599,0.0521717146039009,-0.8554820626304448,0.0846769431008209,0.4630922731358605,-0.2156981212199264,-1.4849674701690674,-0.2109607905149459,0.0571826212108135,-0.0087227225303649,-0.0014284253120422,-0.0005710124969482,-0.015725951641798,-0.0737401247024536,-0.0036961419710423,-0.020920742303133,0.0392045133289415,0.076669927905593,175
1732866731087386000,-0.1759422578394412,0.1155596853300929,0.0755751732051372,7.394460263210535,-3.39277284527272,5.475530428948998,0.0033321001101285,0.1143103837966919,0.1184835210442543,-0.8555583393414707,0.0848258775103638,0.4622014722008257,-0.2172424590907468,-0.4822472333908081,-0.2562799155712127,0.0550363771617412,-0.0469524562358856,0.0348950624465942,-0.1433259397745132,-0.0039336532354354,-0.0555953010916709,0.0054545031170506,0.0353563725948333,0.0323327803789521,0.1631650477223098,176
1732866731127141000,0.7985247058510779,0.3353542366385459,0.1389624804884195,7.348643683931231,-3.424921841466426,5.517039081901312,0.078429102897644,0.1157303526997566,0.0760669484734535,-0.8561483061244985,0.0859583747211669,0.4596960436066826,-0.2197741228498842,1.2479153871536257,-0.0544567257165908,0.1847895085811615,-0.0135716795921325,0.0148573517799377,0.0035961270332336,0.0268352255225181,-0.0630683228373527,-0.049721066771401,0.0285393558442592,0.0706972695370437,0.0511701787343248,177
1732866731166896600,0.3078033818900585,0.0751209996968507,0.0073725745946168,7.327754040637612,-3.422214920595288,5.5464265044271945,0.010874630883336,0.0257427990436553,-0.0144783463329076,-0.8568750277661304,0.0858289971848526,0.4580876958189345,-0.2203501047437043,0.5239847898483276,0.1142166554927825,0.1348285526037216,-0.0049515962600708,-0.0621401071548461,0.1443617939949035,0.0429449342191219,-0.0551885515451431,-0.0758384911832865,0.0103542050346732,0.0183328452250745,0.0264453434752882,178
1732866731206651000,0.0196802675038576,-0.1524190511718392,-0.0247901578634977,7.357004685041308,-3.399079836462438,5.521877169582248,0.0551960654556751,-0.1712956875562667,-0.0785071477293968,-0.8562817180763463,0.0843774285859059,0.459720636081497,-0.2198160780219951,0.3033304214477539,0.2319573611021042,0.013602452352643,-0.0315349400043487,0.10756117105484,0.0154131054878234,-0.0073506920598447,-0.04248021915555,0.0068051676656905,0.038012184202671,0.060723476635199,0.0051646772995329,179
1732866731246407700,-0.4390618638724088,0.0230824771627783,-0.0259615397304296,7.382395731407404,-3.3806507380634545,5.499256172451377,0.0648819878697395,-0.0226086881011724,0.0774918124079704,-0.8554526022115625,0.0826322525365357,0.4612893728133295,-0.2204196460024756,0.2197697758674621,0.2546018064022064,-0.082548052072525,0.0034166276454925,-0.0370660424232482,-0.0408988445997238,-0.0257764719426631,-0.0052798092365264,-0.0610096183665096,0.0489263422787189,0.029287117656297,0.0024190923603513,180
1732866731286163700,0.0877495951235294,0.0743535224556922,-0.1290320381045341,7.36300597128272,-3.407531146204472,5.5086529463499785,-0.0093685891479253,0.0417782254517078,0.1177710369229316,-0.8551899195536133,0.0832958708262013,0.4606502584953077,-0.2225157616732281,-0.114077977836132,0.0627616718411445,-0.1508958786725998,0.0124832093715667,-0.0308824181556701,0.0029489994049072,-0.0196065809577703,-0.0189109183847904,-0.0014024111470142,0.0379971154034137,0.0787377654219046,0.0350332920589018,181
1732866731325920800,0.4144295269191265,0.0545095888227224,-0.2385357843965291,7.342184717050194,-3.437366604758799,5.51789949812293,-0.0128095801919698,0.0408942736685276,0.0564276576042175,-0.8550593927071007,0.0844383246896229,0.4599299915856498,-0.2240713725602431,-0.9744923114776612,-0.2057574540376663,-0.0321401357650756,0.0528435409069061,-0.0470291972160339,-0.1219118684530258,-0.0156158590689301,-0.0178208034485578,-0.0677867341188946,0.0162030383944511,0.0090671960260078,0.0004693168493133,182
1732866731365676500,0.1205909574955701,-0.0867009628534316,-0.1733738686561584,7.32343091674149,-3.4538743797063827,5.532495009708404,-0.1061405315995216,0.1107317060232162,-0.001005049329251,-0.8556004190774704,0.0858672418892242,0.458855171858567,-0.22366650059665,-0.5934999585151672,-0.255228042602539,0.1714090704917907,0.066358745098114,0.0001804828643798,-0.0616388022899627,0.0034113184083253,-0.0137707386165857,-0.0756546179497847,-0.0109162367880344,0.0500877583590568,0.0257676542762783,183
1732866731405433600,-0.3655675885945558,-0.0382379607185721,0.3987321915715933,7.297828857973218,-3.485428040355444,5.546519443407655,-0.0628847032785415,0.0761991515755653,0.0855896547436714,-0.8561631857049226,0.0883120350023802,0.4576103114811177,-0.2231109344673672,1.0311510562896729,-0.2047369331121444,0.2878341376781463,-0.011551946401596,0.0512097477912902,0.064552217721939,0.0327939875423908,0.0061977421864867,-0.0949949266092851,-0.0171395912766456,0.0179432579606655,0.0029925962407462,184
1732866731445190700,0.0542991609424352,-0.057930795443058,0.1286655428797006,7.279739074531197,-3.5029952612280844,5.55920941363275,0.0476857125759124,0.0009592805290594,0.0522511973977088,-0.8562193266695053,0.0889101593731144,0.4567868008124746,-0.2243419858690452,0.4813007116317749,-0.1032282561063766,0.1204471439123153,-0.0308252274990081,-0.0421974062919616,-0.0166777968406677,0.0283844154328107,0.0147722428664565,-0.0271801377229741,0.0195889994502067,0.0493796192228561,0.0057381777549948,185
1732866731484953600,0.1778548134624958,0.0639466947317123,-0.1599719507694244,7.280233580049872,-3.505312305998802,5.5571016276985405,0.0002152854576706,-0.0237621888518333,0.0228096563369035,-0.8559166371300612,0.0885423031064394,0.4569758628621237,-0.225255576864952,0.025858886539936,-0.0019036077428609,0.0347335711121559,-0.0283839106559753,-0.0106196403503417,0.0849198251962661,-0.0156459808349609,0.0114678656682372,-0.0521226434538373,0.0309650674462318,0.0572853736789897,-0.0365900747805368,186
1732866731524712200,0.0358346989691257,0.0649696080386638,-0.1018301429241895,7.273812607091664,-3.5204008617982265,5.555971162363886,-0.037163283675909,0.0182204376906156,0.0533686950802803,-0.855777494720516,0.0892621741086784,0.456898865142866,-0.2256559155880417,-0.1488633751869201,0.2180577218532562,-0.1130039542913436,-0.0674347579479217,0.0363874435424804,0.1164851933717727,-0.0299464259296655,-0.0002954060910269,-0.0059138471324433,0.0979466289281845,0.0575475408796686,-0.0117680193748557,187
1732866731564469200,0.0424655152857303,0.0325113997653126,-0.0687263302236795,7.255210782474279,-3.548097262497246,5.562670952263474,-0.0366834178566932,0.0554682798683643,0.0733707398176193,-0.8558017756035323,0.0907308041829794,0.4562352939262533,-0.2263196882257377,-0.4532083868980407,0.2682380974292755,-0.4114857912063598,-0.0064238905906677,-0.0285720229148864,-0.0189529508352279,-0.0202250014990568,-0.0010666057933121,-0.0691972722036764,0.0984629094600677,0.0241705669437185,-0.1042166727345436,188
1732866731604227800,0.3188876704841852,-0.0807408854052424,-0.0871674113214015,7.232723640856147,-3.572960485596955,5.576024354833364,-0.011926781386137,0.0629862770438194,0.0571182779967784,-0.8559989543018843,0.0920558672065217,0.4552225624899871,-0.2270769700945551,-5.55356964468956e-05,-0.0871865451335907,-0.2510093152523041,0.040625125169754,0.0947999358177185,-0.0615541934967041,-0.005785109475255,-0.0149344801902771,-0.0238953644482418,0.0792342722415924,0.1174281278167851,-0.0528241838858928,189
1732866731643986200,0.1692220096737146,-0.2931920882135629,-0.1007277346402406,7.220031917065381,-3.5804762680545448,5.587638804781436,-0.0246690213680267,0.0465074889361858,-6.81842211633e-05,-0.8563089431953627,0.0926004440419397,0.4544610772766123,-0.2272117552250373,-0.4136929214000702,-0.3351517617702484,-0.2635620236396789,0.1287012994289398,-0.1386749148368835,-0.2179125547409057,-0.0171168558299541,-0.0096595119684934,-0.0983033935701474,0.0788234323263168,0.0975267649081535,-0.058197232393478,190
1732866731683977700,0.1910311058998108,-0.0387415263265371,0.0826566558986902,7.222913609981536,-3.58248848465979,5.582623022446036,-0.0692980960011482,0.0369299240410327,-0.0616502873599529,-0.8564277648777407,0.0932029193619194,0.4546192482184647,-0.2261992157591386,0.6699776649475098,-0.1216693148016929,0.1603306382894516,-0.0404188334941864,0.0009463429450988,0.0892559289932251,-0.0273607354611158,-0.0022255666553974,-0.1221270810216665,0.0389871373772621,0.0846955869809258,-0.1245587012159172,191
1732866731723767600,0.1140209314554929,0.1320955173283815,0.3827472714543342,7.218371290376782,-3.584983224084973,5.586895877459645,0.0407691448926925,-0.0184422861784696,-0.0417353101074695,-0.8568333830510018,0.0939726548429686,0.4542210217662501,-0.2251423178519267,0.3671557605266571,-0.1051317229866981,0.0994946584105491,-0.0231007933616638,-0.0914880633354187,0.0704414844512939,-0.0381245240569114,0.0165989398956298,-0.1257235072115901,0.0111775994300842,0.0341443575622746,-0.0582111650207079,192
1732866731763520800,0.1495218684256076,-0.0345972661286592,-0.1532651466071605,7.247962126520275,-3.5561066736906763,5.56700401303172,0.0390286073088645,-0.0658678039908409,-0.0552953891456127,-0.8563291256153773,0.0920924281760253,0.4557200515292318,-0.2248080877833359,0.4415793716907501,0.1721197515726089,0.0143607882782816,-0.027968019247055,0.0618676543235778,0.0347288250923156,-0.0424021445214748,0.0464206226170063,-0.0806335251737851,0.0106607330963015,0.0551434525797376,-0.0093558893323643,193
1732866731803275000,0.1414040284216403,0.0161205291956663,-0.3352893547087907,7.250843234914541,-3.5447245711937545,5.570510559847951,-0.0662561506032943,0.0409563034772872,-0.0460884980857372,-0.8566359561787512,0.0918305809272444,0.4555767218587003,-0.2240353235884819,-0.0323729962110519,0.3118094205856323,-0.0920213833451271,-0.0592120289802551,0.0249131321907043,0.060257077217102,-0.0479364544153213,0.044174388051033,-0.017174349097535,-0.0140945576131343,0.0566409428621875,-0.057304206243623,194
1732866731843029200,-0.0864905349731445,0.090575758460164,0.0460246690720319,7.2467989279598,-3.554685993237793,5.569424518176913,-0.1011264026165008,0.0452643781900405,-0.0243019443005323,-0.8570618453749388,0.0933785958532877,0.4553227417445348,-0.2222759887297663,0.088799238204956,0.3515726923942566,-0.1666278392076492,-0.0096713900566101,-0.0267190337181091,0.0101998448371887,-0.055995438247919,0.0375427715480327,-0.0129745593201369,-0.0348055884242057,0.0953284511462785,-0.0027177185430773,195
1732866731882782500,0.0930833573669195,0.0781789259627461,0.0893067614376545,7.238111763635278,-3.5677278456404804,5.572381614416837,-0.0291968174278736,0.0332916527986526,-0.0030181813053786,-0.8573786917165207,0.0947028820304983,0.4548834728452346,-0.2213913470753741,0.3411704897880554,0.1255702972412109,-0.2872146964073181,0.0208321213722229,0.0505852103233337,-0.0228428840637207,-0.0430622659623622,0.0311805307865142,0.002457679367403,0.0003257468342781,0.0944189990180078,0.0941900582334958,196
1732866731922536700,0.0611257920920848,0.0003343465209007,-0.1983317843019962,7.244780573874712,-3.5660488065123555,5.564785167938471,-0.0091464109718799,-0.0461712144315242,-0.0226542018353939,-0.8572703827038838,0.0947496142676138,0.4552992762326492,-0.2209356740283123,0.1397814452648162,-0.1525820642709732,-0.3462774157524109,0.1036932170391082,0.0271674990653991,-0.31067556142807,-0.0553017631173133,0.0044550094753503,0.044990261690109,0.0504831299185752,0.1107548331984784,0.0591776628321502,197
1732866731962290200,0.0312964710175991,0.1078939730077981,-0.0069371057868003,7.215801732149719,-3.5730516710117457,5.597846310541033,-0.0543980486690998,0.2329447865486145,0.0483632013201713,-0.8583325780321954,0.0957430670359931,0.4532356260772615,-0.2206259660350913,-0.0499125756323337,0.0710822418332099,-0.0127738947048783,-0.0353699326515197,-0.0833157300949096,0.0831651091575622,-0.0533882640302181,-0.0052265911363065,-0.0335895047250669,0.0591009296476841,0.0926695250021759,0.0024330249875813,198
1732866732002049300,0.0089624741345644,0.1571124696850776,0.1840180122673511,7.169751344114542,-3.5953356912732124,5.642571002930403,-0.0505644306540489,0.0820939838886261,0.0104964701458811,-0.8597663934652108,0.0978878701834414,0.4502520384091061,-0.2202109053465686,0.9244304895401,-0.2632394433021545,0.2342835515737533,0.0789905190467834,0.0100460052490234,0.1381249725818634,-0.0385799817740917,0.0026347725652158,-0.1094841008766088,0.0580048896372318,0.0299952590757864,0.0224485723065678,199
1732866732041805300,-0.0423807596117258,0.0017018354818224,0.3336731516838073,7.163783960142731,-3.599738017885387,5.647341870594024,0.0124405650421977,0.0331295654177665,0.0066966693848371,-0.8599981506494023,0.0984051451718531,0.4498689973588516,-0.219858058066133,-0.1428353190422058,-0.0004009990370832,0.0472924411296844,-0.0445165336132049,-0.1077775359153747,0.029576301574707,-0.0208281744271516,0.005216906312853,-0.0626239536613924,0.0379300713539123,0.0357664149393094,0.0349151752547011,200
1732866732081560300,0.1174906533926725,0.0098263974875211,0.047544425985217,7.167017535236478,-3.595143383571505,5.6461663970738645,0.0468564443290233,-0.0821430832147598,0.0131213106215,-0.8598124462894083,0.0977944415593208,0.4500687519223491,-0.2204472485283165,-0.1173222437500953,0.2600603699684143,0.0064659798517823,-0.0238318741321563,0.057196021080017,0.077726274728775,-0.0121751679107546,0.0239485371857881,-0.02686848937436,0.0211977567523717,0.0318823331977124,-0.0020469962285045,201
1732866732121316400,0.2266536234229803,0.0503463316634297,-0.2621212426453829,7.179958265352249,-3.586582183714211,5.635158680847287,0.0257806070148944,-0.0276493653655052,0.02274115011096,-0.8592647379124588,0.0966753683323176,0.4509332011623267,-0.2213078541612745,-0.4795113503932953,0.2806153893470764,-0.0767498165369033,-0.0198977589607238,0.0126962065696716,0.0501452684402465,-0.0347808264195919,0.032255083322525,-0.0077120573732943,0.0085471924394369,0.0322719193204771,0.0214057510060374,202
1732866732161071600,0.0860638339936733,0.0862161019459366,-0.1932791770875453,7.17076081341803,-3.6012031220018863,5.637543530157208,-0.0660104230046272,0.0225992314517498,0.038993015885353,-0.8592615561511039,0.097471771073066,0.4506268076123598,-0.2215947206736123,0.0806475654244422,0.075770303606987,-0.1821373552083969,0.0213871896266937,0.0992338061332702,-0.0024730563163757,-0.0281170848757028,0.0086829373612999,-0.0020537559044983,-0.004364151507616,0.0732287744757719,0.0473887467997381,203
1732866732200828000,0.1204950959056615,0.0254226105481386,0.0130541273623704,7.16940004645884,-3.623009587879479,5.625290782305598,-0.0452130734920501,0.0621245838701725,0.0351171717047691,-0.8588704409467351,0.0986413735047478,0.4510652678710612,-0.2217016694826713,-0.0511807724833488,-0.0217703115195035,-0.2071186751127243,0.065830111503601,-0.1068893671035766,-0.2237544357776641,-0.0064315032213926,-0.0091684153303503,-0.0163871054266928,0.0039648092351853,0.0765321360032539,0.0629521307364106,204
1732866732240580900,0.1310451314926147,0.1055216909185051,0.1512701733976602,7.135356907081603,-3.6525317427009343,5.649432120871544,-0.0335737615823745,0.1514236479997635,0.0867530480027198,-0.8594657127924342,0.1005403678147014,0.4492780262879853,-0.2221704153067064,1.631769776344299,-0.0591760575771331,0.1316906213760376,0.0720927715301513,0.0467935800552368,-0.0415859520435333,0.0031204740516841,-0.0310485865920782,-0.0094261152991617,0.0352503508329391,0.1285069639176596,0.0642242238983046,205
1732866732280337700,-0.0812315915316343,0.1140872746899723,0.0217559047341346,7.090556226846576,-3.6801010098889466,5.687816504323482,-0.0155638325959444,0.116088218986988,0.0837398394942283,-0.8603818574628553,0.1022885618161991,0.4466980284686392,-0.2230269848904785,2.7396254539489746,-0.044407445937395,0.1689260751008987,-0.0007948875427246,0.0050133466720581,0.0067452788352966,0.0001574965426698,-0.0474311672151088,-0.0745077494696015,0.1109031811356544,0.0698543798389611,0.0049493380653992,206
1732866732320095200,-0.0833890618264675,0.0198541627660393,0.1542348684221506,7.052760456937551,-3.7033334169164296,5.719639629563689,0.0168465320020914,0.1388177871704101,0.0979095175862312,-0.8610245123664576,0.1035381476329283,0.4445890170466647,-0.2241813712166029,3.1763737201690674,-0.128519669175148,0.2002966254949569,-0.0041459202766418,-0.014579951763153,0.0155463218688964,-0.0077987746335566,-0.0272939261049032,-0.0907752082887105,0.1060777083039283,0.0334999267454724,-0.0789252964837942,207
1732866732359853000,0.1494283449232578,0.0582119504719972,0.1053437040030956,7.014172659868001,-3.7249317930012937,5.7529684831917285,0.0311330240219831,0.0370534174144268,0.0973405092954635,-0.8615067639509815,0.1043135909843672,0.4424917242423105,-0.2261099902582172,4.157854080200195,0.0331486538052558,-0.1020913273096084,-0.0423008203506469,0.3128647208213806,0.0235893726348876,-0.0084051229059696,-0.0169382635504007,-0.0183212152944295,0.0886312127113342,0.0368743190989946,-0.0364858883202774,208
1732866732399609900,0.2294119822204113,0.005503565852344,0.1103249995470047,7.008409274035691,-3.735370477168262,5.753224503779411,0.0275861117988824,-0.0345218442380428,0.058221835643053,-0.8612179885448404,0.1043969102512705,0.4424573228701149,-0.2272363706669307,3.2861270904541016,0.0388779640197753,-0.1658093780279159,-0.0019455552101135,0.0167659521102905,0.2160848379135131,0.0088699981570243,-0.0024481224827468,0.0051627804575022,0.0953197926282882,0.0266992154883686,0.0344458566929213,209
1732866732439367400,0.3944657662987709,-0.0119333066388964,0.1164449437320232,7.002270040628313,-3.733944536018371,5.7616188226372,0.1011504679918289,-0.0044704969041049,0.0446712598204612,-0.8610643838257865,0.103631373232921,0.4421535051497842,-0.2287551887519368,1.789346694946289,0.0796890929341316,-0.1868197321891784,-0.0222808420658111,0.0001485347747802,0.0796588063240051,0.0480311587452888,-0.0377560295164585,0.0317757264515035,0.1031750217080116,0.0933212669091764,0.0507078356193145,210
1732866732479130600,0.3190864079266786,-0.0489621838286519,-0.2078945624172687,7.008517410585283,-3.718613111373782,5.763938790017366,0.0520263984799385,-0.0659230798482894,-0.012812222354114,-0.8608474797071441,0.1021417162946977,0.4423663352452771,-0.229827776745905,2.932413339614868,0.2064712196588516,-0.1482334434986114,0.0602497458457946,0.1066187620162963,0.0231252908706665,0.0674405768513679,-0.0669993609189987,0.0540330573521554,0.0930140018463134,0.1300044542001094,0.0162759047037572,211
1732866732518889500,-0.1116933652907609,-0.1233423020303249,-0.0948603039115667,7.024352108576894,-3.7061832533895966,5.752658102068304,0.0135397985577583,-0.0348899364471435,-0.020487405359745,-0.8605329490534572,0.101252410763389,0.4432200575850065,-0.2297543170402924,1.7715392112731934,0.0965107381343841,0.0876483842730522,0.0026123821735382,-0.1044083535671234,0.0483823418617248,0.0749331191182136,-0.1064842417836189,-0.0223290033307974,0.085059568285942,0.0935761184530798,0.047969213568815,212
1732866732558648600,-0.2558855631262063,0.1219318507105112,0.1579553502500057,7.0263885828405614,-3.698719493380189,5.754974562317132,0.0800429210066795,0.0038663707673549,0.0552245266735553,-0.8604389151702142,0.1004974538921408,0.4432586486014844,-0.2303627775400939,1.4685156345367432,0.3387757241725921,0.0725433379411697,-0.0128896832466125,0.0126146674156188,0.1346534490585327,0.0892312824726104,-0.1144158020615577,-0.0224567784459097,0.0995333418250083,0.142828307337407,0.0550767029198817,213
1732866732598406700,0.0440682743072509,0.2091384249985217,-0.0557388383567333,7.012692065921425,-3.701380821543932,5.769950597652793,0.0680810287594795,0.0043245060369372,0.0606233961880207,-0.8603998702103426,0.0999324571487568,0.4425244712004279,-0.2321589847341004,-0.1306588053703308,0.0793755874037742,0.2518109679222107,0.0362450778484344,-0.0088452100753784,-0.0095534920692443,0.0913428291678428,-0.0997101441025734,-0.1031744519389234,0.1186840087175369,0.0764611028939252,0.0360761156427208,214
1732866732638165800,0.2153583224266767,-0.0956967547357082,-0.1060936455875635,7.0163272075533865,-3.6896854153141376,5.773018753051757,0.1121560484170913,-0.0885511636734008,-0.0031247076112776,-0.8601413404679338,0.0985701721014575,0.4426532141879363,-0.2334498369775426,-0.9979161620140076,-0.2295112609863281,0.3785659670829773,0.0044197738170623,-0.0381045937538147,-0.1088864207267761,0.0457616075873374,-0.0722593441605568,-0.0765976846532896,0.1313144415616989,0.0389452093722065,-0.0905960888621397,215
1732866732677923600,0.1089712468504905,-0.0459492657482624,-0.1009492684364318,7.039516359961032,-3.650548459929228,5.769670611667633,0.1295546293258667,-0.0971044078469276,-0.0283553525805473,-0.8597915077803046,0.0955841628073081,0.4435001087513228,-0.234371361776518,-1.4611761569976809,-0.3354659676551819,0.5570337772369385,0.038072258234024,-0.1979707479476928,-0.0310944318771362,0.0201374180614948,-0.0583971515297889,-0.0586878380551701,0.1246902495622634,0.1093239144793711,-0.0360026394145563,216
1732866732717689300,-0.0806505767732858,0.0121320440813899,0.2447767246127128,7.04987233428061,-3.613909166578949,5.780082115566731,0.1100119724869728,0.068026877939701,-0.0195270050317049,-0.859993508391451,0.0932134908271069,0.4434062103764146,-0.2347623589194528,-1.3851312398910522,-0.2012561857700348,0.2763022482395172,-0.0040110945701599,-0.0281069576740264,-0.0611212253570556,0.0245650429278612,-0.0887716710567474,-0.0263449175914051,0.1511119157075882,0.0866435153114609,-0.0072949604766297,217
1732866732757520000,0.1585433792710304,0.0202031223341822,0.3922825770407915,7.028550144788622,-3.588760404536128,5.821568556687235,0.2082313299179077,0.0278146713972091,0.0412549301981925,-0.8607996640777384,0.0913926386161872,0.4413955157866746,-0.2363075756411649,-1.6814560890197754,-0.0060217604041099,-0.0632129609584808,-0.0298479199409484,0.0657167434692382,0.0208795666694641,0.0141794281080365,-0.0754014179110527,-0.0648977620785823,0.1449780315160751,-0.026897674369649,-0.0599525698945159,218
1732866732797338400,0.1501344473659992,0.0029424831926822,-0.0048006782799959,7.040102635416388,-3.538878767774999,5.838123385646939,0.2316592335700988,-0.1014164239168167,0.015440690331161,-0.8605250137432936,0.0870680485876335,0.4413135973854166,-0.2390780064914207,-0.8287841081619263,0.03917932882905,-0.3498289585113525,-0.043092280626297,0.1271005868911743,0.0025197267532348,0.030204351991415,-0.040061742067337,-0.0769373832027427,0.1102974340319633,0.0159389358258631,-0.0860258218045346,219
1732866732837158000,0.0342325244694948,-0.0500187071442604,0.022665420794487,7.06247988691926,-3.497140689980984,5.836245316815376,0.1533638685941696,-0.0813596844673156,-0.0211189370602369,-0.8600052090083851,0.083573081184113,0.4420971017525004,-0.2407418346344778,0.2738953232765198,0.1212573647499084,-0.2445983439683914,-0.0044682025909423,0.0100745558738708,-0.0111269354820251,0.0567892901599407,-0.0485894829034805,-0.0498289110600482,0.0846330672502517,0.0968186166387982,-0.078226710627228,220
1732866732876977400,0.1678939759403467,-0.1045613214537501,0.1118225446283817,7.079204811748862,-3.4575618360474705,5.839564816626906,0.1799459308385849,-0.0005100757116451,0.0038101491518318,-0.8596644879207972,0.0803397837723456,0.4425048992509148,-0.2423054216413705,0.4950335621833801,-0.0687809064984321,-0.0773898363113403,0.0314810872077941,-0.0894353985786438,-0.0721690654754638,0.0493896603584289,-0.092242807149887,0.0285950300391763,0.0996481999754905,0.1236525826890487,-0.0175894829367985,221
1732866732916796000,0.2065180133670568,-0.1544111017718911,0.0432446829646825,7.082928216186166,-3.4177377751812337,5.858462409320473,0.1982690840959549,-0.0784588903188705,-0.010126469656825,-0.8597183683855735,0.0772019766117115,0.4419744313688344,-0.2440959684546697,-0.6856610774993896,0.001117588719353,-0.1444970369338989,0.0146630108356475,-0.1641176342964172,0.0854475498199462,0.0197429694235324,-0.0786768645048141,-0.0915823782194405,0.1166023164987564,0.0367395753869786,-0.0626772547512082,222
1732866732956615200,0.0478109679669141,-0.085027476683259,-0.5220008438438177,7.141377482545376,-3.3570860303416845,5.822463459700345,0.1691200733184814,-0.2986217141151428,-0.0864360630512237,-0.8583399045355685,0.0723370643731609,0.4448643856610656,-0.2451847660660961,-0.4269810318946838,0.1789890527725219,-0.1866685301065445,-0.025418609380722,0.101084291934967,0.0080356001853942,-0.01555369887501,-0.062870368361473,-0.045996872316231,0.13245889544487,0.0719963009382132,-0.0222848445286625,223
1732866732996280300,-0.3233294523239136,0.1448021464273333,-0.52671501288414,7.177629530143737,-3.334177740702033,5.790965913152695,-0.0832600966095924,0.1135126054286956,0.0547595545649528,-0.8573658163342266,0.0703829935710803,0.4469777880376725,-0.2453182066747294,0.9169552326202391,0.3545646667480469,0.2906303107738495,0.0620020925998687,0.1068792343139648,0.0201231837272644,-0.025390800088644,-0.0576123893260955,-0.0408060439411783,0.155600368976593,0.1391990748564247,0.0153759156652202,224
1732866733036036000,0.147126497721672,0.2306912083759904,0.0424888961613178,7.101169390797614,-3.4049536969318983,5.843805522936583,-0.130571573972702,0.4289751350879669,0.1826821714639663,-0.8586678578003019,0.0750802203940533,0.4431837149602475,-0.2462530711703537,-1.8985735177993768,0.082130417227745,0.1912805736064911,0.0993411242961883,-0.3197129964828491,0.1467050909996032,0.0026610696222633,-0.0932023972272872,-0.0941036037927493,0.1505551636219024,0.1362142686256673,-0.0036107452637545,225
1732866733075791600,-0.0968301426798105,-0.034357027631998,-0.0215530756384134,6.965645068064331,-3.496791145890951,5.951691312637925,-0.1446481645107269,0.4306705594062805,0.2293284833431244,-0.8613780636351686,0.0815390883621065,0.4357746937277333,-0.2479509547115033,-0.2313920855522155,-0.0134237501770257,0.2165321856737136,-0.0300203263759613,0.1625267267227172,-0.1791339516639709,0.0098944306373596,-0.0747301951050758,-0.0830070493720937,0.1232229396700859,0.0822351151515264,-0.0939012496210634,226
1732866733115546000,0.2803898897856474,0.0152896313294768,0.4382183987855911,6.861812353146076,-3.557810262738168,6.035553252673148,-0.0500059649348259,0.4212643206119537,-0.0393256843090057,-0.8636315330272923,0.0862175810621196,0.4299290133261771,-0.2487332062776571,-0.6648111939430237,-0.1433346569538116,0.1971905976533889,0.0051009654998779,-0.1076179146766662,-0.0035467147827148,0.0027841199189424,-0.0685387179255485,-0.0540486293806228,0.148135632276535,0.0812619501372799,0.0036911815264902,227
1732866733155302100,1.0480302125513552,0.5868523784607649,-0.0047679450541734,6.840714620059728,-3.483986024853587,6.102201023057103,0.336182177066803,-0.2273291200399398,-0.3401821553707123,-0.8661269805061039,0.0835218401184371,0.4264955281403612,-0.2468802718199047,-0.7895333766937256,-0.2496353387832641,0.0611069165170192,-0.0301975607872009,0.0150259733200073,-0.0182588100433349,0.0190724320709705,-0.0579335056245327,-0.0411737904081819,0.1971574276685714,0.0756892463051713,0.0167312883550184,228
1732866733195057700,0.9233335733026266,0.0490016390562057,-0.7640279774874449,7.059982224884629,-3.243016291308402,5.984135784646869,0.1819213032722473,-0.6397112011909485,-0.713116466999054,-0.8643644224626292,0.0698615674620558,0.4359052077328854,-0.2407907898949695,-0.1095836237072944,-0.2367541044950485,-0.0304224621504545,-0.0231914520263671,0.0356585383415222,-0.0483283400535583,-0.0005178732099011,-0.0511104576289653,-0.085924078463111,0.221566841006279,0.0776964214091189,-0.0366942589575075,229
1732866733234823700,0.6372790818840265,0.0790145000040531,-0.9975392117202282,7.218845337629318,-3.04991948505044,5.895477842506766,-0.3001942038536072,-0.3297423720359802,-0.9093762636184692,-0.8657888943016406,0.0643489235716589,0.4418976149670549,-0.2258216082844288,0.3484499752521515,-0.1625352501869201,0.0084323920309543,0.0124055743217468,0.0345629453659057,-0.0189518928527832,-0.0232872553169727,-0.0632572323083877,-0.0556430361323291,0.247945949435234,0.0646104056377196,-0.1003171171458903,230
1732866733274581000,0.9203922591537236,-0.0828098006337881,0.1083276882499456,7.474875862184167,-2.759257499836385,5.71691458851397,0.0450086966156959,-0.6763237714767456,-1.36320161819458,-0.8654935609897154,0.0546848977377596,0.4533519997161949,-0.2059184613649238,0.1469714641571045,-0.1173531264066696,0.0998150333762168,0.0268955826759338,-0.0279673933982849,0.0234885215759277,-0.0798863843083381,-0.0866597741842269,0.0390682831960264,0.3108007907867431,0.1046679875654634,-0.092309633048065,231
1732866733314337300,0.259023276630044,0.0885764013364911,0.0007528641939163,7.819761312755942,-2.24066441860944,5.477330171847343,0.3613325655460357,-0.9451974630355836,-1.6396836042404177,-0.8636358965991291,0.0331080219873493,0.4686552605241124,-0.1827544099099216,-0.1010298207402229,-0.1060349121689796,0.1915779858827591,0.0344316065311431,-0.0513777136802673,0.0421405434608459,-0.138423278927803,-0.1464651823043823,0.0767578619173727,0.4518204927444458,0.1404417135949712,-0.0298337849037605,232
1732866733354094600,0.9410007474184036,-0.2072444279454648,-0.2656459096401929,8.104592399859428,-1.625516796773672,5.276709984347224,0.1234065741300582,-0.1666374951601028,-1.982522130012512,-0.8632054414944765,0.0099350916471508,0.4804830412233216,-0.1546407643140417,-0.4978408217430115,-0.2498228549957275,0.3030694723129272,0.0088116526603698,-0.0502296686172485,0.051716148853302,-0.2314548790454864,-0.2571890950202942,0.2061818584815599,0.6490894556045532,0.2552283961254172,-0.1648298391293734,233
1732866733393851600,2.2131500964790582,-0.7267986823547631,1.1146055022209882,7.993630855974555,-0.7760116991393268,5.627616010382771,1.0708191394805908,2.898279428482056,-2.6889894008636475,-0.8791866432049831,-0.0169876357334668,0.4612839227988426,-0.1181504186065785,-0.8525992035865784,-0.3228745758533478,0.4008980989456177,-0.0168150067329406,-0.0887975692749023,0.0522465705871582,-0.3267228603363037,-0.359748363494873,0.0574574012110708,0.7528893351554871,0.0620355410478776,-0.3256175997937098,234
1732866733433608000,-3.4512913774758576,3.718458797594905,-3.9490520985543727,7.54253251734972,0.0890700026728678,6.266788943189383,-1.026194453239441,-0.375532865524292,-1.765109896659851,-0.9017579590868394,-0.0423899801651004,0.4227123900490169,-0.0796858494125689,-1.4866846799850464,-0.4697605073451996,0.4968918859958648,-0.0059444904327392,-0.1297345161437988,0.0522446632385253,-0.3790247738361358,-0.330249011516571,-0.0550477964858058,0.8286289572715759,-0.0108877042928128,-0.1191023629056289,235
1732866733473371600,0.0457908603161573,-1.3995125771701336,-1.5240461348116396,7.491455241063237,0.4045721497714519,6.315442207199335,-0.248134046792984,0.27289018034935,-1.4153320789337158,-0.9054617148758954,-0.0442031467019495,0.4195809138636778,-0.0462290264650254,-1.4644854068756104,-0.6288021802902222,0.5606025457382202,-0.0037408173084259,-0.1045482754707336,-0.0272438526153564,-0.3241009414196014,-0.3442167937755584,-0.0011624353712511,0.8892723321914673,0.1914997828574851,0.0407853984453715,236
