time_imu,phone_acc_x,phone_acc_y,phone_acc_z,phone_gravity_x,phone_gravity_y,phone_gravity_z,phone_gyro_x,phone_gyro_y,phone_gyro_z,phone_ori_w,phone_ori_x,phone_ori_y,phone_ori_z,watch_gyro_x,watch_gyro_y,watch_gyro_z,watch_acc_x,watch_acc_y,watch_acc_z,headphone_gyro_x,headphone_gyro_y,headphone_gyro_z,headphone_acc_x,headphone_acc_y,headphone_acc_z,frame_imu
1733294476286834400,2.044623521723598,15.630310560530424,-2.421381928026676,-0.221738451917842,9.804042447850108,-0.0446454440075438,-0.9424586892127992,-0.3637674748897552,-0.9392831921577454,-0.4360750747236122,-0.4253557912220698,-0.566876296051684,-0.5545830421247138,-0.2360129505395889,0.2809099555015564,-0.2314043790102005,-0.0186842422038316,-0.2764341378971934,0.5881120231330395,-0.1734900027513504,0.089485228061676,-0.1088216092467308,0.2892002463340759,0.0742991619199514,-0.0085904259517788,0
1733294476326834400,5.325939586940407,9.372546635317802,-0.5097019552955404,-0.8285811867449432,9.7610146225065,0.4543363341653719,-1.403523325920105,-0.134963646531105,-2.0665392875671387,-0.4671483421419048,-0.3997949536340895,-0.5630268987824852,-0.5522110677375105,-0.2843399941921234,0.477403461933136,-0.1824027001857757,-0.0077969374865293,-0.661206193177402,1.2055144381582736,-0.200291246175766,0.0955644100904464,-0.0878618233263492,0.2699714303016662,0.0717641270169988,0.0301975698649883,1
1733294476366834700,3.937729617290199,-2.299933476918936,-0.311421426256746,-1.6750599953606724,9.611527240872382,0.9915249198667704,-1.4556546211242676,0.6361414790153503,-2.0546913146972656,-0.4990012887250677,-0.3589797675626468,-0.5661976918853802,-0.5491370480713125,-0.0687706992030143,0.5598919987678528,-0.1021130457520484,-0.1969815387368202,0.2889014052823185,0.3792448162913322,-0.2035807520151138,0.1121539771556854,-0.0619020371615886,0.2840798497200012,0.0781366577235981,0.0278112592503428,2
1733294476406834700,4.551228302875161,-11.951178980195522,1.0404333276815712,-2.462586921857297,9.39267698467672,1.372473179075122,-0.577704668045044,0.5126884579658508,-1.9925774335861208,-0.5209323156921305,-0.31731207004121,-0.5738783788084578,-0.5464487886202125,-0.2517831325531006,0.2689644396305084,-0.1333579868078231,-0.2584884391009807,0.6525050003275275,-0.3915431568503379,-0.2095583379268646,0.0897757783532142,-0.0501332734346389,0.323983758687973,0.0615498992556706,0.0534895981252193,3
1733294476446834700,0.3812462192416191,-17.00719045013189,0.3051145811975002,-3.072628160464764,9.222743611863256,1.2924167688027024,0.5459647178649902,0.4103910624980926,-0.907290518283844,-0.5325543465218472,-0.2954412026633829,-0.5889138962885164,-0.5313010207527176,-0.1883972287178039,0.0411135964095592,-0.1543425023555755,-0.4959235687792301,-0.0088517072364687,0.7397147894859314,-0.1977115273475647,0.0817989632487297,-0.0267810394197702,0.3277956843376159,0.0340285993952304,0.0334878435820341,4
1733294476486834400,1.5372379170790311,-16.85933446909189,-1.031980410504341,-3.1823537328138944,9.219287333929538,1.0236005585633217,0.7338860630989075,-0.0467835925519466,0.2401314675807953,-0.5284610534053596,-0.2963479635863259,-0.5999906489616276,-0.522415610562135,-0.1197728961706161,-0.1044768318533897,-0.1135290786623954,-0.3253922300726175,-0.0497846061274409,0.8157061422765255,-0.1980951130390167,0.0689471662044525,-0.0122854810774326,0.286204993724823,0.0181273024408146,0.0739288673028349,5
1733294476526834400,2.158107715953886,-12.851142783826589,-1.073296244298294,-3.0260052332386373,9.298446210840345,0.7433447434861212,0.9625171422958374,-0.3560389280319214,0.4406073093414306,-0.5225417967976066,-0.3129420033385826,-0.603462730244112,-0.5146358178088692,-0.2017018496990203,-0.0847521275281906,-0.0989742428064346,0.1502010828614234,0.1325450146615505,-0.0113724578857421,-0.1778218448162078,0.0447979718446731,0.0311672916799783,0.2414049804210662,0.0468431093154475,0.1393801213786006,6
1733294476566834400,-1.0653954811111093,-4.0729935355216265,-0.6999509343743324,-2.770264923802018,9.399792954161764,0.374039941124618,0.8651254177093506,0.6360360383987427,1.13261079788208,-0.5083777767949773,-0.3304679560920371,-0.6096886089536557,-0.5105122385765171,-0.1154583096504211,-0.0113803409039974,-0.0812040343880653,0.1347422324448824,0.0888677854984998,0.0261889187455177,-0.1422517895698547,0.0494932010769844,0.0345259544581174,0.172406405210495,0.0011935571661219,0.1794876753613352,7
1733294476606834700,-1.7549489401116969,6.398240901917219,-0.9073246877878904,-2.149844914521277,9.567793313086032,0.0768361969837453,0.4166013598442077,0.5163884162902832,2.0251851081848145,-0.4789187676665497,-0.3496459098094244,-0.6114165372146653,-0.5239794438060884,-0.2583020031452179,0.0534122884273529,-0.1021416038274765,0.0419546431541442,0.0139601362913846,-0.2454255439102649,-0.0986835658550262,0.0318442657589912,0.0433218398541212,0.1232388019561767,0.021008483900316,0.2986436316177249,8
1733294476646834700,0.5352393878623843,8.923786968773603,-0.6998106491208076,-1.3914654643148183,9.706991940417884,-0.0922210414491593,0.4442094564437866,0.1998151838779449,1.7573821544647217,-0.4515190312278191,-0.3738481862198027,-0.6041022248442117,-0.5398412026796288,-0.0726541206240654,0.096853882074356,-0.0384202189743518,-0.0094178166866302,-0.1266483578383922,0.1754004060477018,-0.0457285046577453,0.0193662494421005,0.0795399851828813,0.1164774447679519,0.0412624961715191,0.2746849561423063,9
1733294476686834700,2.4850270094633102,7.261907065242529,-1.429390998083353,-0.8297354713466017,9.768048758926987,-0.259119649676606,0.2052915692329406,0.2113606333732605,1.055017113685608,-0.4301424302972091,-0.3923372639418082,-0.5994021161246192,-0.5493323394673536,-0.0994457900524139,0.0466201640665531,-0.0370441637933254,-0.0383107336938381,0.1252688861787319,-0.1499140826135873,-0.0350138582289218,0.0040701087564229,0.0602110153347253,0.0999021977186203,0.0492725649520754,0.2637318927124142,10
1733294476726834400,2.236306223399937,3.788586226788163,-1.1541688663244247,-0.6235122031424194,9.784292037719489,-0.22189892144287,-0.3371354043483734,0.1322760581970214,0.0849099978804588,-0.4234246864093003,-0.3960553025160931,-0.5953603058242833,-0.5562353868237306,-0.1418081521987915,0.0266947131603956,-0.0314486622810363,-0.0318184490650892,-0.022633564351499,-0.0964794295459985,-0.0285896938294172,0.0044885096140205,0.0276987387865781,0.1052941158413887,0.0524802384195849,0.2582444012120365,11
1733294476766834400,0.1836997400984168,1.4583102185755967,0.3388625370204448,-0.641590953733772,9.785159468203782,-0.0968987052708398,-0.2291614711284637,0.076754979789257,-0.085577867925167,-0.4251194227316314,-0.391374721226999,-0.5930988842209901,-0.5606540472313214,-0.0720109716057777,0.0274385344237089,-0.0066748727113008,0.0156312843739986,0.0824877290725707,-0.0243593652307987,-0.0266789719462394,-0.0164931714534759,0.02732230668962,0.1273593157529831,0.0538780859861522,0.1832350451961159,12
1733294476806834400,-0.3389727193966507,-0.0695861619234085,0.8417886780381202,-0.6655446607731282,9.783611654239891,-0.0916555256540421,0.1885217428207397,-0.0180424954742193,-0.0249972306191921,-0.4257518913793954,-0.3903667331395022,-0.5935376525302426,-0.560412622622552,-0.1017893701791763,0.0477427393198013,-0.0138140087947249,-0.0023655600875616,-0.0337386034727096,-0.1109492689251899,-0.0344099849462509,-0.0105790458619594,0.033573768299818,0.1320887207984924,0.0480442652661353,0.110609661707282,13
1733294476846834700,-0.5567142836980521,-0.7430225988596677,0.1563876442755572,-0.6417332848139107,9.783978149464726,-0.1798806750006042,0.1974660456180572,-0.082031525671482,0.1639800816774368,-0.4240516728536097,-0.3938006961227654,-0.5950566136959665,-0.5576817531224967,-0.0914299413561821,0.0555769093334674,-0.0113341398537158,-0.0266290637284517,-0.0340726577326655,-0.0403758495301008,-0.0475686714053154,-0.0117417424917221,0.0281318695068359,0.1232175901532173,0.0780684513255953,0.157193718227744,14
1733294476886834700,-0.4068438940957188,-0.6831663883119821,0.0927028336167335,-0.5265953685598448,9.789961315527558,-0.2230369490294717,0.0307244397699832,0.1237376704812049,0.4061071872711181,-0.4199022540314969,-0.398236042675051,-0.5939526694706859,-0.5588473920701762,-0.0377656482160091,0.0369171500205993,-0.0059421705082058,0.017521628165245,-0.0235506791964173,-0.0121229839920997,-0.0367162674665451,-0.0167056377977132,0.0164992993801832,0.1248378083109855,0.0736395289674401,0.1950964556425809,15
1733294476926834700,0.2270976043308153,0.243403682693839,0.3713222065985203,-0.3448623619571328,9.798177355208992,-0.2171951641987077,-0.0568781867623329,0.2552836835384369,0.491442859172821,-0.4125552315462464,-0.4012318837384033,-0.5916813725611186,-0.564556725283777,-0.0407337397336959,0.0310874376446008,-0.0223126877099275,0.0329524215310811,-0.0299950330302119,-0.064260582986474,-0.0283680148422718,-0.0013314224779605,0.0028442835152149,0.1124875396490097,0.0506004160223528,0.1387742644399404,16
1733294476966834400,0.2402523790560662,5.820750226041675,1.6113737051308157,-0.1678277788363397,9.801863934767246,-0.2562549261615611,0.402018666267395,0.1583956480026245,0.3515703082084656,-0.4040241175237672,-0.4046644333052953,-0.5910262781543086,-0.568945567062065,-0.0464704558253288,0.0385437570512294,-0.0276749636977911,0.0590098228514194,-0.01483604234308,-0.1530640710771083,-0.0374259948730468,0.0042332764714956,0.0042313539594411,0.1131277382373809,0.0500954256422817,0.1591144571572542,17
1733294477006834400,1.378572664994001,13.344741124528646,-1.7144342666327952,-0.1754863490317948,9.793271462988852,-0.481048692263104,0.3894289433956146,-0.1133042648434639,-0.5556294322013855,-0.3994117400435177,-0.4088647174820963,-0.5977928579893277,-0.5620885390937694,-0.0730035305023193,0.0535176992416381,-0.0333725959062576,0.0381330390393733,-0.0152001994803547,-0.0237093768894672,-0.043489072471857,0.0067157289013266,0.0057715691387653,0.0995835438370704,0.0457997012097388,0.1460477625742554,18
1733294477046834400,1.4581202489614489,13.400034557205435,-3.31984117231369,-0.5474257559468969,9.781523742049933,-0.4387556474674493,-0.5790888071060181,-0.3147401511669159,-1.1296076774597168,-0.4129443117385117,-0.3987936136129625,-0.6027719024003124,-0.5541720692796104,-0.0281798653304576,0.0416383482515811,-0.0248181242495775,-0.0066547817140817,-0.0614469868704676,-0.0334790757536888,-0.0505118519067764,0.0138668194413185,-0.0033574937343597,0.0767974555492401,0.0539390954583883,0.1639233187437057,19
1733294477086834400,3.5370085899889467,3.452261683812737,-1.150266598188877,-1.0081335979055612,9.754453948816655,-0.0685313099750783,-0.9831804037094116,-0.9522468447685242,-1.3332077264785769,-0.4403434353335112,-0.3841338191604718,-0.5966031623453814,-0.5500941816342961,-0.0138091808184981,0.023894665762782,-0.0224491767585277,0.0235445417165756,-0.0513712907969951,-0.1205845277547836,-0.0515278093516826,0.0212139450013637,-0.013364508485794,0.0745644643902778,0.0690195775492116,0.2180909622609615,20
1733294477126834700,2.802201446288824,-7.715509495642781,0.1488613952228799,-1.5857975114561615,9.674117260298132,0.2590508039577864,-0.6273349523544312,-0.728812575340271,-1.6222964525222778,-0.4734065765975924,-0.3702818565407844,-0.5913403682210715,-0.5376748757912624,-0.0567414686083793,0.0279528964310884,-0.0322056673467159,0.0265524913609027,0.0572848987549543,-0.1507686536163091,-0.0422451421618461,0.0061208941042423,-0.0044371056646108,0.054482314735651,0.0431795087739825,0.1580205244407057,21
1733294477166834700,0.3170055099993944,-16.244940003710983,0.896562470754981,-2.2308704620867967,9.532496958777308,0.5701853212982416,-0.7581453919410706,0.2310979515314102,-1.418535232543945,-0.5004667577414771,-0.3462690981976805,-0.5924747681245224,-0.5278299041978681,-0.0381581969559192,0.0342149995267391,-0.0259565599262714,-0.0102472532480955,0.0218120188355445,-0.0120639472812414,-0.034364216029644,0.0133780390024185,0.0219628254830837,0.0142095908522605,0.046110630322434,0.1096463696330785,22
1733294477206834400,1.8033344930961728,-18.403047427403926,-0.6751894911486656,-2.477451898033917,9.464445166814327,0.6759375330369919,-0.1452052444219589,0.3889688551425934,0.1129950210452079,-0.5029080950375739,-0.3286580016028418,-0.5979303441149637,-0.5306096947099185,-0.0275905057787895,0.021593427285552,-0.0142582906410098,-0.0100169516235589,-0.0099883100509643,-0.0113923316299915,-0.0169027168303728,0.0081754680722951,-0.0196434426248073,-0.0020395573228597,0.0525040942192077,0.1540431452423334,23
1733294477246834400,3.62290583524406,-14.931878214025495,-0.3781289640039205,-2.424907033412904,9.4722000187248,0.7534195627767593,-0.1248691752552986,-0.4402401447296142,-0.0015231727156788,-0.5046868065196193,-0.3303853837057521,-0.5936596594593546,-0.5326396255832191,-0.0244298689067363,0.0100092627108097,-0.007341528777033,-0.0118196171313524,-0.0268295547366142,-0.0928583164393901,0.0067163798958063,-0.0008407402783632,-0.004287468060851,0.0025470531545579,0.0526130344863981,0.1170046234413981,24
1733294477286834400,-0.4181149374336004,-7.41097417563796,1.143912260726094,-2.369334053142369,9.49123614310622,0.6878017199624329,0.5703155398368835,-0.0995556116104126,0.5482244491577148,-0.5045469152583527,-0.3367417737241205,-0.5929054295199786,-0.5296229902133756,-0.025961983948946,0.0161149334162473,-0.01039903704077,-0.0070177698075771,-0.0292550283178687,-0.1089940432041883,0.0033433376811444,-0.0020955358631908,-0.00755319185853,-0.0010547346901148,0.0436339380105957,0.0761290076956152,25
1733294477326834400,-1.8162009889319537,3.891024856999516,0.670484601393342,-1.9413491713404647,9.602695699641108,0.4356363464031368,0.8742769360542297,-0.1851117014884948,1.5671300888061523,-0.4893443053611032,-0.3579982637672496,-0.5912917816337405,-0.5317456156700301,-0.0409726239740848,0.0157506112009286,-0.0092438915744423,-0.000501519781351,0.0408721086144447,-0.0853214911937713,-0.0045528621412813,0.0055442759767174,0.0010673369705677,-0.0032645377796143,0.0410637952616438,0.0657058133587241,26
1733294477366834700,-1.2414718867242336,9.182008281370996,-0.7815741555720567,-1.315385264196992,9.71781845485866,0.0642115562129765,0.946911871433258,-0.055649172514677,1.5641050338745115,-0.4661355123354049,-0.387643713883134,-0.5886072312966866,-0.5347816536404058,-0.0220825560390949,0.0132729671895504,0.0005954900989308,-0.0100572836339473,-0.0460176548093557,-0.0513455718338489,-0.0041316584683954,-0.0011889291927218,-0.0167348617017269,-0.0011879238300025,0.0537498564966022,0.1024757473513484,27
1733294477406834700,1.084617629583925,7.352452428564429,-2.3281343200087545,-0.7127682573061436,9.77850936266482,-0.2076243123748339,0.3580648601055145,-0.1172534823417663,1.37981379032135,-0.4441573071297434,-0.4123278885853734,-0.5835851320388245,-0.5404983263437408,-0.049434021115303,0.0099981306120753,0.0086510861292481,-0.0288765503942966,0.0580199350312352,-0.074941551476717,0.0121510121971368,-0.0001214903313666,-0.0312701675325632,0.0052959844470024,0.0561022283090278,0.1042377885878086,28
1733294477446834700,2.6422318336069583,5.596469761490821,-1.1426093614339827,-0.3892881444651633,9.797647193855047,-0.1578905413854867,-0.4509609043598175,-0.163328155875206,0.2279412597417831,-0.438110991705921,-0.4227727648632479,-0.5738583157609257,-0.5477303251675253,-0.0395590178668499,0.0014225388877093,0.0111331529915332,-0.0003980594068765,-0.0765630151987075,-0.0443581971645355,0.0087292306125164,0.0003117501328233,-0.012952420553565,0.0087595861405134,0.06011142741777,0.0831479465469717,29
1733294477486834400,0.7617669006876647,2.1052935328722,0.8352887946248054,-0.4261297554545104,9.797330382990836,-0.0335300661554094,-0.0939332470297813,-0.1402636617422104,-0.2742611765861511,-0.4433492972445057,-0.4204967782587691,-0.5699929973464589,-0.5493012940595223,-0.037704661488533,-0.0059205419383943,0.0106190294027328,0.0244318459451198,0.0422407666191458,-0.0822515822291374,0.0027936673723161,0.0048105772584676,-0.0199012167781591,0.0135648269206285,0.0424634329264983,0.0715767512187361,30
1733294477526834400,-0.8954650309070944,0.3617489070892333,0.3194248461008072,-0.5060406563090161,9.79355554062724,-0.0235909746741876,-0.0313698723912239,-0.0768685191869735,-0.0733925625681877,-0.4472787464611346,-0.4194867211102968,-0.5702926404698674,-0.5465700660796882,-0.0440328642725944,-0.0017740532057359,0.0078968796879053,0.0419704252451658,-0.015115736067295,-0.0703290892452001,-0.0010913813021034,0.0059184292331337,-0.0185626616507768,0.0054859351366758,0.0367136372281238,0.0826508106797933,31
1733294477566834400,-0.8559029819779097,-0.3207517107903957,0.8087620222270488,-0.4573166651504114,9.795953833940624,-0.0228656104085501,0.0851903408765792,-0.1404889225959777,0.290345162153244,-0.4468743688988508,-0.4218652652280087,-0.5685028757305516,-0.5469345817821188,-0.0329802110791206,0.0073903636075556,0.0076996050775051,0.0250111071377992,-0.0457777085736393,-0.0214782568365335,0.0063387667760252,-0.0035249395295977,-0.0006441431224346,0.0044261626899242,0.0568790944330394,0.1199453530684113,32
1733294477606834700,-0.1390971031861379,-0.3135901485979557,1.036117656439543,-0.3125093310913071,9.801063139778377,-0.1091119248296599,0.3675659298896789,-0.1136400252580642,0.4131948947906494,-0.4425982875437811,-0.4297152948652336,-0.5664873568991827,-0.5463915171054584,-0.0205184817314147,0.0031185464467853,0.0078631229698657,0.0235527250230312,-0.0431090738862752,-0.0141951140910387,0.0180242806673049,-0.0062561673112213,-0.0127419926732778,0.004024357534945,0.0494779147984459,0.1123228953659534,33
1733294477646834700,0.1119991981032304,1.0826122811108827,0.1897229459106922,-0.1547954431806691,9.802027016374469,-0.2582576808187179,0.3671434223651886,0.0730285570025444,0.3755544424057007,-0.4349464170401148,-0.4376551766786783,-0.5671202902949979,-0.5455769291661812,-0.0120807895436882,0.0001841159100877,0.0066049797460436,0.053303720164299,0.0166314013272523,-0.041762919974327,0.0143254762515425,-0.0025037787854671,0.0036193595409393,0.0016753170639276,0.0536083291340619,0.0642655514225363,34
1733294477686834700,0.2782789437799714,5.432895986837148,-0.6016484175870195,-0.0650455410853959,9.798866506516934,-0.3852112504150718,0.2673262655735016,0.1076222956180572,0.0091943014413118,-0.4284981259357199,-0.4419029774692453,-0.5695279326626583,-0.5447468434995062,-0.0186540037393569,-0.004684888292104,0.0107478592544794,0.0082931965708732,-0.0063730421632528,-0.0600894347816705,0.0091130267828702,0.0045927325263619,0.0027367314875125,0.0053755808621644,0.0867816999394446,0.086901746122539,35
1733294477726834400,0.4057906587157398,12.862210121285914,-2.490672321873903,-0.2067728831772692,9.795018598917126,-0.4304034872509539,-0.1451040804386139,0.1425570845603943,-0.8535621762275696,-0.4299086800500729,-0.4371678463644606,-0.5751771416657651,-0.541510919702135,-0.0127084953710436,0.0105372611433267,-0.0018612095154821,0.0796843620896339,-0.0592222965583205,-0.0050882630497217,-0.0110174268484115,0.0215070024132728,-0.0603431172817945,0.0026688575744628,0.0106644192142412,0.0724275228291749,36
1733294477766834400,2.499387835510075,14.998367578977346,-1.1532277860820292,-0.7529669967036694,9.77593279017508,-0.1858795135566033,-1.0270838737487793,-0.0013333200477063,-1.8803832530975344,-0.4489820958120489,-0.4141536815614832,-0.5813380649439824,-0.5375293299372178,-0.0107388226315379,-0.0007467122050002,0.0007883695652708,0.0262812732040882,0.043626083497703,-0.0419470443695783,-0.0201254561543464,0.0209962073713541,-0.012933715853095,0.0044399313628673,0.0512502582332119,0.0752908033058047,37
1733294477806834400,3.7077871814548966,2.546511113473773,-0.3712941495478153,-1.510358970242739,9.686662269094583,0.240361118393857,-1.083521008491516,-0.293010950088501,-1.9325346946716309,-0.4804430196813649,-0.3834618055611679,-0.5836968711120019,-0.5304992827798961,-0.0207443200051784,0.0168364904820919,-0.0050649256445467,0.0544721794217824,0.0423152931600809,-0.0278378549963235,-0.0177585780620574,0.0256866160780191,-0.0158341134697198,0.0015078876167535,0.0431480907224118,0.0757595898613333,38
1733294477846834700,3.667196227869391,-8.627170751330256,-0.1614420233219861,-2.218704515735805,9.534872455736997,0.5778832188570872,-0.6657119989395142,0.3604037463665008,-1.7300844192504885,-0.5066157880485516,-0.3535712464251647,-0.5878124949998553,-0.5223067245397338,-0.0042050229385495,0.0108833648264408,0.0139956511557102,-0.0011661211699247,0.0124482704237103,0.0529845712125301,-0.009180299937725,0.0195113271474838,-0.0118429980069398,-0.0176366232335567,0.0639058512646705,0.0714937491104006,39
1733294477886834700,2.885115584079921,-15.305128173816204,-0.7033902611732482,-2.886911235325038,9.34326676481962,0.7345144443638623,-0.4044618606567383,0.6914288997650146,-1.600514531135559,-0.5218666959597149,-0.3215504338668029,-0.5992958413836721,-0.5148835366152857,4.1031744331e-06,-0.0047244098968803,0.0323042832314968,-0.0270072493910789,-0.0598813449889421,-0.0008504793494939,-0.0059027532115578,0.0226077307015657,0.0053390229403972,-0.0610088668763637,0.0538859039664268,0.0281213481128215,40
1733294477926834700,2.4709046683475373,-18.354634986412524,-1.376152744370699,-3.313962635669112,9.198459649956224,0.7591969771344215,-0.2960186600685119,0.4803824424743652,-0.4841338098049164,-0.5268514914426041,-0.2983896315885734,-0.610127327919513,-0.511014462907867,-0.0590304546058177,0.0347031019628047,0.1126640364527702,-0.0330985520035028,0.2831672455444932,0.0027530981004238,-0.0102512296289205,0.0325943119823932,0.0143652099609375,-0.1213556677103042,0.0965942880973219,0.0399678532510995,41
1733294477966834400,3.0200092076942324,-14.982009149372576,-0.1543874286353588,-3.3195842749431725,9.18295286874473,0.9078128366310148,-0.3335899412631988,-0.5080270171165466,0.2515232563018799,-0.5296637859177339,-0.2942402892501632,-0.6059183753409144,-0.5155015735178188,0.0425438396632671,0.0226665213704109,-0.0044450080022215,0.3025795097619295,0.1066179617226123,0.1475888545364141,-0.0046546580269932,0.0420215800404548,-0.0302589446634054,-0.2018245607614517,0.0413940501293167,0.1479804842025041,42
1733294478006834400,0.3715162678658962,-8.060318958368898,1.4291197799265385,-3.110632312427461,9.25278043820858,0.9382964568957686,0.4517906308174133,-0.3738004565238952,0.8554961085319519,-0.5295091841430506,-0.3062576324373974,-0.5986371675124315,-0.5171651474146253,0.0254993438720703,0.1132878214120864,0.0355645231902599,0.1796264993101358,0.0998044823154807,-0.1278477967560291,0.0110958209261298,0.0837457552552223,-0.0804401488929986,-0.2750929296016693,0.057456711657904,0.2512882984638214,43
1733294478046834400,-3.0508167261511088,3.467035474574565,0.3279886763066053,-2.566130298440158,9.43860929929018,0.7057076712701469,0.9504894018173218,0.0491862595081329,1.972008466720581,-0.5129182592324448,-0.3330083125031379,-0.5942426995246065,-0.5223944644637185,0.1255266070365905,0.0674823075532913,-0.0118410727009177,0.0626981559753418,-0.1917752022653818,0.0072971712708473,0.0230410397052764,0.1106361448764801,-0.0565519083052873,-0.2819274067878723,0.091253657721728,0.3344517348408699,44
1733294478086834400,-1.7858735090769826,11.073341668176653,-1.773128447663784,-1.8078233289480208,9.629021981030702,0.4290832714978605,0.048910092562437,0.2502774894237518,1.8545794486999512,-0.4853410544175914,-0.3620659904241091,-0.589093421787623,-0.5350899894466972,0.0875382125377655,0.0627914667129516,-0.0527794510126113,0.0521352609068155,-0.0881023540839552,-0.2172667863965034,0.0280006676912307,0.1186702325940132,0.013638649252057,-0.226129800081253,0.0866746593683958,0.23347060996145,45
1733294478126834700,0.4143518585730343,8.64570067975521,0.0565098227292299,-1.150269374667853,9.725756846642494,0.5068756458284333,-0.374578595161438,0.2982869148254394,1.5047169923782349,-0.4641380564602813,-0.3755474091438237,-0.5771660750004427,-0.5571528888753993,-0.0318568907678127,0.0702406466007232,-0.0351162366569042,0.0033726913034915,0.234522457101941,-0.2018704798221588,0.0183731783181428,0.1141117662191391,0.0173427644670009,-0.2045033723115921,0.0548620555222034,0.0897697027742862,46
1733294478166834700,2.892427660658956,4.905739659926295,0.7624118475276976,-0.7979504130944609,9.751414434990286,0.6660284987673163,-0.3864791393280029,0.1069092601537704,0.2737924754619598,-0.4550981983521656,-0.380195014772659,-0.5670041865321814,-0.5717024836060006,-0.0407883338630199,0.0960658565163612,-0.0180829893797636,0.0928717604428529,0.0525958641558885,-0.0120101712673902,-0.0059341806918382,0.0972115918993949,0.0281704479515552,-0.1898760795593261,0.061138322780095,0.0430772174432873,47
1733294478206834400,1.003377854745835,1.5063643476486206,0.8874976322244852,-0.8528423522982745,9.741295192036032,0.7417565975118428,0.0169276911765337,-0.0265174191445112,-0.3471591472625732,-0.4577241260342898,-0.37637565420275,-0.5661468928356397,-0.5729813561092052,-0.035618606954813,0.0951898843050003,-0.0153585094958543,0.0858358704566955,0.049959670433402,-0.0040139118164777,-0.0220436565577983,0.076347030699253,0.0158037183314561,-0.1531508564949035,0.0434956255184486,0.05571691878587,48
1733294478246834400,-0.0406808238260447,-0.1713619443118572,0.5727390243690461,-0.9844858150102196,9.73365256832838,0.6761361243490129,0.2788935601711273,-0.1257074624300003,-0.2750076055526733,-0.4613942063445896,-0.3751637906757895,-0.5698936571882354,-0.5670878416353865,-0.0063291601836681,0.0672915652394294,-0.0275388751178979,0.0044505496680736,0.0352571913421154,0.0159890117704868,-0.0211666226387023,0.0563557855784893,0.0366676426619291,-0.1043548509478569,0.0377252984886989,0.0449640541031956,49
1733294478286834400,-0.0891642111618071,-0.7127677458494901,-0.271369547984004,-1.0600524395827204,9.732174312469365,0.5757322513682768,0.2337313294410705,-0.0552069805562496,-0.1338643282651901,-0.462766955396013,-0.3764632542751426,-0.5735165575332322,-0.5614276466955246,0.0120016438886523,0.083889402449131,-0.0348366014659404,0.06339139893651,-0.1525453079000115,-0.1218798282623291,-0.0085742492228746,0.0227149464190006,0.0704401484042406,-0.0456033423542976,0.09752278285278,0.0706286567136645,50
1733294478326834400,-0.171413528368622,-0.478508323597908,-0.616670009097457,-1.0831482876837253,9.732696290516852,0.5213507459046319,0.0127771692350506,0.1291069686412811,0.0183207597583532,-0.4619729396799236,-0.3766558691845567,-0.5758028014720404,-0.5596092765310323,-0.039998173713684,0.094441220164299,-0.0391579158604145,0.047816813185811,0.0440922397047281,-0.0594464607030153,0.0077997837215662,0.0152115691453218,-0.0083306059718132,-0.0169728901237249,0.0124029517109505,0.0224503167390823,51
1733294478366834700,0.0764961605075746,-0.3034650604248046,-0.4279010029107332,-1.0611118855077772,9.73572177581787,0.5100524492336437,0.0272954013198614,0.1113418415188789,0.0907774493098259,-0.4596098721337352,-0.3760221728144056,-0.576716471830902,-0.5610385503160149,-0.0472528934478759,0.0554219111800193,-0.016991825774312,-0.0684843381613492,0.1239814767166972,-0.0369727630883455,-0.0054753152653574,0.0022284584119915,0.0018634557843208,-0.0040902364999055,0.0329194873758591,0.0023658523485064,52
1733294478406834700,-0.1270392568521201,-0.0609311463028192,-0.7858323975384235,-1.005867260408774,9.740538820710778,0.529652892966941,-0.1298752427101135,0.0938738510012626,0.2368560135364532,-0.4574984101983317,-0.3762781054043392,-0.5756822086034641,-0.5636488941344805,-0.0686316862702369,0.0561183281242847,0.0257774740457534,-0.0228162274420261,0.2173369290232658,-0.0684077657938003,-0.0090179424732923,-0.0056343767791986,-0.0213894095093011,0.0243291724473238,0.008633443109598,0.05203355409801,53
1733294478446834700,-0.2733904593523591,0.8031769155710935,-2.7387457499444485,-0.8999181378584354,9.748967626360058,0.5640623814385384,-0.5409860014915466,1.1622333526611328,0.3748981952667236,-0.4451740665299631,-0.3685928400720275,-0.5791201431524662,-0.5749601973193533,-0.0147854955866932,0.0692626237869262,-0.0046607907861471,0.0281155028939247,-0.8028034060835838,-0.1356616853773593,-0.0044707371853291,-0.002939979545772,-0.0353320101439952,0.0090238275006413,0.0151067855758592,0.0189317872241139,54
1733294478486834400,-1.2685215139523147,0.106667061561346,-2.357549361193925,-0.7240526715822517,9.73439841825962,0.9421268288388848,-1.3774605989456177,0.1838786303997039,0.5959612131118774,-0.4400996618780235,-0.3584685721381141,-0.5687399957743638,-0.5952707788474434,-0.1028791368007659,0.0920976847410202,-0.0214405693113803,-0.0154950907737016,0.2980991494774818,-0.0916945333570241,-0.003799547906965,0.0084063271060585,-0.0473912812501192,-0.0154115362092852,0.0129312681676819,0.0522922050341963,55
1733294478526834400,-0.3084531510356813,-0.1903904699087142,-0.409004140869528,-0.474451011031121,9.68085562864244,1.492081555274129,-1.2378557920455933,-0.2758500576019287,0.5263243317604065,-0.4427524360982182,-0.3534674767158677,-0.5467959012467598,-0.6164780726883994,-0.1418150812387466,0.0710896626114845,-0.0069790724664926,0.0097971713930368,0.0192322314754128,-0.0950362450003624,-0.0026680137962102,0.0121087450534105,-0.0499170003354549,-0.0286969766020774,0.011128785322979,0.0641609220042824,56
1733294478566834400,-0.9577075520694256,-0.6450175671815872,1.2774736128233373,-0.305233732331451,9.629857262811065,1.8284040524229408,-0.4185389876365661,0.3002144992351532,0.5205222368240356,-0.4450271796598612,-0.3518393569865612,-0.5319646667320114,-0.6286282124330476,-0.1909914165735244,0.075305663049221,0.0253455098718404,0.0009971943438053,0.226808813984692,-0.0818657977819442,-0.0162887349724769,0.0304276067763566,-0.0147831431120634,-0.0388264283537864,0.0014148900329135,0.0383785382330417,57
1733294478606834700,-0.7793777415063232,-1.3312322371482848,0.0461228687494993,-0.0850788415443152,9.635371057796478,1.8228505099490284,0.2013516873121261,0.539401113986969,0.7671235203742981,-0.4316713462834147,-0.3529869760895333,-0.5314703006276326,-0.6376515333652543,-0.252947986125946,-0.0207366663962602,0.1223359033465385,-0.3310948256283998,0.2079065451160073,-0.0199105691283941,-0.0160064920783042,0.014900223352015,-0.0321142171412706,-0.0463460236787796,-8.34404997527e-05,0.0788429428294301,58
1733294478646834700,-1.193072305214405,-1.8211323078542947,0.2443406712830066,0.2271616460103541,9.649722823753953,1.7325211274653671,0.3384498655796051,1.1401139497756958,1.263558268547058,-0.4096002824219898,-0.3552980755769298,-0.5342558198741728,-0.6485071876980435,-0.3719489574432373,-0.1744976788759231,0.4398460984230041,-0.8172603859812021,0.4178960339859128,0.2531108377158642,-0.0072085438296198,0.0342187546193599,-0.0354962607949972,-0.0805525332689285,-0.0179496808515861,0.060679801890254,59
1733294478686834700,-0.8914403785008936,-1.5853811857402325,0.8210738067895174,0.7156163402136415,9.653990418070554,1.568040028708428,0.6694463491439819,2.447153091430664,1.7948551177978516,-0.3681496445831409,-0.3543985827067706,-0.5426360243132856,-0.6666435713612109,-0.4458847045898437,-0.519092857837677,0.579724907875061,-0.3525000172287225,0.628191812326014,0.873622909194231,0.0335170626640319,0.0418103858828544,0.0182791685342788,-0.0793076157569885,0.0190243974110111,0.1531938349366187,60
1733294478726834400,-0.3585528875268995,-1.8591484425157307,-0.0166505444191396,1.305010731307417,9.605888358202575,1.481303556150198,0.3817284703254699,3.752973318099976,2.1475138664245605,-0.3005486585617944,-0.3362925327806428,-0.558016014087789,-0.6965601996342486,-2.1469616889953613,0.2210235446691513,1.4422796964645386,0.7786310878574848,3.5187355589345097,-1.4881027147710322,0.0617369711399078,0.0638433545827865,-0.0503361025303602,-0.0859866738319397,-0.0198886678238399,0.1465866917565464,61
1733294478766834400,-0.0353719037629663,-1.216351473993063,-0.5010797824986278,1.858705959445238,9.493255666235088,1.61049297677353,0.1627980023622512,3.3942103385925293,1.910659670829773,-0.2284399759818126,-0.3084576464081099,-0.5681035063877429,-0.7279611550357982,-0.8717150688171387,-0.3752422928810119,0.5296955108642578,-1.1855723048478364,-0.1640200571164488,-1.155447800219059,0.0778027474880218,0.0417648516595363,0.0399929876923561,-0.0940566658973693,0.152701448309794,0.0846557207614183,62
1733294478806834400,0.1470280057832598,-0.5409481208980084,-0.5128454774856567,2.2974518892362714,9.334401905840634,1.9393407541275025,-0.7145137190818787,2.195618391036988,1.5096259117126465,-0.174083653655312,-0.2858280300896169,-0.5651756154212686,-0.7540383011914088,-1.024578094482422,-0.3123479187488556,0.8835799098014832,-0.3227484375655651,-0.00946487069875,-0.9365531203597784,0.0814671069383621,0.007993072271347,0.0373199690908193,-0.0885210186243057,0.2911538055852987,0.2068713568493723,63
1733294478846834700,-0.3432867832034826,-0.7016489704638719,0.96292090280354,2.6825711505189536,9.105446435216068,2.462733052329719,-0.8421182632446289,2.164083480834961,1.615847945213318,-0.1319870480706948,-0.2684540628796333,-0.5498799634858902,-0.779835836839486,-1.5215964317321775,-0.0148830376565456,0.8008870482444763,0.5356248800486326,0.159103643502295,-0.4694143320381641,0.1160626411437988,0.0045146318152546,-0.0769978994846344,-0.0714274495840072,0.1384947533788159,0.082632690501213,64
1733294478886834700,0.5819733742475509,-0.4782435351818799,0.3251166280016302,2.9975077452898025,8.861541817262768,2.9425194330394264,-0.9088051319122314,1.369943618774414,1.2124890089035034,-0.0955109679013274,-0.2546106289737851,-0.5339912762226589,-0.8005651230437092,-0.7003068327903748,0.2245441973209381,0.6869173049926758,0.6491811166018248,-1.188454582285881,-0.059301499274373,0.0795174017548561,0.0210581235587596,-0.0845545984745025,-0.1313802152872085,0.1410339530002325,-0.1844166561961173,65
1733294478926834700,0.4310764180764556,-0.7401081727176905,1.4340604511991142,3.186562290419638,8.56839882888794,3.549470012155175,-1.098650336265564,2.427358388900757,1.2518638372421265,-0.0609322012624692,-0.2354350246271068,-0.513417708334781,-0.8229579590497194,-1.234668850898743,0.3696762919425964,0.5393301248550415,0.7652613186746835,-0.8282432600274682,-0.2547474990069866,0.0336176268756389,0.0486517548561096,-0.1824579233437776,-0.186538740992546,-0.001009231841471,-0.376764689913392,66
1733294478966834400,0.7521136678099631,0.5257599041163921,0.4573632442384958,3.222709708599746,8.271732927083969,4.166887332488596,-1.1651183366775513,1.2912906408309937,0.777046799659729,-0.0294720897936164,-0.2119946800332263,-0.4925506368903588,-0.8435540382245046,-0.3414861261844635,0.209604725241661,0.4261565804481506,0.3821428758203983,-2.0032816036403176,0.9808367909833788,-0.0625626593828201,0.1033496409654617,-0.256069102999568,-0.213547021150589,-0.130957023950899,-0.3749307524845003,67
1733294479006834400,0.5232379844233394,0.1528115576207637,2.2889450499147177,3.219048848004639,7.941684980159997,4.768413256207109,-1.0712422132492063,1.950364112854004,0.8153152465820312,-0.0052591929432529,-0.1932533367149272,-0.4685421420985085,-0.8620289348590493,-0.1606944948434829,0.1957813650369644,0.3180437982082367,0.2149468190163374,-0.9401900155574084,0.6242588567912578,-0.1132813245058059,0.1323980540037155,-0.1495113470315933,-0.1953407526016235,-0.1387278680149465,-0.2112871274650097,68
1733294479046834400,0.3487266361698508,0.5053337866812944,1.2147352709680794,3.0245538653865456,7.703335658246278,5.261280944547057,-0.5718448162078857,1.8951162099838257,0.5947133302688599,0.0214865339501018,-0.1649001519285583,-0.4522800887749353,-0.8762356627430716,-0.1643936336040496,0.0989828705787658,0.1574044823646545,-0.3315963454097509,-0.6682663408219814,0.2510419224873185,-0.1003377735614776,0.151897057890892,-0.1096867016434669,-0.2201980501413345,-0.1684688166862353,-0.0364595528692007,69
1733294479086834400,0.9491136189863084,0.5954080253601074,0.3643582128047943,2.8361192057207223,7.539341027832031,5.593313343286514,-0.4399356544017792,1.008935809135437,0.2447240501642227,0.0415458748334355,-0.1426693744648452,-0.4409828154903749,-0.8851291050843554,0.0084710912778973,-0.033065129071474,0.0131232663989067,-0.4299421533495187,-0.3187342334881424,0.2234650565147399,-0.0307534933090209,0.1760559678077697,-0.0587117166876792,-0.2060520648956298,-0.1033532243056222,0.1139236085608601,70
1733294479126834700,-2.634091781771182,0.0448550407707691,7.731377511382102,3.078365827333927,7.57214790341258,5.418175972089171,1.433428168296814,-1.8038359880447388,0.5516159534454346,0.0408723865301831,-0.1576230803876439,-0.4459875074397225,-0.8801020868802149,-0.1360999345779419,-0.0750482156872749,0.0130845829844474,-0.1854670420318842,0.2591521637067198,-0.163775434705615,-0.0168559104204177,0.1698522418737411,-0.0474731143146753,-0.2577735781669616,-0.0961413932306692,0.168939685600996,71
1733294479166834700,1.2998948495984075,0.025358313140273,0.9423281966298818,3.3530861470505595,7.792906623578071,4.919126380243897,1.2365975379943848,1.960642695426941,0.7000539302825928,0.0598678155789136,-0.1651477960740908,-0.471084462908532,-0.8644197392641968,-0.1780023872852325,-0.0651201084256172,0.1056784391403198,-0.0567523993134498,0.6030021337509155,-0.1940399323269724,0.0194759741425514,0.1798073649406433,-0.0640624300658702,-0.3368308842182159,-0.0195612442340701,0.1574897785648703,72
1733294479206834400,1.1736816683068871,0.8980261135667562,-3.8304286417394873,2.9986636373266577,7.808039310780167,5.119855873337388,-0.4068490862846374,1.592049241065979,0.0949588865041732,0.0901068203006429,-0.1271840249226916,-0.4720002440303825,-0.8677100457859023,-0.2794150114059448,-0.047267235815525,0.1561887413263321,-0.0222393043369054,0.4602706561177969,-0.2448392684549093,0.0289722103625535,0.1769999265670776,-0.0008463876962661,-0.4271014332771301,0.022778416182287,0.066448156158626,73
1733294479246834400,0.9215840992867946,0.1462310101866722,0.4076590098708867,2.662834768913686,7.739370848223566,5.402020371580123,-0.3865940868854522,1.4736300706863403,-0.2967481911182403,0.0948032955982542,-0.1050387956972017,-0.4621043745117517,-0.8754648223617477,-0.459579199552536,-0.0064869429916143,0.2130848467350006,0.1919996586710214,0.6071887717857957,-0.0898217252224683,0.0129794925451278,0.1780343055725097,-0.0459118563473224,-0.4341714680194855,0.0069250134902074,0.0824812993317842,74
1733294479286834400,-1.7880236728481946,0.8467407474875449,-0.1523772578567266,2.3503616416469213,7.695770775949954,5.605470814070105,-0.1586037129163742,-0.1248040050268173,-0.1282197386026382,0.0979562823981542,-0.085444238872106,-0.4548624035021359,-0.8810244839576441,-0.8035032749176025,0.0078298915177583,0.2849264740943908,0.0200964470893144,0.5615414115935564,-0.330072496843338,-0.0354983061552047,0.1792344748973846,0.0522252772778272,-0.3756323158740997,-0.0098354575768113,-0.0810734783604741,75
1733294479326834400,-2.0978581221744417,1.298932142046094,-0.9307096550285816,2.4813793006107208,7.63622845365703,5.63037787631154,-0.4544003903865814,0.2223680168390274,0.7059995532035828,0.1006587100252664,-0.0918917190805802,-0.4522018685330848,-0.881440422496109,-1.609408617019653,0.1012829840183258,0.3363538682460785,0.1090875667065382,1.0043217114672065,-0.4366401896834373,-0.0355332419276237,0.0843808725476265,0.1935451345473527,-0.2200100272893905,0.0723668604168109,0.0423170467257499,76
1733294479366834700,-0.0137979314669966,1.2131406952530146,-1.5290928968071935,2.622429985550046,7.334608144316077,5.957917055284977,-1.2896232604980469,0.5908728837966919,0.8711038827896118,0.1184792240428827,-0.0927061672486608,-0.4331700953649866,-0.8886686633560575,-2.197072982788086,0.2689843773841858,0.3519493341445923,0.0029220249265432,0.9641723641693593,-0.3121168611750006,-0.038870133459568,0.0664255023002624,-0.0990069021970033,-0.1701945215463638,-0.0634984395075589,-0.0393470910042524,77
1733294479406834700,-1.6613582177445292,1.2994096964299675,-1.0748574292004107,2.8104250847548244,6.8871139676630495,6.390584249684214,-1.313892483711243,0.1077095419168472,1.1118119955062866,0.1373446616220573,-0.0974692300730508,-0.4057963086851867,-0.8983126985289144,-2.4372105598449707,0.3530888557434082,0.4657134413719177,3.44867914915e-05,0.4549146820425987,-0.0386240374267101,-0.0310542900115251,0.1076108887791633,-0.075579264858365,-0.1657862812280655,0.0030276041928678,0.1185457154035568,78
1733294479446834700,-1.8751643422931432,0.9580307926744224,-1.8911153601408004,3.3006121557086705,6.3025353793531655,6.749399441409111,-0.9910205602645874,-0.0911348462104797,1.9437395334243768,0.1648570384277624,-0.1174339813676208,-0.3769425158491419,-0.903850501205604,-2.3389148712158203,0.3047572076320648,0.5308587551116943,0.0773877755850553,0.7022837612360715,-0.2312120173797011,-0.0095361750572919,0.127266377210617,-0.0521183097720146,-0.2367119789123535,0.0117044663190841,-0.0011404022067785,79
1733294479486834400,-1.6709055060297249,1.352515263673663,-1.8708049780398608,3.826584533531964,5.779661259806156,6.937084744012355,-0.5136338472366333,0.1647932827472686,2.370379447937012,0.2042725106460373,-0.1354223772827049,-0.3577259884991168,-0.9010913515386932,-2.1202402114868164,0.1128309294581413,0.4896503984928131,-0.1661836648911237,0.4399316324442625,-0.426877505081892,-0.0232766047120094,0.1658520400524139,-0.0845043295919895,-0.2826449573040008,-0.061967320950143,0.0671259092897176,80
1733294479526834400,-2.717153511339426,-1.4479378776431082,-1.220439035567641,4.378579533623158,5.252473368713259,7.029221175917983,-0.4393955171108246,-0.131559357047081,2.6009674072265625,0.2461994276408874,-0.1554845652214994,-0.3426864806582196,-0.8931832691310879,-1.5104995965957642,-0.0216816086322069,0.701913595199585,-0.0467243417739868,-0.0635673400253057,0.0517078292749822,-0.0561678484082222,0.1590859442949295,0.0565185905575752,-0.2895838916301727,0.0059729369297623,-0.062481298354268,81
1733294479566834400,-1.865541650684177,-2.295695400957764,-1.7598247294545173,4.884330668933689,4.5571687988400456,7.179548515507578,-0.7981522679328918,0.4837903380393982,3.103675365447998,0.2962749644987698,-0.1741872811609598,-0.3218752613604879,-0.8821997314163784,-1.258642077445984,-0.0402616821229457,0.74882572889328,-0.0061579381078481,0.3118950351178646,-0.3015811463743448,-0.1093967631459236,0.1209080517292022,0.0126794488310813,-0.2379264533519745,-0.0108737876486033,-0.0415939931482076,82
1733294479606834700,-0.7268921327918767,-2.251388933980465,-1.899046153140068,5.257170586618781,3.623266485249996,7.443418647646903,-1.160315990447998,0.4775480926036834,3.1365771293640137,0.351019844644321,-0.1913075378290785,-0.2896423558039487,-0.8696515576940322,-1.0683940649032593,-0.0302260946482419,0.8162437081336975,-0.0335667540371418,-0.2186582407549023,-0.0068611179411411,-0.114031583070755,0.0837093442678451,0.0234995335310697,-0.1799677312374115,-0.01814648206532,-0.1035153195321559,83
1733294479646834700,-0.7209574820458888,-1.942754361963272,-1.7238497452318666,5.468809011739492,2.58245511803627,7.719678890281915,-1.3019205331802368,0.6276624202728271,2.950439214706421,0.4016756332579988,-0.207826795802497,-0.2514238041116768,-0.8557165978911737,-0.4060246348381042,0.1995433419942855,0.7148227095603943,-0.0412970560282468,-1.3255208737641573,-0.6990567620135844,-0.1058037132024765,0.0528101697564125,-0.0107224695444107,-0.1319925636053085,0.0217429356547072,-0.0395966818511486,84
1733294479686834700,-0.1223059447199106,-1.84693003532514,-0.3632183951199054,5.505518155455589,1.6301048552162944,7.949993958821892,-0.9346861243247986,0.6837224364280701,2.422085285186768,0.4459271575505842,-0.2196715547132438,-0.2154240255878804,-0.8405271061799723,-0.7916964292526245,0.3472344875335693,0.5474455952644348,0.049167058750987,-0.9773410578221082,-0.7428852362155914,-0.053323533385992,0.0173780098557472,0.0245592717170715,-0.0792390555143356,0.1283244012918323,0.0191746560692787,85
1733294479726834400,0.073857847893238,-2.2000272877946494,-0.4108662814795971,5.4399885754466055,0.922271862355247,8.107177155655622,-0.6891438961029053,0.0130158141255378,1.7365378141403198,0.4784785434168815,-0.2265938278565659,-0.1878942052550138,-0.8272903603382039,-0.8820809125900269,0.1763500422239303,0.4251355826854706,0.0159936879456043,-0.730353086900711,0.0418464700719341,-0.0082381702959537,0.0115676075220108,-0.0325537776023149,-0.0185860879719257,0.1600305490888655,0.0983762030780315,86
1733294479766834400,0.3015682868927717,-1.9871087597355248,0.7194669512271881,5.578441352847218,0.3801504598941653,8.056479818597435,-0.7735600471496582,-0.4170081615447998,1.1995463371276855,0.4990976264390196,-0.2434028723084375,-0.1731730362304167,-0.8134296117816906,-0.5133582949638367,0.1274458765983581,0.4933177828788757,0.0713262835890054,-0.8014549140840769,0.4444669377863406,0.0137890893965959,0.0387625321745872,-0.0894318491220474,0.0519829951226711,0.1222905279550701,0.0369797773510217,87
1733294479806834400,0.2362280919760465,-1.5275287162303923,0.2239391037672758,5.755560837772488,-0.1702595908268354,7.9381936309129,-1.375279426574707,-0.7296916246414185,0.7450698614120483,0.5060635926108336,-0.2660811387632589,-0.1564147858537621,-0.8053788097490183,-0.3283266425132751,0.1235760375857353,0.6095612645149231,0.2565770525217056,-0.2816267381042242,-0.0197346463059075,0.0065982397645711,0.0048751011490821,0.0404950919955968,0.134712815284729,0.1160873989986255,-0.0091805007994174,88
1733294479846834700,0.1256307052284479,-0.6122038234688342,0.6959954747468232,6.019985681185126,-0.7508449630483984,7.704958875533938,-1.171662449836731,-0.8836719989776611,0.640946090221405,0.5075026215040542,-0.2957620801452525,-0.1402897406060353,-0.7970475236392487,-0.1698688268661499,0.150428369641304,0.697465717792511,0.3324555925875902,0.077516954922676,-0.1335352312752977,-0.0204645525664091,-0.0057585556060075,-0.0409580333322286,0.184707686305046,0.07004486547634,-0.0370452438026666,89
1733294479886834700,0.0877495951235294,-0.6800042710192501,0.6799667154878377,6.209748959106206,-1.2621421881787478,7.484410583248734,-1.34794020652771,-0.5961390733718872,0.6768538355827332,0.5080869155497919,-0.3206518292375918,-0.1248345667409345,-0.7895862523428965,-0.1831036657094955,0.1947118937969207,0.6327435970306396,0.2480547233700752,0.1081456096813082,-0.1262689939988311,-0.0370767228305339,-0.024747647345066,-0.0217582428216934,0.1763349324464798,0.0806396169878542,-0.0440980849236249,90
1733294479926834700,0.3050438540488481,-1.0402629395507277,1.7037229030042886,6.343504518601298,-1.8592649085022508,7.243857613810896,-1.3528653383255005,-0.6364484429359436,0.7509883642196655,0.5086355956404505,-0.3461865222777559,-0.1040237230698132,-0.7814242647386143,-0.3021014332771301,0.1058468446135521,0.5234215259552002,-0.2424988428086042,-0.2722577289953827,-0.2079044992893934,-0.0438892245292663,0.0001926459372043,-0.0835556505650281,0.1374070942401886,0.0531025350363925,0.0181084881424903,91
1733294479966834400,1.3117659046560526,-0.9567300853393972,2.128677331069112,6.459214133796095,-2.3691152958251536,6.988292953202128,-1.0906550884246826,-0.5249946713447571,0.5324262380599976,0.5091788782501083,-0.3689940935222184,-0.0868307449340138,-0.7726841230468757,-0.2544524073600769,0.0822888389229774,0.401895523071289,-0.1379641171008348,-0.4054378266900778,-0.1862099693536758,-0.0429457016289234,0.0058283759281039,-0.0166641345530748,0.1052431613206863,0.0871075343603268,0.0624950346186757,92
1733294480006834400,1.17053372566998,-1.2880951062113046,2.90472775478363,6.545678949806094,-2.742394043318927,6.7678463677257295,-0.7437385320663452,-0.4714643061161041,0.4045592844486236,0.5077367370584094,-0.3866536388490178,-0.0737212426107321,-0.766333811514414,-0.2212065756320953,0.0731629878282547,0.2736943960189819,-0.1588619437009096,-0.4519704452842473,-0.1270259498459752,-0.0391981899738311,0.0232277475297451,-0.1186398234277963,0.0568276420235633,0.0329653540778905,0.0621197715654969,93
1733294480046834400,1.3209142567515373,-0.7968205322816968,2.992329465869069,6.589079115593433,-2.9631238296508786,6.631313744732737,-0.0479028113186359,-0.2954451143741607,0.4951938986778259,0.5111505239173938,-0.3965792096954183,-0.0679854538808136,-0.7594919827413876,-0.1129690557718277,0.0672533214092254,0.1553601771593094,-0.0446358450621366,-0.5170417601317167,-0.0320551804304122,-0.0063904039561748,-0.0203977264463901,-0.1045797338932752,-0.0250228121876716,0.0981506506938487,0.1341115333259105,94
1733294480086834400,1.406559573072195,-0.1067418803632259,1.9463935952484608,6.594412877836823,-3.052108227266371,6.585493658322095,0.1328562647104263,-0.1457064300775528,0.2970748543739319,0.5178209590411169,-0.3995053865446439,-0.0680346537009721,-0.7534109461744618,-0.0547885708510875,0.0579355619847774,0.1065172627568245,0.0721142190963029,-0.4704913136199116,0.0178431152045726,0.0444906055927276,0.0046611931174993,-0.1649403868317604,-0.1634540259838104,0.0308381693234667,0.0200923554360866,95
1733294480126834700,0.9106669839531184,-0.0212915020927786,1.3134078266441822,6.595155220636725,-3.067528206977248,6.577581570023298,0.188348963856697,-0.043003212660551,0.144671082496643,0.521852766331187,-0.3997445770582803,-0.069576924893113,-0.7503551732172234,0.0054513327777385,0.0310508981347084,0.0784370228648185,0.0770464148014783,-0.4930719787403941,0.0445206759835593,0.051920510828495,0.0289784111082553,-0.1821814444899558,-0.2273527234792709,0.0034246406864374,-0.0711830757260322,96
1733294480166834700,0.3878554082483053,-0.1785992020890116,0.4277560414820909,6.580767798843979,-3.035017976255715,6.60700698647201,0.3414934277534485,-0.0172222834080457,0.1551486998796463,0.526331101399378,-0.3973101785070601,-0.0726705607890599,-0.7482240148515418,0.0584474392235279,0.013624183833599,0.0342223607003688,-0.0631242724329233,-0.3107221919462085,0.003728080612421,0.0593504160642623,0.0532956272363662,-0.1984901897341013,-0.2912514209747314,-0.0238717278443276,-0.1630669941753149,97
1733294480206834400,0.2500076110035181,-0.0923743323147296,-0.0384743998229503,6.573467120441794,-2.973550531119108,6.642131491345166,0.3461202681064605,-0.0303600057959556,0.0890102013945579,0.530864772835178,-0.3941795865485083,-0.0772527510114269,-0.7462151691737935,0.0485074557363987,-0.0054968330077826,-0.0447388365864753,-0.1164092878967523,-0.1594441275030374,0.0326034619629383,0.0546893924474716,0.0547737218439579,-0.2614770995229482,-0.2963237762451172,-0.0363838207518681,-0.2408615969955921,98
1733294480246834400,-0.1017418801188468,-0.1272895783513784,-0.4196545680910348,6.570425268527865,-2.916638265068829,6.670315383300185,0.2833736836910248,-0.0317115262150764,0.1257940679788589,0.5348139999402811,-0.3914915589937736,-0.0815040430034566,-0.744355641041532,0.0254748426377773,-0.0393660105764865,-0.1009076312184333,-0.0631067367762327,0.0418619964346289,0.1206313077722676,0.057880911976099,0.0950543284416198,-0.3122685446053743,-0.3038151264190674,-0.0028428952757269,-0.2322965977460145,99
1733294480286834400,-0.1897352208703756,-0.1330611474901437,-0.3517547518193721,6.544844252547621,-2.8978485166639087,6.703571756213903,0.1880746036767959,0.0736851915717125,0.2333307415246963,0.5392174275569507,-0.3889049118141905,-0.083462069641638,-0.7423151207323552,0.0070207333192229,-0.0546538345515728,-0.090043269097805,-0.0713560942053794,0.2466097852587699,0.055289925545454,0.0436378307640552,0.0835161879658699,-0.1539437765210866,-0.3214127421379089,0.0325632760830223,-0.1510994930058717,100
1733294480326834400,-0.1995855837553739,0.0752332278996706,-0.4978267720520496,6.4891533449858425,-2.93256356395334,6.7425026676326985,0.1065606772899627,0.0818245038390159,0.3028639853000641,0.5447397720824018,-0.3865430443494808,-0.0825378480275617,-0.7396151873033806,-0.0343879610300064,-0.0687202736735344,-0.0513416118919849,-0.0602682984799146,0.1633639312952756,0.0921954503501765,0.06742575019598,0.0245662964880466,-0.0244675017803907,-0.2997287213802337,0.0836482242193073,-0.0557487752288579,101
1733294480366834700,-0.033592473000288,0.0993733974218368,-0.1620025798141956,6.439279014748334,-2.992017915701866,6.764163879820704,0.0278247203677892,0.052736572921276,0.2874285876750946,0.5496104621328866,-0.3855333115678611,-0.0805462472853204,-0.7367529072705378,-0.0194319114089012,-0.0635830909013748,-0.0182325262576341,-0.0105079500108957,0.1000821302130818,-0.0974924242471344,0.067537248134613,0.0084048118442296,-0.0849082342177629,-0.2764724791049957,0.0637991760198026,0.0960036287277937,102
1733294480406834700,-0.0294026200950145,0.036337680055201,-0.1687988158255815,6.393340270394086,-3.065451692964136,6.7748501090079545,0.0153967123478651,-0.0224795956164598,0.2954475283622741,0.554270402607388,-0.385333217610154,-0.0780838425011481,-0.7336249489760722,0.0295630618929862,-0.0669861882925033,-0.0172746535390615,0.062304188221693,-0.0304521291479468,-0.0949170025348663,0.0942823737859726,0.0062122056260704,0.0207896900504827,-0.2411679476499557,0.0955220922885462,-0.0184796595424413,103
1733294480446834700,0.3666752575755119,-0.0484703086584806,0.1193383270859718,6.382130309593677,-3.1111276947289705,6.764589996278286,0.0714553594589233,-0.0685237497091293,0.1548576802015304,0.5577135462483097,-0.3861050975003807,-0.0776191745770278,-0.7306529427877526,0.0695011541247367,-0.0530000105500221,-0.0085944132879376,-0.0259340672016143,0.0665025166943669,-0.1692261013269424,0.1033752784132957,-0.0624237805604934,0.0906745426595211,-0.2774549722671509,0.095386519742757,0.1439718330830335,104
1733294480486834400,0.2284153723984956,-0.006878069075942,0.1370709676533937,6.378233886677027,-3.1108214052587746,6.76840458613038,0.1513954401016235,-0.016309754922986,0.1065022274851799,0.5602707721078489,-0.3856116220417316,-0.0788104052882164,-0.7288272591899283,0.0568665862083435,-0.0443722195923328,-0.014788526110351,0.1065162549138069,0.0511871664017438,-0.0290694517510477,0.1093209385871887,-0.0529415197670459,0.0072778820484876,-0.2347542643547058,0.0991463837329298,0.0648170478254556,105
1733294480526834400,0.0394949750423431,-0.0086681673631072,-0.1850742433220148,6.361702438592911,-3.1108272504776715,6.783942931523919,0.0929490178823471,-0.0046345642767846,0.1834805905818939,0.5634519264187154,-0.3843879683221952,-0.0797562591139944,-0.726915960494617,0.0513394623994827,-0.0368191748857498,-0.0198709014803171,0.1347539228826761,0.1973167620405554,-0.0636252031258074,0.1152665987610817,-0.0434592626988887,-0.0756891549736261,-0.1920535564422607,0.1033634169060736,-0.0147018945693969,106
1733294480566834400,0.1589157197147607,0.1136465451851487,-0.1134837558388709,6.345232365307211,-3.142162007679045,6.784926097342372,0.0383673943579196,-0.0429728180170059,0.1619472950696945,0.5664042208428052,-0.3844012368367573,-0.0793770968204004,-0.7246524412561345,0.0196422524750232,-0.0330036133527755,-0.0224212128669023,0.0738543407618999,0.239431271931529,-0.0233493159719975,0.1013523042201995,-0.0115975961089134,-0.1180465337097644,-0.0831808373332023,0.0331369843177497,-0.0967524012684822,107
1733294480606834700,0.118757896849513,0.0706190121024847,-0.074406129425764,6.345885860779881,-3.166621033892035,6.772933461731672,0.0498144291341304,-0.0878216177225112,0.1226570680737495,0.5686924664101854,-0.3851317255553781,-0.0796871222320645,-0.7224351125185643,-0.022856205701828,-0.0032344772480428,-0.0059646745212376,0.0012637363255023,0.2544271810114383,-0.1251683484137058,-0.0261210352182388,-0.0148551110178232,0.0678255819916725,-0.1199892610311508,0.0877360780548304,-0.1542313612908125,108
1733294480646834700,0.1341717390805482,0.0363797656312584,-0.097205990254879,6.351870195886493,-3.181013716381788,6.760568485677242,0.0464953668415546,-0.0653493925929069,0.1015021502971649,0.5706047961423811,-0.3857949403116151,-0.0804314018089647,-0.7204882442184396,0.0219014137983322,-0.0199602991342544,0.0258829370141029,0.0421054498016834,0.0657046443149447,0.0469172294310061,0.004460709169507,-0.0207742042839527,-0.0447983421474695,-0.0227712467312812,0.0157774148464202,-0.0754401486486196,109
1733294480686834700,0.1085223340392112,-0.027607553371787,-0.1364741708040237,6.351183382666111,-3.195885414560139,6.754197197079658,0.0200374666601419,-0.032496154308319,0.0885201022028923,0.5721052188522014,-0.3861720905414244,-0.0806404553421848,-0.7190716489099557,0.0012637781910598,-4.5425258576e-06,0.0380212925374507,0.0648649786204099,0.1339177643194794,-0.0923053587317466,-0.0070932162925601,-0.0101032555103302,-0.1481400586783886,-0.0990488231182098,-0.0145311411123722,-0.1895136870741844,110
1733294480726834400,0.0110644148498773,0.0815191763013601,-0.2228957321941852,6.342099327978492,-3.214332048615813,6.753978585892916,-0.0055040898732841,-0.0043482119217514,0.0897552669048309,0.5734683391711313,-0.3862655161272194,-0.0802612262178978,-0.7179771063192604,0.0064377672970294,-0.0028925808146595,0.0378744192421436,-0.0630149668395519,0.0021685762107372,-0.0444996468952624,-0.0080923410132527,0.0205504335463047,-0.0998024364888668,-0.024811066687107,0.0227086754143238,-0.1393827517271041,111
1733294480766834400,0.026969839990139,0.0930126302182674,-0.1605740083158016,6.3440007776856415,-3.24512875341773,6.73744596876502,-0.0555793158710002,-0.076639674603939,0.0581085942685604,0.5741648637068145,-0.3874992611353724,-0.0795624221194683,-0.7168325393683597,0.0046907337382435,0.0119692962616682,0.0297708176076412,0.0172761289715766,0.0212701670438051,-0.0756008967348607,-0.0234966650605201,0.0489035621285438,-0.1778127278864383,-0.0547103360295295,-0.061861266759783,-0.2188251217544078,112
1733294480806834400,0.0829606072813272,-0.0157969963297247,-0.100387542900443,6.36073330129981,-3.2733868796527386,6.707934627598524,-0.0627379566431045,-0.0874852687120437,0.0568797439336776,0.5743979468101025,-0.3894701184012141,-0.0793948194590716,-0.7155951611386486,0.0116509050130844,0.0052954675629734,0.0272377543151378,0.0159463416725397,0.0793041306003928,-0.0023719943949254,-0.0165362283587455,0.0396854504942894,-0.05005670106709,-0.0226850919425487,0.0230510591112077,-0.0622024814128875,113
1733294480846834700,0.0701490565031766,-0.047675066627562,0.0739712451398372,6.366063556411862,-3.311838775382936,6.683962215858697,-0.0861013606190681,-0.025731286033988,0.0865463018417358,0.5746420682765747,-0.3912502720133523,-0.0783325415152401,-0.7145444956789162,0.0018278358038514,-0.0147051913663744,0.0338664948940277,-0.0047176761716604,-0.0290013458177447,0.0609177022993564,0.0197055824100971,0.0120633207261562,0.010908347505331,-0.0250472463667392,0.0140204151112586,-0.0534036734074354,114
1733294480886834700,0.1732166322678327,0.0449862659350037,0.0263514158308506,6.355920932582021,-3.3518276714220643,6.673672292512655,-0.0432784184813499,-0.0050920625217258,0.0792652666568756,0.5754790303285859,-0.3922177464054995,-0.0768285985611642,-0.7135030208120595,-0.0118008907884359,-0.0221015885472297,0.012814805842936,-0.0294394449740648,0.0588850274279713,0.0413841589229647,0.0273652132600545,-0.0029492378234863,-0.0214671509206295,0.0239521004259586,0.0267405612789094,0.0678565616518259,115
1733294480926834700,0.10729366902709,-0.0095262454971671,0.125486912843585,6.350317121225595,-3.3788673617780205,6.665366820982098,-0.0548736229538917,0.0018480928847566,0.0380512773990631,0.57579614380442,-0.3929693804448685,-0.0757359475677701,-0.7129502006423875,0.0186366438865661,-0.0393573269248008,0.0002554045058786,0.0940273602187633,0.1100537813901901,0.008503626734449,0.0512050241231918,-0.0068790484219789,-0.0799906515598297,0.0313591286540031,-0.0366080214291811,-0.0646188949048519,116
1733294480966834400,0.0681803867787122,-0.0403252883866429,0.105962128162384,6.342144920685887,-3.403135541594028,6.660799951457977,-0.0349903181195259,0.0070695825852453,0.0612739026546478,0.576233819905902,-0.3934643979391244,-0.0746959613233008,-0.7124330746931997,0.0077789356000721,-0.0392394587397575,0.0388205721974372,0.0971171429276466,0.1336822019979357,0.0002887515302165,0.0421431399881839,-0.0260738674551248,-0.0245230313599109,0.0002585817128419,-0.05087254749462,-0.0062070379465818,117
1733294481006834400,0.2541939567774534,-0.1096080834493041,0.1733902352690696,6.334349736765026,-3.423335741318762,6.657865651571751,-0.0291501805186271,0.0242642499506473,0.0241102632135152,0.5765415312027253,-0.3938319628306387,-0.0737543538982586,-0.7120791305523575,0.0166661702096462,-0.0403254404664039,0.0493618324398994,0.0704091687440872,0.0238084533497691,-0.0745686265110969,0.0496342256665229,-0.0359128043055534,-0.0546715013861656,-0.0219522640109062,-0.0236241097588092,0.0433329457700252,118
1733294481046834400,0.1097346324384212,-0.1593488504350185,0.1583113240808248,6.320642113929987,-3.43300081076473,6.665911595383286,-0.0106803542003035,0.0397099629044532,0.0053992443718016,0.5766316332840168,-0.3934866226194886,-0.07281050172237,-0.7122941932147219,0.0133406808599829,-0.0224855113774538,0.0173963084816932,0.099330142802,0.0450002944603562,-0.0907464388519525,0.0622730106115341,-0.0220020581036806,-0.1275467679828405,-0.0497511476278305,-0.0511227959286421,-0.0681470690310001,119
1733294481086834400,0.0276414556413888,-0.0748679017186164,0.0752893420010805,6.314748379716277,-3.429944053542614,6.673067312356829,0.0578756853938102,-0.0055015282705426,0.0164734162390232,0.5770501066114403,-0.3930094303544547,-0.0728823729593242,-0.7122113785687927,-0.0290776155889034,-0.0153379580006003,-0.0092143304646015,0.1007844332635402,0.1006537926211953,-0.0525572857111692,0.0403947122395038,0.0097682531923055,-0.1621586471587419,-0.0756727531552314,-0.0861592571921646,-0.1122580134361982,120
1733294481126834700,0.1149275249063968,-0.0552519316226243,0.1101414596736431,6.315449221462011,-3.410803592003882,6.682208065667748,0.0777604728937149,0.010554508306086,-0.0266215074807405,0.5774509067716111,-0.3922357974759773,-0.0738462697210403,-0.7122137020962905,-0.0401366576552391,-0.0177438594400882,-0.0241243038326501,0.1072533370167016,0.11657207724303,0.0015519056171178,0.0088381469249725,0.0652509406208992,-0.1168383269637823,-0.0852703005075454,-0.0699240886408835,-0.1534814197063446,121
1733294481166834700,-0.086124039748311,0.0067319386035203,-0.0374222604215145,6.317482773116231,-3.379264252141118,6.696295627731084,0.1206522732973098,-0.0150384809821844,-0.0091699892655015,0.578029466940191,-0.3910169891098297,-0.0754298686062209,-0.7122485483532823,-0.053418643772602,-0.0147075876593589,-0.0047476766631007,-0.0373638082325458,0.1332283207505941,-0.011945289337635,-0.095802903175354,0.0157717391848564,0.0894920548766851,-0.0868234559893608,0.0637967648670077,0.0492979916542768,122
1733294481206834400,-0.0888560950607061,0.0333288536280393,-0.2866910357564687,6.329491775339841,-3.3519913375511763,6.698661772340536,0.0374502725899219,-0.0633447915315628,-0.0264393277466297,0.578405729838203,-0.390515805141777,-0.0772056749592802,-0.712027679763129,-0.0665938332676887,-0.0058471453376114,0.0139851989224553,0.0537912114202976,0.1041127009034156,0.0219213244289159,-0.044203583151102,-0.0243419893085956,-0.0160597389191389,-0.110089898109436,-0.1113123300839215,0.1212643267124891,123
1733294481246834400,-0.0384878438264131,-0.1198775485292077,-0.1236380701065063,6.346012117508053,-3.3520141339048743,6.683002430915832,-0.052472461014986,-0.0371575020253658,0.004182681441307,0.5779808455432928,-0.3914314089251521,-0.0777377735149677,-0.7118121685760179,-0.0390769876539707,-0.003850306617096,0.0213401839137077,0.0501718518793582,-0.0116667646571993,0.0414601376354694,-0.0041740126907825,-0.0567539744079113,0.0685913056671619,-0.0305943191051483,0.0025081834286451,0.0608668488949537,124
1733294481286834400,-0.0055067807227373,-0.0356064431712031,0.0300789119213819,6.345352776816487,-3.369098247435689,6.675032474949956,-0.0114771667867898,-8.79505678312e-05,0.0404188334941864,0.5780196248999805,-0.3920772146313399,-0.0770941766001792,-0.7114950649826357,-0.0419023334980011,-0.0062012923881411,0.0191685743629932,0.040647652208805,0.0058189154118299,0.0515770425021648,0.0879776328802108,-0.0682689249515533,0.0035831191837787,0.0468619614839553,0.0386653192851692,0.2351274372577667,125
1733294481326834400,0.0210597391635179,0.0651154462501406,-0.0467114822924137,6.347217401644588,-3.3800369900792835,6.667726535850763,-0.0236379280686378,-0.043935727328062,0.0151284709572792,0.5784019881121807,-0.3925731717443709,-0.0769861478762987,-0.7109224320175309,-0.0462467484176158,-0.0166774746030569,-0.007305908948183,0.067585928016901,-0.0312339271754026,0.0678542235642671,0.0940811336040496,-0.0542611256241798,-0.1504752236276865,0.0512052513659,0.023763737425208,0.1094394488841295,126
1733294481366834700,0.0569417844057083,-0.0468178652763366,0.1401385385304689,6.359219389605522,-3.391854269123077,6.650266282483935,-0.0453444644808769,-0.0406684949994087,-0.0008717448217794,0.5780346101829613,-0.3937212917242184,-0.0769046921133908,-0.7105950136985474,-0.0470203980803489,-0.0132840750738978,-0.0199312232434749,0.0738116706639528,0.1001867596313357,-0.01420329625585,0.0728145837783813,0.0167546421289443,-0.1366442666739225,0.0027333833277225,-0.0012419628851115,-0.1147077446758747,127
1733294481406834700,-0.0026882161706686,-0.0661763534799218,0.0939303295850753,6.361838047671318,-3.406613154576718,6.640210752415657,-0.0325938276946544,-0.0148357823491096,0.0361266806721687,0.5780891010092764,-0.3944483985428721,-0.0765110649283179,-0.7101898381703616,-0.01573171839118,-0.0170131940394639,0.0123054757714271,0.0010924714118242,0.0400590386658906,0.075129767525196,0.1522220373153686,0.0778497159481048,-0.1361053374916315,-0.0444257743656635,-0.0360900619696825,0.0043564416438341,128
1733294481446834700,0.0455523753851652,-0.0824871445506811,0.119147772949934,6.364922569683194,-3.424269807298481,6.628161418181658,-0.0649157464504242,-0.0342524796724319,-0.0015532544348388,0.5778676565250686,-0.3953480868622811,-0.0758794880440277,-0.7099374930157927,-0.019105676561594,-0.0169613137841224,0.0231018643826246,0.0829804810255765,0.0734355308279395,0.0534656327277421,0.1253007054328918,0.0602636523544788,-0.0041115269720554,-0.1135961413383483,-0.0135185300037264,0.0528220741271972,129
1733294481486834400,0.0052028293401002,-0.1206996785670518,0.1113525890290737,6.371603654882311,-3.4378321764439344,6.614708646890521,-0.0153642855584621,-0.0206936914473772,0.030429745092988,0.5776592903065929,-0.3962727741181693,-0.075575235511518,-0.7096239141135066,-0.0542298406362533,-0.0218744743615388,0.002196982037276,0.101560678333044,0.0536275452911853,-0.0267950702284113,0.1150286346673965,-0.0554954968392849,0.0851893892467021,0.0262933075428009,-0.0196650699347257,0.047719782552123,130
1733294481526829800,-0.0005821838021278,0.010477554872632,0.0319675021469593,6.368410411798954,-3.446755487611889,6.613139205616712,0.0288812071084976,-0.0117141408845782,0.0391525812447071,0.578235678914403,-0.3964035852791538,-0.0754184582896819,-0.7090978565930596,-0.0599303394556045,-0.0034365048632025,0.0104831419885158,0.0498579636245965,0.0123436410054564,-0.005017533617781,0.0484426356852054,-0.0765710994601249,-0.1255957343797665,0.0670022740960121,-0.0151078336053411,-0.0653186498051974,131
1733294481566829800,-0.0058902270823717,0.0310804901793599,-0.1392880591809749,6.3669847629100085,-3.4458103157162663,6.615004999488591,0.001683063339442,-0.0258118063211441,0.0222105495631694,0.5788597600236608,-0.3962231531073129,-0.0757352321560097,-0.7086556846712343,-0.0565457269549369,-0.0009616825263947,0.0100963842123746,0.0148386726915836,-0.0403752650082111,-0.0030137902966467,0.0187069233506917,-0.0546320527791976,-0.1531733766704797,0.0395181812345981,-0.026461086750403,0.0065115738511085,132
1733294481606829800,0.0865466490745544,-0.0566948239073157,0.1140595099002122,6.368670524039864,-3.459339951635897,6.606314912554621,-0.0515102483332157,0.0040566944517195,0.0187313538044691,0.5787569933951534,-0.3968724717298658,-0.0752589442011123,-0.7084270226899381,-0.0200292579829692,-0.010473215021193,-0.0044530644081532,0.0185807818293571,-0.0698483199909329,-5.08534044027e-05,0.0335886776447296,-0.0519715063273906,-0.1038332994401454,0.0311027318239212,-0.0025374095231294,0.0139601362913846,133
1733294481646829800,0.0723573802024126,-0.0782940767750143,0.0520411528825759,6.363705595108867,-3.475449667176604,6.6026423615217205,-0.0106896050274372,-0.0068299667909741,0.0266995392739772,0.5789556358122971,-0.3972430256763281,-0.0745446446315805,-0.7081323658380747,-0.0074383672326803,0.00035738106817,-0.0190142299979925,0.1120265427678823,-0.0032739071041345,-0.0475432569414377,0.0314517505466938,-0.0433546304702758,-0.0953068786352872,0.0083794761449098,0.0031333295896649,-0.0047083238214254,134
1733294481686829800,0.0512765982508659,-0.0787906281203031,-0.0096223993480205,6.369374288395047,-3.478394488456845,6.595622253626584,0.0165230296552181,-0.0342680364847183,0.0132826482877135,0.5791559789824582,-0.3976423779160474,-0.0748156325464702,-0.707715758995136,-0.0176214948296546,-0.0091129262000322,-0.0241356883198022,0.0262105460554361,0.0893438785776495,0.0155576323326094,0.0303578786551952,-0.0362130403518676,-0.0554974308162927,0.0207399521023035,0.0169474815391004,-0.0372679466426372,135
1733294481726829800,0.0484644634395837,-0.0385015800908207,0.0296715001642704,6.371437650665641,-3.4764857322260734,6.594634996154904,0.0130727719515562,-0.0019333506934344,0.0118789384141564,0.5794639178356875,-0.3976414906878394,-0.0751559808981426,-0.7074280113272636,-0.0123654818162322,0.0008746735984459,0.0032942709513008,0.0986205332279205,0.1979997758686542,-0.0091144498258829,0.011060856282711,-0.0236966088414192,-0.079091072371602,0.0181809067726135,-0.0206853528931736,-0.0867950708776712,136
1733294481766829800,-0.0864782600134611,0.0180137955963611,-0.1326683487802744,6.36916269147098,-3.47898193295598,6.595516455164551,0.0016134006436914,-0.0219101160764694,0.0263895466923713,0.5798095852744183,-0.3975858368991363,-0.0751514789938627,-0.7071765431350884,-0.0910395234823226,0.0082370350137352,-0.0058363769203424,-0.0328822789043188,0.073637775401771,0.0326116452693939,0.0047208038158714,-0.0284701585769653,-0.0809966137319803,0.016954468563199,-0.0032703999727964,-0.0342471375167369,137
1733294481806829800,0.0755254888445138,-0.0268085119485855,-0.0999298622608184,6.375800522050261,-3.495062130141258,6.580584843492508,-0.0925977304577827,-0.0352263264358043,0.015639055520296,0.5797300670809774,-0.3986024214453417,-0.0748308979248046,-0.7067032512868762,-0.0494092553853988,0.0047501055523753,-0.0120405424386262,0.0547159250497817,-0.0428200278118252,-0.0040139118164777,-0.0016192491166293,-0.0332437083125114,-0.0828916336983442,0.0157280303537845,0.0141443337518721,0.0183002113223075,138
1733294481846829800,0.0691717359036207,-0.0671004825875163,0.2839502126157283,6.3755702204257245,-3.5197128795340653,6.567656972858309,-0.0136588066816329,0.0109742134809494,0.0298101250082254,0.5793814156359279,-0.3996347308665194,-0.0737209217901773,-0.7065228798417619,-0.0352156721055507,0.005826395470649,0.0010269887279719,0.0442757795780897,0.0091293551340699,0.0705342564284801,-0.001794473384507,-0.0240370333194732,-0.0652735594213008,0.0111342649906873,0.0398414503924548,0.0907090294510126,139
1733294481886829800,0.0703279202014207,0.0041954058632254,-0.0032160394370555,6.372468747279048,-3.5230730036169287,6.568865179604291,0.0044860634952783,-0.0226352624595165,0.0128082511946558,0.5799291909835419,-0.3995502005178802,-0.0737612688192951,-0.7061169779928601,-0.0072580706328153,-0.0031702951528131,0.0067439298145473,0.0102308866351842,-0.0616059768244624,-0.005561140687656,-0.0073328292928636,-0.0352236032485961,-0.0457201331675052,0.0388155654072761,0.0328695655532181,-0.0229623579144477,140
1733294481926829800,0.0115220954895019,-0.1534329043895006,0.0510293454915285,6.3812956123352045,-3.530644607914984,6.556219048520922,-0.0474812425673007,-0.0340925231575965,-0.0031081377528607,0.5795349694334966,-0.4003713533328317,-0.0736793152283898,-0.7059840640851998,0.0103419618681073,0.0094016892835497,-0.0046136528253555,0.0692617522746324,0.0641328649535775,-0.0903273366570472,-0.0225855782628059,-0.0327226221561431,-0.0681038144111633,0.0419579148292541,0.0417673769537359,0.001773439413309,141
1733294481966829800,-0.0176566527217626,-0.1556333370432257,0.0787093795776367,6.383988504680991,-3.5393680125966664,6.548889728546143,0.0235421564429998,-0.0206696912646293,0.0376392640173435,0.57970411602765,-0.4008551724150292,-0.0735845959948034,-0.7055803545999153,-0.0095625044777989,0.0201520714908838,0.0058171502314507,0.0409434202849864,0.0281140415892004,0.0190273565530776,-0.0212763510644435,-0.0219621341675519,-0.062539166021347,0.030570849776268,0.0359999725334346,-0.0357820919990539,142
1733294482006829800,-0.0156330379396677,-0.0172951259329915,0.0293313084244728,6.389446770086884,-3.5400396282479165,6.543201161515713,0.0190800298005342,-0.0477340668439865,0.0129253966733813,0.580244653801077,-0.4011169571559662,-0.0741267300306748,-0.7049302658085503,-0.0372402071952819,0.0226561874151229,0.0043897624127566,0.080450670287013,0.1097284949585795,0.0011421557724475,-0.0175778493285179,-0.0078709563240408,-0.0720101741999387,0.0111976340413093,0.0414426019787788,0.0488712906748056,143
1733294482046829800,-0.0576671760708093,-0.0316539061531424,0.001370703831315,6.399757736220956,-3.5443852562367915,6.530759613093734,-0.0041873878799378,-0.0490296296775341,0.0403914265334606,0.5805755128891853,-0.4018103528024834,-0.0746483020556438,-0.7042074574799172,-0.0266493447124958,0.0114188743755221,0.0227473303675651,0.0250239666193723,0.0223708217620849,0.0541524459481239,0.0008947905153036,-0.0031339204870164,-0.0377571914643049,0.0074773095548152,0.051577115567401,0.0483037199199199,144
1733294482086829800,0.0376519775241613,-0.0425859267950057,0.093158760690689,6.40334903871119,-3.5575448898002504,6.520075137472152,-0.0003957003355026,-0.0373518355190753,0.0402996800839901,0.581074997082615,-0.4024915499917336,-0.0746273016626221,-0.7034082627689712,-0.0246208161115646,0.0115936836227774,0.0126492232084274,0.0968166986763477,-0.0217304780319333,0.0441068527519702,0.0098511986434459,-0.0046353978104889,-0.0119143096774816,-0.0205122008919715,0.0537109857909381,0.0441232193648815,145
1733294482126829800,0.0500514403700828,-0.0213970082938671,-0.0065074821978807,6.411599565184116,-3.562124326545,6.509458466389775,0.0237056631594896,-0.0642050951719284,0.0203637816011905,0.5815674804780474,-0.403068421186954,-0.0751387499227765,-0.7026160373028799,-0.0292129069566726,0.0071326228789985,0.0180009789764881,0.0374023866772651,-0.0332005510732531,0.0848246475875377,0.0220923610031604,-0.0125215854495763,-0.0089192195147275,-0.0295563712716102,0.0456553243029862,0.0054448214024305,146
1733294482166829800,0.0626923107564449,-0.0076402856200933,0.0871077900886535,6.421254697757959,-3.56211468193382,6.499939527416229,0.018421996384859,-0.0275846514850854,0.0329389497637748,0.5819826447601926,-0.4035385880259252,-0.0758414924787506,-0.7019265295709977,-0.0522066392004489,-0.0032221204601228,0.0088102770969271,0.1025724857240915,0.0227215348958969,0.0696259094119071,0.0343335196375846,-0.0204077735543251,-0.0059136079579591,-0.0386005416512489,0.0376108417961746,-0.0332394217789173,147
1733294482206829800,0.0751034640401601,0.0752694682568311,0.0694622432827949,6.416475062265992,-3.5685593280285595,6.501124937808513,0.0208980496972799,-0.0034972659777849,0.0376585684716701,0.582699582798945,-0.4034731988315999,-0.0757908488171578,-0.7013746573120396,-0.042470920830965,-0.0149547299370169,0.0043256464414298,0.0606131663948297,-0.0691799192100763,0.0853811124265193,0.0354237705469131,-0.0304629597812891,0.0005102876096963,-0.0368209853768348,0.0422602019719779,-0.0085784432530403,148
1733294482246829800,0.1479226165354251,0.1679459983885288,0.0564186373144388,6.415780650261044,-3.566215979772806,6.503094776576757,0.0196643061935901,-0.0088158855214715,-0.0074578993953764,0.5831320467343982,-0.4032922448717774,-0.0760907698681416,-0.701086674559381,-0.027874931693077,-0.0205927491188049,0.0170488972216844,0.0683984134435653,-0.1177741465091705,0.0402419985839398,0.0420786365866661,-0.0260680373758077,-0.0118903442800045,-0.0286668892949819,0.0664208297602832,0.0277782337635755,149
1733294482286829800,0.0241173731684684,0.0122965869933366,0.1137666644334793,6.418679294312,-3.563795474627614,6.501562160181999,-0.0140230599790811,0.0043609333224594,-0.0014024329138919,0.5829710520589881,-0.4033637425631169,-0.0762251227892509,-0.7011649504258323,-0.0113068744540214,-0.0157154891639947,0.0151612507179379,0.0939040261000394,-0.1322816875502467,0.0118529371623531,0.033677652478218,-0.026823703199625,-0.0325350729018449,-0.0226159542798995,0.0367844739746302,0.0494715946555137,150
1733294482326829800,0.1046516300857067,-0.0432619263604283,0.0652501785457134,6.420296081858873,-3.563004031988978,6.5003989616215225,0.0211130306124687,-0.0116229644045233,-0.0082593280822038,0.5829532887185703,-0.4034190440116522,-0.0763214168641208,-0.7011374337338767,-0.0268165916204452,-0.0005889997119084,-0.0002511288039386,0.1752402470499277,-0.0493581974089145,-0.0786111799001693,0.0239526778459548,-0.0202028919011354,-0.0196124629646539,-0.0328338332474231,0.0423896005053073,0.0483142413139343,151
1733294482366829800,0.1045627827584743,-0.132212129445374,-0.0333300226718187,6.426520070940256,-3.554559444248676,6.498871605923772,0.0136396680027246,-0.0171295814216136,-0.010601844638586,0.5829158215793259,-0.4034047777447231,-0.0769047795866147,-0.7011129606325133,0.0007029166445136,0.0184304453432559,-0.0012501471210271,0.1293757369756698,-0.0957505307495594,-0.0917184987545013,0.0142277032136917,-0.0135820787400007,-0.0066805006772279,-0.0430517122149467,0.0480032026033848,0.047151042753458,152
1733294482406829800,-0.0387666607677936,-0.0107756610363721,-0.142812726175785,6.429339804536104,-3.5495515529587864,6.498820167997479,0.0168601367622613,-0.021671038120985,0.0064029963687062,0.5830011903787385,-0.4033381218157999,-0.0772706638301416,-0.7010401682056695,0.0102524794638156,0.0252964999526739,0.0051737301982939,0.0718862555593252,-0.0783148273020982,-0.0185503912576707,0.0101979663595557,-0.0077025317586958,-0.0088683661103248,-0.0616221465170383,0.0634673137169331,0.0677466715365648,153
1733294482446829800,0.0291916076928377,0.0769914697438478,-0.1029004025042056,6.437098163577914,-3.5482846017628904,6.491826948109269,-0.0005652224645018,-0.0392781980335712,0.000883700675331,0.5830127481271817,-0.4036978607424077,-0.077697894725277,-0.7007760946092739,0.0167162381112575,0.0167366750538349,-0.0071942559443414,0.0196399354934692,-0.0165659348756074,0.0177343986996682,0.018001003190875,-0.0060655130073428,-0.0049742812812328,-0.0684943050146102,0.0763185389183461,0.0523351673930883,154
1733294482486829800,0.162943660056591,0.0538534630015492,-4.03320103883e-05,6.446549882534146,-3.549836799640953,6.481593138864636,-0.0099075008183717,-0.0222246795892715,-0.0143416170030832,0.5828469733259645,-0.4042847377187939,-0.0780036686120117,-0.7005417999184946,0.02078128606081,0.0070341923274099,-0.011561706662178,0.0777718064665794,0.0295575183957815,0.0097884035646915,0.0072253542020916,-0.0002052243798971,-0.0287438639253377,-0.0822561979293823,0.0685310999125242,-0.0260918881118297,155
1733294482641937400,0.1372375563919544,0.0007908581167459,0.0672118340075016,6.445919767937064,-3.5603701763540503,6.476439993885159,0.0107575189322233,0.0542824938893318,-0.0071907504461705,0.5810826898814976,-0.4048823498047069,-0.0765749939835972,-0.7018187619697248,0.0300096720457077,0.0272407140582799,0.0169091485440731,0.0343675490260124,0.0518704724907875,-0.0531774725692812,-0.0552204139530658,-0.0039657177403569,-0.0360390601515187,-0.0227371826767921,0.0618849124968517,0.0479622449719114,156
1733294482681720800,0.0319534736216068,0.1420008252710103,-0.1332896955490112,6.432540646404028,-3.5589755071252585,6.490493069157004,-0.0421462655067443,0.0636198371648788,-0.0196705646812915,0.5809674230000563,-0.4041212244162542,-0.0759142555996895,-0.7024243327949202,0.0204896703362464,0.0310047194361686,0.0161204524338245,0.036039281630516,0.1067366196662187,-0.0681131667613983,-0.0258946921676397,-0.0055208373814821,-0.016175181992352,0.0212373211979866,0.1487905950089916,0.0654893438967177,157
1733294482721720600,0.0147761288493871,-0.034526831240952,-0.0163660283893346,6.417096409034729,-3.575180791994929,6.496871372017264,-0.0919132381677627,0.0736241340637207,-0.0002098925760947,0.5802385538313596,-0.4040434434786975,-0.0741664016148034,-0.7032576744499165,-0.0281601585447788,0.03910893201828,0.0063931252807378,0.0005324994415044,0.0427937243267893,-0.0045464112579822,-0.0254239663481712,0.0122146718204021,-0.0153770173519849,0.0165790263563394,0.1251697366531938,0.0475385807663202,158
1733294482761720600,-0.0406669414311647,-0.0757622202098369,0.0709159492224454,6.39592502619028,-3.601132687114179,6.503411587440967,-0.0677432864904403,0.0538621544837951,0.0304483752697706,0.57997289304337,-0.4040120065575729,-0.0720596094453394,-0.7037137421231822,0.016277614980936,0.0293521750718355,0.0150639116764068,0.0776677615702152,-0.0688175156384706,0.0024994247334543,-0.0174693614244461,0.0188919976353645,-0.0198626383334398,0.0033349078148603,0.1290975776214152,0.0465741196483373,159
1733294482801720600,0.0315232655107974,-0.0581979219466447,0.0333382059782743,6.38598464693427,-3.618696985377371,6.503430876663327,-0.0325132496654987,0.0093355383723974,0.0021547160577028,0.5798121333691005,-0.404223665744263,-0.0708557127269604,-0.7038469913860664,0.0292184464633464,0.0121982749551534,0.0141403274610638,-0.06064999127388,-0.0450388729050755,0.0639314788962714,-0.0095147592946887,0.0255693215876817,-0.024349428358674,-0.0099092088639736,0.1330248340677469,0.0456079049646854,160
1733294482841720600,-0.0225613758981227,0.0778369806572794,-0.0140028063893318,6.391437067121267,-3.6181130480095742,6.498398143193126,0.0078782904893159,-0.0284749250859022,-0.0170418582856655,0.5796010776147913,-0.4045128539450346,-0.0710157939354611,-0.7038385921223412,0.0336781777441501,0.0154170244932174,0.0132291931658983,0.0348451034098863,0.0009141922354698,-0.020018687411677,-0.0171009916812181,0.0216566137969493,-0.0626806203186512,-0.0123842218890786,0.0772590346388518,0.0062070379465818,161
1733294482881720600,-0.0656365475147962,0.1189309153288602,-0.1170814880698919,6.401143053099513,-3.6192537424772975,6.488201743349433,-0.0500301755964756,-0.0260198730975389,-0.0057992553338408,0.5792355812167147,-0.4051177223482375,-0.0712278216699087,-0.7037701763334743,0.0322177000343799,0.0061231250874698,0.0080361627042293,0.0666115300267934,0.0669482146352529,-0.0105798462033271,-0.0233471114188432,0.0198335256427526,-0.0553752657413482,-0.0231298506259918,0.0737947925943881,0.0084603698313236,162
1733294482921720800,0.1176344457775354,0.0011938859596848,0.0413368035167455,6.408061454185843,-3.6376869325295087,6.471041349712014,-0.090235061943531,-0.0124253742396831,-0.016637897118926,0.5784880124188534,-0.4063301603573822,-0.0704593346234391,-0.7037634968457048,0.011650638654828,0.0064245946705341,0.0156812332570552,0.0386292981237173,0.0611748919308185,0.024964929908514,-0.0295932330191135,0.018010439351201,-0.0480611433357,-0.0338754802942276,0.070311042131856,0.0106990886688232,163
1733294482961720800,-0.0673456895202398,-0.056140404894948,0.1343716455668211,6.411381538519263,-3.652477966687083,6.459409364107251,-0.0303282905369997,-0.019790943711996,0.0112884351983666,0.5778439708723504,-0.4071883017815942,-0.0697098554141114,-0.7038710460298659,-0.0033024777658283,-0.0013910906855016,0.0133885834366083,-0.0120259533584117,0.1017278515934944,-0.0379798760379664,-0.0257730092853307,0.0197820477187633,-0.068593059232831,-0.047872208058834,0.0538937950119376,0.0077688804358243,164
1733294483001720600,0.0363350497066974,0.0429991837710142,0.0111328039109706,6.420677190130949,-3.6589918786257503,6.446477986341715,-0.0220243409276008,-0.0542904548346996,-0.0043135816231369,0.5777655188256803,-0.4079690835608994,-0.0698736300838023,-0.7034671883257777,-0.0093470541760325,0.0001313853135798,0.0137810669839382,0.0739835200995206,0.0719695499286055,-0.0189841019332408,-0.0142968315631151,0.0284749642014503,-0.044911154872179,-0.0383216626942157,0.0534870408419519,0.0267354467123746,165
1733294483041720600,0.1261421618819236,-0.0226502232253551,0.1112041204690933,6.432623648512363,-3.663223232585192,6.432148432216048,-0.0236166771501302,-0.0164436791092157,-0.0161174070090055,0.5772831264841347,-0.4088395253929797,-0.0700137733047155,-0.7033438234725298,0.0027239895425736,0.0057767541147768,0.0257770773023366,-0.014968436551094,0.0931239816382527,0.0037023616492748,0.0030154641717672,0.012107765302062,0.0080745853841304,-0.0341603644192218,0.0918863296020776,0.047768297868967,166
1733294483081720600,0.0047281975656747,-0.0045288756012916,0.0252460849374532,6.435374408525228,-3.667727558267116,6.426827529454231,-0.0214726570993661,-0.0125192133709788,0.0128226587548851,0.5771382109437626,-0.40919087250102,-0.0698986722303859,-0.7032698259563488,0.0108452998101711,0.0028773173689842,0.0399034842848777,-0.0633960751116275,-0.0822977594584226,-0.0456242715775966,0.0111425640061497,-0.0020972518250346,-0.0081651862770318,-0.012847488746047,0.1034377973165363,0.0602536854326724,167
1733294483121720600,0.0690752897918224,-0.0169315533176064,0.0402630368053913,6.434025332003832,-3.679865447567403,6.421238331145048,-0.0426502786576747,0.0144396778196096,0.0153930177912116,0.577004454736629,-0.409637842557511,-0.0693167325504348,-0.7031770379745899,0.0474110320210456,-0.005229078233242,0.0437791161239147,0.0107692312955856,-0.0814200998410582,0.009921656289231,0.0191882718354463,-0.0042781131342053,-0.0613034867465496,0.007632989436388,0.0778252171542495,-0.0113292032659053,168
1733294483278523600,0.060993105623126,-0.0564504937574267,0.0783960758447647,6.415771297910809,-3.696759883745015,6.429792224478721,0.0163365416228771,0.0242315549403429,0.0221238061785697,0.5777302970355946,-0.4092841546933922,-0.0682517644685888,-0.7028911090710139,-0.0483373329043388,-0.0114320069551467,0.0133057590574026,0.0604284574776887,0.0297787599310278,-0.0454641125798225,0.0182269774377346,0.0232410840690135,-0.0271801377229741,0.0092259515076875,0.0493796192228561,0.0057381777549948,169
1733294483318309400,0.0258826292753219,-0.0651665919154882,0.0793406632184982,6.410030708432197,-3.69612421618998,6.435880604481697,0.0243699550628662,0.0095604471862316,0.0145832672715187,0.5782035004105929,-0.4089009551022305,-0.0682745231488371,-0.7027228755098179,-0.0530979968607425,-0.0150050641968846,-0.0048918868415057,0.042594694623351,-0.0189309104412794,0.0326034619629383,0.0235102288424968,0.0277661010622978,-0.0694010694137774,0.0051686940714716,0.0155464944506646,0.0329653974603745,170
1733294483358309400,0.1188683714866638,-0.1226125264510512,0.1757335835248231,6.399046373081207,-3.692248543800413,6.44902241012752,0.0579097755253315,0.0575930178165435,0.0377739146351814,0.5788812322895014,-0.408079669296278,-0.0682814340638479,-0.7026415682020627,-0.016276866197586,-0.0206421762704849,0.021574342623353,0.0021621464699506,-0.1167094398871064,-0.0087456256466452,0.014352929778397,0.0286896619945764,-0.0277946003764867,-0.0104520786553621,0.0440869059424847,0.0889338364720344,171
1733294483398309000,0.160528415608406,-0.0677367346644401,0.0226221661746501,6.371901176524162,-3.6883170495703816,6.478084838482737,0.060466468334198,0.0802705064415931,0.0429450273513793,0.5801724824454366,-0.4063286957165187,-0.0678718949763238,-0.702631009362698,-0.004421804100275,-0.0063205482438206,0.0057556307874619,0.0982850176632404,-0.0665454790532588,-0.0838847272557672,0.0147557696327567,0.0134589513763785,-0.064583239069581,-0.0197926200926303,0.0671660221043974,0.106530867961049,172
1733294483438309000,0.1300210491418838,0.0238619371026754,-0.0335936420440673,6.34779023309648,-3.679658234557509,6.506616520962119,0.075920931994915,0.0651028305292129,0.0189515072852373,0.5812326944223298,-0.4045726018027994,-0.0676453493224758,-0.7027899222586075,0.0212393514811992,-0.008260341361165,-0.0038186328019946,0.0813631089568138,0.0038163434177637,-0.0138286097330506,0.0255197323858737,0.0315806493163108,-0.0504956770062446,-0.0281182900071144,0.0617134557869285,0.0831815565556287,173
1733294483478309000,0.2331751341462135,0.0169715930670499,-0.0678355188637971,6.328134515511989,-3.663938979639113,6.534573618423939,0.0635804161429405,0.076818823814392,-0.0128834284842014,0.5820406952202034,-0.402790873929475,-0.0677420017163367,-0.703135224940839,-0.0031149913556873,-0.0088777691125869,0.00249465694651,0.1026829603612422,0.2179670436203479,-0.0086029931724071,0.0137367406859993,0.0330618321895599,-0.021639584878087,-0.0281290039420127,0.0495547428943216,0.0459673859268426,174
1733294483518309400,0.1426928991883993,0.0575812513530254,-0.0514881951749324,6.302647607555985,-3.640952656327188,6.571946779006719,0.0697844848036766,0.1401493847370147,0.0025151779409497,0.5824952765401877,-0.4004381054073344,-0.0676260274108959,-0.7041131693221476,-0.0429289825260639,-0.0092374021187424,0.0091964341700077,-0.0228986450284719,0.1061705102160572,0.0034194439215119,0.004770322702825,0.025907851755619,-0.0129302087217569,-0.0333730466663837,0.034190658089146,0.0004641103804111,175
1733294483558309400,0.0141074358075857,0.0695189419060945,-0.3107102092474699,6.245083307337761,-3.6570799075245857,6.617785570117831,-0.0877399742603302,0.2362846434116363,0.1037678867578506,0.5836518289286619,-0.3979490042809748,-0.0649879752925019,-0.7048146151710817,-0.0782052129507064,-0.0024477797560393,0.0062431222759187,0.0551268439382314,0.1366781689435243,-0.0149812960326671,0.0062329871580004,0.0165260396897792,0.0012169745743274,-0.0463232919573783,0.0429932654868811,-0.0103676647573709,176
1733294483598309400,0.1526841318488121,0.0016568272963166,-0.0348918651610612,6.151098617216944,-3.7231434482797976,6.6687751681208605,-0.1699448525905609,0.3256553709506988,0.1089382097125053,0.5844135518239936,-0.3956617660263843,-0.058641700671373,-0.706026664109525,-0.0198886431753635,-0.0434542298316955,0.0203851740807294,-0.0506634347885847,-0.1217880583256483,0.0497603393358644,0.0181578826159238,0.0012917937710881,-0.0037397710502147,-0.0379351451992988,0.0805604142718017,0.017463760498166,177
1733294483755951600,-0.0249012170225381,-0.0792427558019757,-0.2000128692567348,5.931695987835526,-3.8680475937768817,6.784067434686422,-0.1090747416019439,0.0450175479054451,-0.0497292168438434,0.5833938550477965,-0.3902255586918795,-0.0428115227592362,-0.7110153542794332,0.0305542908608913,0.0017243284964933,0.0331940464675426,0.1079237836241722,0.1004182302996516,-0.0461503367117373,-0.0193304698914289,0.07715655118227,-0.1062554302868433,-0.0453641191124916,0.0170366645097616,-0.0425435946237761,178
1733294483795737300,0.0746381846159696,-0.083278002667427,-0.0905494549751281,5.923435524490476,-3.895435951440036,6.775609402942657,-0.1394898146390915,0.0454377643764019,-0.0620048157870769,0.5818747354578331,-0.3910132108776182,-0.0406046684339451,-0.7119562955885465,0.0026371704880148,0.0038191708736121,0.028632316738367,0.0299386266678571,0.0774634711697697,-0.0211830641490872,-0.0541129559278488,0.0809168294072151,-0.0212382398188696,-0.0497947297990322,0.032335632206453,0.0207210954934125,179
1733294483835737300,0.3559907819539308,0.2887859622091054,-0.3516162201315164,5.958716096708178,-3.892358735951781,6.7463792168051,-0.2079688459634781,-0.1310738027095794,-0.3368991017341614,0.5777220129167918,-0.3929757357604422,-0.0400058151303568,-0.7142877195033955,-0.0007860567420721,-0.0013908243272453,0.0161276441067457,0.0801981568306684,-0.0035737668335437,0.0200280580282211,-0.1043491512537002,0.068282701075077,-0.005380523994565,-0.077311135828495,0.031369243992865,-0.0236468330472707,180
1733294483875737000,-0.0597404752135276,0.134295365460217,-0.0165250183433294,6.074723233544826,-3.86685575364381,6.656992960390448,-0.2424669861793518,-0.2319043129682541,-0.3385915458202362,0.5705243414948713,-0.3985126913616484,-0.0421360573826394,-0.7168781456769099,0.0392761416733264,-0.0130769880488514,0.0152755659073591,-0.0048567923814058,-0.0610576952919363,0.0874842221856117,-0.1070622280240058,0.0540177077054977,-0.0058937342137098,-0.0867460370063781,0.005490048783645,0.0272790520697832,181
1733294483915737000,0.1615308706492185,-0.0689125004455447,0.2674906607240438,6.138959851133823,-3.875384804797173,6.592794336724281,-0.3039464354515075,0.0628005787730217,-0.177438199520111,0.5645415600916053,-0.4026805930387122,-0.0413445874201877,-0.7193272365398832,0.0328941419720649,-0.0163870323449373,0.0063690235838294,0.0456108275741338,0.0463712905526161,0.0049368764468701,-0.1097753047943115,0.0397527106106281,-0.0063251113682985,-0.0961809456348419,-0.0206025699805468,0.078003861656785,182
1733294483955737000,0.0602104308128356,-0.1550549526333808,0.2704711378395557,6.121019705295562,-3.9293034419894215,6.577544160622358,-0.2648879885673523,0.1640587598085403,-0.0554398521780967,0.5607780792362766,-0.4041193449986809,-0.0364162109486541,-0.7217267241049199,-0.0096288165077567,-0.0207148808985948,-0.0043752999044954,0.0393359850883483,0.1727881777226924,-0.0085457054606406,-0.0861236378550529,0.0108249392360448,-0.0014402619361877,-0.0874407663941383,0.0111589612655341,0.074452891176939,183
1733294483995737300,0.0170955117076635,-0.166901165510714,0.2385422141373157,6.096348789897561,-3.965640537522733,6.578647737950086,-0.1144999563694,0.0851399600505828,-0.0761362984776496,0.5584719688546261,-0.404369915764822,-0.032669229910318,-0.7235514583295313,-0.0115574784576892,-0.0091466950252652,0.0194884873926639,0.0860831232160329,0.0526572389543056,-0.0192892223596572,-0.0504551790654659,0.0079080099239945,-0.0296446121573448,-0.0931912660598754,-0.0010953209560364,0.062373161804676,184
1733294484035737300,0.0341401700109243,-0.1976031777665018,0.0316828399866819,6.100253396120667,-3.9605268477708098,6.578109393289685,-0.0655589550733566,0.0190658438950777,-0.1157082319259643,0.5564294103045208,-0.4044657942494693,-0.0318933293312333,-0.7251045498218697,0.0120668914169073,-0.0038184020668268,0.0231673773378133,0.1182417640209197,0.0531511599510908,-0.0232768261245219,-0.0195677913725376,0.0241183340549469,-0.057490650460124,-0.0753177627921104,0.0018234891001135,0.0596621492803096,185
1733294484075737300,-0.1168880113244056,-0.0496481202661991,0.123539870429039,6.105235860708356,-3.953307417911291,6.577829991826414,-0.029581319540739,0.0620193928480148,-0.0749562606215477,0.5547283462731,-0.4045191213412243,-0.0314368575017968,-0.7263969815378294,-0.023439172655344,-0.0009551312541589,0.0122637310996651,0.0235977332085371,0.0809022134467959,0.0164051913559436,-0.0002576280385255,0.0212543942034244,-0.0041676410734653,-0.0583555921912193,0.0452432363707572,0.0388525854855775,186
1733294484115737000,0.1041378353446721,0.1346317578077316,-0.2262596556693315,6.121085756269097,-3.925550811457634,6.57972267370522,-0.0283810570836067,-0.0711359307169914,-0.22990083694458,0.5525069037283179,-0.4043596686291551,-0.0319494363816593,-0.7281543359777017,-0.0064490027725696,0.0062137255445122,0.0174808632582426,-0.0191916072040796,0.0163180975943803,-0.0320844065248966,0.0157347042113542,0.0183588098734617,-0.0262134686648845,-0.0350173190236091,0.0280730519916862,0.0165589206129312,187
1733294484155737000,0.1703302631765604,-0.0521650715231895,-0.0032926118046045,6.207673321875929,-3.852179285776615,6.541857345691323,-0.0130844879895448,-0.1390619575977325,-0.3393459618091583,0.54786260583876,-0.4064066798874805,-0.0359404394524422,-0.730334503162573,0.0308469720184803,0.0025131034199148,0.0348059237003326,0.0227881703913211,-0.0240177121862769,0.0262403521052328,0.0151513060554862,0.014397744089365,-0.0130599725812673,-0.0248100012540817,0.0316338132131844,0.0160574008315801,188
1733294484195737000,-0.1160749413758516,-0.0190153738543391,-0.0984352397888898,6.259297126129269,-3.806469674003124,6.519384817120432,-0.1370293647050857,0.0606941059231758,-0.1639733463525772,0.5433905144829289,-0.4076773546084307,-0.037457436287979,-0.7328867473889229,0.0033186734654009,2.89067684207e-05,0.019599674269557,0.0709814156740903,0.0270657015800476,0.0069020299068419,0.0142837669700384,0.0110881170257925,-0.0213525846302509,-0.0071044340729713,0.0322622473098337,0.0298556245595216,189
1733294484235737300,0.0496282465219497,-0.0183367439404129,0.0243827461063861,6.248917186412215,-3.8249554710254072,6.518522062811255,-0.1626282930374145,0.1404704600572586,-0.0571938902139663,0.5407593256762092,-0.4079642785951611,-0.0348285474844732,-0.7348002684315831,-0.0041107470169663,0.0016916780732572,0.0163193922489881,0.0396913743972778,0.080921648799628,0.0116530238262144,0.0160611812025308,0.0070990100502967,-0.0211181913524866,-0.0128904953598976,0.0441997186671942,0.0227688811689615,190
1733294484275737300,0.051651276782155,-0.110135906715691,0.1316378366887569,6.217117442047596,-3.849574656236172,6.534418720123171,-0.1130694299936294,0.1143954247236251,-0.0477519370615482,0.5389848873327472,-0.4072390405518821,-0.0315236632708742,-0.7366532919950703,-0.0275692008435726,0.0110494932159781,0.0235608592629432,0.0859510212689638,0.0690866879686713,-0.0095148518868954,0.0177104771137237,0.0044071078300476,-0.0209895965367555,-0.0086849462240934,0.0709888683281838,0.0210065476715564,191
1733294484315737300,-0.1024450599521398,-0.1070417400926351,0.0015431377887725,6.213046247085929,-3.8573072963148354,6.533729568815231,-0.0457497090101242,-0.0227626599371433,-0.0378814786672592,0.5377423275522558,-0.4073704716268705,-0.0303610724587427,-0.7375369556232676,0.0032478333450853,0.0147939510643482,0.0324484929442405,0.0292453837066888,-0.0365330564968287,0.0057622167885303,0.0195493791252374,0.0113144190981984,-0.0376864643156528,-0.0025026849471032,0.0700963764678686,0.0015256021320819,192
1733294484355737000,0.0318698869913816,-0.1045475851893425,0.0118605336636304,6.218642459657788,-3.861447172598541,6.525956012204289,-0.0595393851399421,0.0335592329502105,-0.0253880359232425,0.5368352091628714,-0.4078881684168992,-0.0299347341467369,-0.737929014728309,0.004662238061428,0.0171094629913568,0.0281491540372371,0.0502484242469072,0.0051598669812083,-0.0252910885563818,0.0096952719613909,0.0133623545989394,-0.0450555317789316,0.0041944445110857,0.0542854977432638,-0.0224175835132598,193
1733294484395737000,-0.0459749847114086,-0.0182274383470416,-0.092442721375823,6.210445709198713,-3.878635038764775,6.5235676557630295,-0.0855060368776321,0.0204395037144422,-0.0018783397972583,0.5360631536192024,-0.4081411195106869,-0.0284857084534352,-0.738407518949209,0.0018683158559724,0.0106516703963279,0.0222953259944915,0.0168704707801342,-0.003399871571362,0.0593055954941781,0.0083829993382096,0.0178953893482685,-0.0717833797067403,0.0025323615409433,0.0249310276389122,0.0017687632381916,194
1733294484435737000,0.0110614922404289,-0.0193961898654699,-0.0690939944922924,6.210569627839327,-3.901258373983204,6.509944788601994,-0.0784093141555786,-0.0044997041113674,0.0107249813154339,0.5354881421367242,-0.4090730835038362,-0.0272835905789673,-0.7383543774167924,-0.0027858242392539,0.0027326012495905,0.01666946336627,0.0283189165115356,-0.0121472416505217,0.0292144040465354,0.0137115847319364,0.0161909256130456,-0.0805044463008642,-0.0076510296203196,0.0152131320271641,0.0037912089765071,195
1733294484591320300,0.2907306665360927,0.0525271828338503,0.1853133127748966,6.164335699930787,-3.958217986306548,6.519498214367031,-0.006018107291311,0.132716953754425,-0.0184432081878185,0.534638063155854,-0.4087617957703925,-0.0226250115862887,-0.739299648957853,0.000811839941889,-0.0077945552766323,-0.0033259480260312,0.0184492644041776,0.225211461790651,-0.0120715460658073,-0.0001744012115523,0.0304971672594547,-0.0890331047285813,-0.0028823427855968,-0.0222315639884443,-0.1185288647334557,196
1733294484631320600,0.4261170421034097,-0.0178960144355893,0.4354968648672103,6.123969202750921,-3.943909182707965,6.566046030530333,0.043470811098814,0.2725038528442383,-0.0951635316014289,0.5340375718675388,-0.4059267145278145,-0.0211735459995531,-0.7413359705940865,-0.0158598162233829,-0.0109084825962781,-0.0056422320194542,0.0620937603414058,0.1567602952465415,0.0089221444074646,-0.0101291332393884,0.0341155566275119,-0.0926490576028823,0.0124522373080253,-0.0438587962750345,-0.0491004232555627,197
1733294484671320300,0.0351765273213386,-0.128202309282124,0.4062842143863439,6.058964523398876,-3.8924104661390175,6.6564610454708335,0.2128355950117111,0.2783787846565246,-0.0659147351980209,0.5339475685917404,-0.4002440290601355,-0.0204856298838337,-0.7445032038262155,-0.0353719964623451,-0.0035721664316952,0.0048330454155802,0.0535574026644229,0.1013970122039318,-0.0251554817612632,-0.0082192327827215,0.0247535146772861,-0.031863457250595,0.0223966501653194,-0.0337448140177875,-0.0459054266065359,198
1733294484711320300,0.1751362021535634,-0.0761392368286848,0.0618833324611186,6.001904081049561,-3.800072958703339,6.7606935733616345,0.2639943361282348,0.30009725689888,-0.116244837641716,0.5347435600251712,-0.3934521875661139,-0.0222693419638923,-0.7474950619286714,-0.0172467902302742,-0.0109659535810351,0.0028123720549046,0.0078296707123517,0.0539671525090932,0.0023708162179915,-0.0057258587330579,0.0044016148895025,0.009833996272087,0.0378735587000846,-0.0062689972668886,-0.0185176534652709,199
1733294484751320300,-0.0438560928612947,-0.1050374145328998,-0.1914589759230613,5.940924419429898,-3.7210464760005473,6.857814223420619,0.1329716145992279,0.271248310804367,-0.1166117191314697,0.5346573875940492,-0.3870688741200824,-0.0229452048511438,-0.7508612431039642,-0.0143013326451182,-0.0177573338150978,-0.009269724600017,0.0146148008078336,0.0691901483431458,-0.0021159669573768,-0.0034806590992957,-0.0105053158476948,0.0119616559505462,0.0591482818126678,-0.004852700728178,-0.0170937581419944,200
1733294484791320300,-0.0387637381583452,-0.1223053601980209,-0.2022106715619564,5.886601293089986,-3.6621792764902112,6.935902840751409,0.0898867100477218,0.2639156281948089,-0.0929287523031234,0.5340145301187911,-0.3818975644617985,-0.0228388549058279,-0.7539636140340205,-0.0411579832434654,-0.0170167088508605,-0.0080733653157949,0.0821563051611185,0.1634367042705416,-0.0379986012880341,-0.0012354596983641,-0.0254122503101825,0.0141220488548278,0.0804229974746704,-0.0034396921250969,-0.0156967508256435,201
1733294484831320300,-0.1557826823860406,0.0063487845048308,-0.2018137811988592,5.804302364587784,-3.6405969747573135,7.016160618814825,0.0042411172762513,0.3280270397663116,0.0076086497865617,0.5338987080871911,-0.3766398040114889,-0.0204408721950701,-0.756754052281845,-0.1615664213895797,-0.0620699934661388,-0.0355418734252452,-0.0059662149280309,0.1927767805233597,0.1740671116173267,0.0095704197883605,-0.0342578925192356,0.0200917709141969,0.1015186756849289,0.0392566362418234,-0.0030862755775451,202
1733294484871320600,0.4340302994459867,0.19886545278728,0.0372059873223304,5.714279563835263,-3.638435412809253,7.090781267774105,-0.0192391481250524,0.3885672688484192,-0.1029019877314567,0.5334580304177469,-0.3717350446100824,-0.0168469087102326,-0.7595734441869411,-0.1379223465919494,-0.1344638615846634,-0.0192944630980491,0.0143032506406307,0.0643989685438573,-0.0131552496492862,-0.0132980979979038,-0.0409449264407157,0.0207370830804109,0.1271711587905883,0.0347997298981994,-0.0056043958783149,203
1733294484911320300,0.2705564780354499,0.1899222678750753,-0.1653711794644594,5.6254643853068345,-3.604203472861647,7.178736030080914,0.0141129717230796,0.3287411630153656,-0.1816271692514419,0.5309773679799616,-0.365785421448328,-0.0136873412158375,-0.7642491309075037,-0.0748051553964614,-0.1781652718782425,0.026878559961915,0.2480436174541711,0.214158591248095,0.2710603359043598,-0.0211231224238872,-0.0215162802487611,0.0395990199387073,0.1558398455381393,0.0905793386567384,-0.0003887070566415,204
1733294484951320300,0.3092717008769512,0.3468564583837986,-0.1815256109297275,5.576573805409669,-3.515133442789316,7.26058136959672,0.1473388373851776,0.178223580121994,-0.2963198125362396,0.527406447829061,-0.360029742687243,-0.0138544355021052,-0.7694342186873533,-0.1569181382656097,-0.2183896601200103,0.0449108891189098,0.1275380001544952,-0.0160636844418942,-0.0670370619624853,-0.0572635829448699,-0.0251218546181917,0.1387263336449861,0.201368898153305,0.1601698114290833,-0.0554366405397653,205
1733294484991320300,0.1452443372368812,0.3719540747612714,-0.51673722422719,5.573007052838802,-3.385805052086711,7.324500007277726,0.2073932737112045,0.1036562323570251,-0.3368352353572845,0.5241031850475414,-0.3553110054277347,-0.0175648367978749,-0.7737967256333895,-0.0746219307184219,-0.2931720316410064,0.0708873644471168,0.1028425348371267,0.2113715908780694,-0.1767980161522515,-0.0976842567324638,-0.039144892245531,0.1082137064814567,0.2479953467845916,0.2380525674568489,0.0614969634920358,206
1733294485031320300,0.1725087762594223,0.3051166270241141,-0.5466524700194597,5.618615542325377,-3.253725609110296,7.349476627624035,0.0715721547603607,0.039956048130989,-0.4840025901794433,0.5183896893489244,-0.3532576867997524,-0.0221352870785289,-0.7784543318267284,0.0768291056156158,-0.358056902885437,0.0761132836341857,0.0282668940633535,-0.3211471398487687,-0.165472922805883,-0.0784667357802391,-0.0634412690997123,0.1077221235722303,0.2283450663089752,0.3231948296261951,0.1206856500416994,207
1733294485071320300,-0.1294616616934537,0.074799804918468,-0.1851613370835781,5.624453746959567,-3.107953740867972,7.407869195359945,0.2321825474500656,0.1308482885360717,-0.3965197801589966,0.5124003985104039,-0.3487655591409546,-0.0258138613150252,-0.7843099213356918,0.041198942810297,-0.2522166073322296,0.1772862374782562,0.084579732915759,-0.1484765971563756,-0.021885668593645,-0.0592492073774337,-0.0877376496791839,0.1079401502370834,0.2086947709321975,0.4083928771033883,0.1791787555426359,208
1733294485111320600,0.2094318549871444,0.1528805312037467,-0.3256663708388805,5.678208718022704,-2.95050487883538,7.431207400849461,0.2527419030666351,-0.0629795938730239,-0.3953836858272552,0.5081873948661885,-0.3464881343903314,-0.032555175114901,-0.7878017385753396,0.0734394341707229,-0.2174073308706283,0.176703467965126,0.2688812382996082,-0.1704914450876414,-0.2528005296576768,-0.0114392861723899,-0.0517203882336616,-0.0212917943537235,0.2181925475597381,0.3399153340090066,0.1852577831953764,209
1733294485151320600,-0.0605067834109067,-0.063829790353775,-0.2816980497747659,5.718903716504573,-2.8056208993434906,7.456072962036728,0.1542888879776001,0.0176456179469823,-0.2788229286670685,0.5039733928463014,-0.3440568960426102,-0.0383526469071674,-0.7913057931033458,-0.0367547124624252,-0.129120871424675,0.2055762708187103,0.2454243748664855,-0.263997996302694,-0.1911632078468799,-0.0395530685782432,-0.0436655394732952,-0.0029091654449701,0.2459696382284164,0.3643374988103285,0.0788800599694252,210
1733294485191320300,0.2787695951074361,0.0089808865740895,-0.3940940103769302,5.75701279014647,-2.736724765510857,7.452350142121315,-0.0415384024381637,-0.0766782164573669,-0.1614395827054977,0.5009211170605307,-0.3439883771035731,-0.0413264569694572,-0.793121737276549,-0.0239084213972091,-0.0989293679594993,0.1886359006166458,0.2401531564652919,-0.6743857004851103,-0.0878472102791071,-0.1026570945978164,-0.0038705691695213,-0.0686573566406965,0.2224455177783966,0.3193148829203099,-0.0284147781014442,211
1733294485231320300,0.1765437308639287,-0.0564271128818392,0.0609843377947807,5.77454377066195,-2.7417960774257777,7.436907073795795,-0.0801557153463363,0.0238482914865016,-0.014161585830152,0.4990641026369085,-0.3451805452019617,-0.0409104189444891,-0.7937958354747046,3.148128032684326,-0.5948603749275208,0.3971477150917053,-0.6798351980626582,-2.7650118255794047,0.5686451061189174,-0.1353307515382766,-0.044188093394041,-0.051738955065608,0.1900276094675064,0.3593029387092217,0.1016454340070486,212
1733294485271320300,0.3552659748107195,0.0935091815635561,0.0522176784932613,5.733188846966624,-2.776511416976154,7.455998143234848,-0.1397701650857925,0.2279868870973587,0.0538736805319786,0.4988069239822956,-0.3441166199512804,-0.0378633211684761,-0.7945701701830523,4.189656734466553,-0.3558914363384247,0.5419085025787354,0.4758160157740115,-1.5846194075874984,0.2896118916392326,-0.1054195016622543,-0.0239392127841711,-0.0435650009602308,0.161170095205307,0.3039283305549994,0.2109662249475717,213
1733294485311320300,0.2824912459790706,0.3188286337733269,0.1292939039111137,5.65453032079339,-2.8321415342614054,7.495041282856464,-0.1444884836673736,0.2127219140529632,0.0043644504621624,0.4985362395230986,-0.3417517264790425,-0.0326342443134976,-0.7959915072833141,5.318722248077393,-0.7669798731803894,0.1724515408277511,-0.3124526690006255,-3.3144261615276336,1.170125144869089,-0.0547596663236618,-0.0288929995149374,-0.0449047251313924,0.1480898559093475,0.3280344151444733,0.3083084088027477,214
1733294485351320300,0.0887619870364666,0.4279582860559225,0.0488508324086666,5.62739447658658,-2.852985292586684,7.507548882251977,-0.0813360512256622,0.0309283807873725,-0.1014597341418266,0.4971338564451172,-0.3410413554577047,-0.0302049382468402,-0.7972680731427493,3.516479253768921,-0.4918935894966125,-0.1707490384578704,0.2964882071495056,-0.2741609322682022,0.188575383310765,-0.0040998272597789,-0.0338467881083488,-0.0460533106446266,0.135009616613388,0.3522151724053546,0.4054313969492912,215
1733294485391320600,-0.2009738232433796,0.1344979022949934,0.0114525373846292,5.632220289307832,-2.858051928326488,7.502001184996962,-0.1142197698354721,0.0328535251319408,-0.0939867794513702,0.4946285664990671,-0.3415537108537571,-0.0290768080201252,-0.7986477718657304,4.805227279663086,-1.3927971124649048,-0.6611517667770386,-1.445728384900093,-3.8329523149982094,3.0180063434392213,0.033045195043087,-0.0284081436693668,-0.1399766259670257,0.05906243622303,0.1875312080200761,0.262626269558072,216
1733294485431320300,-0.4081365642547607,0.1750657672658562,0.2076397108733653,5.63138676109314,-2.8659985034167765,7.499594708377122,-0.0027335560880601,0.0025270760525017,-0.0258729569613933,0.4933457252286994,-0.3418105045741109,-0.0281542440703406,-0.7993640756074104,3.144456148147583,-1.8400111198425293,-1.188506007194519,-1.3348451669484376,-0.4398718285484239,0.8297498651981353,0.1018925234675407,-0.0790983140468597,-0.2972434094309806,0.0373303927481174,0.0718615595094859,0.6736924575239419,217
1733294485471320300,-0.4612450541079044,0.2521770639970898,-0.135162503683567,5.637658680969476,-2.8509330362319947,7.5006246359467506,0.0237817205488681,-0.0231124069541692,-0.0340819545090198,0.4931405607796658,-0.3416685484597141,-0.0289340869941237,-0.7995235204293613,1.680193543434143,-2.307092666625977,-1.3560426235198977,-3.086642657291889,-0.9299318025238812,3.348159504303336,0.2295793890953064,-0.0348517671227455,0.2625765851974487,-0.0337736047804355,-0.1051007620926946,0.4126823909908533,218
1733294485511320300,-0.3561895193964243,0.0634369916439056,-0.4238566959559917,5.668474090471864,-2.8510359120845794,7.477324424380064,-0.1482373923063278,-0.1510832756757736,-0.0980933755636215,0.491729333801933,-0.3433661453764015,-0.0293638936517628,-0.7996497581750209,1.6788885593414309,-3.150627613067627,-1.5468579530715942,-3.593458791485429,-2.0312182428359984,2.01396491021812,0.2501478493213653,0.0059421323239803,0.4235615124017,-0.1171233355998992,-0.2432601460373029,0.4567822294801473,219
1733294485551320300,-0.4629004200994968,-0.3974877444684505,0.2706184373557567,5.731490810877085,-2.904265690229833,7.408484112387895,-0.3211238384246826,-0.1470257937908172,-0.0690962076187133,0.4882790607658453,-0.3485779731919777,-0.0276736241656801,-0.7995693145686438,1.710087776184082,-3.630909204483032,-1.9027760028839111,-3.70278367407918,-2.1698395086713136,1.928020903211832,0.2648277282714844,-0.0072130933403968,0.5205155737221241,-0.1728083789348602,-0.2071937206715345,0.5639969880521297,220
1733294485591320300,-0.8197942883729934,-0.3100575905576348,1.0026111081570386,5.768459482312202,-2.984962444232404,7.347466456845402,-0.2399970591068267,-0.1183396726846695,0.0208025276660919,0.4858049692281873,-0.3532599956348273,-0.0243073310940429,-0.7991308103703513,1.7924747467041016,-4.038141250610352,-1.7935724258422852,-4.06479853862822,-1.1818654131539166,0.5705477248698473,0.3056920766830444,-0.065625786781311,0.4952911160945892,-0.1595566719770431,-0.1954679193034768,0.5807108069658279,221
1733294485631320600,-0.8010884188592433,-0.1301440909996628,1.0952911454200744,5.80182749890685,-3.0442683274209497,7.296684948635101,-0.0957882776856422,-0.1491291224956512,0.0518732108175754,0.4851681578311673,-0.3570205303988753,-0.0225599505612265,-0.7978967129576005,1.1464067697525024,-4.055777549743652,-1.8820116519927976,-3.4432869347184893,-0.0587964723616838,-1.607875926142931,0.2820090353488922,-0.0816667899489402,0.4208651129245758,-0.1393645107746124,-0.1812771160613745,0.4397533532679081,222
1733294485671320300,-0.6379875224143267,-0.1100000053763389,0.961436801725626,5.850164536574483,-3.066955960047245,7.248430328553915,0.0085473991930484,-0.2124924957752227,0.0651854574680328,0.4858051487329879,-0.3603893886438525,-0.0235032667467509,-0.7959651009658709,0.5267856121063232,-3.889979124069214,-1.8679769039154053,-2.0262538984268903,1.1814177424516528,-3.703411450588703,0.25832599401474,-0.0977077931165695,0.3464250812292099,-0.1191723495721817,-0.1666742248870432,0.2980126402378082,223
1733294485711320300,-0.4847819970399141,-0.0003258709535002,0.8807184204131364,5.887446511742472,-3.084303692950308,7.21078478077054,-0.001663957722485,-0.0870427191257476,0.0919626951217651,0.4870057758458313,-0.3629715277540057,-0.0245754856033319,-0.7940232838929309,0.2539525032043457,-3.205185890197754,-1.521198272705078,-0.2871384872630238,2.460719082158804,-5.20409541451335,0.1912001818418502,-0.1059773936867713,0.1904372316598892,-0.0290573984384536,-0.0716846685726195,0.2118295637786388,224
1733294485751320300,-0.3414654129952192,0.3311152838945388,0.7055068149358034,5.887483921143413,-3.100308779072761,7.203888006994128,0.0106297954916954,-0.0141932107508182,0.0345145091414451,0.4881291353010296,-0.363467807145383,-0.0243943892071082,-0.7931115496557134,-0.0323695503175258,-2.466159582138061,-1.2150053977966309,-0.8879913340255617,2.6340646015033125,-4.770652559566497,0.086707517504692,-0.1007222011685371,0.2474719550460576,0.044444240629673,0.0117586807243525,0.3064467065840959,225
1733294485791320300,-0.4130792813539505,0.5195747857406735,0.525803158736229,5.888618478131294,-3.097830698521435,7.204027123203873,0.0166760720312595,0.0054118782281875,-0.002324909903109,0.488399472441725,-0.3634397749572682,-0.0246653523410729,-0.7929496099438055,-0.5778089165687561,-1.4503252506256104,-0.7338971495628357,0.2890445583463646,3.672136899141967,-5.830270918580889,0.0135671868920326,-0.1153210997581482,0.3071469638079405,0.1648045778274536,0.1162794509720057,0.6124497610539198,226
1733294485831320300,-0.5662608413308858,0.6845239404007792,0.1349491531938314,5.881387942355871,-3.1014702240675684,7.208366613712906,-0.0385155938565731,0.0227646511048078,0.0186094101518392,0.4885509428538933,-0.3631581595982047,-0.0243258401368868,-0.7929958851778267,-1.5378113985061646,-0.4720462560653686,-0.5100297331809998,-1.2120219203561544,2.747151759240031,-3.690795130121708,-0.0801378265023231,-0.0942781120538711,0.4108902468770742,0.2023516744375229,0.0795750564962625,0.569766803625226,227
1733294485871320600,-0.3356289619266986,1.0158236409515142,0.0904635302573442,5.88254471117556,-3.1147903088897464,7.201675591641664,-0.0683438181877136,-0.0478141121566295,-0.0495298504829406,0.4880720215681162,-0.3636774954581774,-0.0235673652033988,-0.7930756090704693,-1.4222885370254517,0.1062686890363693,-0.0099087497219443,-0.1331028677400201,3.2966175331145524,-3.9275171430945393,-0.1670943200588226,-0.1813723146915435,0.5899234564691782,0.2932343482971191,0.1514821356479078,0.7875842096418142,228
1733294485911320300,-0.1723807659655809,1.0693939030975104,-0.0599158317804336,5.914873447850346,-3.111947194418311,7.176380406865477,-0.1273776590824127,-0.0996736213564872,-0.1752465963363647,0.4853780333908824,-0.3654459835101081,-0.0235721695505533,-0.7939153995776579,-2.3403358459472656,0.8479925990104675,0.55398029088974,0.3938100058037787,4.087686077740789,-2.6013316679418086,-0.2574505805969238,-0.224732905626297,0.4026362132728099,0.4222544431686401,-0.0261370058951899,0.759158325624466,229
1733294485951194000,-0.202306533151865,1.228496085295081,-0.0618628741949796,6.000015490823984,-3.1103388824388385,7.106053071185946,-0.1547883749008178,-0.3432349562644958,-0.2542066872119903,0.4809265480971097,-0.3702574092968654,-0.024527071954281,-0.7943661017350446,-2.2617342472076416,0.9529913067817688,1.2704548835754397,0.3600429068889468,2.886862427747249,-1.3189327275454996,-0.2974759638309479,-0.2509920597076416,0.4396106933942064,0.4976333975791931,-0.1440559494362212,0.8125955359753221,230
1733294485991194000,0.0021440262913703,1.1751137469366193,0.020406828212738,6.177589149257541,-3.058601973199844,6.975150563034415,-0.092585951089859,-0.5107221007347107,-0.4639496207237243,0.4744013165896841,-0.3787769739851352,-0.0299047124181552,-0.7940888218403462,-1.880584478378296,0.8750985264778137,1.691434621810913,0.3045608197722584,0.4022767323106527,0.390496862667799,-0.3473065495491028,-0.2245533019304275,0.7847679831773042,0.5355068445205688,-0.1524515104030258,0.6095066933393478,231
1733294486031193900,1.3010276530206202,1.211273147815466,-1.0147060350984334,6.367899539667367,-2.91953603233695,6.862693227633834,-0.3506195545196533,-0.2661291062831878,-0.9544001817703248,0.4606988561038613,-0.3857386944754143,-0.0361342980073478,-0.7985341036964669,-2.50212025642395,0.6196553111076355,1.6532695293426514,0.9052440821215508,0.5613502729356289,-0.5602922883152961,-0.4196032881736755,-0.2285663783550262,1.3709277031987903,0.509451687335968,0.0083088325314223,0.1772387273907661,232
1733294486071193900,1.710531413975358,0.7360247027963399,0.3080085490733384,6.579241612190008,-2.747752647742629,6.733039258238673,-0.2096051275730133,-0.572081983089447,-1.068838119506836,0.4413794500931143,-0.3936545804899552,-0.0417925581357219,-0.8052785380735247,-1.8307342529296875,0.5812612771987915,1.298194169998169,-0.3962349679283797,-3.0581039605498312,1.3871189595431088,-0.5198399424552917,-0.2161899358034134,1.2542623947143554,0.5105789303779602,0.0830458378793671,0.1715896155878901,233
1733294486111193900,1.6581220123022793,0.7995996416062117,0.1368658004701137,6.79550477450192,-2.4580329118147493,6.629447366338968,0.1269958466291427,-0.1159057915210723,-0.9720690250396729,0.4240635515948016,-0.3988434749066044,-0.0540011891230024,-0.8112816413950559,-2.001585960388184,0.9368672966957092,0.7544114589691162,1.6866732762649654,-1.2145908940613268,0.7276070030629634,-0.7023829221725464,-0.4261261820793152,0.4342319594979286,0.5019196271896362,0.2304977681631222,0.2129106370136141,234
1733294486151193900,1.7694681715905665,-0.0432657257527112,-0.7420891174018382,6.836788971048593,-2.261751776432246,6.656814681214094,-0.5015736818313599,0.1501992046833038,-0.6818569302558899,0.4094765472829785,-0.3966064233065753,-0.0574477850249116,-0.8195926463740112,-2.84867525100708,1.2649126052856443,0.4551231861114502,1.588050404949486,-0.1755365996479988,1.3709013997137545,-0.7136058807373047,-0.2991864383220672,-0.9713555536717176,0.6431803703308105,0.0638874022925272,0.5395169190511108,235
