time_imu,phone_acc_x,phone_acc_y,phone_acc_z,phone_gravity_x,phone_gravity_y,phone_gravity_z,phone_gyro_x,phone_gyro_y,phone_gyro_z,phone_ori_w,phone_ori_x,phone_ori_y,phone_ori_z,watch_gyro_x,watch_gyro_y,watch_gyro_z,watch_acc_x,watch_acc_y,watch_acc_z,headphone_gyro_x,headphone_gyro_y,headphone_gyro_z,headphone_acc_x,headphone_acc_y,headphone_acc_z,frame_imu
1724682463246954200,0.1377366924199741,24.29682138860225,-4.395866476249695,0.0659202369941165,9.615548751473426,-1.925424456977844,0.0614207796752452,-0.0518953129649162,0.4260524213314056,0.2629307101725055,0.3256150837103906,0.7015298615953446,0.5767998809561005,0.2077909260988235,0.0474969670176506,0.1133452281355857,12.973587260234355,-11.082373700416088,6.229540870290994,0.2315042167901992,-0.594115138053894,15.463631805598736,0.3921790421009063,-2.530200614663958,1.765199262099713,0
1724682463286700800,1.50675714635849,24.03726327444315,-6.79867346766591,0.141800389061775,9.636285250031948,-1.814467443137616,-0.7532969117164612,-0.3361861705780029,0.1242580339312553,0.2651247585825447,0.3299673273122717,0.6954377436127737,0.5806864973923158,0.0792808979749679,0.9195714592933656,-0.3886674046516418,21.658710434317587,-14.18415547465086,5.849919621902704,0.250161737203598,0.4015405774116516,20.01935566632748,0.704431414604187,-3.065161477845907,3.5726167867258187,1
1724682463326446600,1.198844385809824,13.13197164955139,-5.193748208022117,0.2011650532328523,9.716643565860393,-1.3102502393960953,-1.851554274559021,0.2486155182123184,0.2173102498054504,0.273337359086186,0.3267697073215509,0.6782519643008365,0.598734092546563,1.0887588262557983,1.01365327835083,-0.4779609441757202,14.80648891633749,-15.024440762388704,5.327105708110333,-0.0014169071801006,0.5739646553993225,16.952911747455595,0.2981632351875305,-2.933389201122522,2.520826637119055,2
1724682463366193200,1.910814186214656,0.694561642551422,0.6838870307367295,0.2397773636891506,9.783962367373704,-0.6220870657101273,-1.2314558029174805,-0.4010474681854248,-0.1177090629935264,0.2816026211005398,0.316262661856223,0.6570354195585753,0.6236845625916009,1.3010281324386597,0.7613715529441833,-0.3322431743144989,5.88157440483868,-7.077812480607628,-0.4865732643708586,-0.1066873222589492,1.8746494054794312,3.142033120602369,0.1561120450496673,-1.3897864251866936,1.1490401981990783,3
1724682463445685500,-0.3759150873467325,-13.909481624424457,3.4633483104944225,0.2363033309030346,9.80222750738263,0.1756881186815909,-1.4485598802566528,0.4553615152835846,-0.122525006532669,0.3047207505361402,0.3144926940127312,0.6262082278315315,0.6450603205000934,0.9962653517723083,0.8209061026573181,-0.2722903490066528,-11.64705691716671,8.083447320500015,-4.330596131698787,0.1330222189426422,-0.7107781767845154,-3.901303089907765,0.2415388971567154,0.146886332290247,-0.7685032232053578,4
1724682463485432000,-0.7786491349708289,-12.291959918057918,4.711979421323537,0.2053874749671667,9.798996854898332,0.3284133679920807,0.8717035055160522,0.0208727568387985,0.0392507500946521,0.3029477402997936,0.3061130494559091,0.6241397105129252,0.6518949857954276,-0.1539933681488037,-0.0776211097836494,0.2780307829380035,-10.850571023666856,7.914039432865381,-7.827622547650336,0.0042873304337263,0.3903675973415375,-9.85017934512496,0.4729341268539428,2.8981664965718985,-1.5145717656321822,5
1724682463525177900,-0.0686352909393608,-10.674562130331992,-0.4827613048672676,0.2511931492599658,9.80127765931189,-0.2055721108190715,1.4619382619857788,-0.5868900418281555,0.1724331825971603,0.2973090113732439,0.3200785937734194,0.6387730072494305,0.6333452523056179,-1.2464268207550049,-0.2478723675012588,0.3377656042575836,-8.060698897597193,7.547991367277502,-4.90457353875637,-0.0738180428743362,0.0684596672654151,-10.232345601820946,-0.0366414152085781,2.943844836424291,-2.6759669299483297,6
1724682463564924400,-0.0039238223802298,-9.45530382898152,-2.7764170166909694,0.3051441908844746,9.784058813485505,-0.5911768540637568,0.4158145487308502,-0.3708899319171905,0.1252700835466385,0.2963044030374282,0.3350530210021223,0.6464372397095062,0.6181117965565398,-0.7776564359664917,-0.2739628255367279,0.2362973093986511,-7.004136419022083,5.26550996041894,-2.962485239486396,-0.0817088633775711,-0.0365535989403724,-9.26050138784945,-0.16874560713768,2.623433317373693,-2.556101071856916,7
1724682463604671200,-0.0233024035237729,-9.048869392469523,-1.617017848497629,0.3426290134144947,9.778351541754605,-0.660914735950157,0.0153733920305967,-0.2403794676065445,0.0952459946274757,0.2972813609745319,0.3408753842576891,0.6461433630960891,0.6147571977948123,-0.175227016210556,-0.0139220263808965,0.0120313903316855,-6.030138826408982,4.453499165529013,-3.933525443598628,-0.0725829750299453,-0.0168578531593084,-9.38500630391836,-0.2627693712711334,2.6997815207779405,-2.6486677118733524,8
1724682463644416800,-0.0775921755833551,-9.685733463811872,-0.5090706351220607,0.3333227673435583,9.781800220903754,-0.612911825607717,-0.2453885078430175,-0.2129250764846801,-0.1125498861074447,0.3012320570932209,0.3427905867581749,0.6432296786926432,0.6148247320200875,-0.0263134464621543,0.1168361455202102,-0.2225284576416015,-6.337973187959194,5.813698553964495,-4.119660009628534,0.0014396122423931,-0.0080128153786063,-9.285516002118587,-0.2195300906896591,2.797904918138683,-2.2120982493385672,9
1724682463684163600,0.3914913535978644,-9.163161542081832,0.788349348795414,0.2619761168199591,9.789543966898322,-0.5163082947580143,-0.1291915029287338,-0.0691375508904457,-0.2113176137208938,0.3066717478705903,0.3405246829433858,0.6405992014083791,0.6161395985668832,-0.1085406690835952,0.0276632867753505,-0.2871258854866028,-7.153772853738069,5.690117767003178,-4.220869390305876,0.0753831416368484,0.0289477948099374,-9.215216138967872,-0.168055772781372,2.9441826900765298,-1.7391538434781133,10
1724682463723909000,0.9333183031570166,-5.312521886962652,-0.1810369140973314,0.1825293628784828,9.790426594951748,-0.5334824611924588,0.1329201459884643,-0.1743272095918655,-0.2613902688026428,0.3103048343079189,0.3396916851414069,0.6417239239287845,0.6136047854762322,-0.2046797126531601,-0.0658085495233535,-0.2124768793582916,-6.607891952612996,4.139501020652055,-3.2610458689957853,0.1615458577871322,-0.5296518802642822,-9.327909621211884,-0.1273620575666427,3.262895003993809,-2.0876229977555574,11
1724682463763656000,-1.4298988014750182,9.356653485137224,1.8985586618840693,-0.0218852256356505,9.792918996289371,-0.5183020989237352,0.1841294318437576,0.0116032324731349,-0.3956123888492584,0.3170427879410419,0.3328263926695157,0.644711288070187,0.6107845791898007,-1.472580909729004,-0.9752715826034546,0.1013307720422744,-1.833573271754384,0.634993601295352,0.2917863130688667,0.1870036125183105,0.9331337213516236,5.808668743103742,-0.4070043265819549,-1.2202318956229834,0.6944034563150256,12
1724682463803402800,-0.176713991130609,13.38100603160858,-1.6658733570814133,0.0305179540759068,9.778256849208471,-0.7450878608264029,0.395490437746048,-0.1159615218639373,0.2702705860137939,0.314049386089211,0.3409182515058407,0.6494333344855198,0.6028134948770097,0.2938911914825439,-0.2202711403369903,-0.0273754708468914,18.091705349993703,-12.093208447039126,5.554288323843479,0.3927868604660034,-0.0023081772960722,9.834525848919151,0.3062648773193359,-2.16380797342211,2.6931948358640074,13
1724682463882895000,1.4200181895822286,10.326551825737951,-2.5945593973279,0.0646861286218976,9.74404127587378,-1.1044819484177977,0.1757711768150329,0.3247198462486267,0.1203473806381225,0.3042519372164204,0.3450832749879489,0.6612340300008278,0.5925520713452607,-0.0969082489609718,-0.0865742862224578,0.6032512187957764,9.269970642462372,-8.804078054809569,5.718129809522629,0.4871549010276794,0.4176768660545349,10.365782596886158,0.1258505582809448,-2.0499587452717125,1.69801811549142,14
1724682463922641400,0.8992777941282838,1.4728823492854832,-0.6529401768743991,0.1709303662278689,9.7485911942631,-1.051731478222087,-0.1110885366797447,0.1906671226024627,0.3914620280265808,0.2974298898336658,0.3428681558466208,0.6603520351914288,0.5982575322934561,0.6014058589935303,0.0027715726755559,0.4256095290184021,6.033382922896743,-5.363918312200903,4.050408194226026,0.2884910106658935,0.8374168276786804,0.2680828909961507,0.2135219722986221,-0.3701107484495267,0.4983472522621974,15
1724682463962387200,0.9632870327021926,-4.599063820761442,-0.7405974175393581,0.2737670558460988,9.75871803600192,-0.9289099121302364,-0.6085128784179688,0.2331176400184631,-0.0339861772954463,0.2944944250734283,0.3423721567224837,0.6558525213446471,0.6049065090179744,0.8759956359863281,0.1928003132343292,0.0283226799219846,-0.3868587984263896,0.6821814689278602,-0.2727636326909065,0.219253584742546,0.5356341600418091,-4.539836555767059,0.247246041893959,1.1006246154025197,-0.7003763201795518,16
1724682464002133800,-0.3108063630983233,-8.382931786856055,1.734848255238682,0.1967825272996909,9.7783006883502,-0.718659068910405,-0.266264259815216,0.2202705442905426,-0.27615687251091,0.2973048677494416,0.3331469425996147,0.6524220499650858,0.6123465108230189,0.4801494777202606,0.0957939773797988,-0.1264397352933883,-4.674302893880009,5.671346431037783,-3.3286429029285904,0.228406086564064,-0.0032817795872688,-6.59626522770524,0.2788272798061371,1.7648958952389655,-1.5280816739380358,17
1724682464041895000,0.0673983512892387,-9.638251581668854,2.118064167118072,0.0986992518867831,9.779210204410552,-0.7264346713479608,0.2910909652709961,0.1195524707436561,-0.2595052123069763,0.2982751852386857,0.327883716050776,0.6553854814599444,0.6115506118522404,-0.0256255511194467,-0.2600704431533813,-0.0500488243997097,-6.906001623484492,5.541051241129637,-3.742349960792065,0.2058159559965133,0.1155874878168106,-6.327655207562446,0.2743925750255584,1.4904235589340329,-1.4509253690212964,18
1724682464081642200,-0.389989497667551,-8.903569525653124,1.5727986214123666,0.0133515816472063,9.759198512995242,-0.963474664228782,0.8822392821311951,0.1595783233642578,-0.1781423985958099,0.2952897875663133,0.326787877262779,0.6650813632343332,0.603059322019082,-0.5539522171020508,-0.6804945468902588,0.2078102082014084,-7.587849330413341,6.081078155529498,-4.070085539120435,0.2332101166248321,0.1455139815807342,-6.708614426556229,0.3021861314773559,1.8724660431198767,-1.9976585030615328,19
1724682464121389300,-0.035795453804126,-3.06767492197156,-0.399967286324501,-0.0472534391154302,9.714427643376588,-1.340916888077557,1.0272923707962036,0.0775763913989067,-0.1350688487291336,0.2892254984118862,0.3285935249637667,0.6785234165395421,0.5898990812187646,-0.7117181420326233,-0.7733854055404663,0.4778571426868438,-5.8663797583162784,4.105444437271356,-2.286636188450456,0.4070781171321869,-0.3435053527355194,-4.509872502397,0.0579887181520462,1.674681079045683,-2.2834813776813445,20
1724682464161135600,2.4242940160810944,12.11091946029663,-1.9177141748614608,-0.1158344106182455,9.655962010404467,-1.708602784000337,0.8043397665023804,-0.0214395392686128,-0.5196133255958557,0.2842400883171878,0.3306797447475522,0.6912057616146492,0.5762750162446106,-1.2798266410827637,-0.5814301371574402,0.4517132341861725,-0.4047545206010341,-0.1805021131008863,0.2754458575122058,0.4089111685752868,-0.9929242134094238,6.754115364015102,-0.1048512831330299,-1.421778623383492,1.056801109636575,21
1724682464200883000,-5.881875433611869,27.33330972967148,-6.386132530972361,-0.2891794002397917,9.614162265551087,-1.9117225332312284,0.1557651162147522,-0.1682519018650055,0.3403295278549194,0.2884496703413888,0.3305652381164943,0.6987112059960369,0.5650895785032158,-0.3381105065345764,0.8618209362030029,0.0474235378205776,23.046503347599504,-12.215170108366012,6.048405135461688,0.5560259222984314,-0.714542031288147,15.44831031782627,0.3135745525360107,-3.259754367880523,4.413098181557655,22
1724682464240630300,1.4484144091136752,25.39426825075149,-7.268475922238826,-0.0630693639079108,9.674949619469048,-1.6005444142110643,-1.4057066440582275,-0.0388570204377174,0.5363968014717102,0.2867871567707625,0.3336643784260856,0.6857646385922785,0.5797827422374001,1.2425466775894165,1.098430037498474,-0.3382670283317566,22.33820076446533,-22.317882783579822,10.408574275386332,0.4424498081207275,0.0117557113990187,22.14877592471838,0.474126785993576,-2.6383915247917176,5.535927906766534,23
1724682464280376300,0.0970573755644261,7.605336471787095,-4.558676865315437,0.1948856441698037,9.747239779654144,-1.0600650068033486,-1.5970550775527954,-0.3310480117797851,0.8728011250495911,0.2923395923819403,0.3391625816073663,0.6625835912868037,0.6004076817502485,0.7825043201446533,1.5527397394180298,0.0673797354102134,14.070776932752132,-15.42887730308175,3.517423891814053,0.3156829476356506,0.9468240141868592,14.146917923146486,0.310891181230545,-2.5897967129707333,4.877157124042511,24
1724682464320123600,0.7211663024909793,-7.667128034311532,1.4367361001491543,0.4687517764762043,9.787791570273042,-0.3870286751005798,-1.5834084749221802,0.1492569744586944,0.5155444145202637,0.2973669196188801,0.3401400536854723,0.6356396107942272,0.62597121143369,1.5682110786437988,1.544116497039795,0.2328624427318573,1.9252280576229093,-2.7869886795878407,-2.1509069907948373,-0.0736524909734726,1.545548439025879,-5.126241774982214,0.7894691824913025,1.22054395724684,0.5588142151193692,25
1724682464359870000,1.4580046597577632,-14.03094176596999,2.2097119387239217,0.5426500659776852,9.790810041311383,0.126280583971925,-1.216421604156494,0.3291618824005127,-0.374627023935318,0.3009529822591401,0.3318774816145495,0.6192082197130319,0.6448765752412854,1.8426437377929688,0.9658151268959044,-0.4341239929199219,-8.07046041315496,9.71593220272064,-7.539782926380634,0.2342340499162674,-0.7954061031341553,-10.635247188031672,0.5078179836273193,3.504569086416065,-2.939797022338212,26
1724682464399617300,-0.2705226853637024,-12.762670719647408,5.492822924533486,0.3246914979247376,9.793711607971789,0.3849426260741427,0.4047788381576538,-0.1449983566999435,-0.474505215883255,0.3105254088765943,0.3191277894456432,0.6152486022253653,0.6505387169602477,-0.3337916433811188,-0.6283380389213562,-0.2941130995750427,-13.016930727398394,10.896924778562784,-7.575247038471698,-0.1719192415475845,0.7736133933067322,-7.749132363781332,-0.2919948399066925,2.0880473606474697,-1.5547895019911229,27
1724682464439364400,-0.7256475395582616,-11.177234588849544,-0.9674602997988462,0.2059560869016684,9.804460381001231,0.0235464893617783,0.8152634501457214,0.0012560451868921,-0.2404734939336776,0.3105861168413657,0.3231019220810427,0.628016409935845,0.6361893948648202,-0.808503270149231,-0.5714782476425171,0.1606429666280746,-7.798046909075975,6.480751427343487,-5.4960804650247095,-0.029622683301568,-0.0624731071293354,-9.29606428413987,0.207912415266037,2.211523225929588,-2.752891179674864,28
1724682464479110700,-1.1691736893631517,-9.47055692769289,-1.1512965257585048,0.2040111268463544,9.803051683247087,-0.1701537740984931,0.406506210565567,0.0378056615591049,0.3116912245750427,0.306517949148141,0.325161164300863,0.6347799978147565,0.6303739761719729,-0.259911835193634,-0.3319914042949676,0.477249413728714,-6.601829876095056,4.587812358906865,-2.488001056838036,-0.0180734060704708,0.018228655681014,-9.022308133280276,-0.1754365712404251,2.402053981091827,-3.89233272472769,29
1724682464558605300,0.1136786938890814,-10.03831706767082,-1.4081412893056868,0.3880562280500307,9.792761759901046,-0.3487533415136858,-0.0287906304001808,-0.030336245894432,-0.0036545218899846,0.2966698900250016,0.3329346153295253,0.6379153658390355,0.6278579419074762,-0.0855919420719146,-0.026276109740138,-0.0059458119794726,-6.304039354175329,6.830674287560582,-5.291359856468439,0.0561675764620304,-0.0478071123361587,-8.952172520780563,-0.5482226014137268,2.603217627818882,-3.55521498554796,30
1724682464598339300,0.6426218311514705,-10.37898227019906,0.1068096849024295,0.342891463742964,9.794946702724694,-0.3344089551450684,0.0222293939441442,0.1066241189837455,-0.2585527300834656,0.2981065149162899,0.3309872440766579,0.6383553524039396,0.6277598077111888,-0.0464349575340747,-0.2031357884407043,-0.2026968896389007,-7.157392213279008,6.183544258269667,-5.300519899001717,0.0751464441418647,-0.053730122745037,-9.142961050096154,-0.4036731123924255,2.474558806940913,-2.7210630859985945,31
1724682464638087000,0.3122153165807947,-8.212514429917931,0.3570341169944033,0.2179505856758914,9.794633983513712,-0.4336489719782024,0.5172593593597412,-0.1011708676815033,-0.3272556960582733,0.299546995415269,0.3275089092385591,0.6440868411331593,0.6230263049538761,-0.4698512256145477,-0.3983476161956787,-0.1621898114681244,-7.559546195992827,6.253377088430524,-5.036582546845078,-0.1157692819833755,0.1293824315071106,-9.155551651600003,-0.5924648642539978,2.21434982765764,-3.1178970427334307,32
1724682464677834000,-0.3678317706668749,5.252351203638315,-1.6233961513578892,0.0974365019419696,9.790268189519644,-0.5581708757145329,-0.2543343007564544,0.346991091966629,-0.4269645810127258,0.3013905758447768,0.3255469037289206,0.649983083102672,0.61701294798448,-0.5639801025390625,-0.6514648199081421,-0.2414264976978302,-4.200307663792372,2.617903448036313,-0.9483595857486128,0.2443148344755172,-2.2564074993133545,7.157090015462041,-1.1985924243927002,-2.529313894957304,1.9059049329936504,33
1724682464717580000,0.5753596917288377,15.556442191243171,-1.0549427684187889,0.0169059051364078,9.791120422434808,-0.551417236735858,0.0583869628608226,-0.2288334816694259,0.1850211769342422,0.3024897825175518,0.321130834041524,0.6519121431419652,0.616753991413094,0.1381388902664184,-0.1520023494958877,-0.6075753569602966,13.10196930999756,-9.984307245063782,5.346764348304271,-0.0287578776478767,-1.2759454250335691,17.751677276325225,-0.7339673638343811,-3.3715102770134804,5.267275216525793,34
1724682464757327600,1.8784248053938148,20.22593505449295,2.4846798034608364,-0.0070569293492531,9.794961315771936,-0.4786378317290917,-0.4053826928138733,0.1011875793337822,-0.6654551029205322,0.3052816205777786,0.3200957393123279,0.6495709787234181,0.6183846064912177,0.0159740913659334,-0.4763441681861877,-0.336521178483963,8.2320070658952,-9.421645889529586,4.693924709194898,-0.5472941398620605,0.0746000781655311,36.9218465555787,-0.5749453902244568,-7.6286016120404,9.920422509652376,35
1724682464797074000,-2.0740663276985285,17.49799126906991,7.199842530995607,-0.1188729015313088,9.78199135956168,-0.6847708278339356,1.603961706161499,-0.3463329672813415,0.2329892218112945,0.3047423740307742,0.3188446960327985,0.6582185478996797,0.6100971850099034,-0.6263933777809143,-0.0665737316012382,0.1985275000333786,14.109286403888463,-12.228698282980918,4.244873073966801,-0.1366151720285415,-0.0144517729058861,9.262985605880615,0.0943517163395881,-1.8204456407643848,3.7718876054435966,36
1724682464836821000,1.636954721111059,7.9249314137578,-2.9498551827549933,-0.0276024525049841,9.762233350646497,-0.9318943347685038,-0.468579888343811,0.3127160668373108,-0.0505465604364872,0.2990699735547851,0.3271030110865695,0.6637145525288837,0.6025311707293937,0.2258186638355255,0.0919944420456886,0.208953708410263,7.37154758965671,-5.3459232213050125,7.107152556860447,-0.3572810888290405,0.8646775484085083,2.8042367515087125,-0.0835486426949501,-0.7400826729502529,1.0642373971171677,37
1724682464876568300,-0.1746607118626125,-1.557533978393674,0.1779986058473587,-0.0017621125892299,9.777277190521358,-0.7584429438967257,-0.3370863795280456,0.0667120292782783,0.2119454443454742,0.2992782372549423,0.3232741786091608,0.6589109453142803,0.6097234994993159,0.6841340661048889,0.5442537665367126,0.0652659833431243,1.2381599856972694,-0.8190332408726215,0.6852475785002112,-0.2785140872001648,0.0364331528544425,-4.382712980166078,0.0211710873991251,1.1426934595208615,-0.0576216655618045,38
1724682464916314600,0.1509617650356143,-6.427967931661009,0.0516180686322972,0.0591296955045778,9.790921684992313,-0.5520064713332802,-0.5641308426856995,0.3363000750541687,0.0306675620377063,0.2981891927951082,0.3194222007296068,0.6527740458423957,0.6188202971264712,0.888484537601471,0.2700703144073486,0.000650838133879,-4.397708889245987,4.025164447376132,-2.487814009833336,-0.2448257207870483,0.0597923025488853,-5.523352502831816,0.2511796355247497,1.3146896831482648,-0.8476707218140364,39
1724682464955614700,-0.169465426508151,-9.245406110048291,2.1865689635455605,0.0787851390944328,9.793378430494666,-0.5038936708755791,0.2965452969074249,0.0503707155585289,0.0333849154412746,0.2960890947708157,0.3169707591191729,0.6520896916405043,0.6218036364818584,0.041678387671709,-0.0320543721318244,0.0398795343935489,-6.514496460556984,6.19989567361176,-4.500205679385364,-0.1793606728315353,-0.0285046752542257,-6.4128878514289855,0.2192791700363159,1.4534795835487544,-1.7729839246265588,40
1724682464995809000,0.3888784311531111,-10.040542927026747,1.439635328722,0.0628775722294347,9.782566529101132,-0.6839659411918372,0.671690046787262,0.0378679707646369,-0.105894535779953,0.2930485048892846,0.3184905776520405,0.6583587989033091,0.6158327417934817,-0.4051747620105743,-0.3931752145290375,0.2840782105922699,-7.783708002600074,6.4153609635442495,-4.325520143608749,-0.1704164296388626,0.0535995289683342,-6.4915194895952935,0.0803339928388595,1.364436587613821,-1.952695471871644,41
1724682465035555300,0.0957727608476765,-8.64212340579033,1.8200141174793243,0.027229397391912,9.748992176279424,-1.061500665629655,1.216042160987854,-0.0892799869179725,-0.050112847238779,0.2882679705969844,0.3232332675759243,0.6705532995316494,0.6023122346993139,-0.8667170405387878,-0.7835706472396851,0.467364490032196,-6.952442472141981,5.567475722196698,-3.76464537923038,-0.18793585896492,0.0793385952711105,-5.744909679898619,0.0001637513050809,1.2012633565850557,-1.818312428127974,42
1724682465075302700,0.0658072279065847,-5.096719912421703,0.5886101819135249,0.0106575670650578,9.677724344879389,-1.5848972016155718,1.42067551612854,-0.0499616079032421,-0.0966602563858032,0.2808518889535241,0.3313435844855247,0.6863080169932073,0.5833651131489637,-1.097960352897644,-0.8745192289352417,0.5809226036071777,-4.247479749333858,3.595724982851744,-2.5113500759825107,-0.2216622680425644,-0.0510388277471065,-4.164268089900911,0.0475174076855182,0.970706880504638,-1.142264274323359,43
1724682465115049700,-0.8042153187081217,6.335249315953254,-2.709117504400014,-0.0389925967444665,9.59771381957531,-2.013146287311613,0.6675915718078613,-0.0953035280108451,-0.0161687321960926,0.2761430324767881,0.337235498253036,0.699223938891058,0.566659650610109,-1.4405560493469238,-0.624191403388977,0.3835076093673706,1.1645979058802127,-1.2473171056210994,2.546070968490839,-0.3861802518367767,-1.179439663887024,7.011401441588998,0.1277824193239212,-1.863339464464784,0.5694781959421933,44
1724682465154780200,0.7939150200985372,31.10475719013214,-7.598699225729703,-0.1560098970043472,9.553725040245055,-2.2073514932028946,0.1803252547979354,-0.9558403491973876,-0.1506948471069336,0.2809156702693214,0.3417594819559312,0.7040909466933318,0.5554663429132688,-0.3698183596134186,0.6536585092544556,-0.1183917969465255,20.77169612863064,-17.284305263769625,8.879065783515571,0.223504900932312,-1.0007340908050537,16.110429826456308,0.2947844564914703,-3.260193051558733,2.718626506501436,45
1724682465194526700,-1.8225316532582043,29.795661965990064,-9.713290163779256,-0.1603160514993593,9.63264718579054,-1.8321487919092176,-1.6913541555404663,-0.3093502819538116,0.4071270823478699,0.2961474431445901,0.346373315195655,0.6880691236353877,0.5646972761486045,0.6665939688682556,1.5328139066696167,-0.2500893175601959,24.807550896847246,-26.622171046328543,9.487873973196743,0.2189559489488601,0.3033876717090606,23.3414788120985,0.7511119246482849,-3.083334847918153,5.054887434342503,46
1724682465234273500,0.2826635338060557,9.708461428448556,-5.701950243616103,0.125098753776215,9.75355495415032,-1.0113912114620207,-2.7070608139038086,0.1061265245079994,0.8113032579421997,0.3038924335982698,0.345490799207184,0.6574212553756071,0.5967267637551469,2.11782455444336,1.403964638710022,-0.1831579953432083,13.837940821301936,-17.145042923551795,2.876339572428167,0.0076225455850362,0.9639694690704346,15.856882935410738,0.6468465924263,-2.686360313668847,5.129125805985927,47
1724682465274019300,-0.4031840929465368,-8.617114636740087,3.116085024875402,0.3817859156088903,9.799100899794697,-0.0471670212073018,-1.6846438646316528,-0.0563912838697433,0.6427379250526428,0.3125113056153152,0.3385192063249674,0.6227436034890993,0.6324015775802694,1.7726556062698364,1.2886433601379397,-0.2071276605129242,0.4645031791210174,0.520924154523015,-4.767670913407207,-0.5050210356712341,2.009297132492065,-7.049453816607594,0.4860919415950775,1.4359524024255572,-0.4477305061595514,48
1724682465313766000,0.3451305113740265,-16.59433796327114,1.7172054849117993,0.5130411461882293,9.785079388704895,0.3992684173401445,-0.915123164653778,-0.2058189809322357,-0.1207741796970367,0.3190473128327635,0.3384137555662257,0.6042508638360793,0.6469667079379182,0.4640871584415436,0.5290187001228333,-0.4320723116397857,-11.85101063300371,14.162579602658749,-8.493587625792623,-0.1072612553834915,-0.8602325320243835,-10.509597193580865,0.6026474237442017,2.919519373463094,-2.152699719430506,49
1724682465393258000,0.139583699392993,-9.496177106639742,-0.3429927686929702,0.3031940249310806,9.801438987353444,0.1013283765476662,1.1143478155136108,-0.4041806757450104,-0.1501679867506027,0.3281230212345464,0.3438879298225907,0.6136568929536416,0.6304773397264404,-1.4764325618743896,-0.651067316532135,0.3700217604637146,-8.150911083441972,7.463453719937801,-4.53567709800005,-0.2700534462928772,-0.1056573539972305,-9.78688030064702,0.0454576537013053,2.815215826162696,-3.159283238349855,50
1724682465433004800,-0.2926903127038851,-7.766248333755135,-2.7835248028695583,0.3088509547142312,9.79907634987533,-0.2304764331141486,0.4544056951999664,-0.1015140637755394,0.0944218188524246,0.3258253146398838,0.3533454050697505,0.6220112958814864,0.6181318303530591,-0.4081228673458099,-0.4766722023487091,0.1364190578460693,-4.306358639281988,3.518288691949844,-2.4008941435322164,-0.1418304294347763,-0.1393994837999344,-9.06913301281929,-0.0979819670319557,2.61632406989038,-3.3890710681453347,51
1724682465472751600,-0.221667067182064,-8.411581542757153,-1.72263160161376,0.334793168689683,9.797674666383864,-0.2527338576296344,-0.1260048002004623,0.2707434296607971,-0.0479756481945514,0.3226626150538174,0.3525818522533212,0.6233553381578787,0.6188723663562268,0.429761677980423,-0.136908933520317,-0.1467300206422805,-4.5147178966015575,4.391675454300642,-3.751246968474984,-0.1178635731339454,0.0006872996455058,-8.879719278988242,-0.2327762693166732,2.938378679972887,-3.812181329648197,52
1724682465512497200,0.0911982925389893,-9.908279651916027,-0.9705401456356048,0.2460848663355223,9.801736508995294,-0.1891507355133071,-0.2596743702888489,0.3978642523288727,-0.3766890168190002,0.3229854868906409,0.3450705636932673,0.6249562460725133,0.6213182358226145,0.2418253272771835,-0.0395672023296356,-0.2577607333660126,-6.018291152226925,6.856449364808201,-4.961331783288717,-0.0309491120278835,0.0161804389208555,-8.861977870592474,-0.3557116091251373,3.111021311745048,-3.7768770842939614,53
1724682465552244000,0.309403693226166,-11.44192714328766,0.4699883325338363,0.0995558139171916,9.8056411152184,-0.0994859361519105,-0.0781751796603202,0.5147813558578491,-0.3624735474586487,0.3234886867496089,0.3331774595683988,0.6277460885852635,0.6247262098274217,0.1867293268442154,-0.076535016298294,-0.3777728080749511,-7.589203083109855,6.239677648901939,-4.677671493530273,0.0366826467216014,0.011646693572402,-9.255742795145512,-0.2798269689083099,3.102917208005488,-2.9626395532652734,54
1724682465591989500,1.1848209750238805,-10.968180335003137,0.876451995140314,-0.0638855573953129,9.805495569267867,-0.1361948789386078,0.1777929365634918,0.4861986041069031,-0.4673734903335571,0.3225074355079597,0.3228904773222465,0.6345752485973413,0.6237346504883723,-0.0216092374175786,-0.3292199671268463,-0.2891893088817596,-8.817716704061628,7.109676522380113,-4.769534076930582,-0.019527118653059,-0.0009317533113062,-8.768127620506286,-0.2480762004852295,2.445762189915031,-2.488040804326534,55
1724682465631735000,-0.1317303190114908,-3.4766333240032194,0.4652864384531974,-0.248947781485971,9.799869546079636,-0.2664180265238508,0.4815650284290313,0.3368377685546875,-0.4203889071941376,0.3207398734670713,0.3133082318315348,0.6445319936403141,0.6193080365124637,-0.4764241576194763,-0.8695312142372131,-0.0987836048007011,-8.276857430490852,5.259480032604933,-3.003368454016745,0.8412532210350037,-2.97179651260376,-7.878320469230413,-0.4606589078903198,4.1471813460215925,-3.882674669544399,56
1724682465671481900,0.0866752438902854,11.603017868953945,4.6588288458943365,-0.4067497130062431,9.786778009316324,-0.4731654647326097,1.244989275932312,0.9420700073242188,-0.2810133695602417,0.3140827241088391,0.302570586762477,0.6577049226998378,0.6141882211854451,-2.2825167179107666,-1.6959152221679688,0.229653462767601,0.5747691419571638,-0.2521551444262266,0.6653571753770112,1.0777125358581543,0.2749761343002319,0.6305488968461752,-0.1192016676068306,1.4852046552419662,-0.8071287219367921,57
1724682465711228700,-1.0465198079884053,15.61084481256008,-3.639817807078361,-0.4784370484599843,9.733875271168351,-1.092321920350939,1.1296030282974243,-0.0044005182571709,-0.3082933723926544,0.3045435819012266,0.3076211280813981,0.6790155820114722,0.5929252583689757,-0.8509894609451294,-1.070197820663452,-0.2052028626203537,13.54604111098647,-11.500907740044592,5.557672121062875,0.1670517176389694,-1.133940815925598,15.65489321312308,0.2065892070531845,-2.406184943416714,5.208823027557134,58
1724682465750974200,-1.8999900098614395,15.666708738601208,-2.247152465454489,-0.6513312803730368,9.691779173716904,-1.347442198193073,0.4260692298412323,0.4850057661533355,-0.4380335509777069,0.3023027724155789,0.3014598433408042,0.6912469834274626,0.5830203567381174,-0.13345268368721,-0.4667480885982513,-0.0433668196201324,15.750041686326265,-12.007218262803551,4.387894182196259,0.2064105123281479,0.137681096792221,13.078591941541433,-0.3828476071357727,-2.166859908338636,2.769073960451782,59
1724682465790721000,-1.0573985640730708,8.70097949938476,-2.336289277152717,-0.6580466331679373,9.67960416727662,-1.4291907993361352,-0.0611011981964111,0.1905542016029358,0.166266918182373,0.2975438339768515,0.2980850024190764,0.6957109901017958,0.5818926626451616,-0.2654847502708435,-0.2064138203859329,0.0539661906659603,10.363217714834212,-8.125826911067962,3.197338243716955,-0.0279968250542879,0.8449949622154236,7.785766688695549,-0.2007956653833389,-2.002461373298615,2.8324411017298696,60
1724682465830467600,0.1305686730872839,2.161781143769622,-1.7543150261223317,-0.5097502879492938,9.70552829760611,-1.3089157759219407,-0.6468871235847473,0.4497159719467163,0.3406112194061279,0.292183619114661,0.2983305026062511,0.6911838001469767,0.58982421126578,0.6222943663597107,0.1702647507190704,0.0654743090271949,4.858534256637096,-4.429719061490893,1.9181465749293565,-0.2951647341251373,0.6752400994300842,1.3280648591585456,-0.0791461244225502,-0.7189839900158346,0.487088739612326,61
1724682465870213400,1.12499494041875,-1.4835755927354095,0.1224633272387087,-0.4755675939708947,9.741325587174297,-1.0250769147261976,-0.6958962082862854,0.5099343061447144,-0.1147155836224556,0.2880715172072545,0.2868485834604304,0.6855525274095052,0.6039456617584067,0.8845568895339966,0.6044518947601318,0.0835911929607391,0.144905314540863,-0.0102232878506183,-0.7341596395768225,-0.3216781318187713,0.4283494651317596,-3.434202003248036,-0.0174835212528705,1.034889502884075,-0.5682424070695414,62
1724682465909959700,0.5982405453722923,-4.165791646206379,0.428444023746252,-0.4653624262988567,9.760292737972737,-0.830969323990494,-0.3550801873207092,0.0479823946952819,0.140916422009468,0.2879949159707736,0.2814334595368739,0.6805606911264258,0.61212031532515,0.3358024060726166,0.5109328031539917,-0.1231102496385574,-2.7739725461483,1.9672674564510584,-0.4673506775066256,-0.249640941619873,-0.1052818000316619,-3.4423297801241275,0.1115395799279213,1.0835001698613167,-0.4121918309949338,63
1724682465989453300,-0.7256734046518802,-4.512557503697276,1.0372340932488442,-0.4085795587819069,9.766184134098888,-0.7906312491875142,0.3784901797771454,0.2070778757333755,0.2192847579717636,0.2847415628606833,0.2805488586798123,0.6794139490290659,0.6153139616393309,-0.3709968030452728,0.0449950844049453,0.0033241191413253,-2.489150811395049,2.835205890268087,-2.321201890397072,-0.2894488573074341,0.0667156502604484,-1.190544686432928,-0.037852793931961,0.4456906343623995,-0.3654073565315455,64
1724682466029198800,0.3665097648154944,-1.0934078158915042,0.6953343804895877,-0.5053733515067026,9.741862762790918,-1.005532840822637,0.4199810326099396,0.8549991846084595,-0.5499222874641418,0.2750584040818481,0.2693862351016759,0.6918807447159465,0.6107986287416569,-0.7206639647483826,-0.1058583408594131,0.2545148730278015,-1.7422352967500685,2.593034379717708,-2.618513688889146,-0.3237274289131164,0.155474916100502,-0.4754826191011816,-0.173067033290863,0.1763112920812331,0.0002438529425649,65
1724682466068945700,1.0821008244574069,0.423777785500884,1.0810650516688822,-0.5493909916052594,9.715366970053315,-1.2166365014795213,0.7911288142204285,0.4612997770309448,-0.0708747655153274,0.2644774510941097,0.2603266036440098,0.7030371671598408,0.6066469234795484,-0.7595716714859009,-0.3504612743854522,-0.0115180099382996,0.0255178876161575,0.0598579641133546,1.7094079629033805,-0.3240051567554474,0.1680031865835189,-0.3970668156426399,-0.2487322688102722,0.2131117125436663,-0.0788382027222309,66
1724682466108692200,-0.3605308000037446,-0.0260650001049041,-2.0317209316611287,-0.5800910676322877,9.670058924818038,-1.5244167216897009,0.3383320271968841,0.6306270956993103,-0.1472079306840896,0.2565031855680423,0.2576660890402429,0.7150746853698137,0.5970615760143881,-0.6241376996040344,-0.1160208061337471,0.0951397940516471,0.9762830732017757,-0.2219751102179288,0.1718212323866784,-0.3430608212947845,0.2217365950345993,-0.2371697567403316,-0.3035914003849029,0.0160217507045308,-0.1384155141301453,67
1724682466148438000,-0.3216635649383068,0.2319493917435407,-0.6686322515249252,-0.5136135392487049,9.669720486643907,-1.5501944292858243,-0.0640200972557067,0.5143249034881592,0.2711998224258423,0.2457746065139008,0.2504906668361223,0.7185348599235866,0.60046396968204,-0.2282556146383285,-0.0440328978002071,0.2042843997478485,-0.2566179690539836,-0.3528828790664672,0.8214541844092309,-0.3026699125766754,0.2437131106853485,-0.431015920060873,-0.3073607087135315,0.12031762958006,0.0646694788811961,68
1724682466188152600,0.188029549463652,0.4047334778130054,-0.2181152199193835,-0.3541271435065194,9.678145785161853,-1.542221842971444,0.0595212467014789,-0.5034230947494507,0.5191845893859863,0.241413537650793,0.256890163068747,0.7159880422478718,0.6025678263579995,-0.3346499800682068,-0.1273747682571411,-0.0194807276129722,0.4719306987732649,-0.5397387451082468,1.5351364147551356,-0.2574588656425476,0.1049765273928642,-0.6814164028394967,-0.1945779174566269,0.2551432933915406,0.3105450818136334,69
1724682466227897900,-0.0218354362437501,0.1021644894450902,-0.3787828978680074,-0.2141430283527821,9.680093996620178,-1.5557317512772977,0.0037593676242977,-0.171411782503128,0.2916620969772339,0.2417686337566376,0.268025982384006,0.7123779289550605,0.6018535280046652,-0.2714236080646515,-0.0248604267835617,0.0136198997497558,0.0549614242434501,0.5840478424340486,-0.0001700958698987,-0.2701647877693176,-0.0068862009793519,-0.1324326220619492,-0.1115666478872299,-0.0340647666871547,0.3422447268046438,70
1724682466267642600,-0.5627503489919007,0.4868652330547571,0.378371394457668,-0.1733172978970222,9.686547702804209,-1.520256825531274,-0.1516004055738449,0.2428232282400131,0.0718323811888694,0.2408526619933002,0.2689221392972455,0.7107688842871455,0.603720673882624,-0.9075978994369508,0.0575233399868011,-0.2903331220149994,0.7290133627295494,0.557765400186181,-1.19976288889423,-0.2712177038192749,-0.0139112062752246,0.521991272297874,-0.1061215177178382,-0.2458414129684679,0.2930166768477298,71
1724682466307388000,0.1762476339941844,0.4441150556087493,0.2773274334751069,-0.0342416621905984,9.68754898880124,-1.5233596138522028,0.0574528276920318,0.4737225174903869,0.2565418481826782,0.2298672975260652,0.2663236549231392,0.7118577368319408,0.6078580413538238,0.0982231572270393,-0.1497223079204559,-0.1508831530809402,0.0086275430917739,-0.9335644599378108,0.4508598536938428,-0.2420827597379684,0.0653256624937057,0.100293599272985,-0.0970412269234657,-0.0231381620059255,0.1640650470356456,72
1724682466347133400,0.7761082183163612,0.4965098442345857,-0.338032223676145,0.0663515867492416,9.6825863979578,-1.55353599479869,0.0576925724744796,0.0346892215311527,0.1559252291917801,0.2231233061380782,0.2666661758975893,0.7128095391038975,0.6091039097364553,-0.5314916372299194,0.03630306199193,0.0175019223242998,0.6788958713859319,1.248172261145711,-0.0081536419697105,-0.1847231090068817,-0.0260482225567102,-0.2161715019730851,-0.1365804225206375,0.1611194037714973,-0.1648887297097593,73
1724682466386877700,0.0618929405396804,-0.1287280867218971,-0.1177400981090962,0.1178219494399614,9.684434656172993,-1.5388973747238517,-0.1600904464721679,0.4989863038063049,0.0795342773199081,0.218814028492821,0.2650191022870638,0.712900278501803,0.611276047293254,-0.1319775581359863,0.1754002422094345,0.0349456965923309,0.1481236920654773,-1.0585896004885436,-0.5158002356380224,-0.1193597540259361,-0.10381930321455,-0.2407543737614527,-0.260006308555603,0.1533382118433713,-0.3482916422860697,74
1724682466426623200,-0.4462587165739387,0.0281301159411668,-0.0666460168182849,0.1748162129515781,9.693525725123283,-1.4749208693757652,-0.0614341907203197,0.0722104981541633,0.1114367321133613,0.2136544574918981,0.2614953469806353,0.711913069942187,0.6157530093144543,0.3777418732643127,0.2011799961328506,-0.1613784730434417,0.3548819439291953,-0.9897118790954352,0.3171668380409479,-0.1337212175130844,-0.1092670261859893,-0.047803209352144,-0.3819031119346618,0.0169137048503733,-0.1288303506531287,75
1724682466466368800,-0.8921536413367838,-0.1874661068946123,-1.047235116650909,0.2434745559729635,9.688255675765872,-1.4995961686879395,0.1501967012882232,1.501072645187378,0.0864233449101448,0.2044451213640174,0.2565468888609876,0.7145920634566498,0.6178543408861329,0.0434443317353725,0.1791948527097702,-0.1098694801330566,0.1575882705032825,0.4048468750596046,-0.1643167019754648,-0.1599124670028686,-0.1327213644981384,-0.1100076680929865,-0.4410465657711029,0.0247659253212506,0.0276965354130486,76
1724682466506114300,-0.843583160239458,0.4032026149839162,-0.3918612828887999,0.5399683526130393,9.67384370405376,-1.5151203394256532,0.0821326225996017,2.99053692817688,0.7189159989356995,0.1643576858007336,0.2327256273135711,0.723248521682465,0.6290763025581279,-0.5897813439369202,-0.0031112967990338,-0.1267553865909576,-0.1496247442781925,0.5717945100605487,0.6624322278410196,-0.1787563562393188,-0.1706850975751876,0.0196320261816494,-0.4362222850322723,-0.037778058439109,0.1514942644771188,77
1724682466585603800,-0.8485599257387221,-0.412684729078412,-1.0466519099354743,1.294330201208591,9.66507704475224,-1.0398954944778234,-0.5326101779937744,3.1611077785491943,0.3859133422374725,0.0651254520363862,0.1700369136012272,0.7239525974589812,0.6653862030904948,-0.337395429611206,0.077650286257267,-0.0810752436518669,0.0179676183670759,0.2062672534763812,-0.1904980950016528,-0.1442534029483795,-0.2514736652374267,-0.100285479898611,-0.4342983663082123,-0.0404962336399126,-0.0243457750968635,78
1724682466625341400,-1.6466396643012762,-0.266841256904602,-1.4648141936421393,1.568528689008206,9.661090020942687,-0.6111081006539986,-0.8530676364898682,2.5356218814849854,0.6103121042251587,0.0200230101725945,0.1377828997462698,0.7156631295356015,0.6844277223163459,-0.3506228327751159,0.0128956856206059,-0.0739120170474052,-0.4621773665219545,-0.4597223745852709,-0.294337897247821,-0.0861750170588493,-0.2775890529155731,-0.164635960525088,-0.4469524919986725,0.0792722650242503,0.0302058810356073,79
1724682466665086000,-1.0796487551301717,-0.8909317713916302,-0.8808674734950065,1.8824546454317868,9.624232408666613,-0.030425316489546,-1.292580485343933,2.2361807823181152,0.8076165914535522,-0.0206859178716605,0.1155224254605395,0.6987172737781342,0.705705990005634,-0.2123506963253021,-0.0820543691515922,-0.1233304291963577,-0.2512818687230348,-0.3514969776660204,0.170347798833251,-0.0577865429222583,-0.2906559705734253,-0.0578089956942945,-0.4618241190910339,0.0241750307729933,-0.0657879660836886,80
1724682466704831500,-0.4440529501579701,-0.5802402668446303,1.7468629565507172,2.1494728663384914,9.545628827551006,0.656616527299583,-0.9485281109809875,3.0611512660980225,0.7633571624755859,-0.0650031227623161,0.0901478152503438,0.677048924637797,0.727497656949642,-0.4628154039382934,-0.1167794838547706,-0.1600210666656494,-0.2059346605211496,0.4066898725777864,0.2451701078444719,-0.0315266400575637,-0.2593337297439575,0.0342127991390065,-0.5018057227134705,0.1276640833527315,-0.0180033769503352,81
1724682466744577000,0.7285901688814163,-1.2888210823982953,1.931570120126009,2.2776291445218027,9.462774603253605,1.1994474662695078,-0.1278002113103866,4.222697734832764,0.6308258771896362,-0.1253508727404503,0.0450617596594685,0.6609195389989184,0.7385403792099108,-0.5712057948112488,-0.1720300167798996,-0.1047136038541793,-0.1479372295826673,0.3286509396076202,0.2704699687957763,-0.0367838367819786,-0.2653082907199859,0.0316074206798919,-0.4958183169364929,0.1497000380041077,0.0314184328798553,82
1724682466784321300,0.0700749683536589,0.1019260045140981,0.9503279632121324,2.2609796230159698,9.407543714419006,1.5988982544392347,-0.1508504301309585,3.895051240921021,0.7410007119178772,-0.1912860833316342,-0.0114409263284185,0.646798256700714,0.7381942571858908,-0.6294355392456055,-0.1366631239652633,-0.0899246707558631,0.22538579544425,0.1314993050009012,-0.0685340225219726,-0.0717089399695396,-0.2318447083234787,0.0601183001165511,-0.4867211282253265,0.1475581214714329,0.004184244577572,83
1724682466824066800,-0.7459966462343931,-0.8323468959540128,1.841658378532529,2.442587797662616,9.250808845874667,2.1509723111160097,-1.135208249092102,2.250217914581299,1.2578275203704834,-0.2407149319222522,-0.0344965895400652,0.6238116042281042,0.7427821607531047,-0.492733359336853,-0.0337622575461864,-0.0863498449325561,0.272132349050045,0.3349515010565519,-0.2165957735334523,-0.1030132323503494,-0.1864532828330993,0.0274637335874605,-0.4937614500522613,0.1073804522613994,-0.016738256951922,84
1724682466903558000,0.3114174807339906,-0.6511199757099151,0.8350506019547581,2.8335157452240582,8.783923155531287,3.3142502204388378,-0.5676330327987671,2.6950106620788574,1.2951622009277344,-0.3512654868227271,-0.0756453467263301,0.5703490594234352,0.7386421482523493,-0.4381785094738006,0.078763224184513,-0.0868304744362831,0.1164350068598985,-0.0322094942092895,-0.1146902090191841,-0.1277794986963272,-0.117996722459793,0.0107767821310902,-0.3752030432224273,0.1001162608115468,-0.2222246097332798,85
1724682466943302100,0.4096566134288907,-0.0142857149839401,-0.0619222031667828,2.86830444227159,8.584030697783827,3.7759275284841656,-0.6771183013916016,1.5946162939071655,0.6718042492866516,-0.3905720884264561,-0.0916595198933147,0.5468818879843917,0.7348279635199728,-0.1466755419969558,0.1124290972948074,0.0006569632096216,0.1438192728698253,0.0645370618402957,-0.3453986607909202,-0.1128882095217704,-0.0900612846016883,0.0473755904906429,-0.3138644695281982,0.0031020519603451,-0.1325006366637069,86
1724682466983047700,0.1851771191745996,-0.1294523093432188,-0.0560094719916582,2.8639880403772,8.419674832841753,4.132437365876138,-0.6277223229408264,1.088223934173584,0.4997805058956146,-0.4134133027666624,-0.0987605036950764,0.5287255425381203,0.7347007227688989,0.0280414056032896,0.0899967551231384,0.0002096188254654,-0.0355664034217596,-0.0222819744348525,0.284046074205637,-0.1188413649797439,-0.0826429054141044,-0.1057481018192134,-0.304043710231781,0.0554709355350118,-0.3272301130242646,87
1724682467022793000,0.1078694230884313,0.3609282383561134,0.4904220487534999,2.8151515287548303,8.259843751847743,4.474403714130818,-0.5138553380966187,1.3089606761932373,0.4487645924091339,-0.4334487544759578,-0.1058064947897274,0.5105623172970256,0.7350192666018424,-0.1049984022974968,0.1146337687969207,-0.0170217659324407,0.044998833155632,-0.0741717361479997,-0.3369271850436925,-0.1034006774425506,-0.0865867286920547,-0.0546881693931762,-0.3103494942188263,0.011012272529042,-0.260177013242431,88
1724682467062537700,0.1364277013137936,0.2169219184815883,1.0998930862575769,2.723895094554126,8.183433881384135,4.66714016264379,0.3123541176319122,1.2968194484710691,0.5716461539268494,-0.4549454823593838,-0.1200897011759,0.4976148542310161,0.728685542809592,-0.1954060643911361,0.0642854273319244,-0.0497169941663742,-0.3179892603397369,-0.125350719243288,0.376128730097413,-0.0801056623458862,-0.0851748511195182,-0.0480949314408702,-0.280204027891159,0.0225472583245136,-0.2575495508156716,89
1724682467102283000,0.3038049599036574,0.0683779551774263,0.056464814543724,2.7492510696068404,8.216457614585757,4.593673359894752,0.6301723718643188,0.56155925989151,0.6320631504058838,-0.4717555710384186,-0.1326088860045668,0.4981994860171764,0.7153033743602185,-0.2077380865812301,0.0911336541175842,-0.0184624698013067,-0.2200175464093685,-0.4231447482943534,-0.3733399761617183,-0.0326565653085708,-0.0664907544851303,0.0078360599247651,-0.2791499495506286,-0.0429770587041741,-0.2847698036366142,90
1724682467181773800,0.322972309449315,-0.2590285373270511,-0.2514998953878879,2.968306785246729,8.26703337109089,4.360697547712922,0.2636438906192779,-0.0034049293026328,0.1892422437667846,-0.4840937087084338,-0.1361212541622449,0.5090553026556716,0.6985605787641395,-0.4013099670410156,-0.0083437161520123,-0.021923379972577,-0.2027168675184249,-0.0237239899367094,-0.2350549748097546,0.0396898537874221,-0.0712490603327751,-0.1267744227703195,-0.3210398852825165,-0.0491231648103334,-0.3039718043705448,91
1724682467221518600,0.0953425344705581,-0.2911018379360437,-0.3532613569900393,3.024900779128074,8.290877188014983,4.275711864344776,0.2036221027374267,0.0025279591791331,0.1539550870656967,-0.4852242446649395,-0.1364575961405438,0.5132043333795162,0.6946639506041499,-0.3724543452262878,-0.092372253537178,-0.0269611496478319,-0.2972042464643716,-0.3018792525380849,0.3458241927266121,0.0554508827626705,-0.0784037411212921,-0.1311499527071137,-0.3608502149581909,-0.0423151333298766,-0.2181613240834325,92
1724682467261314300,-0.1260249652430415,-0.3942378027617931,-0.3877151229947805,3.070743661892414,8.281935172146559,4.26033601603657,-0.0067804101854562,0.3137791156768799,0.2316013425588607,-0.4891627472750938,-0.1370811571626812,0.5138015821960142,0.6913294863276305,-0.0204483661800622,-0.0866177976131439,-0.0182970874011516,-0.0721603963255882,-0.2597849086523056,0.1388894152522087,0.0739590302109718,-0.0867301076650619,-0.1427221070165746,-0.3841266632080078,-0.0589058190542506,-0.2559123415352776,93
1724682467301061600,-0.3760506964251399,0.0607154577255249,-0.0418128965958952,3.097808778950572,8.244320604023336,4.313367349000275,-0.0162669196724891,0.4286932349205017,0.342357873916626,-0.4967203448864102,-0.1391058873322656,0.5106163154253603,0.6878876129219131,-0.0461840890347957,-0.0993910133838653,-0.0093037253245711,-0.0581628506332635,-0.3173486243486404,-0.2209702805569395,0.0932633355259895,-0.0864083543419838,-0.1351857932276092,-0.3757753074169159,-0.0585133765374077,-0.1369211199870798,94
1724682467340808000,-0.4673971469968557,-0.2369926466077566,-0.1080617307901382,3.16521350518167,8.18364723187387,4.379467422373593,-0.0668071955442428,0.4174513816833496,0.5302250981330872,-0.5073873436139765,-0.1404134633127059,0.5069451309707762,0.682531200955323,-0.1666556447744369,-0.0918481424450874,-0.0442470610141754,-0.1190033960431814,-0.0952823287159204,0.1236766850838437,0.1054353266954422,-0.1062847375869751,-0.1184309481837786,-0.3976639211177826,-0.0454910736519843,-0.2012286382546648,95
1724682467380555300,-0.537349219623208,-0.480886158645153,0.5911839779242872,3.298761267144978,8.098038155910372,4.439631675957143,0.0080290166661143,0.366690993309021,0.6962221264839172,-0.5190672743432496,-0.1385331954458564,0.5044307016299274,0.6759639793608133,-0.1478707641363144,-0.0488363876938819,-0.064091071486473,0.0979822353243827,0.000803717598319,-0.1757926202356815,0.0863869190216064,-0.0844626352190971,-0.0135779274741886,-0.4047192633152008,-0.1071921722808387,-0.1236517424388322,96
1724682467420302600,-0.8838894516646861,-0.6951525941818952,0.2296796932458877,3.523197506779432,8.004201349827646,4.4373675304174425,0.2466734200716018,0.3221412003040313,1.045789361000061,-0.5333727200260887,-0.1353226192112506,0.5054156784029914,0.6646475650770401,-0.2543500959873199,-0.096624732017517,-0.0708626955747604,-0.0537479568004608,-1.421591722509265,0.5192635278344154,0.0760763138532638,-0.0713687986135482,-0.1686755730384029,-0.411537766456604,-0.0614271496588364,-0.1448104849974159,97
1724682467460050200,-0.5909130520284176,-0.596443798148632,-0.3269008810698985,3.821139712129533,7.871674455344676,4.42786934197098,0.1837581247091293,0.5034845471382141,1.3045341968536377,-0.5525252250852635,-0.1314774576131784,0.5069074567936095,0.6484400290470046,-0.4427916407585144,-0.0457763075828552,-0.0241274125874042,0.3858604350388049,0.432630954042077,0.0272621009349822,0.0593024082481861,-0.0666495040059089,-0.134874151728861,-0.4241053164005279,-0.0410160973621299,-0.1447062939705792,98
1724682467499796500,-0.4792211480423808,-0.2960673513889312,-0.1861304743766784,4.152973957948387,7.676193968820572,4.472050136741996,0.0929093807935714,0.5797226428985596,1.436759352684021,-0.5748359636834752,-0.1256386194490723,0.5061658134688739,0.6305352200780062,-0.6400460600852966,-0.0360849052667617,-0.0916598513722419,-0.1216442659407854,0.4024310460895299,-0.2217301955461502,0.0502492301166057,-0.1063165068626403,-0.1769673083045519,-0.4244892597198486,0.0420692185776773,-0.1245865664703771,99
1724682467539543800,-0.2125561244875192,-0.3232750917881727,-0.7718652469843625,4.539028454254567,7.417144973227381,4.533604675640166,0.0045316293835639,0.3592560887336731,1.6216683387756348,-0.5987917391571489,-0.1165017968172401,0.505250254955169,0.6104080988001156,-0.3777252733707428,-0.0657766982913017,-0.1396381556987762,-0.0613835662454366,-0.0922995135128498,0.2495722152609377,0.0309172328561544,-0.1336835473775863,-0.11282874426255,-0.4299075007438659,-0.0054408182266372,-0.1816754311965778,100
1724682467579291100,0.0208913968592882,-0.0612532178640365,-0.3950800988048314,4.905028296786546,7.11382312066555,4.637305580872297,-0.0999912172555923,0.4694933891296386,1.4920599460601809,-0.6219513541093142,-0.1055252025466758,0.5024217755757204,0.591281100494535,-0.1455839127302169,-0.0759472623467445,-0.0271564237773418,-0.3862789527118205,0.0352320569008588,0.0025486615695059,0.0164951365441083,-0.1266486644744873,-0.1094922202509827,-0.3794842660427093,0.0336391342867631,-0.1172707087653689,101
1724682467619034600,-1.2545406271338462,-0.9731021050781012,0.2656152222409844,5.246722257840633,6.757043818682432,4.794230419030785,-0.2523539364337921,0.546497106552124,1.7938082218170166,-0.6447651755633986,-0.0923619512658074,0.4970226827989997,0.5733372075631051,-0.0897749736905098,-0.1945898085832595,-0.0048109726049005,-0.5007587338507176,-0.2126782895624637,0.6111562141120434,0.0093920547515153,-0.1523684859275818,-0.1106191601879894,-0.3565932512283325,0.0765365975492401,-0.2329567604214884,102
1724682467658781000,-1.9097768059909344,-0.8348486496418714,1.083350532257557,5.670768338888883,6.308442557570338,4.921007371684909,0.4454175531864166,0.9413082003593444,2.5842080116271973,-0.6755079309365556,-0.0803607896173956,0.4925856124982103,0.542761923228758,-0.0301883444190025,-0.2340030521154403,0.155637502670288,-0.1346679981648922,0.4567109178096056,0.1765501606047153,0.0077344505116343,-0.1205430179834365,-0.0852091807925607,-0.3466794192790985,0.1106882616351358,-0.2023062774235382,103
1724682467698528300,-0.1023363388806581,-1.5278420199632643,1.5973451797783371,6.139913790857792,5.780542718815803,5.00571277680695,1.060376524925232,1.0877869129180908,2.916005373001098,-0.7150014760519764,-0.0742788451734867,0.489144477436459,0.4939566361099681,-0.0548622645437717,-0.2573168575763702,0.2568544149398803,-0.2493897713661193,0.1090501573055982,-0.1471041397593915,0.0032384423539042,-0.1130034178495407,-0.1316018611930776,-0.3539347648620605,0.1427053385448642,-0.2264506481967866,104
1724682467778022000,0.7318348498910665,-0.1561772346615791,0.2801747857302427,7.072664011803269,4.937846862804889,4.665347726269066,0.5262836217880249,-0.4835716784000397,1.7722492218017578,-0.755575130127194,-0.0581026809684847,0.5086821566450159,0.4086229067747278,-0.0285025648772716,-0.27424156665802,0.5124361515045166,0.2682557998776436,0.8859972375988959,-0.278003286910057,-0.0358534455299377,-0.0786275863647461,-0.1436894542113877,-0.3507714867591858,0.1172414461382664,-0.1192344191869255,105
1724682467817769200,-0.1861170303732156,0.6277402691662312,0.490149661552906,7.339692315712571,4.6170586193963885,4.580620401576161,0.5284929275512695,0.4620025753974914,1.9409955739974976,-0.7655492326997038,-0.049759492480739,0.5137872570970999,0.3840327463529043,0.2496568858623504,-0.3031644523143768,0.5726386308670044,-0.0212561385184526,0.5762602572977542,-0.0696586426377296,-0.0809628069400787,-0.0875074341893196,-0.1660546316839754,-0.366747111082077,0.1278032817608676,-0.2141993799162097,106
1724682467857516500,0.4661784188568592,0.9925643459171056,-0.9751914785727858,7.538684609749913,4.00607951541692,4.825965281465649,-0.1293545961380005,1.4203579425811768,2.381303071975708,-0.7916672775143845,-0.0387784070155607,0.5024345561396641,0.3454253087078834,0.5145516991615295,-0.227220669388771,0.58378666639328,0.4152466885209083,-0.0052384851753711,-0.3656698799252509,-0.129287987947464,-0.0629571005702018,-0.1942258102878928,-0.3528250455856323,0.1069389373052865,-0.1915354752253741,107
1724682467897264000,1.840128100225329,0.3483098720625042,0.3891472016245126,7.531674438726902,3.2655876040786502,5.364717938145994,-0.5293027758598328,1.6882578134536743,1.903024673461914,-0.8213091261609826,-0.0206020550766581,0.4754482896300816,0.3146040905364832,0.6411508917808533,-0.1331300139427185,0.4957523345947265,0.6071259356826544,0.0808475606501102,0.0374560165606439,-0.1415593922138214,-0.0128599805757403,-0.0251862490755738,-0.3410064876079559,-0.0196449084961088,-0.3043369296221994,108
1724682467937010200,0.5072603708297014,0.5343514991119503,1.1804250050872565,7.333600428578257,2.6623560454860327,5.9414265237331385,-0.0279891602694988,1.822490930557251,1.8280565738677976,-0.8491772741513889,-0.0103513470818885,0.4438067233887102,0.2860530338125823,-0.120268702507019,-0.016525587067008,0.5033159255981445,0.5424602790266275,1.2839251270502805,-0.4399998753748834,-0.1160119771957397,0.0210882443934679,-0.1891989220365881,-0.2579403221607208,0.0946219011789653,-0.2897014148198999,109
1724682467976757800,1.4773761535733938,0.9465053361840544,0.1198480301737785,7.143994387045503,2.226859326749295,6.338361310493946,0.1738290786743164,0.9566032886505128,1.2651718854904177,-0.8700663360052978,-0.0061994210871211,0.4204700506389679,0.2571986353871588,0.2610786259174347,-0.0251707397401332,0.4603440463542938,0.4478285231739282,-0.2175280676811933,0.3847382991410791,-0.087936595082283,-0.0206790957599878,-0.2422129020066931,-0.1915037035942077,0.1556075632811523,-0.3196881366794928,110
1724682468016505000,0.7104524546444415,0.5512029729306698,0.5223305141896009,6.994687038153409,1.955825440460444,6.58934624209702,-0.1350380629301071,1.0634815692901611,0.8507969975471497,-0.8823370677252599,-0.003003276205523,0.4050034918035955,0.2396755666477113,0.3477147221565246,0.0296603925526142,0.4290799498558044,0.6507441281348466,0.2780342665702104,0.0756232501305639,-0.0793805792927742,-0.0280606653541326,-0.1929032016483135,-0.1671462506055832,0.1190517926290165,-0.3527507405867799,111
1724682468095998700,1.729541234871745,0.0343748555496335,0.0353647433698177,6.437080627921223,1.385386875053495,7.267398648396134,-0.2867206037044525,1.3387271165847778,0.5545154213905334,-0.9084226095302984,0.0065349598045408,0.359754181076143,0.2128441589822228,1.114495873451233,-0.0320902690291404,0.2249794155359268,0.5072831671833992,-1.4407833297133446,0.5670586406450718,-0.0722499415278434,-0.0363573282957077,-0.1092884230408817,-0.1239284798502922,0.0250150572271319,-0.2544527721104212,112
1724682468135746000,0.8725830447524785,0.4879193452175706,0.2680892111390829,5.955231177201867,1.1304113394442945,7.708941223168373,-0.1544528752565384,1.6092110872268677,0.6423689723014832,-0.9229674104413392,0.0094270847004064,0.3269013661584297,0.2029230702432245,0.5964382886886597,-0.052639752626419,0.151493489742279,0.3266127117782831,-0.0812327605754137,0.0649871802279725,-0.0568361952900886,-0.0150846345350146,-0.2041275197676383,-0.1019099354743957,0.0158204411373939,-0.255352771423757,113
1724682468175493400,1.6810796940416095,-0.1779139963038265,-0.95236502199769,5.701441125050187,1.1035722862269728,7.902283528620004,0.0978752449154853,-0.0195670071989297,-0.5027737617492676,-0.928716649032335,0.0068284825661931,0.3115269387821957,0.2009721968600342,0.8292680978775024,-0.1382186263799667,0.2494777739048004,-0.323899361166358,-0.3649000645965337,0.4093453920552506,-0.0326593704521656,-0.0562515407800674,-0.2379850551785901,-0.095001071691513,0.0764164920006413,-0.2618867580360733,114
1724682468215240700,-0.9587146832853556,-0.9032137453377246,-0.2774427304178476,5.739785761013627,1.2463326246283948,7.853145695963501,0.0164130553603172,-0.0192936137318611,-0.2459214627742767,-0.9253568444892852,0.0029580284886422,0.3155824150766911,0.2100323414644034,0.776247501373291,-0.0410188920795917,0.2069699317216873,0.2421200726240873,0.285545372852683,-0.3331155178010463,-0.0073123015463352,-0.066385418176651,-0.0899680383579805,-0.0828573554754257,-0.0302602781039662,-0.0951733336498029,115
1724682468254987300,0.1987128925740718,-0.0642210546936839,0.0042266777843236,5.674713277122378,1.2257082081422208,7.90352213050425,-0.1017257496714592,0.2869908213615417,0.0513911545276641,-0.9266782025469532,0.003256727395537,0.3114834074126579,0.2103215296028869,1.2243621349334717,-0.0666138976812362,0.15566086769104,0.0840039788544178,-0.8013526227533817,-0.147911492353212,-0.0216609220951795,-0.0270600020885467,-0.19373030012222,-0.1014506965875625,0.0926813067715149,-0.1999983292747288,116
1724682468294734600,-0.1794084726452827,0.1906710404157638,0.4009387617051601,5.568007637116312,1.2049987437210976,7.982208129206299,0.015159722417593,0.4181537628173828,0.0659764036536216,-0.9288207107930126,0.002941336696402,0.3049786822896294,0.2104075338820195,0.7026222348213196,0.0020568335894495,0.2925834357738495,0.2808417252063751,1.114305642491579,-0.6607797844588756,-0.0311418436467647,-0.0536458939313888,-0.2510437673845328,-0.1515950858592987,0.1025986978775821,-0.2742491768072359,117
1724682468334477300,0.1111287171453237,0.16290588532947,-0.5910153433591127,5.427258857733011,1.1815881305824965,8.08202342517674,-0.0259781572967767,0.4519968330860138,0.1492710709571838,-0.9321014080140572,0.0015317089249113,0.2965284836819699,0.2079798022875236,0.6006152033805847,-0.0306808724999427,0.4032196402549743,0.0562070403903722,0.6972825919479131,-0.0494354273635894,-0.0405861511826515,-0.0566030070185661,-0.2021217511694878,-0.169846698641777,0.1064219094275496,-0.1694520373036153,118
1724682468374224400,0.0348620545446872,0.1387403621703386,-1.0103829112023115,5.311839165395498,1.0974158824890852,8.170093338295818,-0.2957587242126465,0.272036075592041,0.1940634846687317,-0.9350492519917264,0.0036487778016538,0.2888387956492568,0.2055278833494656,0.0597993358969688,-0.0664533078670501,0.397042453289032,-0.1695768144607543,0.4947101013362407,-0.0491758265793323,-0.0632985904812812,-0.0472261756658554,-0.0835586736391764,-0.1460279524326324,0.0130296253920649,-0.0918681820240337,119
1724682468413970400,0.7505150004416704,0.086209306878969,-0.816271959465742,5.292300936710834,0.9290819076962769,8.203581181877851,-0.5867370963096619,-0.0123394699767231,-0.0343282483518123,-0.9357741155000686,0.0123717791741433,0.2856233545071605,0.2063808251571656,0.7275984287261963,-0.0170549172908067,0.3164781033992767,0.1983849757939577,-1.146495847478509,-0.1728793631374836,-0.0803333297371864,-0.0130446190014481,-0.0357074878263054,-0.1262399107217788,-0.0212567938222899,-0.0963273077242076,120
1724682468453717800,0.0626338585674762,-0.1598754315923899,-0.0041284781068563,5.261621720808744,0.7302940501898527,8.24332457872331,-0.6570635437965393,0.1965546607971191,-0.0170605145394802,-0.9357740411041524,0.0237142526794485,0.2813273042425352,0.2112337332895024,0.8196359872817993,0.0734299793839454,0.2657700479030609,0.1006307040065526,-0.0961012438833713,-0.0680469696573913,-0.0887793824076652,-0.0108054932206869,-0.1381869752044323,-0.1186791583895683,0.0675359696616418,-0.0893588295516092,121
1724682468493464800,0.1764917084157466,-0.2808246279411017,0.2725327465444803,5.189811453095079,0.5298216005973517,8.303946512946485,-0.522428035736084,0.2432398349046707,0.0492266900837421,-0.9367537902669868,0.0339731476937112,0.2747041705203534,0.2141862567979635,0.5466989874839783,0.0581341125071048,0.1885945051908493,0.1678723486304283,0.4814993221074342,0.1135952533893287,-0.0880026966333389,-0.0238191746175289,-0.1562245992009528,-0.1437253803014755,0.0886624813179019,-0.1368448033478576,122
1724682468533212200,0.0028425299495458,-0.0080147084230557,0.359028542214632,5.111172216144204,0.3616083295747637,8.361551145175099,-0.3931048214435577,0.2994526624679565,0.1070342287421226,-0.93808454044315,0.0418745954742185,0.2681903140761714,0.2152158432993858,0.405851274728775,-0.0362775065004825,0.256625086069107,-0.0537806900262832,-0.0896253258675336,0.2234798156924545,-0.0863319933414459,-0.0258385222405195,-0.1955285086506046,-0.183137834072113,0.1179569100643973,-0.166824574876856,123
1724682468572958200,0.2135410438716411,-0.0629754385467618,-0.5424193624943494,5.053851661553979,0.2251825279571115,8.40108645222783,-0.377658486366272,0.0023714532144367,0.0036274138838052,-0.938929048724948,0.0484014941281008,0.2632889741834507,0.2162136961602621,0.1623470187187194,-0.108672983944416,0.3593761622905731,-0.3850286603897809,0.3514917169690132,0.4242192456580698,-0.1045329123735427,-0.0505291335284709,-0.1124653543102554,-0.1638672351837158,0.1191849266225472,-0.0664935251037357,124
1724682468612701400,0.1465945828020572,0.0231467197717167,-0.8609995744645595,5.029070856040716,0.0596028614077018,8.418745443037151,-0.5868241190910339,0.0777845457196235,0.019366580992937,-0.9388466604963668,0.057260735871727,0.259778049677296,0.2186403003059621,0.3968772292137146,-0.1807385981082916,0.449864000082016,-0.2928706011742353,0.0248106161296367,0.5549871676445007,-0.1395803093910217,0.0105325654149055,-0.0554354669294087,-0.1317984163761139,0.0512666887782048,0.0187573873551446,125
1724682468692195800,-0.5039660054594278,-0.188290501954779,-0.1749877335935831,5.177148370876908,-0.359383091273345,8.320959607067703,-0.8371461629867554,-0.0064419861882925,-0.0398777835071086,-0.933382219568898,0.0842834256119787,0.2620027586830534,0.2303228171805592,0.5128994584083557,-0.1664274632930755,0.5308666229248047,0.039327217260003,0.217606978136301,-0.5549234547585249,-0.1718323826789856,0.0193338841199874,-0.2259934242148883,-0.1315839439630508,0.1366257994354702,-0.1025240252061747,126
1724682468731942000,-0.4815384850740432,-0.2354317539665847,-0.0376350263893604,5.169534388741851,-0.6493752509344369,8.308104801669716,-0.7851493954658508,-0.0102966949343681,0.1368060261011123,-0.9324002410453068,0.0998783378063237,0.2577379413798503,0.2328631291096308,0.6529500484466553,-0.2281387597322464,0.5602564811706543,-0.0171428579807281,-0.5264718517780304,0.4171481382280588,-0.159226045012474,-0.0367349535226821,-0.1823420236128382,-0.150341510772705,0.1410269113380927,-0.1615696317570284,127
1724682468771689200,-0.5028717804819345,-0.3477271768037229,0.2704237915664911,5.247730558100343,-0.8969584843352436,8.235725794157386,-0.6209611296653748,-0.4180926978588104,0.0186505876481533,-0.929951898221778,0.1145020228656776,0.2588129464428316,0.2347224885738471,1.0463719367980957,-0.1447627544403076,0.5817888975143433,0.0313990546092391,0.350831791755557,-0.2909106992781162,-0.1290088444948196,-0.0320235453546047,-0.058828091342654,-0.157335489988327,0.0931938411372248,-0.052077142077987,128
1724682468811436300,-0.3987216701775789,0.0529028842784464,0.3461082703649997,5.383150251415372,-1.0765736585337669,8.12607357930541,-0.478581041097641,-0.3706126511096954,0.0773490220308303,-0.92666779196154,0.1264151917676095,0.2640165827063778,0.235799231482108,0.2509548962116241,-0.0208261646330356,0.5996407866477966,0.5265200748339295,1.0806599779993296,-0.9152245011270046,-0.136284664273262,0.0012486022897064,-0.0717029303150949,-0.1445399224758148,0.0876211373051162,-0.0651172500481596,129
1724682468851183600,-0.0120657008469104,0.2223562184900045,-0.0195166013747453,5.508703215232491,-1.236899318111688,8.018394125831128,-0.4128830134868622,-0.434298038482666,0.0720591247081756,-0.9237412199728636,0.1369224195227817,0.2691243444004603,0.2356404063266347,0.5171676874160767,-0.0014183254679664,0.5479987859725952,0.5665542713195085,-0.0308978270888328,0.0884928147062659,-0.1116962283849716,-0.017671613022685,-0.13610517309485,-0.170500248670578,0.1002611857075709,-0.1335326831251848,130
1724682468890929700,0.5388239683508873,0.3285391497962177,0.1377712248772382,5.601405464327335,-1.3882725134924054,7.928892718604207,-0.498539537191391,-0.1260124891996383,0.0352099277079105,-0.921088026587392,0.1467432902218448,0.2724066530792608,0.2363425577690567,0.05641445890069,-0.0488247238099575,0.4997754991054535,0.432259782642126,0.4760188448697328,0.0518652117937803,-0.0982863679528236,-0.0359418578445911,-0.1587022048282436,-0.1788682043552398,0.1599506339867599,-0.0945304783021565,131
1724682468930677000,0.0770610278487205,0.1059475151151418,0.1594388668060302,5.623383487379551,-1.5641659637540577,7.880439945602417,-0.467600554227829,-0.1216321364045143,0.1181281432509422,-0.9194608617935884,0.1568070826872091,0.2713317715522508,0.2374499196002784,-0.0114860292524099,-0.0470294877886772,0.4521714150905609,0.3812061794921755,0.0922498291522264,0.3180190709561109,-0.0972929447889328,-0.0551682710647583,-0.1219556882438249,-0.1831644028425216,0.1353194478109478,-0.1484183824294246,132
1724682468971666200,0.2866933738440275,0.1212619886249303,0.2287339368283748,5.669182531002163,-1.7213368856281042,7.814586540466546,-0.4050156474113464,-0.2268357574939727,0.01985664665699,-0.9176154989715596,0.1660530261565157,0.2720172332816781,0.2375183014986758,0.1053777411580085,-0.0014722811756655,0.4447589218616485,0.3772144795075058,0.0304939224630594,-0.2420847090497613,-0.1056331098079681,-0.0302324332296848,-0.0953907209938392,-0.1484028548002243,0.0860701176039874,0.0011330705669824,133
1724682469011413200,0.0171615626811981,0.1515432912506163,0.0728337655425071,5.790722752046585,-1.802045914590359,7.706525978720188,-0.2300020456314087,-0.5563181638717651,-0.1297020018100738,-0.9141181546970604,0.1732164670364535,0.277619481968131,0.2393979867406023,0.1769808232784271,0.0575610548257827,0.4104794263839721,0.1553331850528717,-0.2212871279537677,0.2741822673171759,-0.1358975917100906,-0.0076221418567001,-0.1904136863875202,-0.1313896477222442,0.1086304157898761,0.0009107684441667,134
1724682469051160600,-0.2753682622313499,0.1572571388527751,-0.1613970151364803,6.010528117009997,-1.8240705532632768,7.531049000304937,-0.1664881110191345,-0.7285387516021729,-0.1333337873220443,-0.9089142418307424,0.1790085610619739,0.2897918200092904,0.2405234052961173,0.3224653005599975,0.2177138179540634,0.3642560839653015,0.5258849918007851,0.052884033447504,-0.3646566112294793,-0.1568863093852996,-0.0269307009875774,-0.2938081925516017,-0.1652630269527435,0.168062172114104,-0.1052696067204233,135
1724682469130654000,1.2744552879154682,0.3693431616105139,0.4116127159327268,5.924160916155576,-2.096909297017008,7.528457814767957,-0.32951420545578,0.3850562572479248,0.2095957398414611,-0.9092080569137988,0.1917032707597035,0.2817895264509778,0.2391342873277145,-0.5119547247886658,0.0878741592168808,0.1613189429044723,0.3163245419979095,0.206415137514472,0.8432637190267444,-0.1197356432676315,-0.0786702111363411,-0.241461827911064,-0.1568753272294998,0.2398542831165716,-0.3423659785641357,136
1724682469170401000,0.72766954690516,-0.1019268812969327,0.5486076957404613,5.83543575399816,-2.18827664424628,7.5716259253650895,-0.2136804312467575,0.2204052060842514,-0.0966809839010238,-0.9098264693871432,0.1956161868279231,0.2751160241918601,0.2413735257157556,-0.2024410665035247,0.0763873606920242,0.1617035716772079,0.2218111518278717,-0.4605179088771343,-0.1172977611690759,-0.0852359980344772,-0.0793578326702117,-0.1491439567576162,-0.1342776268720626,0.1495742379336617,-0.2823994760423898,137
1724682469210148400,0.1013239469677209,0.0014461071550846,0.2510147422194481,5.7906567010730505,-2.205608156666905,7.6009198243886225,-0.0608162879943847,0.1200958043336868,-0.0737038776278495,-0.9098496855728216,0.1965688934258938,0.2717013536012654,0.2443617895843657,-0.3216095566749573,0.0810053423047065,0.2105194479227066,-0.140298697528243,0.3635878129541873,-0.35102205363065,-0.0603616721928119,-0.029394069686532,-0.1053566639493685,-0.0804197788238525,0.1395931156753096,-0.2088333045721054,138
1724682469289641700,0.0460422047287225,0.0432910063244402,-0.1424000537216663,5.754060954603553,-2.194331560371071,7.631911759501695,-0.1188526675105094,0.1738355755805969,0.0224750768393278,-0.9099457816540176,0.196073760200094,0.2691391083093791,0.2472205377071743,-0.1063997521996498,-0.0300577469170093,0.3838475346565246,-0.1507040639474988,0.1160381164968013,-0.4594152083322405,-0.017556931823492,0.0258772745728492,-0.0739486816815799,-0.0736940503120422,0.1097816773173864,-0.1567700859881937,139
1724682469329388800,0.4679296464383602,0.0007768295913934,0.0119113870680332,5.691154124313592,-2.2534211704604328,7.661804208940267,-0.1960468739271164,0.2077950537204742,0.0262046828866004,-0.9104859029459692,0.1983511870465258,0.2646006477793761,0.2483117654370604,0.0571614727377891,-0.0790217220783233,0.446911871433258,-0.1918146574929356,0.3948620721399783,0.2399251929283141,-0.0045138038694858,0.0143725974485278,-0.0956824430825654,-0.0769071951508522,0.091703675644705,-0.1275861318788491,140
1724682469408766700,0.0901987418413162,-0.0232405903339385,0.1053244147807359,5.661870746684074,-2.289857342454046,7.672688591048121,-0.0646229609847068,0.0887099057435989,-0.0308341644704341,-0.909811839277685,0.2007752369746532,0.2617079509390276,0.2518740954526384,0.0187009014189243,-0.1951388418674469,0.5511438250541687,-0.2176457027114927,-0.0691536157250404,0.3276435161307454,0.0080085275694727,0.0380254685878753,-0.0115640235186438,-0.0537781342864036,-0.0802250722370576,0.1019682636200915,141
1724682469448509700,0.0047124154746532,0.0791688137829303,0.0506453146100044,5.661165813285112,-2.2959004220105705,7.6714032274127,-0.0409614704549312,0.0065305726602673,-0.0224183686077594,-0.9094890167581592,0.2013868341597933,0.2613630226506614,0.2529078828054864,0.0809775963425636,-0.2311951667070388,0.5613967180252075,-0.1486990077354013,0.3744266023546457,-0.2523839847460389,0.0178888496011495,0.0332849361002445,-0.0339491272511193,-0.0453732907772064,-0.0927940829636063,0.1435076770368497,142
1724682469488252700,-0.096590488705039,0.1785173690244555,-0.0887421132922172,5.684507525905967,-2.286911205999553,7.656813561046123,-0.0104010039940476,-0.0708009079098701,-0.0569434352219104,-0.9088673885618124,0.2015918884096181,0.2626249484081558,0.253670751803424,0.8173408508300781,0.0092899249866604,0.6278135776519775,0.4528691476896405,-0.6018973873794079,-0.4877577979803085,0.0011321165366098,0.0399711914360523,-0.1859938606512732,-0.0827221125364303,-0.065949951712368,0.1977537469520233,143
1724682469527995400,-0.2418266426354646,0.1020617597229778,-0.0486111784338951,5.695069836452603,-2.288267296783626,7.648555435788631,-0.0498411133885383,-0.0064079598523676,0.0297862533479928,-0.9085204008872404,0.2020005576154289,0.2631121244476941,0.2540835557204671,0.9240055084228516,-0.0016303131124004,0.4694715738296509,0.1456111247226595,0.2733925782442092,0.5355877629086375,-0.045119784772396,0.0271035991609096,-0.134885951764509,-0.106865681707859,-0.1277813347905408,0.1315173521142452,144
1724682469567738400,0.0001052139401435,0.1189405599400401,-0.0977098481237888,5.696149448382855,-2.3069414559848607,7.642138554483652,-0.1074892878532409,-0.0313708484172821,0.0234440900385379,-0.9083780895643984,0.202999962613665,0.2629645867302765,0.2539483937158642,0.3693310916423797,0.0203010849654674,0.4723148345947265,0.4032262881204486,-0.0016278934627771,0.1309831721723079,-0.0776309370994567,0.0178332049399614,-0.2674508036376908,-0.1510335952043533,0.00293572922491,-0.0747926582250511,145
1724682469607479300,0.0167547354459762,0.0333420053705573,0.1413759713709354,5.69341622402668,-2.331775599120557,7.636637034457921,-0.0385292060673236,-0.0035992925986647,0.0342827253043651,-0.9082215316468112,0.2042991078803015,0.2624914417564008,0.2539564036061517,-0.1658247262239456,0.0747580379247665,0.3195405602455139,0.4128845624994486,0.0295411517828702,0.2350306988850236,-0.0730453059077262,0.0072563393041491,-0.3463222784418612,-0.1301651448011398,0.0266546045950846,-0.2602564899531193,146
1724682469647222000,0.0526437949508428,0.0073149991884827,-0.0819008690953254,5.697181129518151,-2.336723430786282,7.632315079605579,-0.0625684112310409,-0.0558103658258914,0.0164643973112106,-0.9081837973863428,0.2045594686376422,0.2627082958066004,0.2536572190604508,-0.376361221075058,0.1544039249420166,0.0872688889503479,0.5230286525215954,-0.0554395631492137,-0.2991144639998674,-0.0398356430232524,0.0078616216778755,-0.3293916749723255,-0.1411774009466171,0.0715563979838741,-0.4649609693584963,147
1724682469686965000,-0.0667500617146492,-0.1938055390492081,0.1103372745066881,5.714522140419483,-2.3503330000743268,7.615152932402491,-0.071983091533184,-0.0378901436924934,0.0114279957488179,-0.9076199226875512,0.2057430056727847,0.2634484211225886,0.2539503550449659,-1.148881912231445,0.1569181084632873,-0.1451325267553329,0.3161853527229279,0.1630716703504323,-0.2692015562951564,-0.0078769503161311,-0.0229453556239604,-0.2453374820343218,-0.1362116634845733,0.0442691443413263,-0.3815556505169719,148
1724682469726708000,0.1620627855688333,-0.1698174913488328,0.1122375551700591,5.7070233090966935,-2.3798576391138133,7.611606638097762,-0.0856669694185257,0.068202331662178,0.0574050173163414,-0.9075806550770308,0.2071380225739232,0.2626973903758742,0.25373486817188,-1.274432897567749,-0.0148954112082719,-0.1861065179109573,-0.2430525311686098,0.2079372325152158,0.7065788280814885,-0.0106421327218413,2.6351888664e-05,-0.2373337151303887,-0.0895952507853508,0.0709075101876631,-0.2742421990771778,149
1724682469766451000,0.3254413299113511,-0.1964797266945242,0.0529202738046646,5.667395063063502,-2.430707682515681,7.625134812712669,-0.083475686609745,0.1012877449393272,0.0836633965373039,-0.9081281289967488,0.2089290934448268,0.2599518178977206,0.2531345494939855,0.1883440017700195,-0.1215575709939003,0.0760866031050682,-0.947317164023593,0.0516021769434213,1.471493233014643,-0.0183140486478805,-0.0154760163277387,-0.1838803208297118,-0.0557339303195476,0.0766713435445446,-0.2591481268524192,150
1724682469806193000,0.3396154012143612,-0.0378403397031128,-0.2150572936534881,5.666089825683832,-2.4464433040469884,7.621071216535568,-0.0395368374884128,-0.0981129854917526,-0.0908169150352478,-0.9079298666816727,0.2098490070423204,0.2596091392579312,0.2534359377832307,-0.497033029794693,-0.1133462935686111,-0.019406558945775,-0.4559672598354518,0.007241641691327,-0.9071680359214545,-0.0181128215044736,0.0048390887677669,-0.1534353338086046,-0.0231804512441158,0.0348716032577445,-0.1869442932439036,151
1724682469925421600,0.1471738439947366,-0.0609758622273802,0.1936731448411941,5.633326789245009,-2.506206575614214,7.625938530310988,0.0390070304274559,-0.0214434936642646,0.0053736418485641,-0.9078077675077896,0.2127082192810312,0.25678891125488,0.2543614235596305,0.5516311526298523,-0.311282753944397,0.1295915693044662,-0.2655202374339103,0.1554243704676628,0.4007381245665252,0.0039541097357869,-0.0225386694073677,-0.2199954259091056,-0.0100987013429403,0.072662692425074,-0.0811113078865222,152
1724682469967647200,0.0455395159035921,0.0807744954138994,-0.0036100071907043,5.639641963741183,-2.4715344906836747,7.632583959674835,0.1674809157848358,-0.1232618913054466,-0.0443617105484008,-0.9081152243972938,0.2108183405391364,0.2576861132939232,0.253929718563579,1.3672266006469729,0.1671575903892517,-0.1008247211575508,0.9308987478598952,-0.2959966242402791,-1.2075704939052463,0.005092576611787,0.0092882178723812,-0.1155618955534882,-0.0066481004469096,-0.0326570438972557,-0.1251461365818977,153
1724682470007390200,0.0616091916948556,-0.0613115239225327,-0.382967636206746,5.677291603177785,-2.4301544325470923,7.617945193469524,0.0069353780709207,-0.0971257388591766,-0.0330704189836978,-0.9077726904509628,0.2092598606537755,0.2603904654856824,0.2536843777589381,-0.1058532744646072,0.1439760476350784,0.028645321726799,0.1195909136075526,-1.5449246721893548,-1.4565630826473237,0.0180762112140655,-0.028467871248722,-0.1370681637749541,-0.0087123243138194,0.0882728974784258,-0.1133920498342718,154
1724682470047133000,0.0507744939476251,-0.0671769088245928,-0.341392932280898,5.686330649679899,-2.4435922985300422,7.606897145232557,-0.0384534895420074,-0.0628267675638198,0.0398281253874301,-0.9075294116543744,0.2101124216781703,0.2607852614359442,0.2534447860382648,-0.0874513611197471,0.0682330280542373,-0.3747314214706421,0.4259752224799245,1.3261252693980932,-0.4196291413888335,0.0170061327517032,-0.0374598428606987,-0.0878064398773014,0.0215140786021947,0.0690898434735601,-0.0131651933712768,155
1724682470086876000,0.5072328983008861,-0.0585170708984136,-0.3542044830590486,5.730560252028703,-2.457040685907006,7.569280823543667,-0.022187752649188,-0.1603141725063324,-0.03123514726758,-0.9066688502312577,0.2115606814142125,0.2632796034413634,0.2527399464330227,-0.6848955750465393,0.1154668033123016,-0.3267697691917419,-2.341655918752402,1.213330080345273,4.769665009833872,0.005488543305546,-0.0029990235343575,-0.04933774827593,0.0413281172513961,0.0770593108156696,0.0298477175309904,156
1724682470126619000,-0.1039390979021787,-0.1847913347274065,-0.0928963103622198,5.697542364045978,-2.49581640676409,7.58151019051969,-0.2236237972974777,0.2826375663280487,0.0857868194580078,-0.9066400444069724,0.2133866922813942,0.2606082612624523,0.2540736454522866,3.623657703399658,0.0163904447108507,1.0761483907699585,-0.3516741608638316,-2.3605606718391177,-1.822781536366045,0.0337279103696346,-0.0392800793051719,-0.1340514097696636,0.013992317020893,0.1734899510501883,-0.1809214344915002,157
1724682470166360800,-0.0949871451616287,0.0160188223868608,0.6267226165562868,5.634721458473801,-2.5673399664908647,7.6045426910609,-0.0469546988606452,0.0383162535727024,-0.008835544809699,-0.9072315313509166,0.2160638308145768,0.2561106204107004,0.254272992376531,-1.3422905206680298,-0.2567338943481445,0.0405871346592903,0.7377704504851251,4.391440476500987,-0.0908969532385468,0.0551958680152893,-0.0271517150104045,-0.028722802871,0.0232823248952627,0.074400384671567,0.0246969722878653,158
1724682470206103600,-0.2640671160161495,-0.1174836391299962,0.3762532332599163,5.687981924018263,-2.517185650268197,7.581624172288179,0.2234802544116974,-0.2179123312234878,-0.0801432803273201,-0.906505171897087,0.2145012208264616,0.2596805266676457,0.2545655248983636,-0.1240184307098388,-0.329111635684967,0.0567770227789878,-0.0535156824145466,-3.5100562856554984,-0.5714952348530292,1.05523504316e-05,0.0250783078372478,-0.0563704096919624,0.0218481253832578,-0.001225150460095,0.0421129161555087,159
1724682470245846500,0.1619704311102628,0.0725415045976638,-0.2836275565326214,5.744675286620855,-2.44369897377491,7.56289842903018,0.1645079553127288,-0.1487503200769424,-0.0158006194978952,-0.9063179912679435,0.2113011125079194,0.2641047809376147,0.2533540794532023,0.9305995106697084,0.3758257925510406,-0.4597580432891845,1.6148159545391798,-0.5607745188742875,-0.7621124992549418,0.0038774523418396,-0.0507570505142211,-0.1858823448345065,0.0158315040171146,0.110571019330481,-0.0887922999763395,160
1724682470285589500,0.3778454708874225,0.1287280867218971,-0.363047714728117,5.757296283262968,-2.41908124986887,7.561215005987882,0.0212300810962915,0.0220974367111921,0.0236646011471748,-0.906523763992282,0.209948999021647,0.2653426973168932,0.2524468782092511,0.121100515127182,0.3463672995567322,-0.0784459114074707,-0.2189030092962086,1.6613643552243709,-0.0585053804606199,0.0342478193342685,-0.050670638680458,-0.0593236106414813,0.0260190814733505,0.1074514808041509,-0.0436142743289005,161
1724682470325332500,0.3103530663728713,-0.1522591844350099,-0.470897264072299,5.759097195205092,-2.430784985535592,7.556088164493441,-0.0281053762882947,-0.1309934258460998,-0.0278809666633605,-0.906428236870748,0.2105768001976671,0.2653377842905241,0.2522716894829561,-0.1768222600221634,-0.1218648999929428,-0.0862860605120658,-0.8723858416799455,-0.6061281568169593,0.823551302818954,0.0162497851997613,-0.0265513379126787,0.0490778460975736,0.0648653656244278,0.0125718648373382,0.1009045525118708,162
1724682470365074400,0.0504009844601154,-0.2447720484375953,-0.0988134254515171,5.821677862280607,-2.410846505486965,7.514404154974222,-0.0864019468426704,0.0495940595865249,-0.0610463246703147,-0.9048620398944284,0.2112063926774336,0.2688193916572522,0.2536784317658027,0.4849325120449066,-0.5669625401496887,0.1711490750312805,-1.7057555778756737,-1.2190262461602688,0.6221148304998875,-0.0170062724500894,-0.0236019138246774,-0.0941441367325373,0.0475278832018375,0.1560592343050986,-0.030007632216881,163
1724682470404817200,-0.1167635081619024,0.0707274409130215,0.1676724421441555,5.769772902998328,-2.4758526461437342,7.533277197748422,-0.1538117825984954,0.204651266336441,0.1270237416028976,-0.9053720072382307,0.2137078387683333,0.265025893502235,0.2537553711491102,-0.3324148058891296,-0.4105255007743835,-0.0800599828362464,0.7698566836409271,2.3933096797525883,-0.1381067404419183,0.0063866255804896,-0.0198438353836536,0.0020257049901316,0.0316792391240596,0.1137323237724602,-0.0506036445924779,164
1724682470484359700,-0.0314373407930135,0.1648223134100437,0.0962321767866611,5.787696682223677,-2.457420040613413,7.525559170717001,0.1448494046926498,-0.0108025642111897,0.020241130143404,-0.9051989084020464,0.2130253297318154,0.2663146127743809,0.2535976131273214,1.546837329864502,-0.0209401473402977,-0.0664995685219764,1.0200633243478834,-1.6070821454167366,-0.7917009973108768,0.0398985706269741,-0.000649394118227,-0.0261454746127245,0.0503127202391624,0.0928679701837245,-0.027939735335065,165
1724682470524104700,0.6112058984726667,0.2965967820905149,-0.1226379531532526,5.786249990546703,-2.4263886502727865,7.53673230663836,0.0391739234328269,-0.011580123566091,-0.0803614929318428,-0.905547822813839,0.2112552208335049,0.2666549004591587,0.2534748498146194,0.1757930517196655,0.241418182849884,-0.235662430524826,0.6540943153455853,0.3860702783972025,-2.09811326597929,0.0327596627175807,0.0022637986112385,-0.0478792337304214,0.0667021423578262,0.0747899685110431,0.0012442227700346,166
1724682470563848400,0.5532575673729181,0.1673774047203362,0.0987251626461744,5.807986021536588,-2.3592688784629106,7.541321387994289,0.1841211020946502,-0.0687189921736717,-0.2459962218999862,-0.9050339382017512,0.2087089580107828,0.2682166928009228,0.2557613008513336,0.2851560115814209,0.3270475566387176,-0.4971792697906494,0.812611098870635,0.8519125971674919,0.1504655790165066,0.0278219170868396,0.01684539206326,0.0059418979041045,0.0775539949536323,0.0170439835914701,0.0149829171675955,167
1724682470603590700,1.0987585292696953,0.6530975593931972,-0.6353489906042814,5.911912844479084,-2.1690761230833826,7.517631300327181,0.3322694003582001,-0.4104377627372741,-0.7053673267364502,-0.9026853649457882,0.2023023796275081,0.2752838839253451,0.2616327971661236,0.2842572033405304,0.0551532842218875,-0.1411664187908172,-0.6184861186087132,-0.5182680870562791,1.894745825597644,0.0419357530772686,0.0055327196605503,0.0326265140449628,0.1385475844144821,0.0806812276398763,0.0177076008826436,168
1724682470643335700,0.9057184216350316,0.2623798935815691,-0.6584358516812324,6.145654380336404,-1.848987406246364,7.4150225742459295,0.4660739600658417,-0.9741531014442444,-1.053742527961731,-0.896346930041321,0.1937185191829223,0.2905377620237093,0.2731723288088435,1.2699589729309082,-0.378082662820816,0.1170962899923324,-1.2868855842910707,-0.9340724094599484,-0.355947527334094,0.0625878646969795,0.0023181778378784,0.0020257049901316,0.1923377960920334,0.1137323237724602,-0.0506036445924779,169
1724682470683080700,0.7254115388453006,0.1003917806841433,-0.663304334500432,6.6185027784764765,-1.3648293863236904,7.10654991479218,0.4935172498226166,-1.508531093597412,-1.5025007724761963,-0.8827061481070212,0.1840804072754021,0.3221508955722701,0.2883803097207466,1.5909316539764404,-0.137483537197113,0.0946568325161933,0.0246342366494238,-0.5353881486833095,-0.337801045268774,0.1154130026698112,0.0184178818017244,0.1603800931788981,0.2541485726833343,0.0404223464197944,-0.0912221666049212,170
1724682470722825500,-0.2185889749109744,0.0553955778770148,-0.5474865827560425,7.072889637252688,-0.8776542105369269,6.736048376926779,0.1747269630432129,-1.2468104362487793,-1.349482178688049,-0.8658596076920498,0.176834332300622,0.3539586470332785,0.3061538217671593,1.2480692863464355,-0.309742122888565,0.105342224240303,-0.1005439025059342,0.545801406148076,-0.8002700882136822,0.1914426535367965,0.0627337098121643,0.204662887019664,0.3708607256412506,0.0161836050441139,-0.0261188514672801,171
1724682470762569500,-0.2019271784454584,0.2349898919505998,-0.2109410905063152,7.462343128347396,-0.4531614086344838,6.346531757467985,0.3156321942806244,-1.4908130168914795,-1.2522454261779783,-0.8485787157610888,0.1724275227824062,0.3829956649907045,0.3217099713425703,2.567880392074585,-0.163468912243843,0.1039154380559921,0.2183627649396657,-0.8838456125229597,-0.4629775769889354,0.2414616793394088,0.1209825053811073,0.275247010471858,0.5754798650741577,-0.0921744623610749,0.0630316074470989,172
1724682470802314500,0.5122229616731405,-1.2181005096174775,-0.4494090703636407,7.619084426632523,0.0887855688414536,6.173496326985955,0.8165331482887268,0.4167101383209228,-1.4899710416793823,-0.8372034099285288,0.1562243580147382,0.4010401951747952,0.3374184706964541,1.8435721397399905,-0.2097111195325851,0.2061567902565002,0.4063429588362574,0.3810837221562862,0.0219563957422971,0.290515124797821,0.1494742184877395,0.121140398938721,0.7177019119262695,-0.0749247145063476,0.0249471430900739,173
1724682470842059300,-1.771649607282877,1.2291034035384654,-0.5648544816643,7.795460984236001,0.6036580038437619,5.919187219396234,0.0419276878237724,-1.795623779296875,-1.2139605283737185,-0.8213350544495269,0.1452698958832536,0.4208349888315679,0.3566558274435238,1.1186895370483398,-0.3749317228794098,0.3818705081939697,0.0449133468292653,1.2048054131060837,-0.9319944341421128,0.297151654958725,0.1660856157541275,0.0828637045118026,0.8917396664619446,-0.1782834872033447,0.1209758286273106,174
1724682470881804500,-1.2265578107088804,0.0029054391179233,0.069014499515295,8.066043181234598,0.939063203484565,5.497953273159265,0.2509315013885498,-0.7235873341560364,-0.6093075275421143,-0.8043342630850342,0.1431151284179576,0.4463187939916321,0.3651903111646726,1.4728965759277344,-0.3818425834178924,0.5852824449539185,0.010278963560611,1.049670380973816,-0.7710837412178516,0.3386400640010834,0.1019758656620979,0.0069691157809487,0.9928947687149048,-0.1156092144270893,0.1409913651006762,175
1724682470921549600,-1.3080869238823651,0.7768524608124047,-0.1111965216845273,8.189171548253297,1.080748606130853,5.285813912779092,0.0339207053184509,-0.6632152795791626,-0.2327472120523452,-0.7958491218952062,0.1432038495482963,0.4582479233626476,0.3689520311046375,0.522597074508667,-0.0762508586049079,0.8719993829727173,0.6221142459779977,1.5924515625178812,-1.5717343531817196,0.3973923027515411,0.1121067106723785,-0.0333613288422464,1.034840106964111,-0.2921967935658991,0.2844087883044965,176
1724682470961293600,-0.8259984037101268,0.99768263877891,0.0136836574375629,8.33271784940064,1.1777488446805626,5.03478923368752,0.008967662230134,-0.8794634938240051,-0.2580736577510834,-0.7872667498073584,0.1452728869427603,0.4713735110063469,0.3700186543127643,-1.610429286956787,0.0923082754015922,1.2201440334320068,0.2837409537792205,4.029430288127064,-2.9722213283419605,0.4567956328392029,0.0798324197530746,-0.3057791460534557,1.1006665229797363,-0.2334499324996024,0.5704684125559404,177
1724682471001038600,-1.6474989114791154,0.9779097976207732,0.2834185899570584,8.429074529349803,1.2362775329515336,4.85723164960593,-0.0118624968454241,-0.1085448935627937,-0.1158166006207466,-0.7806680757228228,0.1478796443301855,0.4800851175440127,0.3717622671366426,-3.477585792541504,0.4523791372776031,1.973871111869812,-0.5516132342319935,3.4826720196455714,-3.692597795629501,0.4957709610462188,0.0737103521823883,0.1152671777900773,1.1122145652770996,-0.4506442016491666,0.7117755199417471,178
1724682471040783400,-1.748653931620717,1.777691810056567,-0.041321021425724,8.43012374614179,1.2313709100790322,4.856659402675926,-0.0564222894608974,-0.0966264009475708,0.1558574140071869,-0.7807410110695912,0.148056600501177,0.4800609598259056,0.371570116956797,-4.421756744384766,0.3480232357978821,3.0326895713806152,-1.1442001377567648,6.648070818266272,-2.134935806941986,0.508691132068634,0.098603755235672,0.0075251844693528,1.037539839744568,-0.424907958574593,0.694620533131808,179
1724682471080528400,-0.6052560501575469,2.04648946172595,0.7867898443937301,8.501482762956618,1.121488320537284,4.757881925320625,-0.4236533939838409,-0.3841713964939117,0.1006373539566993,-0.778082749528316,0.1562740065227365,0.4826944890365975,0.3703669812446677,-3.386314630508423,-0.009891758672893,4.424472808837891,-2.259025420208275,4.812990064558386,-1.0837374857485294,0.5536060333251953,0.1251189112663269,0.3085499259410426,0.9052906036376952,-0.5464406538996845,0.7869472269125283,180
1724682471120273400,-0.6571370440423489,1.800704436853528,0.0529039071917533,8.49530553562641,1.0038038250729442,4.7950554716780776,-0.6556432247161865,0.2668192982673645,0.1248705685138702,-0.7775484168156291,0.1641583196156467,0.4780923069754493,0.3740298462071874,-2.827563524246216,-0.0858343541622161,5.481225490570068,-2.377274783013761,3.240125246042013,-1.5040128160864117,0.5407969355583191,0.1934396177530288,0.1261325629365164,0.8354305624961853,-0.6860726311475038,1.0548577935490755,181
1724682471160017200,0.8073357888162136,1.624840651077777,1.1036071383446455,8.471093469911814,0.8326576424036175,4.870075641348958,-0.7423986792564392,0.1346800774335861,-0.096839040517807,-0.7768240021665965,0.1755970954278555,0.4699584011581971,0.3805906258153069,-1.979613661766052,-0.0001584904384799,6.113422393798828,-2.2971885621249672,2.528945646166801,-1.337431676310301,0.4936078190803528,0.1690602153539657,-0.2911652037621475,0.8403898477554321,-0.6610805209711194,1.2592534809999167,182
1724682471199762400,-0.047729134902358,1.6438472571037708,1.0638555581927298,8.438357906001805,0.7935993782781064,4.933020465561747,-0.1954241096973419,0.1218601167201995,-0.1024882048368454,-0.7751448811839087,0.1804814558844357,0.4646637522930976,0.3881550536557362,-1.84115731716156,0.3219899833202362,6.97984504699707,-4.971314248120785,-2.555471834042668,-1.2733401662804185,0.4403635859489441,0.1775921434164047,-0.521150108765997,0.8964465856552124,-0.7084253327310085,1.5206231746256351,183
1724682471239507500,0.7887748807311058,1.157402441418171,0.8536907127559185,8.443865271246432,0.7893827104311436,4.924266081219911,0.0045361844822764,-0.1176284030079841,-0.0604103356599807,-0.7743701729025696,0.1815533527560451,0.4647264625097196,0.389125290453731,-2.4114818572998047,0.6446836590766907,6.8753156661987305,-6.427830569016933,0.2207268637225031,-1.0893103174448011,0.4211079478263855,0.0563200004398822,-0.9831147458527236,1.003182053565979,-0.4684158955853432,1.381832397442311,184
1724682471279252200,0.1281704528391361,1.5117974786132573,0.1969400376826524,8.476141400951146,0.8695353476196527,4.854825465247035,0.4318293631076813,-0.3614942729473114,-0.1541598439216613,-0.772326771951059,0.1788753212159028,0.4695491479207558,0.3886369791257087,-3.6237306594848633,0.3140675127506256,6.0145769119262695,-9.814807587492464,-1.641271269135922,-1.982737412783504,0.4220352470874786,0.0339535027742385,-0.6997118649214505,1.0466642379760742,-0.6497045559540391,1.2920283540070057,185
1724682471318997500,0.3427969538599252,1.2917901613369582,-0.714493254467845,8.465470953854918,1.1107912776950746,4.824140404126048,0.7854247689247131,0.5745834708213806,-0.4556295275688171,-0.772097240294551,0.1653465067598035,0.4761279439202183,0.3870769992339647,-3.256382942199707,-0.1675417274236679,4.7079596519470215,-8.78669495833218,-5.861946744304895,-1.175684532561898,0.393395721912384,0.0492991991341114,-0.5603499367866664,1.090348482131958,-0.777510705525428,1.3637836766630411,186
1724682471398486300,-2.0047177739232778,0.4035867919959127,-1.454161282202601,8.658952375516295,1.2983914592981338,4.416686269177496,0.1441615372896194,-0.9362000823020936,0.2550884187221527,-0.7609185677833195,0.1633075687735095,0.4981388474227425,0.3823498289800429,-0.5138735175132751,0.2662652134895324,2.056051731109619,-1.829089988860488,-7.107982577943801,0.161339731991291,0.2371592223644256,0.0947261452674865,-0.1345011628311593,1.183897614479065,-0.6829935159631073,1.3812056438460945,187
1724682471438231300,-2.716189050221443,0.1290676208745688,-1.9066820548459888,8.910137798127531,1.22365617098324,3.909281813701987,0.2289276421070099,-1.9016982316970823,0.3161988854408264,-0.7490907394558308,0.1746515581030787,0.5197873939675294,0.3717269205660409,0.0219984259456396,0.5653844475746155,1.3192806243896484,-1.4111854793071743,-7.706756280344724,0.285647591118142,0.1881195157766342,0.0872405767440795,1.330958827034384,1.1066100597381592,-1.2355883816435933,1.2817347773991523,188
1724682471477976300,-4.422654529932141,-1.2548761426985262,-2.54633897177726,9.259839124548437,1.084438838950917,3.041339580492675,0.3803279399871826,-2.839635372161865,0.8352358937263489,-0.7287049670417087,0.1923415726646436,0.5549230140620006,0.3522132762000378,-0.1772416979074478,0.4062625169754028,0.903759241104126,-1.8913485843747853,-8.802898489636183,0.922769509679079,0.1938788294792175,0.0886575579643249,1.1625625275950875,1.0429975986480713,-1.0508790261112153,1.242461482283473,189
1724682471517721000,-5.326152352908253,-3.267367765493691,-3.1760569707572457,9.634069327548143,0.5442627253387123,1.7489632898308336,0.2446971386671066,-3.828850746154785,2.217313766479492,-0.700918061399919,0.2278291251808931,0.599100642657814,0.312867675377793,-0.4354389011859894,0.1912440806627273,0.6127334833145142,-0.7264648472905159,-9.149481976297498,1.460016437971592,0.1217608302831649,0.0735474154353141,0.9978186862487344,0.9563146233558656,-0.9977280853558332,1.143270382625982,190
1724682471557499100,-3.5972231124550103,-6.244090204647183,-2.898141946652532,9.791172444882989,-0.4824189942356198,0.2657168377182446,0.0854206532239914,-3.740959882736206,2.9925436973571777,-0.6696403657607248,0.2801529531400343,0.6387225803096576,0.2552050095279065,0.0098267160356044,0.3586465716361999,-0.1403793841600418,0.2305044536322355,-9.735375738859176,2.641065127915144,0.0172908678650856,0.1673210561275482,1.1587622585292905,0.6963008642196655,-0.9658052260681986,0.7737915388718247,191
1724682471597240300,-2.5717063450068234,-8.149244611534476,-1.954248400402069,9.59689315084219,-1.7341694791942834,-1.0308714994143695,-0.058172732591629,-2.7774720191955566,3.500651597976685,-0.6407040712021129,0.3367854033030599,0.6626729284796496,0.1921939675202223,0.5366809368133545,0.0793098658323288,-1.1405364274978638,-0.6738035166829824,-9.82334160708189,3.0567841101229187,-0.0944279804825782,0.1320597827434539,0.0708122879185713,0.4260401725769043,-0.3078852880198508,0.3711262456350028,192
1724682471676732700,1.036339190235734,-11.835185287362336,-1.3096674710720777,8.241040851700305,-4.637220532937348,-2.5984166572779417,-1.736741065979004,-0.8765527009963989,5.065724849700928,-0.6006737661170859,0.4800679987025765,0.6340481791621468,0.0819051350027108,1.5496193170547483,0.0891237184405326,-3.2961275577545166,-2.400465981248021,-6.791130212679505,1.9174001404762264,-0.0868291780352592,-0.1128147542476654,-0.2659099856701679,0.2699149847030639,0.8429644438192248,0.3524306052543223,193
1724682471716479000,3.658538874161243,-11.131308703976869,-0.0424281058847904,7.073470067489147,-6.066241820925474,-3.0556691346183418,-1.938159465789795,0.5733380317687988,5.60174560546875,-0.5853020906027355,0.5681817898217932,0.577031385284062,0.0403197073010524,2.038348197937012,-0.2929874956607818,-3.652688980102539,-4.672759171569347,-5.445153995385765,1.1301087763011457,-0.0753378868103027,-0.0909313634037971,0.0513821135851088,-0.056220918893814,0.7109757478661834,-0.1435675357316155,194
1724682471756225300,5.744115899172425,-6.917610228213667,0.0166015907108783,5.73189120837152,-7.251724109402298,-3.275409033130109,-1.4703305959701538,1.0053727626800537,5.145157814025879,-0.5770268488909768,0.6462747492735589,0.4993278886172472,0.0063742471407847,2.5848312377929688,-0.7050763368606567,-3.866469144821167,-5.979251519736647,-3.315038740468025,-0.1209966156870126,-0.0854833424091339,0.0260052848607301,-0.1849841721520759,-0.3332647681236267,0.5798375312626362,0.1177118492621462,195
1724682471795970600,6.635934974792599,-3.0483985590934752,-0.0642012540146708,4.442635826209187,-8.002789144942163,-3.5197704549402,-1.1305060386657717,0.3594622611999511,3.924325466156006,-0.5656599868497506,0.7031679042941127,0.4301316588510608,-0.023887429850403,2.950828313827514,-1.092644214630127,-3.76028084754944,-6.69613722229898,-1.345385265663266,-1.5530834287256,-0.1323887407779693,0.1118768081068992,-0.4045438369924202,-0.3989845812320709,0.5688500906391069,0.4376507914980873,196
1724682471835716600,6.1767006759852165,-0.7411439455062151,0.2820113535076379,3.336210123312473,-8.393631460046768,-3.8192946687847376,-0.8111121654510498,-0.3698310554027557,2.8998115062713623,-0.5499152251287159,0.7411063012673154,0.3814331910007692,-0.0535099252263505,2.803957939147949,-1.2900023460388184,-3.4724695682525635,-6.248654151561856,0.4586722810104489,-2.809484589034319,-0.1078191250562667,0.0624948143959045,-1.0488777692914009,-0.3871858417987823,0.6518547197252511,0.4334811045980081,197
1724682471875462700,6.20601211066544,0.4294020551234483,0.7915355776160955,2.383186929666996,-8.552929457077383,-4.163919130332768,-0.89002925157547,-0.7434324622154236,2.2060563564300537,-0.5297742557103265,0.7675682492319805,0.3509127684463618,-0.0838959013876152,2.1686880588531494,-1.5043046474456787,-3.258975982666016,-5.743409212207794,2.07063226159662,-4.035198642395437,-0.1258091479539871,0.106964610517025,-1.2177770498167724,-0.2751446366310119,0.5759208327429369,0.5623570753579958,198
1724682471915209000,6.436289769804477,0.8134317676037549,1.7819097200125456,1.5970048419080674,-8.544158121600747,-4.5406277061447495,-0.9472227692604064,-0.5051127076148987,1.748806357383728,-0.506697514641566,0.7892473030351392,0.3295394854907837,-0.1083972723008701,1.2390737533569336,-1.5002487897872925,-3.065877914428711,-3.9575393563926218,3.45770241356194,-4.890368780054152,-0.1365332901477813,0.0842839777469635,-1.2374769718691705,-0.1033140048384666,0.6079407226642594,0.6806567435786127,199
1724682471954955000,6.447582732713222,0.8772966292709111,2.231819433374703,1.0199320261184126,-8.45584212476611,-4.860952131433785,-0.9360606074333192,0.2818954885005951,1.5622172355651855,-0.4874394261485767,0.8085062058683941,0.3068506030269181,-0.1206781362023481,0.4797063171863556,-1.261852502822876,-2.873603343963623,-2.615622643622756,4.378411483579874,-5.256694201278687,-0.1324964314699173,0.0967864245176315,-1.3607554148830472,0.0796319097280502,0.7311473790835589,0.6934536082442849,200
1724682471994701300,6.307783801400661,1.7255635634124278,2.6323446458429096,0.6365981869477778,-8.308122337326408,-5.171097400274872,-1.007264256477356,0.9119389653205872,1.5035654306411743,-0.4713207017425362,0.8283625479004783,0.2783308723675315,-0.1191816668484822,-0.0255310088396072,-1.0182782411575315,-2.5483157634735107,-2.124646468117833,5.1539481125533575,-5.506460989263654,-0.112317219376564,-0.0444827713072299,-1.3243486151143908,0.2494600564241409,0.7295224812954664,0.6441360351067036,201
1724682472034446600,7.604600558727979,1.22445119381845,2.403095160707831,0.3689889413453638,-8.13890441930592,-5.458246116670966,-0.8613975644111633,0.7926984429359436,1.2576208114624023,-0.4573856443332345,0.8465993612664868,0.2481181459370102,-0.1118267762717131,-0.4510016143321991,-0.6370360851287842,-1.922938346862793,-1.399423729842901,6.344951794800162,-5.723250221276283,-0.1003351509571075,-0.144424706697464,1.570355466043949,0.247539073228836,0.1817404775231145,0.7069414508488029,202
1724682472074192600,9.309464448460936,-0.4730938973337412,2.363656299766898,0.1736695088681764,-7.995498403412103,-5.67558596830368,-0.4445562064647674,0.1653104871511459,0.6088666915893555,-0.4458610821299951,0.8583712791187126,0.2292882531128544,-0.1087827959399792,-0.6166408658027649,0.1845134049654007,-0.7493828535079956,-1.9173004794940351,7.040913367277383,-5.355391306874155,0.0646457448601722,-0.2216912508010864,1.7160095531255006,0.1075972840189933,0.7859091891016811,0.58627399405092,203
1724682472113939000,9.33849297454655,0.2920972787141799,3.0029332774698734,0.061890835347562,-7.986163588833809,-5.691023191410303,0.3566703796386719,-0.1441832035779953,0.0541725233197212,-0.4441619069403237,0.860188226779102,0.224137590966706,-0.1120659668923194,-0.7215949892997742,0.2060216814279556,0.8788504004478455,-5.213419707697629,5.834837203583121,-5.6529065189838406,0.1644166707992553,-0.5149598121643066,2.0768216177560386,-0.0139755513519048,0.4586698333250358,0.4542807315206155,204
1724682472153685000,10.081721325111388,0.8057862212866544,2.460043959376216,0.1347865647769533,-8.15000098285973,-5.452497928407788,1.115025281906128,-0.0767398104071617,-0.7654978036880493,-0.4569920637166504,0.8518357946082,0.2288575877176451,-0.1147097828282728,-1.352364420890808,0.6728380918502808,2.045948028564453,-3.664953417378664,5.932562833797931,-4.737423074659705,0.224128320813179,-0.2687752842903137,2.7881524626702068,-0.0701295733451843,-0.3969479385033249,0.6802794346988201,205
1724682472193431300,9.86153660544157,0.9528215335935354,0.8667278889834881,0.5667084389679133,-8.421983109784126,-4.991937349432707,1.5661849975585938,-0.1455961316823959,-1.970541000366211,-0.4831245877325704,0.832157446071354,0.2490621414617523,-0.1098757881102853,-1.4534265995025637,1.2263425588607788,2.8702991008758545,-3.7368858501672735,6.060909812247753,-2.605948806348443,0.2390578687191009,-0.1887162625789642,0.3502833640925586,0.0101239504292607,-0.6037520388027653,0.2357026615961454,206
1724682472272923000,7.136113278406858,-2.2995073604613543,-0.6670709935575724,2.478850366654992,-8.523030577898025,-4.169365705300868,0.9235918521881104,-1.2282733917236328,-4.134920120239258,-0.5297836895568745,0.7648532809724689,0.357180563423213,-0.0821624697721483,-1.089962363243103,1.304847002029419,4.14805269241333,-5.198757560616731,2.871175029271841,-1.1708433761410415,0.0737188681960105,0.5711849927902222,-0.511392063806951,-0.0635978430509567,-0.8001300952211022,-0.4050834602944552,207
1724682472312669000,5.529439713791012,-4.716778930559754,-0.0503594834059476,3.744650638949871,-8.071850406208634,-4.122285974217951,0.4315673410892486,-1.5081292390823364,-4.766132354736328,-0.5349814480319305,0.7200599727068009,0.4378261388723511,-0.0601405652786251,-1.878827691078186,1.0029053688049316,4.141699314117432,-5.37479918717742,1.4539780345901847,-0.4938432553738355,0.0813550353050232,0.4022010564804077,-0.8885794361118227,-0.1624391078948974,-0.4626576243195682,-0.4863616674467921,208
1724682472352415000,3.566894609686732,-6.478499264502525,0.8447831836789846,5.031580793035031,-7.252695584782957,-4.272232205535471,0.1738380491733551,-1.1226654052734375,-5.0311598777771,-0.5304027984394631,0.6685783347243327,0.5204096709111456,-0.0291476963664867,-2.0055811405181885,0.6738095879554749,3.99379301071167,-5.350711624625325,-1.0685647587969898,1.015359530571103,0.0928980186581611,0.1009095907211303,-1.9104042902395129,-0.2560780048370361,-0.1233122174193151,-0.4243050242453813,209
1724682472392161300,1.6214128685861826,-6.894123554164171,1.25634270811975,5.939774664872885,-6.450707002213597,-4.3906519564718005,0.1262596100568771,-0.7075085639953613,-4.915401458740234,-0.5254892002554349,0.6262456984267922,0.5759142885648227,0.000331320151439,-1.690996766090393,0.3379837572574615,3.754692316055298,-4.28365639360845,-3.1967461230427023,1.5170307030916212,0.0733638554811477,-0.1971866488456726,-1.660067885673046,-0.245117112994194,-0.1393948166242335,-0.1441302476482931,210
1724682472431907300,-0.378896441245079,-7.16917734361887,1.4895622659295795,6.962650562423467,-5.26166672899425,-4.4728871720880266,0.201561763882637,-0.1715886741876602,-4.475037097930908,-0.5197746428207181,0.5678308953580355,0.6368844861041618,0.042195645189502,-1.2714943885803225,0.1582830846309662,3.384721279144287,-3.2110324225485325,-4.893419692057371,1.2697989865422248,0.0637058466672897,-0.2590649425983429,-1.6750807458877564,-0.1719904243946075,-0.09668562877574,-0.1194262976303696,211
1724682472471653600,-2.4156653039455414,-6.530940230357647,1.3328513627827168,7.749049361672997,-4.081508265888691,-4.411794990004599,0.2806870639324188,0.18093141913414,-3.852972030639648,-0.5179582756354569,0.5101397559372522,0.6816864233789035,0.0823429923300199,-0.7875527143478394,-0.0175682138651609,2.885542631149292,-2.2502689900398254,-6.3353223811894654,1.0771721358835695,0.1115418672561645,-0.31031334400177,-1.9235870124176144,-0.088744081556797,-0.0218810175347025,-0.1733034337684512,212
1724682472511399700,-3.933096989053488,-6.066440558367967,1.1826280680894852,8.277973867300153,-3.0015982294738293,-4.316937316441535,0.1255756169557571,0.1662141978740692,-3.105133295059204,-0.5158743733790524,0.4590168749395217,0.7137268769727055,0.1173503899513528,-0.2438822537660598,0.0849183723330497,2.3252198696136475,-0.8528782273292541,-7.568693379044532,1.3314847506046297,0.1430252790451049,-0.2857504785060882,-1.293641780553013,0.0092825777828693,-0.3657171166004613,0.1394054750155657,213
1724682472590778600,-5.184664153334498,-9.32687384842336,0.8092702640101314,8.796614294800161,-1.1688570976946502,-4.174171059755981,-0.4370905756950378,0.4691227376461029,-2.441318988800049,-0.5054564513740178,0.3829144042076824,0.7524626605750335,0.1780173765191091,0.0168886203318834,0.3126888573169708,1.3055002689361572,-0.5986451075851917,-8.975514817923306,2.130910789209604,0.0318238027393817,-0.1028766930103302,1.5257362798556684,0.2209111452102661,-1.4118934814460575,0.799037623809278,214
1724682472630520800,-9.081499742439387,-10.282253249806166,1.292930271282792,8.954904576092957,-0.3849623902205377,-3.9789240897268057,-0.3597981929779053,0.6395912766456604,-1.3460863828659058,-0.5033553576157432,0.3547076419959106,0.7596388324156461,0.2091999052734907,0.0469024442136287,-3.76362586393e-05,0.6270338892936707,-1.6206559127390383,-9.702158528912069,2.5260230367183683,-0.0860816910862922,0.153874322772026,2.292465771386772,0.1811741441488266,-1.8761049841441213,0.5639391569176688,215
1724682472670263000,-10.922495273149012,-9.398831415653229,1.2042591774001716,9.043196023008226,-0.2149357313667423,-3.787452838844061,-0.3734975159168243,0.4018836915493011,0.7208791375160217,-0.50783479803242,0.3506940819565305,0.7550629236821108,0.2213537188391743,0.1753405779600143,-0.1170341372489929,-0.3696233034133911,-1.070851116168499,-10.53810432614088,3.17575068128705,-0.1891136169433593,0.0951839014887809,1.6913263627678154,0.0799273028969764,-1.0770079582978038,0.3095661903114989,216
1724682472710005200,-8.478127021810412,-9.636024553269149,1.3010530797228217,9.06081701989472,-0.7545110843405127,-3.674605042821169,-0.2578670978546142,0.3346499800682068,2.4420740604400635,-0.5172640512164062,0.377393056944758,0.7381918420805879,0.2123330162658298,0.5281748175621033,-0.1374385207891464,-1.6861568689346311,-1.2671090168058872,-9.622600423550605,3.3416099365293976,-0.2332751452922821,0.2599846720695495,0.5198252899030223,0.0514151416718959,-0.1570559537248685,0.3275458279099315,217
1724682472749747500,-5.969282498908043,-9.051905983686447,1.192969721622765,8.936445959338545,-1.886602558891475,-3.5708602984473106,0.3405514061450958,0.2087008506059646,3.806213855743408,-0.5338394982902535,0.4216550046142758,0.7101198988478832,0.1815272791706794,0.8567394018173218,-0.4523458778858185,-2.8756442070007324,-2.56688170132935,-7.970966604223847,2.6153251219809053,-0.1423509865999221,-0.1591366231441497,-1.241813393638283,0.2246374636888504,0.9995456561718136,0.1940527735422365,218
1724682472789489000,-2.262073994123936,-8.070964855545759,-0.3239174813449382,8.499418231642245,-3.458463168801367,-3.459668745198845,0.95655757188797,-0.0601373985409736,4.502248287200928,-0.5545137993782258,0.472178034362903,0.673380960335389,0.1269662942363748,1.3073097467422483,-0.6884438991546631,-3.643529176712036,-3.260899154001474,-6.042160688114166,1.3657751427412033,-0.1443842649459839,-0.3913101851940155,0.7632317125432193,0.215443730354309,0.3272674858925864,-0.1056851378519087,219
1724682472829231000,0.6090361532181501,-7.114335161840915,-2.03016230404228,7.695550995719432,-5.024715583440661,-3.4206863958537577,0.8088878393173218,-0.6976808309555054,4.280429840087891,-0.5673121933102727,0.5201814054446425,0.6354665789529467,0.0612401321002802,2.2097554206848145,-0.8265553116798401,-3.8912408351898193,-5.484267862156033,-4.368227943217754,0.4241828591704368,-0.134440466761589,-0.1445914655923843,0.6984821769960224,-0.1431839317083358,0.1139114614653401,-0.682043448696658,220
1724682472908715500,3.3940596702128647,-5.638116361609101,-1.3270833007752894,5.420642654463649,-7.352372349065542,-3.567862577936053,0.5509194731712341,-0.5153982043266296,4.180802822113037,-0.5605051683264748,0.6061273986952523,0.5608207699859142,-0.0626387970529771,2.510549545288086,-1.725095272064209,-3.845672845840454,-7.694567829900979,-0.279213831743598,-2.6021061594456434,-0.0594058446586132,0.0674741640686988,-1.191951484490931,-0.443558931350708,0.5550883995292708,-0.2138367754152044,221
1724682472948457700,4.609721700637042,-3.059696782699227,-0.9993032987833024,4.056390483506024,-8.256946276840567,-3.3969001543357966,0.8086369037628174,-0.0755294114351272,4.260033130645752,-0.5587179352586066,0.6431586989393502,0.5094512626611993,-0.1209984510242983,1.7749080657958984,-1.8322001695632928,-3.903455257415772,-6.571550473165511,1.8162027424976228,-3.992015041968226,-0.0670459866523742,0.051177941262722,-1.338825322625786,-0.4079134166240692,0.4915989835783839,0.0145744493894919,222
1724682472988200000,6.685638624638319,-1.4295295297712087,-1.922503308834136,2.6429192313492296,-8.90040433962047,-3.1572447182595726,0.5467984080314636,-0.0383198633790016,3.8453328609466553,-0.5556441569112405,0.6745745742489201,0.4537883050080505,-0.1740258907396288,1.1824365854263306,-1.717143177986145,-3.829807996749878,-5.185285500103235,3.175816732260585,-4.726648582667112,-0.0630628988146781,0.0380846299231052,-1.992310566162318,-0.2320789992809295,0.880368584062159,0.2967035304006189,223
1724682473027942100,8.06967773834467,-0.1348211428999901,-1.8346388551592825,1.355396518198401,-9.232043355128168,-3.017060879282653,0.2822244763374328,-0.1623375713825225,3.190443515777588,-0.5466605582506593,0.6998812301107755,0.4049611902218247,-0.2175659443200125,0.4688792526721954,-1.6422271728515625,-3.3460469245910645,-4.342146576499939,4.9236517487138505,-5.6603293624609705,-0.028131840750575,-0.0496179796755313,-1.8319421634212127,0.0468406118452549,0.8340257158864289,0.4817050007473677,224
1724682473067683600,8.748599328693746,0.6939432183921337,-1.3874875005945562,0.2392334660707973,-9.351375252473352,-2.9436233026281,0.2078118175268173,-0.260532796382904,2.742671251296997,-0.5342724615611649,0.7191345518061417,0.3645936364085338,-0.2539091280602454,0.272774189710617,-1.3581846952438354,-2.6356987953186035,-2.522283265668153,6.260089153289795,-5.233703201791644,-0.0278665442019701,0.0363382175564765,-0.4159239667279645,0.2411558330059051,0.4568700904266908,0.5389414207180961,225
1724682473107425800,10.360401488369703,1.2701654817670582,-1.5092477941304443,-0.7479809519194066,-9.364211353170871,-2.814679819589853,0.4803378582000732,-0.5630371570587158,2.2353553771972656,-0.5227066607061908,0.7309209638652547,0.3305499593920389,-0.2885634578620059,0.1011459827423095,-0.5622450113296509,-1.4090251922607422,-1.873279259198904,6.897829422944784,-5.463151424369216,0.0204553231596946,-0.045201726257801,0.928873671773076,0.253189355134964,0.743383102735132,0.2000100197125226,226
1724682473186910200,12.713266929531096,3.058345368090272,-2.570105339550972,-1.807529168307036,-9.3607807942003,-2.297606349145621,0.5657193660736084,-0.2133449614048004,0.1975098550319671,-0.5173860231463776,0.7266629546928132,0.2985067381007352,-0.3393616677034334,-1.496873140335083,0.056687269359827,0.3317254185676574,-3.314596257397532,9.070610684156415,-6.981845092236996,0.292114645242691,-0.7237852215766907,1.3901944214656947,0.36761274933815,0.7837835021845996,0.1914698991758748,227
1724682473226652400,13.164789046525954,2.7542010932296512,-3.2617724297046657,-1.6320688487656414,-9.43387408746183,-2.123385216010362,0.3710935711860657,0.3102498054504394,-1.1450976133346558,-0.5277712073951646,0.7194893925140129,0.3009942365408433,-0.3364447763882421,-1.5624598264694214,1.0178712606430054,1.5559120178222656,-3.2470038996398447,8.732038069993257,-5.180957700031995,0.2980531752109527,0.0330387391149997,1.7304245935775338,0.3685775399208069,-0.107971202962473,0.2507105351084843,228
1724682473266394600,11.54750231795907,2.427148236468434,-3.63014338528216,-0.9295176687650382,-9.542268995729088,-2.061922154787928,-0.0024243453517556,0.4673211574554443,-2.3470022678375244,-0.5449280464980191,0.7089624314867115,0.3201578437521321,-0.3129294187967955,-1.1612688302993774,1.7221555709838867,3.101561546325684,-4.464099469998478,6.913318668499588,-4.437073515906929,0.1482412219047546,0.2416688948869705,0.7336730981688946,0.2802039384841919,-1.3264485100030898,-0.1715823273305781,229
1724682473345878000,8.614923264175653,-2.719434900274873,-3.1199206575155256,1.7027392987944183,-9.282698022088407,-2.665068519315124,-1.4383633136749268,-0.5688852071762085,-4.495082855224609,-0.5608614032647686,0.6759378037399901,0.4230706322352236,-0.2226069366894173,-1.3558553457260132,1.977502942085266,4.355923175811768,-6.544523350030183,4.1594285409152505,-2.523506085461378,-0.0069181825965642,0.4561617374420166,-0.2806721955920569,0.0897715166211128,-0.567168238499388,-0.2963699693310074,230
1724682473385620500,6.967072470518946,-7.244173255631328,-1.724904514981806,3.300760916529596,-8.612924783834815,-3.33060222030282,-1.744612455368042,-1.0083496570587158,-4.847527980804443,-0.5500993039160212,0.646972358252538,0.5012386843837621,-0.1660644006249549,-2.243680715560913,1.5738152265548706,4.521066188812256,-8.039629221561551,1.972206374157965,-1.7862310903429983,0.0240114908665418,0.3211566209793091,-0.7795509791813791,-0.0349884405732154,-0.3721430579947307,-0.7733561431292444,231
1724682473465105000,2.0649521701335907,-7.770242371827363,1.716338931210339,5.987046119135618,-6.313947584727406,-4.523241394796967,-1.2863825559616089,-0.00353036634624,-4.629164695739746,-0.5172343981181021,0.5694165783164692,0.6374840338484051,-0.042981301055747,-2.3101727962493896,0.3446829915046692,3.78229546546936,-4.8185775093019005,-2.80484728462249,1.468584359830618,0.0715009570121765,-0.1578371375799179,-2.023025437899679,-0.2724741697311401,-0.0128759395175613,-0.4869059669239446,232
1724682473504847000,-0.2000467715263366,-7.849442749792337,1.940360744825005,7.031003967681527,-4.9495109971135856,-4.715690550801158,-0.8547364473342896,0.2685136497020721,-4.31472110748291,-0.5091254951304723,0.5211115177535853,0.6847452744218044,0.0189213991117185,-1.7052404880523682,0.2101693898439407,3.213298797607422,-3.129981448280811,-4.709823120072484,1.3134241932570934,0.0375560373067855,-0.2344678491353988,-2.1867020884059367,-0.1691325604915619,-0.0720149782392196,-0.060897810288798,233
1724682473544589300,-1.8923048621863128,-8.05205323432684,1.9971283417075871,7.758549011424184,-3.6136946470454334,-4.787122340591251,-0.5006963610649109,-0.0400969050824642,-3.8320934772491455,-0.5008705892085312,0.4704682662328032,0.7230040961049289,0.0710875260669269,-1.171472668647766,0.0210649855434894,2.7622411251068115,-2.726039997628331,-6.167603177294135,1.148541089570522,0.0510804243385791,-0.2184908539056778,-1.6573901908963915,0.0173283368349075,-0.3697066611606627,0.0923163459166418,234
1724682473584331500,-2.878755693659186,-8.269291963672638,2.321601703369617,8.129838484796881,-2.4217164206780493,-4.920508189991116,-0.1637488752603531,-0.4652605056762695,-3.279036283493042,-0.4872051886526737,0.4218694830259457,0.7569030546414182,0.1084205289417993,-0.3534841239452362,0.0555500462651252,2.4403305053710938,-1.966637926375865,-7.667090624910593,1.4597686006903647,0.0768640115857124,-0.1690935492515564,-1.2412791406311094,0.1778185665607452,-0.4211937603570521,0.1817476744488813,235
1724682473624070000,-3.996103772586584,-8.811895450562238,2.6904163110613823,8.302823646396398,-1.3760313099481165,-5.033890239021182,-0.282160609960556,0.006859553977847,-2.968067407608032,-0.4735953223573023,0.3766516557327659,0.7840857818232195,0.1380236593042072,0.2197362780570984,0.0316331014037132,2.131431102752685,-1.3900924223959443,-8.92606952675283,2.268736374622584,0.0849439427256584,-0.3104576170444488,0.1197511456705629,0.2751275599002838,-0.7439675515595823,0.3825680789625272,236
1724682473664025900,-7.454014275941252,-11.332891599029304,2.551266199046373,8.475290921601653,-0.4013900491366162,-4.917187521135807,-0.8198629021644592,0.7987003922462463,-1.904846429824829,-0.4679868346222623,0.3400540981655096,0.7969127879404804,0.1740160859865436,0.6986021995544434,0.1991186589002609,1.646376132965088,-0.6709241618543863,-10.049633411455154,2.6833903579473493,-0.0073072384111583,-0.0968574583530426,1.5423146358214317,0.2435283958911895,-1.092215537367016,0.5757214011806995,237
