time_imu,phone_acc_x,phone_acc_y,phone_acc_z,phone_gravity_x,phone_gravity_y,phone_gravity_z,phone_gyro_x,phone_gyro_y,phone_gyro_z,phone_ori_w,phone_ori_x,phone_ori_y,phone_ori_z,watch_gyro_x,watch_gyro_y,watch_gyro_z,watch_acc_x,watch_acc_y,watch_acc_z,headphone_gyro_x,headphone_gyro_y,headphone_gyro_z,headphone_acc_x,headphone_acc_y,headphone_acc_z,frame_imu
1733293993424834000,1.0088165386684238,12.705780373167991,-1.7727485084354877,-0.2348907058924436,9.784900525006652,-0.609032646086812,-0.2534018754959106,-0.1191854253411293,-1.0373235940933228,-0.3788775866074752,-0.388501616247496,-0.6165375223594843,-0.5704381820574219,-0.0182960741221904,0.0168206691741943,-0.0141815254464745,-0.0030327439308166,0.0029032826423645,0.0045686960220336,-0.0221299864351749,0.0160166416317224,-0.0492319406807422,0.0031832568347454,0.0491777262754738,0.0354939227074384,0
1733293993464834000,4.502222279904783,9.104727473291756,-1.7481237702667711,-0.7889651426061988,9.763376090940833,-0.4736959914127364,-0.4086642265319824,-0.2694016098976135,-1.82196581363678,-0.4006199386751451,-0.3716241282377489,-0.6213270321147898,-0.5615619475094307,-0.0079273227602243,0.0097009753808379,-0.0162654481828212,-0.0020052790641784,-0.0067001581192016,0.0024364590644836,-0.0308319255709648,-0.0042573399841785,-0.0441886858165264,0.0012841344578191,0.0572960046708583,0.0137464935407042,1
1733293993504834000,5.234569463232159,-0.146559511488676,-2.356123566174507,-1.615584016302228,9.671141459357738,-0.1711059602567926,-1.0962531566619873,-0.0118215661495924,-2.275962829589844,-0.430715433742494,-0.3395930525147749,-0.6272164972559794,-0.5529558391958187,-0.0039826491847634,0.011232079938054,-0.0205185171216726,-0.0028004050254821,0.0023209154605865,0.0046300888061523,-0.0361434891819953,0.0156937558203935,-0.0311281287133693,0.0007394048734568,0.056199003214389,0.0150958623230457,2
1733293993544834000,4.192912292844057,-8.627972130841016,-0.2683364821647294,-2.470283613839745,9.48778921752274,0.2234449087758548,-0.9143989682197572,0.1958709508180618,-2.1393299102783203,-0.4608701140108787,-0.3012818435184123,-0.6307429990622336,-0.5468009028632779,0.0146181993186473,0.0035252643283456,-0.030032193288207,-0.0014092922210693,0.003655195236206,0.0051907300949096,-0.0421763621270656,0.0207440350204706,-0.0458534041583538,0.0020977091044187,0.0548013383109122,0.0434320222303271,3
1733293993584834000,1.630018784368038,-14.988462271034717,0.0441062682300806,-3.1681440056756136,9.268714504921435,0.4734902397075667,-0.5701678991317749,0.2514001131057739,-1.4478917121887207,-0.4823029383653732,-0.2684544656683633,-0.6354454466292434,-0.5399307450895968,0.0114993713796138,0.0089543312788009,-0.0197532586753368,-0.0003443956375122,-0.00546795129776,0.0094614624977111,-0.0361351743340492,0.0204428452998399,-0.0215939921706914,-0.0020636580884456,0.0670258099161088,0.0548319526448845,4
1733293993624834000,-0.3214236187025904,-16.78868798446059,0.2698270677823573,-3.487302602055669,9.14789324580133,0.5702387685185298,-0.0035576950758695,-0.0540376901626586,-0.2302485555410385,-0.4915001792920517,-0.2530938921453327,-0.6378631487601244,-0.5361919307926623,-0.0147460801526904,0.0076859211549162,-0.0111056407913565,0.0029605627059936,-0.0045086741447448,0.0122207403182983,-0.0279737636446952,0.0194252729415893,-0.0076274261385202,-0.0046002361923456,0.0627221944380551,0.0682958298519253,5
1733293993664834000,0.0469049590378999,-14.757107338052988,-0.1303594873160123,-3.349257236412168,9.20136238566041,0.5364756151264533,0.1834338158369064,-0.0457617305219173,0.8816595673561096,-0.4881601485774223,-0.2601783014225135,-0.6363604378495076,-0.5376359456694348,-0.0055786818265914,-0.0031171918381005,-0.0145915858447551,0.0020572543144226,0.0031531453132629,0.0075754523277282,-0.0238444153219461,0.0230499897152185,-0.0054845688909292,-0.0062899347394704,0.0543352551691234,0.0752598236456513,6
1733293993704834000,-0.506679356071353,-8.05749747120738,-0.8695078750908374,-2.8806664957165715,9.362934757363796,0.4556104457544163,0.2466284036636352,-0.0739727467298507,1.6477253437042236,-0.4736730692996231,-0.278706259477382,-0.6317382003146185,-0.5466840020974646,-0.0104152485728263,-0.0084435669705271,-0.011438469402492,0.0008162856101989,0.0015002489089965,0.0086633563041687,-0.0225241146981716,0.0178274344652891,-0.0164922851175069,-0.0125334113836288,0.0360801250975579,0.083816931849718,7
1733293993744834000,-1.1304453147791325,1.0700772091865538,0.4687193355113268,-2.156045522727072,9.560477437114717,0.3451593356097117,0.3829801678657532,0.0482401363551616,2.143123149871826,-0.450643244195549,-0.3052865658109469,-0.6238604681778382,-0.5608198909589441,-0.0291756205260753,-0.0133619997650384,-0.0101724024862051,-0.000500202178955,-0.0049208998680114,0.0153707265853881,-0.0172430481761693,0.016265831887722,-0.0063350482404232,-0.0142314648255705,0.0349769130960106,0.099803897793591,8
1733293993784834000,1.5556984335295856,6.434747216537595,-0.2446767713695764,-1.3708958467558026,9.709504800021648,0.1287075371242128,0.698080837726593,-0.0782287791371345,1.809836268424988,-0.424533842238545,-0.3360604123410309,-0.6168477455484511,-0.5712559463582756,-0.0454073213040828,-0.0227555017918348,0.0042052050121128,0.0018072128295898,-0.0019555687904357,0.0128359794616699,-0.0052804471924901,0.0114444810897111,0.0055009355038404,-0.0215220656245946,0.0262930367071181,0.1119213288277387,9
1733293993824834000,2.000610046343505,8.615989432102442,0.0223778177584521,-0.7866000939752906,9.773276138186452,-0.1863808689411729,0.8646177649497986,0.0257638934999704,1.1969066858291626,-0.4021613037376965,-0.3616751986084168,-0.6153810445728687,-0.5733790965133106,-0.0870770066976547,-0.0430068708956241,0.0298457220196723,0.0057101845741271,-0.0022498667240142,0.0184823870658874,0.0081666177138686,0.0013255318626761,0.0040010523349046,-0.0319770835340023,0.0270849908024072,0.0931590529516339,10
1733293993864834000,2.16172795227766,6.751846834561229,-2.3617922594606875,-0.4766588963389396,9.787597509005666,-0.3822621913511306,0.0159185342490673,0.1386035978794098,0.3931982815265655,-0.3883087317584127,-0.374231530677542,-0.6159875888196128,-0.5742181025090483,-0.1162639185786247,-0.0483840592205524,0.0214706119149923,-0.0040417313575744,-0.007028192281723,0.0126372575759887,0.0268003121018409,-0.0060875578783452,0.0036456630259752,-0.0409928783774375,0.0356459714639931,0.0802796976342797,11
1733293993904834000,-0.0864544772790744,4.247183981257677,0.383980649174191,-0.3754766228642314,9.793611070206762,-0.338490379239805,-0.0469936020672321,0.0735627263784408,0.2196228802204132,-0.3845662423123559,-0.3748371616136819,-0.6138039665811557,-0.5786627557787762,-0.0611210390925407,-0.0158624425530433,0.0355783738195896,-0.0042507052421569,0.0046690702438354,0.0045358538627624,0.0566504262387752,-0.0152454189956188,-0.0158931501805782,-0.0392781160771846,0.0409588370498269,0.0702487174853682,12
1733293993944834000,0.3763345548678189,1.491633811506629,-0.2415805589199066,-0.2968770055376924,9.79568027769625,-0.3562222891548648,0.0440475903451442,0.1265265345573425,0.1245522201061248,-0.3807164555069333,-0.3763916487948222,-0.6135891207508893,-0.5804245690602925,-0.0718258768320083,-0.0013371884124353,0.0296766087412834,-0.0002961158752441,-0.0075080692768096,0.0027829408645629,0.07113628834486,-0.0239647664129734,-0.0095440734148025,-0.033879205584526,0.043616731147468,0.010927052205801,13
1733293993984834000,0.4338241093493998,-0.2074678614377975,-0.26612108940389,-0.2731131767809391,9.796693254131078,-0.3472436676030978,-0.0611141584813594,0.0711989775300026,0.0258488021790981,-0.3789731322514787,-0.3756835942946454,-0.6136500111045715,-0.5819577256915003,-0.05294806137681,-0.0197801645845174,0.0312444772571325,0.0002557039260864,-0.0003935098648071,-0.0064475536346435,0.0539472065865993,-0.0290836095809936,-0.0301338569790124,-0.0301316510885953,0.0480563210301101,-0.0224234287321567,14
1733293994024834000,0.1707448901257477,-0.8954922111749648,0.0466776165554299,-0.248406788210757,9.7983299154222,-0.318419066591747,-0.082508660852909,-0.0175511315464973,0.109529323875904,-0.3788325014495575,-0.3759423849059697,-0.6122925580062983,-0.5833103913867412,-0.0555747374892234,-0.0270593296736478,0.0237844996154308,-0.0075752139091491,0.0030091106891632,0.0015616416931152,0.0489868149161338,-0.0421669110655784,0.0006207622468471,-0.0136534739285707,0.0836507084373384,-0.0279649885073304,15
1733293994064834000,-0.1395324623961001,-0.5856657990247011,0.3647896264920011,-0.1791953961501829,9.800647544714808,-0.2925148282728158,-0.0270149428397417,0.0919793993234634,0.2248614281415939,-0.3767377675918611,-0.3770498390725439,-0.6105305271482592,-0.585793873489936,-0.0327549092471599,-0.0050602871924638,0.0192778315395116,-0.0076047778129577,0.0048614740371704,-0.0013055205345153,0.0431729070842266,-0.0220338907092809,-0.0300508548706769,-0.0107124745845794,0.0527820343777537,-0.0398795904457569,16
1733293994104834000,-0.4348610511817037,1.4681108970999717,0.096845924770832,-0.0982976670822594,9.801845230066776,-0.2907759304499253,0.0100169861689209,0.0538749285042285,0.2071100622415542,-0.3737781583039588,-0.378939445279538,-0.6092867497878701,-0.5877622285104583,-0.0140363490208983,-0.0133181102573871,0.0189415402710437,-0.0020050406455993,0.0021995306015014,-0.0026488304138183,0.0391194894909858,-0.0132994186133146,-0.0727092623800039,-0.008435015566647,0.0699567488014697,-0.0024479776740074,17
1733293994144834000,-0.3911280367108061,7.385860777169466,-0.456638985084556,-0.048806436144514,9.802710322463511,-0.2735930509860627,-0.1878386437892913,0.1498476415872573,-0.0511460602283477,-0.3711395954391216,-0.3786162617645949,-0.608768502613146,-0.5901744922923077,-0.0051794731989502,-0.007677802350372,0.0219113640487194,-0.0055485367774963,-0.0028327107429504,0.0043765306472778,0.0314583703875541,-0.0035315165296196,-0.0488560931056737,0.0010191900655627,0.0659556964665651,-0.0160556472659111,18
1733293994184834000,0.4710041585128754,14.249451245903968,-0.4615104270458221,-0.1651448416289873,9.804194423541428,-0.1445216124529019,-0.4302699565887451,-0.1051180735230445,-0.6339923739433289,-0.3775097838684879,-0.3729469876235635,-0.6068600298101935,-0.5917075685510899,-0.0169687531888484,0.0040471376851201,0.0235953480005264,-0.0033941268920898,-0.0003523826599121,0.0075139999389648,0.0150598250329494,0.0032758763991296,-0.0356277782201766,0.0046907747164368,0.0593988221690058,-0.0104638186082243,19
1733293994224834000,5.474436788493395,12.293193259245156,-0.6673544866740703,-0.6300687121137977,9.78628408831954,0.0451613393741194,-0.5079219937324524,-0.3667665719985962,-1.808081865310669,-0.3978111592796138,-0.3576521891096658,-0.6080972981823053,-0.5865568047290457,-0.0095784831792116,0.0014618472196161,0.0064029120840132,-0.0047131180763244,0.0055932104587554,-0.0003087520599365,0.0007027043029665,0.0113180335611104,-0.0554161822736263,0.0087995398789644,0.0425806660979986,0.0210711373403668,20
1733293994264834000,5.530612849223614,2.140460123321414,-1.702914509230852,-1.4883027673877776,9.688392453888058,0.3006609079905785,-0.7975077629089355,-0.4482100307941437,-2.477726697921753,-0.4318769294456894,-0.3295405490212889,-0.613248388659544,-0.5734211112699875,-0.0029067317955195,-0.0016356755513697,0.009780865162611,-0.0033585429191589,-0.0015943050384521,0.0023450255393981,-0.0057073249481618,0.009371449239552,-0.0270581027954816,0.0089581925421953,0.0416500341843813,0.0235930570334196,21
1733293994304834000,4.973713125956058,-8.6690517447263,-1.712957764339447,-2.424487200565636,9.477245611676572,0.6885385098043829,-1.0165783166885376,-0.1123589053750038,-2.3590590953826904,-0.4694743807390359,-0.2943474578700141,-0.6150234804535867,-0.5609809589945404,-0.0055943941697478,0.0049784979782998,0.0082954876124858,-0.0059457421302795,-0.0015255808830261,0.0064953565597534,-0.0026446119882166,0.0111374501138925,-0.0148170453816652,0.0079867430031299,0.0314546572539955,0.0431280708476901,22
1733293994344834000,3.4726956922933456,-16.426643309295176,-0.9780945065379142,-3.208884889125824,9.208125888445974,1.0410919377207757,-0.7287640571594238,-0.2243257761001587,-1.761031150817871,-0.4994295171815097,-0.2609361475915696,-0.6154928190102454,-0.5510454890886588,-0.0032092668116092,0.0036566115450114,-0.0015536808641627,-0.0049459338188171,0.0017866194248199,0.0055783987045288,-0.0055113136768341,0.0108829997479915,-0.0108510643601417,0.0079520959407091,0.0233840904578566,0.0351674672320485,23
1733293994384834000,0.7980553347736596,-17.339134586066006,0.5712127646498382,-3.624559739930928,9.03095438107252,1.2144123226240278,-0.0323154926300048,-0.239890307188034,-0.5458583235740662,-0.5171370078963209,-0.2452861176040616,-0.6147494797275278,-0.5426665966472014,0.0035999030806124,-0.0009623217629268,-0.0010408891830593,-0.0030635595321655,0.0009488463401794,0.0042042136192321,-0.0093117533251643,0.0138882957398891,-0.0263414789587259,0.0090844146907329,0.013587357456237,0.0460372362926602,24
1733293994424834000,-0.3431745550006628,-14.691456177490949,0.4375800278168171,-3.624017303617298,9.03455562043488,1.1889810903780162,0.2946357727050781,-0.2809138298034668,0.483630508184433,-0.520207040410559,-0.2499381333285193,-0.6139297707701717,-0.5385217856857422,0.0081725511699914,0.0056397612206637,-0.0166235771030187,-0.0080825090408325,0.0013025999069213,0.0084093809127807,-0.0125982081517577,0.0166094116866588,-0.0201543147563934,0.0049502626061439,0.016574775769189,0.0496121721699833,25
1733293994464834000,-1.7459984486758708,-8.165424177441,-0.2373924595803022,-3.2299004968866702,9.19912074421346,1.0556108769387007,0.4437190294265747,0.3121381402015686,1.568864107131958,-0.5062796796996147,-0.266576039036933,-0.6124671744690526,-0.5454375536883118,-0.0035581411793828,0.0077907429076731,-0.008854404091835,0.0003984570503234,-0.0016174912452697,0.0067164897918701,-0.0168686788529157,0.0099623687565326,-0.0019692542463541,0.002804486779496,0.0302604059681296,0.0664373425036668,26
1733293994504834000,-1.8063117553412915,0.6081278062015771,-0.1667009667634963,-2.5509859208002683,9.4303108420223,0.8556330059301107,0.5706562399864197,-0.1951952427625656,2.051248550415039,-0.4819782860739019,-0.2927937909225734,-0.6088075679390984,-0.5579624806172975,-0.0040063513442873,0.0092449355870485,-0.0042589199729263,-0.0011586546897888,-0.0044242143630981,0.006649374961853,-0.0118009429425001,0.0067116068676114,-0.0022451485782861,-0.0002460011746734,0.0177587248567491,0.0556701570346951,27
1733293994544834000,-0.2996162760421633,5.118843481424451,0.5775947207719088,-1.76029497731477,9.62884019472301,0.5976591652877629,0.8141437768936157,0.0522356741130352,2.039989709854126,-0.4560171973237435,-0.3259446654660959,-0.6027337209987744,-0.5679089021304692,0.0016235713846981,0.0201445613056421,-0.0094651337713003,-0.0053616166114807,-0.0008173882961273,0.0028535723686218,-0.0056433137506246,0.0060169687494635,-0.0071270754009485,-0.0068511646240949,0.0171273681506514,0.0673106182068586,28
1733293994584834000,1.5768120948374271,6.872875598952174,0.0613940693731419,-1.0432045459605752,9.746325002896786,0.3020757432245649,0.6666600108146667,0.1807285100221634,1.6246514320373535,-0.4278873352974707,-0.3530570109139558,-0.5999576402405549,-0.5764667985879934,-0.0175826139748096,-0.0040070074610412,0.0038591939955949,0.0017959475517272,-0.0070791542530059,0.0082155466079711,0.0059038018807768,-0.0071512153372168,0.0250555308014154,-0.0061507006175816,0.0470707440588623,0.060362698765099,29
1733293994624834000,2.3181834193587303,6.321964302444457,-1.2039555182784796,-0.5603908167863264,9.790415489035844,0.0643157518063904,0.3895570635795593,0.2013450711965561,0.8418525457382202,-0.4067116972000188,-0.3703935410010935,-0.5996077334949621,-0.5812614829766412,-0.020559761673212,0.0030478129629045,-0.0016561459051445,0.0008386969566345,-0.0064835846424102,0.0078577399253845,0.0071757319383323,0.000686626881361,-0.0080266545891761,-0.0077563486993312,0.0115226800113916,0.0368698872357606,30
1733293994664834000,1.4180606257736683,4.185438011440635,-0.4753776243567466,-0.322563692115806,9.801337865066529,-0.0100469517528894,0.0889559984207153,0.0640641823410987,0.4144550561904907,-0.3964371876369683,-0.377364254197121,-0.5984216503814757,-0.5850856879467922,-0.0289979875087738,-0.0021780014503747,0.0038327618967741,-0.0025653839111328,-0.0042146742343902,0.0081583261489868,0.0092631094157695,-0.0121379038318991,-0.0051209962755441,-0.0210801996290683,0.0385665350858122,0.0245174784019589,31
1733293994704834000,0.7425890297479927,2.542058225718141,0.0087456165134906,-0.2146676550150849,9.8042411852926,-0.0340347756909788,0.0067688208073377,0.0315954163670539,0.1465198844671249,-0.3925275646794288,-0.3809108146525046,-0.5971953130456272,-0.5866743831012451,-0.0158286541700363,-0.0066108861938118,0.0126030184328556,0.0001172423362731,-0.0046718418598175,-0.0007916688919067,0.0208263918757438,-0.0087593346834182,-0.0243786544531583,-0.0151467304676771,0.0333408363267779,0.0394517204225063,32
1733293994744834000,0.5645708058847114,0.8259528110027313,0.3934802623927593,-0.2022981489160098,9.804452197694776,-0.0467702358754817,0.121699258685112,-0.0729153975844383,-0.0371318571269512,-0.3923409601606143,-0.3819812878070606,-0.597055202025824,-0.5862456701986215,-0.0134914657101035,-0.0019509403500705,0.015465716831386,-0.0024934411048889,-0.0033217072486877,0.0031907558441162,0.0322266817092895,-0.0092653939500451,-0.0213116680979728,-0.0092982770875096,0.0484158019922673,0.0072074471607804,33
1733293994784834000,0.2501671306804753,-0.1293137776553631,-0.2204056689441204,-0.2108123495601117,9.803833773535487,-0.1038595024604815,0.09853046387434,0.011857665143907,0.005819346755743,-0.3917014170323442,-0.3830879054189099,-0.5987812768185453,-0.5841871614529491,-0.0142501993104815,-0.0047423592768609,0.0171209368854761,-0.0012077689170837,-6.625056266784668e-05,0.0030262470245361,0.0276534873992204,-0.003695782739669,-0.0485626631170511,-0.0057992390356957,0.0321676278289407,-0.0302294263079762,34
1733293994824834000,0.2002069670567288,-0.0722995125353336,0.1361433314144611,-0.2033494663335383,9.80368179784417,-0.1298578670699615,0.0809167996048927,0.0163407549262046,0.028466073796153,-0.3909271916308987,-0.3837900554246007,-0.5994381552910281,-0.5835709763180285,-0.0045435102656483,-0.0103492718189954,0.0148292873054742,-0.0045685768127441,-0.0026716887950897,0.0007270574569702,0.0130909392610192,-0.0037037259899079,-0.0428331795543432,0.0029219673015177,0.0498669506486505,-0.0236155611261725,35
1733293994864834000,0.1748372192069888,1.2315700859129428,0.0634405170415528,-0.1890527367652393,9.803604056432842,-0.1548691112050786,0.0111550018191337,0.0925406441092491,0.0241791140288114,-0.3892516939279896,-0.3839435463085873,-0.600402765513229,-0.5835982627449642,0.0025644660927355,0.0018815614748746,0.0099328653886914,-0.0065726637840271,0.0003507435321807,0.0048211812973022,0.0003210138529539,0.0036791432648897,-0.0271948809176683,0.0108368806540966,0.0545844076246023,-0.0137064537912607,36
1733293994904834000,0.0477716771361418,5.792654012370109,0.5018623111784458,-0.217760159404017,9.802875742158292,-0.1630825936032459,0.0729125142097473,-0.0014018715592101,-0.2451897859573364,-0.3894330911170196,-0.3826990435642013,-0.6015449611694546,-0.5831183520243745,0.0047442633658647,0.0066302441991865,0.0058234082534909,-0.003005564212799,0.0007803440093994,0.0028614997863769,-0.0062864948995411,0.0088494196534156,-0.0493044213950634,0.0194218829274177,0.0572230855651199,0.0140483990967273,37
1733293994944834000,-0.8033361247207969,12.924255950832366,-0.6313011765182018,-0.4410502612106501,9.795073543974755,-0.1800337649367749,-0.1578928232192993,-0.1141215711832046,-0.8994967937469482,-0.3961875563825687,-0.3766479691613628,-0.6060655699892599,-0.5778030129534082,0.006949626840651,0.0033080037683248,-2.6291352696716785e-05,-0.0067374110221862,-0.0013289153575897,0.0045740008354187,-0.013410422950983,0.0170408934354782,-0.0393891765803098,0.0264943093061447,0.0540240703281015,0.0046723757252097,38
1733293994984834000,1.5634335578262806,12.802738526141642,-1.1357365530550478,-0.902783756422624,9.765006322491168,0.0055240298267046,-0.5521872639656067,-0.3811341226100921,-1.4576836824417114,-0.4162746067111953,-0.3616608051347087,-0.6073876973589759,-0.571836676228192,0.0173601899296045,0.0102301454171538,-0.005832714959979,-0.0031506419181823,0.0024137198925018,0.0028818845748901,-0.0221709981560707,0.0191297102719545,-0.0455517908632755,0.0212711952626705,0.0423963955722749,0.0242962368667125,39
1733293995024834000,4.412479172876477,4.387357591101527,-0.8378665361583233,-1.5976456240296364,9.67303940193355,0.2240529576716013,-0.4980366826057434,-0.2211671024560928,-2.0037405490875244,-0.444810120471212,-0.3397599943086955,-0.6108515566837398,-0.5599708537236684,0.0198531746864318,0.0063273357227444,-0.0008132555522024,-0.0047221779823303,0.0005903840065002,0.0055302381515502,-0.031053002923727,0.0275637041777372,-0.0430997215360403,0.0199269354343414,0.0287230403330177,0.0228203190952539,40
1733293995064834000,4.942443542945385,-6.2713148961812255,-1.333501935645938,-2.349373215131461,9.507377130568027,0.5104949323041365,-0.8860841393470764,-0.3310980200767517,-1.964818000793457,-0.4741059892226693,-0.3119098010269058,-0.6137461017484422,-0.5488638240059222,0.0237014442682266,0.0058885538019239,-0.0080628460273146,-0.0046827793121337,0.0008891820907592,0.0047601461410522,-0.0395183116197586,0.0288485903292894,-0.0295493350893259,0.0160412956029176,0.0275069425415247,0.0293731017395854,41
1733293995104834000,2.7477216680824754,-16.89481494779587,0.6306359175425023,-3.013178484891355,9.299508871635794,0.7811945816699415,-0.3459338545799255,-0.0685413032770156,-1.4413996934890747,-0.5000570170378098,-0.2860142672917102,-0.6151146230050998,-0.5383054639980385,0.0201684944331645,0.0110049648210406,-0.0177004262804985,-0.0028367638587951,0.0006838142871856,0.0087529420852661,-0.0399122051894664,0.0287291835993528,-0.021874562677741,0.0108353765681386,0.0203013950768858,0.0621501667037606,42
1733293995144834000,1.319562549881637,-18.48401423051953,0.613415391215682,-3.312885069565475,9.200347655659913,0.7408047036144882,0.3604158163070678,0.2850559055805206,-0.1850521117448806,-0.5061385538147075,-0.2748200870275336,-0.6218548000061072,-0.5306546430193803,0.0190845876932144,0.0115912873297929,-0.0132417622953653,0.000184953212738,-0.0013093054294586,0.0063475370407104,-0.0355588868260383,0.0275904852896928,-0.002955927196145,0.0081502702087163,0.0330305282685905,0.1007461470797657,43
1733293995184834000,0.1375531982123851,-16.094765808856486,-0.8830774776946753,-3.2042265419259666,9.24854674616158,0.606397657940723,0.123829185962677,0.1737658679485321,0.7813818454742432,-0.4995093569515486,-0.2804135343525873,-0.6248604428529356,-0.5304791856526213,0.0099941529333591,0.0051031871698796,-0.0132124675437808,-0.0008615255355834,-0.0046591162681579,0.009616732597351,-0.030420059338212,0.0084717217832803,-0.051543140232563,-0.0023504821583628,0.0036942514080554,0.0821893306478857,44
1733293995224834000,-0.6613695670455694,-9.334618178939818,-0.5186538715034723,-2.708918182435632,9.406893141555786,0.5852429339701309,-0.1697663366794586,0.6821591258049011,1.8508009910583496,-0.479795463981458,-0.2916264694275526,-0.6205762782546911,-0.5473896116787699,0.0084061101078987,0.0010488441912457,-0.0135733922943472,-0.0028467178344726,0.0003576278686523,0.0064456462860107,-0.0220488347113132,0.0134385917335748,-0.0196294140994548,-0.0112159643322229,0.0281478707935661,0.0601017097413539,45
1733293995264834000,-0.3132980337835848,0.5142103360980749,-0.3838583745013922,-1.9369523976862428,9.596803718993067,0.5656679534716531,-0.044288020581007,0.2203061431646347,2.235913038253784,-0.4496696014017147,-0.3093211731734877,-0.6127637169223349,-0.5715228782916589,0.005560256075114,0.0045082904398441,-0.0090667912736535,-0.0011753439903259,-0.0023850500583648,0.0060187578201293,-0.0153571795672178,0.0117683997377753,-0.0484235469073057,-0.0224841553717851,-0.0003698562256991,0.0577045854717493,46
1733293995304834000,0.5400485417097807,6.715304279583692,3.508680321127176,-1.0365458917889745,9.744830964946749,0.3663352119661867,1.373637080192566,-0.1940835118293762,2.2931511402130127,-0.4210209642645299,-0.3437647763498331,-0.6026175240745849,-0.5843108173795988,-0.008485522121191,-0.0035365866497159,0.0030583152547478,0.003554880619049,-0.0041625797748565,0.0065069794654846,-0.004685309715569,0.005684083327651,-0.039845688176155,-0.0419722869992256,0.0116996440134942,0.0386655384808778,47
1733293995344834000,3.491175936357677,9.020871378475428,-0.5632359040191397,-0.3528261804431676,9.7957568500638,-0.298377509761136,1.5797336101531982,0.0232523810118436,1.146692156791687,-0.3887957446353313,-0.3791178463101442,-0.6094937879704952,-0.5776026211731792,-0.0026225727051496,-0.0202808380126953,0.0068358094431459,0.004076600074768,-0.0016145408153533,0.0027965307235717,0.0033924477174878,0.0054923892021179,-0.0405389311373233,-0.064950130879879,0.0156180595662444,0.0171212306708097,48
1733293995384834000,1.8395087992832064,7.04770843424499,-3.415023547786474,-0.0788728995762765,9.779937934163213,-0.7190149696759879,0.564640998840332,0.1671936213970184,0.3252109885215759,-0.3713551717645852,-0.3946940762999268,-0.6171516401920811,-0.5704698099197678,-0.021550990641117,-0.018623873591423,0.006535604596138,-0.0008736252784729,-0.0036187469959259,0.0072341561317443,0.0067123123444616,0.0133478892967104,-0.0331710327178239,-0.070823349058628,0.032679961265251,0.0365469388917088,49
1733293995424834000,1.111036776888743,4.098585657417774,-2.311727959609032,0.0254609538141288,9.780452313426135,-0.7158898233927786,-0.5050806999206543,0.3661265671253204,0.1520739644765854,-0.3645118274175455,-0.3937768011794834,-0.6176083336691175,-0.5750051525846855,-0.0185085944831371,-0.0175500884652137,0.0154257016256451,-0.0008614063262939,-0.0036339163780212,0.0040065050125122,0.0081855980679392,0.0099358242005109,-0.0297732069730758,-0.0687098503112793,0.0458200133454054,0.0269569805085659,50
1733293995464834000,1.2710904876574871,1.8728420368254184,0.4395803347885608,0.0315048416548292,9.794551565927266,-0.4859686130085959,-0.4920583963394165,0.0508074238896369,-0.1509100049734115,-0.3670128017054799,-0.387644374012545,-0.6119716853315627,-0.5835445006034383,-0.0215536542236804,-0.010257925838232,0.0161729864776134,-0.0025408864021301,0.0012759268283843,0.006702184677124,0.0088024614378809,0.0070100827142596,-0.0050444239079952,-0.0629600435495376,0.0803228791888803,0.0039282793596386,51
1733293995504834000,0.4569424250105395,0.3768979609042406,0.5046048878848552,-0.0505267525645205,9.79950655798614,-0.3708283586669713,-0.1524756103754043,0.0898473486304283,-0.2309545874595642,-0.3710069280613247,-0.3821684668875131,-0.6106179230556907,-0.5860434648044812,-0.0072159925475716,-0.0015660604694858,0.0233540646731853,-0.000608205795288,0.0002098679542541,0.0004966855049133,0.0108010983094573,0.0071624927222728,-0.01952653824687,-0.0586459040641784,0.075052464505285,0.0021004794105887,52
1733293995544834000,0.2905477111846208,-0.2179723043173551,0.0497767150819301,-0.1364211345756892,9.800315536281468,-0.3249605606570839,-0.1093732789158821,0.0917593464255333,-0.2398826777935028,-0.3735227931751159,-0.3776371222162503,-0.6115215303480707,-0.5864404609505963,-0.0083275958895683,-0.0011803813977167,0.0122218523174524,-0.0069748759269714,0.0018519759178161,0.0044342279434204,0.0017625289037823,0.0176954194903373,-0.0619686726570129,-0.05063122138381,0.0740917297143489,0.0295411517828702,53
1733293995584834000,0.4409418324001133,-0.1857785921990871,0.2378910567522048,-0.2681105096554383,9.79849825772643,-0.296549691545777,-0.0001707794144749,0.255150556564331,-0.4275565147399902,-0.3764250357111621,-0.3713247353478006,-0.6141968471902167,-0.5858194120200951,-0.0088160196319222,0.0130001520738005,0.0083765806630253,-0.0086172819137573,-0.0021380484104156,0.0064436197280883,-0.0068803299218416,0.0235054492950439,-0.0297527487069368,-0.037624217569828,0.0904602423217147,0.018836510156095,54
1733293995624834000,-0.4331798200964927,-0.1113204403251409,0.0230091561982408,-0.4104769168358296,9.791077167814969,-0.3697192649139091,0.3555604219436645,0.9116391539573668,-0.2945283651351928,-0.3729058579205076,-0.3614595195639292,-0.6230549350855877,-0.5848852372811199,0.002324781846255,0.0330475233495235,0.0218662917613983,-0.0063855051994323,-0.0010255575180053,0.0124674439430236,-0.0208709947764873,0.0239950027316808,-0.0133031336873769,-0.044335201382637,0.0992552509348839,-0.0078390230625867,55
1733293995664834000,-1.3575894981980323,0.1993722332656383,-0.4111667257308959,-0.4012510790573433,9.783101951152084,-0.5480099125104024,0.3110449910163879,2.037306547164917,0.2183509916067123,-0.351492798630209,-0.3458187111911894,-0.6390228072678912,-0.5903492105422113,-0.0314102806150913,0.0596074424684047,0.0166530199348926,-0.0030882954597473,0.0006920397281646,0.0051604509353637,-0.0322476550936698,0.0304658096283674,-0.010486907222867,-0.0293133780360221,0.1071782259538769,0.0354635275691747,56
1733293995704834000,-0.2847808730199002,0.0802998636394739,-1.830272476643324,-0.1964538250682875,9.78770155390203,-0.576797725175321,-0.3465176224708557,2.3943936824798584,0.4602702260017395,-0.3178437909649593,-0.3241148029913556,-0.6514277350059035,-0.6079201005271071,0.0144581431522965,0.0899709910154342,0.0383189655840396,-0.0072700381278991,0.0050613582134246,0.0052718520164489,-0.0387231670320034,0.0320351086556911,-0.0287152223527431,-0.0184145458042621,0.1297953506272286,0.067602586890757,57
1733293995744834000,-0.7160372690394521,-0.4189017038971185,-1.69991591193676,0.0238135701995925,9.80207845430076,-0.2984939026824199,-1.053313374519348,1.8429423570632928,0.624148428440094,-0.2886420427098052,-0.2991515700456202,-0.6524778097113595,-0.6336141975121224,0.0344433039426803,0.0908498913049697,0.0014718698803335,-0.0042368173599243,0.0168479681015014,0.0008038282394409,-0.0545038059353828,0.0417917147278785,-0.0584843376725912,-0.0293870978057384,0.1160330749955028,0.0925663477554917,58
1733293995784834000,-0.7244587681651115,-0.73981065107584,0.0439268200099468,0.3249261469308286,9.800666833937168,0.108404425014276,-0.8520185947418213,2.8272180557250977,0.8488016724586487,-0.2567922357316061,-0.275557207013726,-0.6469475543222554,-0.663011989042821,0.0552087686955928,0.0731618180871009,0.0159813035279512,-0.0010095238685607,0.0103029012680053,-0.0064649581909179,-0.0629680678248405,0.0373409241437912,-0.0157464351862668,-0.0310620963573455,0.1185311023563146,0.0710699707403779,59
1733293995824834000,-0.5503691524550318,-1.5381401266157626,-0.487294272121787,0.6899811828933656,9.773296011930704,0.4207056480465456,-0.7724195718765259,3.107412815093994,0.9578670263290404,-0.2051269656434889,-0.2427301205211959,-0.6477901436806384,-0.6923676286124919,0.0423347800970077,0.1077529713511467,0.0306424722075462,-0.0144668221473693,-0.0017530024051666,-0.0029571056365966,-0.0806102007627487,0.0675378739833831,-0.0291840089082717,-0.0517812371253967,0.0835715787865221,0.046815234927833,60
1733293995864834000,-0.9747360629554838,-1.5400684643298386,-0.8270762620747089,0.9252060891762376,9.715967858555912,0.9562135871846228,-1.3652198314666748,1.8800978660583496,0.6701886057853699,-0.1673408390287652,-0.2130971039836068,-0.6370528243023634,-0.7216303476312939,0.0387991666793823,0.1142524182796478,0.0301754176616668,-0.0001953840255737,0.0055992007255554,-0.0012444853782653,-0.0774280503392219,0.0903507620096206,-0.0516916087925434,-0.0670224279165268,0.0823559924516826,0.0323620544224977,61
1733293995904834000,-1.5523504382759332,-2.025904354336858,0.9986854591459036,1.1625444804817435,9.618366731503606,1.5185183113008736,-1.1710703372955322,1.6607177257537842,1.0793893337249756,-0.1401355343251967,-0.1956810916234414,-0.6199080752022647,-0.7468499936653802,0.0127662373706698,0.1740763336420059,0.0828229859471321,-0.0110459923744201,-0.0322172939777374,0.0228036642074584,-0.0909454822540283,0.1003415957093238,-0.049275195300579,-0.0895342677831649,0.0419713750932365,0.0207025962889194,62
1733293995944834000,-0.726572691579163,-1.426253869101405,1.1145894278690218,1.4928668604329227,9.472119354704022,2.05443603681624,-1.06028151512146,3.035484790802002,1.4086343050003052,-0.0952956276954595,-0.1732418794534574,-0.6043510268458304,-0.7717939774389284,0.0501956343650817,0.1382981538772583,0.1284860074520111,0.0131672024726867,0.0023494958877563,-0.010714828968048,-0.0795023292303085,0.0976186767220497,0.0119733463883399,-0.0833306312561035,0.0612443039052188,0.0293286780759692,63
1733293995984834000,-0.2177919793143868,-1.1396803222447631,-0.5625555570721626,1.73526691904217,9.27562647626698,2.668704537729919,-1.405800461769104,2.0304479598999023,1.2323893308639526,-0.0476783700384366,-0.1461851877952418,-0.5852895186129411,-0.7961110548639456,0.0381690636277198,0.1375404745340347,0.2349565923213958,0.001957893371582,-0.0424302816390991,0.0053469538688659,-0.0672995522618293,0.0958822146058082,-0.0624094021618366,-0.0867967307567596,-0.0371027461435645,0.0991170845732092,64
1733293996024834000,0.0367784095600247,-0.4857154784977436,0.8778262061029672,1.946069331730157,9.01146759031415,3.343151613013446,-1.4408278465270996,2.369122266769409,1.2486228942871094,-0.0080020045061885,-0.1266558118064399,-0.5599151851577397,-0.8187730639754334,-0.118308424949646,0.0822035148739814,0.3055072724819183,0.0228162407875061,-0.011017233133316,-0.041700005531311,-0.0343249998986721,0.1086344271898269,0.0266238030314445,-0.0828193724155426,0.017460618693009,0.0659124418467283,65
1733293996064834000,0.1542544499054551,-0.45802667658329,-0.2053115601867437,2.032998404251039,8.704704657387733,4.033041464361548,-1.467814326286316,1.716755986213684,1.1182864904403689,0.0325711875794342,-0.1028162756298202,-0.5327296980111695,-0.8393849330031712,-2.5511629581451416,0.2680536806583404,0.4396072030067444,-0.0190072059631347,-0.4772339761257171,0.1227732896804809,-0.0207046028226614,0.0961290672421455,0.0046434418916702,-0.1116534918546676,-0.0156000124529004,0.0830316266909241,66
1733293996104834000,0.5447368456564843,-0.2284346616208553,1.7307482725739478,2.1678936353005467,8.374705810302496,4.618974097628891,-1.1481367349624634,1.398146152496338,1.0594381093978882,0.0626327922934112,-0.0921776720451283,-0.5059655540557699,-0.8553240581305259,0.0412673875689506,-0.2274253517389297,0.6156243681907654,0.0608985424041748,0.0318005979061126,-0.0754386782646179,-0.0118348468095064,0.1293724775314331,-0.0489291583418846,-0.1547506749629974,-0.0438654452115297,-0.0214928698837757,67
1733293996144834000,0.6317272929757833,-0.3423369351327419,0.3903799582898616,2.191635014763474,8.046129689496755,5.160127677971125,-0.9235145449638368,1.2861088514328003,0.8182148933410645,0.0983308184964407,-0.0742415705639557,-0.4810352477885365,-0.8680001976070163,-0.6175669431686401,0.153952956199646,0.6800533533096313,-0.0162786841392517,-0.0911097824573516,0.1207250952720642,-0.0789118856191635,0.1825537979602813,-0.1377694713115692,-0.2227848023176193,-0.1310118868101388,0.0548933274433016,68
1733293996184834000,0.4090576246224343,-0.110061380174756,0.0850356599897146,2.214388990624249,7.778539660051464,5.546276282301545,-0.889703631401062,0.7160975933074951,0.7378294467926025,0.1213507121872012,-0.0649212977715487,-0.4615233891881656,-0.8763876643544515,-0.8433508276939392,0.2760699391365051,0.4973207712173462,-0.0335411429405212,0.0393867492675781,0.0633617639541626,-0.0775840356945991,0.1831751614809036,0.050957449299097,-0.2722291350364685,0.0722824883352965,0.1226116496682167,69
1733293996224834000,0.4311816320165991,-0.3225274882912635,0.8691741130918264,2.306887533840537,7.532816594499349,5.839978073602914,-0.771091878414154,0.4292143583297729,0.5259657502174377,0.134741419848297,-0.0653101730263087,-0.4449478367463109,-0.882950106843353,-0.420090913772583,0.2288858443498611,0.4401308596134186,-0.0204054117202758,0.1095660626888275,0.0111234784126281,-0.0707887411117553,0.1329820901155471,0.0616851795405149,-0.3037167489528656,0.1735102449195459,0.1640361314684152,70
1733293996264834000,0.5948536063477396,0.1520920111745596,-0.0849076496958732,2.329962996740639,7.292827688685059,6.128321552741527,-0.8955184817314148,0.4819294214248657,0.490525335073471,0.148248159806178,-0.0621524190157966,-0.4285786199622211,-0.8890894464653271,-0.6600318551063538,0.316146969795227,0.3522249758243561,-0.0351428985595703,0.0506907105445861,-0.0086110234260559,-0.0610376633703708,0.1231076568365097,0.0562286677002906,-0.2887710034847259,0.2333858542874455,0.1573863181903958,71
1733293996304834000,0.1759298367492854,0.1393956112086772,0.6824561942160129,2.3420221217162904,7.01881843984723,6.435954254239797,-0.9266068935394288,0.4786578118801117,0.3474374711513519,0.1568160779436413,-0.061489445319663,-0.4099715908946272,-0.8964101031157699,-0.3067694306373596,0.1894676983356475,0.1861590892076492,-0.0224872827529907,0.0818109512329101,-0.0654665231704711,-0.0094953998923301,0.0850426778197288,0.0197404732584953,-0.215777039527893,0.263559568352811,0.1754281708374619,72
1733293996344834000,0.6175120128795504,0.3389028690308332,0.4840291328459978,2.274084896043688,6.751375709918141,6.739277275845408,-0.8838135600090027,0.6979672312736511,0.3255993127822876,0.167583162478908,-0.0557373337244816,-0.3915173566359718,-0.9030634317659334,-0.4162769913673401,0.098653107881546,0.1291394233703613,-0.0243589282035827,0.0240026116371154,-0.0482009053230285,0.0496527887880802,0.0431986153125762,0.0095259532362222,-0.1696904003620147,0.222065966839157,-0.1145452475905418,73
1733293996384834000,0.1328187170363962,0.4021037138313055,0.584830517244339,2.1789324773177503,6.5024745988518,7.010026646104454,-0.7213329672813416,0.539141058921814,0.2833388447761535,0.1768144703939775,-0.0494009182007658,-0.3743630158662373,-0.9089272101046484,-0.3198543190956116,0.1233017817139625,0.1040306016802787,-0.0469124317169189,0.0147271156311035,-0.069715678691864,-0.0111456699669361,0.0716086477041244,-0.3783504978001117,-0.2270445227622985,-0.1945433152718469,-0.4773106382459401,74
1733293996424834000,0.2250863741062581,0.4620896882385015,0.8188269046455621,2.147417833504825,6.310208398199081,7.1930696758598085,-0.4715985357761383,0.2092099487781524,0.2711788415908813,0.1839701423311901,-0.046995772778682,-0.3620040250564688,-0.9126332241618504,0.0291462764143943,0.0954058095812797,0.0552707873284816,-0.0132554769515991,0.0560165643692016,-0.0590255856513977,-0.0662075132131576,0.14302459359169,-0.2323947974234819,-0.2020297348499298,-0.2118632833851501,-0.3267199715450405,75
1733293996464834000,0.4692711241751909,0.4610837260663509,0.6869073284059762,2.1100321057014164,6.176241241779923,7.319302438634634,-0.3309822678565979,0.4472782611846924,0.173209086060524,0.1903435147542869,-0.0440708173365376,-0.353379664644338,-0.914849679329869,-0.1105429157614708,0.0342008844017982,0.0592377670109272,0.0122538208961486,0.0139558613300323,-0.0023191571235656,-0.0500337406992912,0.1264197826385498,-0.1629173565715551,-0.148853600025177,-0.2039958927446044,-0.2781871190443635,76
1733293996504834000,0.1163842995859682,0.4662321948707103,0.2663765620023012,2.0385468321584166,6.078168405562639,7.420955471426248,-0.2822976410388946,0.2525016367435455,0.1184291243553161,0.1953854347915154,-0.0395285632163083,-0.3465170283963854,-0.9166176785518928,0.0217197835445404,-0.0749531984329223,0.0266686361283063,0.0557119250297546,0.0247971713542938,-0.0010737776756286,-0.0704155191779136,0.1549204438924789,-0.1310854635030031,-0.0947312116622924,-0.2159697140569798,-0.1292819212123751,77
1733293996544834000,0.4403301302425563,-0.235841138485074,6.127566350460052,1.8034855920046569,6.1626867636799805,7.41209236601293,0.715149998664856,0.7924450635910034,0.0520044900476932,0.2029692558480021,-0.0231637532650378,-0.3486429351540351,-0.9147213036195788,-0.1871740370988845,-0.1197099536657333,0.0074173100292682,0.0343404412269592,-0.0361460447311401,0.0477501153945922,-0.0641280561685562,0.1786271631717682,0.0020090017348527,-0.0006447806954383,-0.1049810447031632,0.022790216217935,78
1733293996584834000,-1.8258413623280825,0.1246948856830596,-0.1188408989578485,1.8286843306690448,6.353266034159064,7.2430866294384,0.4522412717342376,-0.3735892474651336,0.1668567806482315,0.2043493203767589,-0.0214226390706096,-0.3608966931780124,-0.9096900366638891,-0.2133534550666809,-0.0528568401932716,0.0664300993084907,0.0046772956848144,-0.0551612079143524,0.029153287410736,-0.0682719722390174,0.1374390125274658,0.0841419260203838,0.0138087011873722,-0.0209536667068488,0.1338379770815372,79
1733293996624834000,0.9586853110603988,1.284487437108159,-1.1637012493014336,1.9438352890677748,6.354212959620356,7.21220224635303,-0.1939991116523742,-0.1517220586538314,-0.0266184750944376,0.2046231942287619,-0.0273969900346081,-0.3626698477898073,-0.908762499600112,-0.1881176084280014,-0.0168365724384784,0.1232897117733955,-0.012140929698944,-0.0535057187080383,0.0243158340454101,0.0036101713776588,0.1045724004507064,0.0739414345234632,0.0350556075572967,-0.0109069044669158,0.2935840101405978,80
1733293996664834000,1.3026632913984355,0.8770710038214922,0.108653266942501,1.91140279975757,6.305384339043497,7.263542557489871,-0.1802702844142913,0.1092996075749397,-0.2136462181806564,0.202044351574253,-0.0273515025412074,-0.3590463566600762,-0.9107775502472952,-0.3588800132274627,0.0257787443697452,0.2025704979896545,-0.0041769742965698,-0.0614063441753387,0.0187604427337646,0.0475793220102787,0.0772171691060066,-0.0515863948523998,-0.0349701568484306,-0.0822162734537385,0.1629904218077659,81
1733293996704834000,0.3641004386514425,1.8738357240378856,-0.1672679529964924,1.853828124275804,6.246997032004594,7.328624978253245,-0.3202347159385681,0.0163398031145334,-0.0453671291470527,0.1990847302675469,-0.0262220705956346,-0.3544806509063165,-0.9132476462161796,-0.4386419653892517,0.013290436938405,0.2310502678155899,-0.001079499721527,-0.0348464548587799,0.0097142457962036,0.1049539744853973,0.0556708052754402,0.0444891300678253,-0.0808149576187133,0.0149084134595468,0.209928698593378,82
1733293996744834000,0.3538217673517763,0.9639555065482854,0.0006289455533027,1.8467486874088643,6.130661978387832,7.4279796709746115,-0.3836410045623779,0.1147337108850479,0.0395029559731483,0.1998742771708478,-0.027037060478267,-0.3471994085089191,-0.915844818603511,-0.7959617376327515,0.0451817885041236,0.2310157865285873,-0.0075912475585937,-0.0465308427810668,0.0263597965240478,0.146040067076683,0.0336013808846473,-0.0253600667059421,-0.1455683708190918,-0.0261887634818907,0.0649777913451194,83
1733293996784834000,-1.487793502691388,3.251662539100647,-0.8680366334944963,1.851412733697146,6.034996787834167,7.504763635447621,-0.1326834410429,0.1381799429655075,0.7307301759719849,0.206956682718871,-0.0258597246800719,-0.3416062349898289,-0.916409048840147,-0.3236386775970459,-0.048575010150671,0.2252331972122192,0.0296090841293334,0.0440109074115753,-0.0256974697113037,0.1666927933692932,0.0287092085927724,0.0057119479060173,-0.1667044460773468,0.0035744883527513,0.0827314747005701,84
1733293996824834000,-1.73382592645362,1.1004419523119926,-2.5215152039051056,2.077244227082282,5.936864914906025,7.52390029759407,0.1065947860479354,-0.1159303113818168,1.3029334545135498,0.2256293848910691,-0.0320825298955775,-0.3396447676904523,-0.9125258849357064,-0.4405839443206787,-0.0770684853196144,0.190863162279129,0.0117989182472229,0.0046335756778717,0.0185403227806091,0.1698956340551376,0.0040942076593637,-0.0450181223779916,-0.1599272787570953,-0.0317225669255829,0.0200581609055399,85
1733293996864834000,-2.074413825961947,-0.6454577121645212,-2.6818361142426728,2.4016712653845547,5.886365146246552,7.466797769668698,0.2987592816352844,-0.1432432830333709,1.314098596572876,0.2489938294665875,-0.0409539779421654,-0.342960696133358,-0.904821989139184,-0.6593919396400452,-0.0609923154115676,0.1410818994045257,0.001397430896759,0.0048080682754516,0.0095150470733642,0.1695184856653213,-0.0043881786987185,-0.1017301896810531,-0.2075867056846618,-0.069562105194386,-0.0388090386047959,86
1733293996904834000,-3.477062363070249,-2.9792788456380364,-1.4880489387571811,2.8437960239589213,5.914869356197118,7.286804775133729,0.950748324394226,-0.5247654914855957,1.6142961978912354,0.272512541374404,-0.0542508104972634,-0.3543066312371514,-0.8928944784285364,-0.7039104104042053,-0.043246928602457,0.099183514714241,-0.023440659046173,0.0185666978359222,-0.0021578669548034,0.1569818556308746,0.0243778601288795,-0.1299462303400039,-0.2884937524795532,-0.0856644594125449,-0.0738245301455259,87
1733293996944834000,-1.7967361177444456,-2.3299568592607973,-2.0192706154108047,3.490933067512512,5.979318155232072,6.94489161837101,0.8600946068763733,-0.8806219696998596,1.875729322433472,0.2993070049574695,-0.0753770653096294,-0.3744694647457628,-0.8743604272189348,-0.4779315888881683,-0.0857702121138572,0.081933818757534,-0.0126565694808959,0.0174812972545623,-0.023593246936798,0.1295653134584427,0.0707293823361396,-0.084646952933073,-0.3437578976154327,-0.1031549800534732,-0.0854252438291907,88
1733293996984834000,-0.4861296122565865,-3.669098846620321,-0.4937713591814041,4.184123421710729,5.843782142060995,6.671859105610847,0.2977687120437622,-0.9854556918144226,1.863375186920166,0.3254024715212598,-0.1021820832037263,-0.3865083034777993,-0.8569033818141807,-0.2160602807998657,-0.1079973801970481,0.0521018914878368,-0.0185042023658752,0.033442735671997,-0.0033379197120666,0.1085637584328651,0.0029046684503555,0.1129237838685512,-0.2280921638011932,-0.0254036501193419,0.0439104533970355,89
1733293997024834000,-0.4575812709033489,-2.8001895219445228,-0.6715595371484756,4.939227503508329,5.52179825912714,6.425275623837113,-0.0173164214938879,-1.265819430351257,2.078627824783325,0.3502304219056114,-0.1363423137594175,-0.3921898741773084,-0.8396050251050794,-0.2447728961706161,-0.0501975640654563,0.0363490246236324,-0.0235834717750549,0.0161262154579162,0.0010579228401184,0.0946705713868141,-0.083779476583004,0.0933019685536623,-0.1600292921066284,0.0051879879639949,-0.0848924521267414,90
1733293997064834000,0.557185554471612,-2.097602978369593,0.355811333733797,5.671479117506742,5.113997210437059,6.152376382067799,0.0726883560419082,-1.3732068538665771,1.5760799646377563,0.3709081195508285,-0.1733567906168473,-0.3953018162612506,-0.8222596759214627,-0.0942614153027534,-0.0302790384739637,0.030741274356842,-0.0195885300636291,0.0399920344352722,-0.0147652924060821,0.0867617577314376,-0.0946520343422889,-0.074044310376048,-0.1452448517084121,0.0151577759775798,-0.017667174115777,91
1733293997104834000,-0.0836222860604524,-1.7832509054884311,0.3406237014740705,6.287447700336575,4.828525779603422,5.7726709625273935,0.228212833404541,-1.5404492616653442,1.30055570602417,0.3830116748766071,-0.2060716737126645,-0.4039927675126983,-0.804752435878914,-0.0997437983751297,-0.0096843875944614,0.0089516900479793,-0.0193309783935546,0.0258083045482635,-0.0128619074821472,0.0900318026542663,-0.0720096081495285,-0.1308440559625625,-0.1763554662466049,0.079941222927533,-0.0336459567531943,92
1733293997144834000,0.5107487974673509,-1.3153767886295913,1.2742974670052527,6.888531433245539,4.57583024469018,5.270701683843136,0.3638763427734375,-1.7482973337173462,1.0206793546676636,0.3890610542173247,-0.2409049355061102,-0.4162136683402245,-0.7857241920755136,-0.0079201329499483,-0.0387218967080116,-0.0136229265481233,-0.0064640641212463,0.0280858874320983,-0.0011371970176696,0.0822835192084312,-0.034039732068777,-0.1633499027699232,-0.246633380651474,0.0892523461029864,-0.0636813217937946,93
1733293997184834000,0.0164852708548307,-0.9631678633019328,1.179012507940829,7.377557059204578,4.370415808650851,4.758308041778206,0.496710866689682,-1.3381948471069336,1.1761293411254885,0.3944264027659249,-0.2697391790533275,-0.4296912694800333,-0.766181363114826,0.0152158131822943,-0.0483771376311779,-0.036572054028511,0.0003308057785034,0.0127415657043457,-0.0018634796142578,0.0821343585848808,0.0038959570229053,-0.1296574765264987,-0.3104244768619537,0.0918420794683974,-0.0327115985125303,94
1733293997224834000,1.1226982077836989,0.243172504286468,0.4118506163418293,7.844186144438385,4.086891420231759,4.235145460678637,0.3818564713001251,-1.6683506965637207,1.0256805419921875,0.4022868288305165,-0.2987461183538826,-0.4413824102817711,-0.7443774281854776,0.035300575196743,-0.0612969808280468,-0.0621456541121006,0.0104060173034667,0.003997653722763,0.0024685859680175,0.0502706691622734,0.0747590214014053,-0.1175906066358089,-0.3728352785110473,0.0651030251599848,-0.0203477915018796,95
1733293997264834000,1.2386480614751576,-0.2435851767405867,1.3164134382009505,8.201389809313415,3.860475697217881,3.742235102240741,0.1798878759145736,-1.1575688123703003,0.8037347793579102,0.4037164009799123,-0.3247380305776301,-0.4513804585588226,-0.7265080941982536,0.0276679545640945,-0.0591244809329509,-0.0462025105953216,0.0103671550750732,-0.0135837495326995,0.0107866525650024,0.0784052386879921,0.0334857925772666,-0.0164437698006629,-0.3569511175155639,0.1202389383206609,0.1678723486304283,96
1733293997304834000,2.4668606536537405,0.0206090727865695,0.95266371268332,8.506364105257392,3.619923896823823,3.2723537372127174,0.4777142107486725,-1.354949116706848,0.7354272603988647,0.4064807708531808,-0.3481302196282693,-0.4603930266543838,-0.7082492100754795,0.0259065404534339,-0.0521439127624034,-0.0300418492406606,0.005231499671936,-0.015423834323883,0.0183413624763488,0.0978240370750427,0.0636975318193435,-0.0668459233045578,-0.3280114829540252,0.0447265372865833,0.0043067572832107,97
1733293997344834000,2.2535049032211303,0.4563096435323357,1.1779983624622226,8.704905148395895,3.534076043668389,2.8116394289806483,0.7114041447639465,-0.8140881657600403,0.3233309984207153,0.4070751055319834,-0.3627654080017621,-0.4743917658290901,-0.6911176027557414,-0.0115084759891033,-0.0333510488271713,-0.0143749369308352,-0.0035718083381652,-0.0260440707206726,0.0231631398200988,0.1067530959844589,0.0255314633250236,0.0333867212951183,-0.2097986042499542,0.0721173791677691,0.049461657783389,98
1733293997384834000,1.898171708393097,0.4980509361967444,0.3426782959163189,8.839972375011444,3.466747013022005,2.45090642093569,0.7278494238853455,-0.6259155869483948,0.4869946241378784,0.4113748413486701,-0.3705102930429814,-0.4876070910780069,-0.6750794382708393,-0.0199280604720115,-0.0084289731457829,0.0127797182649374,0.0011407732963562,-0.0208792388439178,0.0211504697799682,0.0876396298408508,-0.0071315243840217,-0.0277273803591728,-0.1634072065353393,0.047471981803514,-0.0668669660925865,99
1733293997424834000,1.86069859456718,1.0896151456102727,0.3093956195175648,8.925928072455525,3.390983623768389,2.2359397281751034,0.4696471393108368,-0.1544535905122757,0.2628350257873535,0.4171578329978719,-0.3741790266247746,-0.4959726365789688,-0.6633102958419281,-0.0304291695356369,0.0052411924116313,0.0187386069446802,0.006309151649475,-0.0101406574249267,0.0166018605232238,0.0575447790324687,-0.0240919068455696,-0.0369318465560674,-0.1639303117990493,0.0765673625802621,-0.0323527020722627,100
1733293997464834000,0.5287731144577265,0.901372501385212,-0.0907601751163601,8.968576543092727,3.321849881787598,2.168029828900844,0.1736435741186142,-0.0061881802976131,0.3380530178546905,0.4225679522521948,-0.3750307171474548,-0.4988117936378318,-0.6572482475285739,-0.0246011093258857,0.0158971920609474,0.0142972543835639,-0.0013768076896667,-0.0094231963157653,0.0107306838035583,0.0646884366869926,-0.0148327965289354,-0.0724345370918512,-0.1485231220722198,0.0732580188365653,-0.1219429566264152,101
1733293997504834000,0.9837357272952796,0.6714008394554257,0.3021224136441945,9.006369974914193,3.2109467900916933,2.178420436142385,-0.0222067944705486,0.0936265215277671,0.231994166970253,0.427552132325361,-0.3772290206461792,-0.4966183001170918,-0.6544217104233828,-0.0354340486228466,0.0212573371827602,0.027496013790369,-0.0009767413139343,-0.0128895938396453,0.0068082809448242,0.0739457383751869,-0.0286111533641815,-0.0610001198858022,-0.0705136209726333,0.055339482041914,-0.0607575433015823,102
1733293997544834000,0.2166770038098096,0.2893745757520198,0.1336807406932115,9.018656625035405,3.1516917603075503,2.213834133220464,0.0781018659472465,0.0880561023950576,0.1480960696935653,0.4309434816061232,-0.3773706648533781,-0.4946890479671366,-0.6535762028205875,-0.0414879471063613,0.0231128130108118,0.0343812182545661,-0.0006710290908813,-0.0116731226444244,0.0027165412902832,0.0704136565327644,-0.034909252077341,-0.081310501986742,-0.0054472088813781,0.0664934931376949,-0.0442149893015623,103
1733293997584834000,0.2169482219666242,-0.0518318940460681,0.1524631825745105,9.026914750292896,3.116410019046068,2.230066598358005,0.1632169634103775,0.0728967040777206,0.0976364985108375,0.4344066480991895,-0.3764305660686025,-0.4945687743745884,-0.6519146639473333,-0.0330848768353462,0.0203032866120338,0.0424302220344543,0.0018963813781738,-0.0108018219470977,-0.0007084012031555,0.0522436574101448,-0.0270296931266784,-0.1896715079843997,0.0090391179546713,0.020834168513026,-0.074120882743597,104
1733293997624834000,0.0877525177329778,-0.0701996176466345,-0.1389081199526786,9.03146233059466,3.107693336366117,2.223808853137493,0.2112824916839599,0.0052720485255122,0.0666606053709983,0.437315434184561,-0.3747897004480239,-0.4961350475744158,-0.6497214685798591,-0.0611950755119323,0.0178978107869625,0.0653877332806587,-0.00174081325531,-0.0150758028030395,-0.0027016401290893,0.0542222559452056,0.0054505616426467,-0.1136900920659303,-0.0092125562950968,0.0290625927519984,-0.0732645581752061,105
1733293997664834000,-0.0247252759337425,-0.2159279390081763,-0.0285515562236309,9.044132427075503,3.0943571771919727,2.190665439078957,0.1700119525194168,-0.0497087240219116,0.1147451102733612,0.439603316580105,-0.3742583073635517,-0.4982347517451468,-0.6468707693449772,-0.0756115615367889,0.0028236277867108,0.0589172542095184,-0.005594253540039,-0.0124021470546722,-0.0059911608695983,0.0508036091923713,-0.0051423637196421,-0.0726858815044164,-0.0087798936292529,0.0280641745654866,-0.0665571694910526,106
1733293997704834000,-0.0478203203171491,-0.0838081640213728,-0.0910049436576664,9.06857362537086,3.0547128568068147,2.14478047073856,0.136884793639183,-0.0890251919627189,0.1493319123983383,0.4418673883105283,-0.3753483759979163,-0.4997601668033182,-0.6435110974583953,-0.0754046365618705,0.0062842993065714,0.0771291479468345,-0.0085983872413635,-0.0047358870506286,-0.0102424621582031,0.045372124761343,-0.0017484035342931,-0.0843359872877597,-0.0021709594875574,-0.0027487689851783,-0.0366588748335838,107
1733293997744834000,0.1002238767713308,-0.0421428592026233,0.0216658883631229,9.088722094908356,3.023073563700914,2.10393641917482,0.1228127628564834,-0.0540331602096557,0.1059081405401229,0.4436228659845823,-0.3762912242345139,-0.5011327299034581,-0.6406790768824543,-0.0518156848847866,-0.0086017064750194,0.0762504413723945,-0.0043292641639709,-0.0020655095577239,-0.0083771646022796,0.0482302643358707,-0.0057482332922518,-0.0846224030137062,0.0081962961703538,0.0060272061339579,-0.0628238281816244,108
1733293997784834000,0.2919903112083673,0.0951136941507458,-0.0571938594706356,9.10824337245822,2.98786956385076,2.069520062571019,0.08976861089468,-0.074454054236412,0.1036912575364112,0.4454461329031659,-0.3772664381372615,-0.5021492551457646,-0.6380390441550593,-0.049911793321371,-0.0067943246103823,0.0896756276488304,-0.0057278275489807,-0.0012649893760681,0.0029378533363342,0.0483288541436195,0.0006501707248389,-0.0524912347376346,0.0085323480889201,0.0154788702912628,-0.0242091431051492,109
1733293997824834000,1.0403308902204036,0.5339633765771985,-0.1282335812032222,9.105248282295465,3.01035290607661,2.050029034028947,-0.0734127983450889,0.0358927696943283,-0.2646577358245849,0.4443832015085605,-0.3771217900722452,-0.5032462242796706,-0.6380015456666073,-0.0669363141059875,0.0062258695252239,0.0741363540291786,-0.0127508044242858,-0.0086505413055419,0.0021129250526428,0.0468625761568546,0.0070531470701098,-0.1088449901223182,0.0007237112149596,-0.0202099539337679,-0.0568126050680875,110
1733293997864834000,0.0902355667203664,0.0688441113844513,0.1246321957103908,9.065190997195243,3.1003304063826795,2.092996945878863,-0.1619277745485305,0.0706621259450912,-0.2015843689441681,0.4406452647148283,-0.3744981055236343,-0.5030288482999334,-0.6422965123285258,-0.2553155422210693,0.0253108814358711,0.0659676417708396,-0.0077818632125854,-0.0026572048664093,0.0084600150585174,0.0350305624306201,0.0040620593354105,-0.0487999790042638,-0.0080139925703406,-0.0036680575208738,-0.0483762006342411,111
1733293997904834000,0.3377975381374359,0.3637143619433045,0.0321802681148052,9.03789616303444,3.1367581028088924,2.15582092019096,-0.1737482249736786,0.1726383566856384,-0.1089335829019546,0.4387008679796225,-0.3731147612943373,-0.5008683403690727,-0.6461097533012965,-0.3537148237228393,0.0004181544063612,0.0132894469425082,-0.0019264817237854,-0.0071556270122528,-0.0002491176128387,0.0400017723441123,0.0104405637830495,-0.0919119754999876,-0.0122361853718757,-0.0182769400445744,-0.0511269606471061,112
1733293997944834000,0.0444289243131875,0.0026908465191721,0.061669981971383,9.013733197158574,3.1470310750201342,2.2403550603993234,-0.1348348259925842,0.148811474442482,-0.0200702268630266,0.438416021490214,-0.3715340725652636,-0.4977309619036824,-0.649628918458849,-0.3647783994674682,-0.0070000276900827,0.0250196736305952,-0.0196056365966796,-0.0228780210018157,-0.0022483170032501,0.0374437496066093,0.0291388239711523,-0.1156026476889848,-0.013463694602251,-0.0029074849445372,-0.0510270074039697,113
1733293997984834000,0.0684971976429223,0.0235658767655491,0.0948071124196052,8.998943039783835,3.1471053093001244,2.29894592718631,-0.0180896874517202,0.115355484187603,-0.0270458497107028,0.4388423684407109,-0.3703214996844797,-0.4956292630678972,-0.6516372299242176,-0.3273500502109527,0.012870030477643,0.0204219259321689,-0.0037014484405517,-0.0137740969657897,-0.0017109811305999,0.0356919392943382,0.0356668047606945,-0.0943430020391941,-0.0135457813739776,-0.0338747240077704,-0.0773135413050651,114
1733293998024834000,0.0213426477581262,-0.15082301415205,-0.05157192793563,8.988336890095471,3.1561443558022377,2.327859156329185,0.0641568079590797,0.0787095502018928,-0.0046782884746789,0.4397633600716653,-0.3686809234628269,-0.495365108199062,-0.6521471432957349,-0.2579110562801361,-0.0124072562903165,0.0296244788914918,-0.0010299682617187,-0.0001831948757171,0.0012870728969573,0.0168735552579164,0.0246551185846328,-0.055485740378499,-0.0085908258333802,-0.0059351622026413,-0.0904430719912052,115
1733293998064834000,-0.0417249260514974,-0.1760544860422611,-0.1697661995530128,8.983020663508773,3.1539924384653566,2.351183187162876,0.0466134063899517,0.0882706046104431,0.0450619012117385,0.4413151393198424,-0.3672628824054912,-0.4952181255493265,-0.6520107340916288,-0.2391815781593322,-0.0154018206521868,0.0275699831545352,-0.0004647970199584,-0.0003617405891418,-0.0037130117416381,0.0103253982961177,0.0095225144177675,-0.069581485748291,0.0092663755640387,-0.0065271732790395,-0.0627437486827373,116
1733293998104834000,0.1232815117537975,0.0758145349189639,-0.2104492153361439,8.98186623277664,3.141692928862572,2.371963963254541,0.0013087159022688,0.0500881820917129,0.0108523936942219,0.4427477704932712,-0.3665334192489103,-0.4946885367096532,-0.6518518024231734,-0.1638865619897842,-0.0279029663652181,0.0277637280523777,-0.0056173205375671,-0.0031847655773162,0.0064795017242431,0.0167056266218423,0.0080677103251218,-0.0815349583923816,0.0058485977351665,0.0079390859035775,-0.0922778862029314,117
1733293998144834000,0.0809054283171892,0.1932373837724328,-0.1396194830924272,8.973516337582469,3.153557261918485,2.3877749881096184,-0.0758551284670829,0.0147157283499836,-0.0761191099882125,0.4421569082512784,-0.3660834365243678,-0.4942067144061397,-0.6528705257937953,-0.3985176980495453,0.0398609563708305,0.0814569890499115,-0.0182169675827026,-0.0302547812461853,0.0170293748378753,0.0336208790540695,-0.0215064659714698,-0.0035579847425222,0.0093735661357641,0.08240637093205,-0.0070405661612749,118
1733293998184834000,0.0673421823889017,0.1177513501554727,-0.08573898595348,8.965680821651219,3.1623046319976447,2.405570464780181,-0.1140980198979377,0.0408595278859138,-0.0242337621748447,0.4409732527558487,-0.3662175321997979,-0.4931883638918383,-0.6543641915292837,-0.2479830682277679,0.0455869100987911,0.1156568974256515,-0.0053418278694152,-0.0094748735427856,0.0053032636642456,0.0515792891383171,-0.0001347754150629,-0.059838674890995,0.0217065121978521,0.0223616886075586,-0.011329787787795,119
1733293998224834000,0.1279793141812086,-0.0223784205466508,-0.0410436657890677,8.962354307577014,3.146212744374573,2.438836336174607,-0.1563495099544525,0.0343199037015438,0.0390723198652267,0.4405124044914257,-0.3669170535299103,-0.490943814547816,-0.6559685894374341,-0.181926816701889,0.0321237258613109,0.0969539806246757,-0.0020775198936462,-0.0124954581260681,0.003118872642517,0.0260161198675632,-0.0105986995622515,-0.0590033931106328,0.0245851911604404,0.0354435807596892,-0.0355365928053855,120
1733293998264834000,0.1425415080189704,-0.1096875784263014,0.1163432369232177,8.966198708045482,3.113962041372061,2.4659528911590574,-0.118199810385704,0.0172783769667148,0.0406764075160026,0.440346696726734,-0.368361902683513,-0.4884474445276763,-0.6571327779933919,-0.1739160269498825,0.0290731284767389,0.0903980806469917,0.0026233196258544,0.0016678869724273,0.000834584236145,0.0022280849516391,0.0098954634740948,-0.0543196192085742,0.0091614592820405,0.0245513441389426,-0.0102981066524982,121
1733293998304834000,0.2402162848293781,-0.1233455169007182,0.1374737032353878,8.965489098471403,3.102929482965171,2.4823814633905887,-0.0496846176683902,0.0059278681874275,-0.0306822583079338,0.4400300980226053,-0.3689260882757688,-0.487162506886507,-0.6579815769813188,-0.1060626804828643,0.0124918082728981,0.0832095444202423,-0.0040610432624816,0.0069725811481475,-0.0014141798019409,0.0005883477861061,0.0161567833274602,-0.0425315662592649,-0.0230982806533575,0.0341077655786648,0.0111024087727069,122
1733293998344834000,0.0798410139560699,-0.2088639919713139,0.1408852652445435,8.95976779821515,3.115574737265706,2.48719996958822,-0.017226792871952,0.0064157610759139,-0.0413203239440918,0.4392314260880822,-0.3687497344262963,-0.4870438621599134,-0.6587016173577354,-0.0772688463330268,0.0102250855416059,0.0671384260058403,-0.0013480186462402,0.0153180360794067,-0.0016131997108459,0.0223258640617132,0.0014244709163904,-0.0418944373995065,-0.0481166020035743,0.0666822571754455,0.0273445185214281,123
1733293998384834000,0.1020920087307691,-0.1927601216495037,0.1054205686315894,8.954873011910914,3.1204195469483733,2.4987220650777218,-0.0157127678394317,0.0425825528800487,0.0010363827459514,0.4391528969842884,-0.3683519157607041,-0.4867417128564311,-0.6591995799918567,-0.0134848086163401,-0.0008065800648182,0.0420319437980651,-0.0077441930770874,0.017768770456314,-0.0049066543579101,0.0400985553860664,-0.0114066777750849,-0.0578957241296768,-0.0471463464200496,0.0715618824431672,-0.0183195005446672,124
1733293998424834000,0.0254886615216732,-0.1128124324485659,0.120400987881422,8.950223724800347,3.1181340663596986,2.518158879214525,0.0100903492420911,0.050197597593069,0.0062795407138764,0.4396634007361785,-0.3677732670494313,-0.4861609294802613,-0.659610889541323,0.0335756465792655,-0.0153340175747871,0.0233135856688022,-0.0031889081001281,0.0221885740756988,0.0010777115821838,0.0379579439759254,-0.010569542646408,-0.069963763064146,-0.0265715923160314,0.0502003838540986,-0.0599333674371242,125
1733293998464834000,-0.0508826304972171,-0.0192170339062809,0.1287736794292926,8.947137449222803,3.1165657941296696,2.531035019661486,0.0375060848891735,0.0355685465037822,0.0124790556728839,0.4404180715988717,-0.3670854693396891,-0.4860055479395989,-0.659605039724772,0.0279878005385398,-0.0133402151986956,0.0067061800509691,-0.0033820867538452,-0.0001920163631439,0.0073731541633605,0.028465811163187,-0.001527820713818,-0.1149035595089197,-0.019110769033432,0.0168784714234992,-0.0595125116765499,126
1733293998504834000,0.1347416479229927,0.1134410857409238,0.1032154598027467,8.944519960200786,3.121424632337689,2.5342972363278267,0.0094807595014572,0.0159502942115068,-0.0404492653906345,0.440663974592802,-0.3665852871533638,-0.4862119229013743,-0.6595668973229826,0.0177753772586584,-0.0165381394326686,0.0098027708008885,0.002169907093048,-0.0074215829372406,-0.0051332712173461,0.0180288702249526,0.0155585194006562,-0.060319736406207,0.0036330372095108,-0.003177022600919,-0.036940029862523,127
1733293998544834000,0.0574549946248531,0.070116615538299,0.0815600928336381,8.936812454563379,3.1363179578259586,2.543083477112651,-0.0113674942404031,0.0208071023225784,-0.0259556826204061,0.4403014301190139,-0.3658942491241726,-0.4862717626833251,-0.6601482997572571,-0.0033088694326579,-0.0436524711549282,0.016364200040698,0.0038670897483825,-0.0129362046718597,-0.0036673545837402,0.0191969908773899,0.0039997370913624,-0.0115805476784706,0.0171422250568866,0.0296659472063183,0.0171171390175819,128
1733293998584834000,0.2148386824667453,0.0163531689077615,0.1572919179052114,8.934902237027883,3.136062229499221,2.5501015391811728,0.0120647698640823,0.0152635062113404,0.0129212029278278,0.4404649270686029,-0.3656690962682523,-0.4860731674714684,-0.660310244927394,-0.0196609459817409,-0.0613246262073516,0.0233814287930727,0.00478196144104,-0.0123980343341827,0.0017172694206237,0.0364883765578269,-0.0082727009430527,-0.0273474411308765,-0.0063402764499187,4.26700979471e-05,0.0265396318793296,129
1733293998624834000,0.2023106248050928,-0.0068412441968917,0.0871878695875406,8.928575956615806,3.1447420873001217,2.5615473545640706,0.038939606398344,0.0604524388909339,-0.0380196757614612,0.44083291712915,-0.3647319923599951,-0.4861769246978277,-0.6605066408655748,-0.0492316223680973,-0.0556064993143081,0.0286199338734149,-0.0037274360656738,-0.0173410475254058,0.0114733576774597,0.0517837554216384,-0.0077059101313352,-0.0375122767925262,-0.022350812330842,-0.0251820432579144,0.0789227300673723,130
1733293998664834000,0.0174947401583194,-0.0262421102374792,0.071114394403994,8.919163400626182,3.1562124526023863,2.5801652535334227,0.0414330698549747,0.0651065781712532,-0.0020753140561282,0.4415247881832948,-0.3632819567641245,-0.4862863439449549,-0.6607630364633637,-0.1103170812129974,-0.0399447679519653,0.0256949178874492,-0.0056564807891845,-0.0162565112113952,0.013430118560791,0.0447206497192382,-0.0039378767833113,-0.0416501072496175,-0.0332299023866653,-0.0497917299879714,0.0229436532139778,131
1733293998704834000,0.0664256520658731,-0.0802703452840447,-0.0162312960937619,8.91407630662024,3.1605607109397647,2.5923922824218866,0.0146134281530976,0.0218032393604517,-0.0169148482382297,0.4420742068516153,-0.3624327754725268,-0.4862789977854825,-0.6608673833084968,-0.0754296705126762,-0.0388244315981864,0.0222750864923,0.0009878277778625,0.0042385160923004,-0.0021403431892395,0.031302198767662,-0.0071183238178491,-0.0345727162092924,-0.0528192296624183,-0.0434597870200872,0.0024210896670818,132
1733293998744834000,0.0816863495618104,-0.0702536859214305,0.0998652725920081,8.907793280827999,3.173438604952395,2.5982506530612706,0.0595214180648326,0.0460636839270591,-0.0096745109185576,0.442353652178173,-0.3614244864195158,-0.4867221295697023,-0.660906418132353,-0.0157168023288249,-0.0504738949239254,0.0123425601050257,-0.0067331790924072,0.0062218308448791,-0.0031702518463134,0.0379191748797893,-0.0495094060897827,0.0177969379752874,-0.065468817949295,0.0472530783558264,0.0019809446841478,133
1733293998784834000,0.0551508093357086,-0.0336459567531943,-0.0472071568548679,8.90335325255394,3.176334910915792,2.609900466583669,0.0511980690062046,0.0447524972259998,0.0186870880424976,0.4434556134729073,-0.3602565978105759,-0.4869777116823541,-0.6606171259347815,-0.0071824369952082,-0.0360363647341728,0.0229940060526132,-0.0091063976287841,-0.0032341182231903,0.0029453039169311,0.0510993599891662,-0.042572297155857,-0.0327916780114173,-0.0473838597536087,0.0110479751717299,0.0236181914746761,134
1733293998824834000,0.0135404495745897,0.0007280220136046,0.1043961940199136,8.900970156809688,3.174282654561102,2.6205045704454184,0.0330741740763187,0.0490415133535862,0.0149091947823762,0.4443511895163955,-0.3595290413850401,-0.4869602877309063,-0.6604245421655981,-0.0676290020346641,-0.0294238980859518,0.026930559426546,-0.0015960931777954,-0.0173171162605285,-0.0006758570671081,0.0622412338852882,-0.0657080262899398,-0.045215106254816,-0.0318598300218582,0.0138812989015132,-0.0310877967029809,135
1733293998864834000,0.001223404315114,0.0489072387710213,0.0445762238293886,8.898772354504466,3.169947547966242,2.633188403190672,0.0386508405208587,0.0366934314370155,0.0287366509437561,0.4454238232073946,-0.3587606100205264,-0.4868629938446124,-0.660191625128884,-0.0304813683032989,-0.0504947751760482,0.0305248945951461,0.0001919269561767,-0.0102500617504119,-0.0105547308921813,0.0566386580467224,-0.0256186798214912,-0.0529997687816619,-0.020668601617217,0.0367293462539091,-0.0162824417591094,136
1733293998904834000,0.133263976585865,0.055235857270658,0.1028305521383881,8.899611143416166,3.16376885933131,2.637782160721719,0.0038351730909198,0.0169890020042657,0.0057342057116329,0.4461267168651889,-0.358502516249341,-0.486812570109919,-0.6598943570598854,-0.0273468270897865,-0.0702056288719177,0.0284432992339134,-0.0007271766662597,-0.0129444599151611,-0.0068634748458862,0.0416740775108337,-0.0239290762692689,-0.0471557189285755,-0.014474207535386,0.0432923580313101,-0.005664017111063,137
1733293998944834000,0.1185609129726886,-0.0875420898526906,0.1022533367723226,8.894710511893033,3.1669343376249075,2.6504800219923257,-0.0003458750434219,0.0454748608171939,-0.0100847771391272,0.4463159811555648,-0.3579748070595963,-0.4865358805883463,-0.6602567361149511,-0.0338886156678199,-0.0793589130043983,0.0316867642104625,-0.0018471479415893,-0.0077985227108001,0.000887781381607,0.0362413525581359,-0.0049741901457309,-0.0671679948657751,-0.0144434347748756,0.0012899302126839,-0.0034738135904073,138
1733293998984834000,0.0623579642355442,-0.0508127801313996,0.0297726224511861,8.89150733193755,3.163574213542044,2.665200329001248,0.0146074779331684,0.0429607629776001,0.0295437891036272,0.4469715705691578,-0.357425698012068,-0.4861681448435726,-0.6603816646149225,-0.0310640670359134,-0.0504491254687309,0.0344825498759746,-0.0115312933921813,-0.0066938698291778,0.0056425333023071,0.0342012904584407,-0.0182505287230014,-0.0092220018535852,0.0084318369626998,0.0177266126854345,0.0292956525892019,139
1733293999024834000,0.0905412716686725,-0.1038432363122701,-0.0126040455073118,8.89070770599246,3.15555252738893,2.677350201000273,0.0177735351026058,0.0241052769124507,0.0176899991929531,0.447800710471278,-0.3570471432464581,-0.4858090809965725,-0.6602889630568481,-0.0755082294344902,-0.0276575833559036,0.032100886106491,-0.0107750296592712,-0.0072174966335296,0.005259096622467,0.0236142538487911,0.0011456049978733,-0.013657353952527,0.0104716885834932,-0.0311097528064623,0.0003378536522388,140
1733293999064834000,-0.0096463647454977,0.0144283383250236,0.0093839144170284,8.889740322265029,3.1553450221180914,2.6808009259760377,0.0419739447534084,0.0099785374477505,0.0120321130380034,0.448344988785302,-0.3565991363063993,-0.4859570446207143,-0.6600527001556197,-0.0454523302614688,-0.0160463061183691,0.01809998229146,-0.005649447441101,0.0145087838172912,-0.0017879009246826,0.0022291354835033,0.0126660950481891,-0.0485042109280824,-0.0055297762155532,-0.058200771490857,0.0258773685783147,141
1733293999104834000,0.0459568645328283,0.073548343552649,-0.0225157831907272,8.889951919189095,3.156379333601892,2.678882525134086,0.0141723155975341,-0.0035340359900146,0.0007180001121014,0.4487126073218416,-0.3563043414374813,-0.4862738037596338,-0.6597287435379608,0.0293569304049015,-0.023629019036889,-0.0067609595134854,-0.0047860741615295,0.0158569812774658,-0.0063192844390869,-0.0007631506305187,0.0143238389864563,0.0091109426945447,-0.008523260243237,-0.0069076604966074,0.0864531255722045,142
1733293999144638000,0.0906061535984277,0.0180742936119437,-0.0395806074991822,8.891540065163374,3.154691234384477,2.6755963430702683,-0.0357399433851242,-0.0155634209513664,-0.0027901760768145,0.4485019231987523,-0.3566076190043015,-0.4862237781273476,-0.6597449792739405,0.0230156779289245,-0.0129605550318956,-0.0053323069587349,-0.0083444714546203,-0.0058775842189788,0.0075137019157409,0.0213294010609388,0.0139925200492143,-0.043991094584926,-0.0186739563941955,-0.0186051844766072,0.0636158873081905,143
1733293999184638000,0.0805249045670032,-0.0712616939201951,0.0403723423987627,8.892643642491102,3.1520006801262497,2.675101253029704,-0.0213793404400348,-0.0149965519085526,0.0070277703925967,0.4480961321148456,-0.3570620361622257,-0.4859161439135067,-0.6600015776773217,-0.0331541188061237,-0.00236058793962,-0.012083020992577,-0.0047863125801086,-0.0139284133911132,0.0098354518413543,0.016804352402687,0.0069172633811831,-0.0226087221711874,-0.0220566820353269,-0.0103924338724464,0.0460153167217969,144
1733293999224638000,0.0608604191541671,-0.1354196933150291,0.0422314142689108,8.896894870194792,3.147025814323127,2.666807471936941,0.009869085624814,-0.0384943038225173,0.0151715129613876,0.4479647093992785,-0.357571378012427,-0.4859767170765823,-0.6597703230815892,-0.0295202322304248,-0.006089492700994,-0.0162043292075395,-0.0029014348983764,-0.0035397112369537,-0.0008469223976135,0.0123826321214437,0.0174349937587976,-0.0424777902454137,-0.0364995151758194,-0.0047640725966542,0.0325742358684539,145
1733293999264638000,0.1811503478765487,-0.0656076136812567,0.0842722744017839,8.900655099511146,3.149788264773786,2.650953192462027,0.0208001993596553,-0.0303646251559257,-0.0240323450416326,0.4476043377786773,-0.3579543556595306,-0.4865261337542493,-0.659402261720048,0.0048385392874479,-0.0147557919844985,-0.0179171413183212,-0.0064083933830261,0.001931220293045,-0.002866506576538,0.0052281455136835,0.010844137519598,-0.025063714107871,-0.0352658294141292,0.0228120627235621,0.0308703545600175,146
1733293999304638000,-0.0168196173757314,0.0025993688434362,0.017741700656712,8.903197185209393,3.1544545030191538,2.63682939004153,0.0387743636965751,-0.0264824200421571,0.0185588505119085,0.4475327301203964,-0.3579896204602488,-0.4872397298587649,-0.6589045744941376,-0.0301543325185775,-0.0063292835839092,-0.00327914301306,-0.0044329762458801,-0.0054294466972351,-0.0017171800136566,-0.0019269199110567,0.0089821210131049,-0.0180523740410804,-0.0396856814622879,0.0313338073533028,-0.0062771805733442,147
1733293999344638000,0.1192430500179529,0.1181546702593565,-0.0841205909714102,8.910487926739453,3.1487332027629016,2.618981306400895,-0.0066178697161376,-0.0507720448076725,-0.0011065355502068,0.4475430435189567,-0.3585934187570104,-0.4877293060801851,-0.6582067089454979,-0.0285055711865425,-0.0150398975238204,-0.0070648929104208,-0.0065833926200866,-0.0174169242382049,-0.0030227303504943,-0.0220598559826612,0.0166549403220415,-0.0266623814761638,-0.0361912325024604,0.0157161131132394,0.0074707742720842,148
1733293999384638000,0.1511690511107444,0.1298316640496254,0.0040007600739598,8.913277265197038,3.154713446216285,2.6022368000879883,-0.0292023532092571,-0.0635998472571373,-0.0228390600532293,0.4465050049501698,-0.3593140339597611,-0.4880740379730314,-0.658263125230334,-0.0258195027709007,-0.0046331696212291,-0.0145132215693593,-0.005610167980194,0.0047440528869628,-0.0065754652023315,-0.0380056798458099,-0.0002255346626043,-0.004315525111556,-0.0384854823350906,0.0334772491227835,-0.029856793603301,149
1733293999424638000,0.2434066053032875,0.1302250472813844,0.0272784675478935,8.916958584058284,3.155218180868029,2.588985104326904,-0.0368582196533679,-0.0279075130820274,-0.0078974608331918,0.4456671162145992,-0.360128026289721,-0.4881662657307046,-0.6583178800767617,0.0189849846065044,-0.0045530619099736,-0.015295592136681,-0.0036516189575195,0.0133106708526611,-0.0061947703361511,-0.0411732271313667,-0.0021903868764638,-0.0237052852362394,-0.0346780195832252,0.0405004622904583,0.0026800328642129,150
1733293999464638000,0.0870849937349557,0.0523877743631601,0.0416764107346534,8.915262886056304,3.153148973378539,2.597332369172573,-0.0527225285768508,0.0122209582477808,-8.45605391077e-05,0.4452895096207968,-0.3603818067082607,-0.4875426648939755,-0.6588963881301326,0.0463958345353603,0.0057953428477048,-0.0231626369059085,-0.0034635663032531,-0.0001489222049713,0.0004096031188964,-0.0296924915164709,0.0055326693691313,-0.0305418532580137,-0.0375446453690528,0.0576473388591781,0.0362894569993019,151
1733293999504638000,0.065258361852169,0.0030111645147204,0.0164028532683849,8.913895689356327,3.147758512511849,2.6085402841463683,-0.0711588189005851,-0.0024793492630124,-0.0237445924431085,0.4448895658832607,-0.3607837051554521,-0.4866585902533274,-0.6595998253618535,0.0560740306973457,0.0063483747653663,-0.0191959906369447,-0.0082886219024658,-0.0037868320941925,0.0089379549026489,-0.0197604689747095,0.0082185780629515,-0.0395166023522615,-0.0383846499025821,0.0565321806915104,0.025220365974307,152
1733293999544638000,-0.0115589203685522,-0.134791332283616,-0.0008706453546881,8.91215439864695,3.147296155697107,2.615040167559683,-0.0796939805150032,-0.0097247445955872,-0.0094178514555096,0.4439340234826459,-0.3614028328609847,-0.4858580554796964,-0.660494266713059,0.0084183607250452,0.0496821589767932,-0.0087571982294321,-0.0094249844551086,-0.0167373716831207,0.0192277729511261,-0.0213231947273015,0.0236786641180515,-0.0263251123458147,-0.0308474954217672,0.0618499051155522,0.0195370596408843,153
1733293999584638000,-0.0771340930849313,-0.0852852508366107,-0.0501525626569986,8.915179883947967,3.135049253064394,2.619430511473119,-0.051049992442131,-0.0241793598979711,0.0184960085898637,0.4435132810889346,-0.3623039204999114,-0.4849557553091888,-0.6609461178750206,0.0143675962463021,0.0572670549154281,-0.0146154873073101,-0.0023061633110046,0.0001256763935089,0.0077453851699829,-0.0341169014573097,0.0419337823987007,-0.0330266558110713,-0.0333020128309726,0.0566080224066972,-0.0027817396730184,154
1733293999624638200,-0.1037947209954261,-0.0462666611343622,-0.1065612630993127,8.922387623369692,3.125509271302819,2.6062571416452527,-0.0430568680167198,-0.0810529887676239,0.0093563692644238,0.4428999365475906,-0.3634979023875422,-0.484754715888478,-0.6608493280940697,0.023182924836874,0.0401304140686988,-0.0306083671748638,-0.0045745372772216,-0.0035440623760223,-0.0031614899635314,-0.0452634990215301,0.0497770383954048,-0.0377022464066743,-0.030807863920927,0.0471755196075886,0.0141319857269525,155
1733293999664638000,0.1023427686214447,0.0022439795345067,0.0301174903661012,8.932326833581923,3.1209917938783764,2.5774673927515743,-0.0239960607141256,-0.1014464050531387,-0.0062176743522286,0.4417036277333475,-0.3651127640677985,-0.4850550578140966,-0.6605393120555944,0.0376454852521419,0.0331740789115428,-0.0178317874670028,-0.004557728767395,-0.0052517652511596,-0.0044077038764953,-0.0432550981640815,0.0503941513597965,-0.0297130012184381,-0.0269536338746547,0.050263950609602,0.0300911868810653,156
1733293999704638000,0.1791869388490915,-0.0063292030215263,0.17925503564924,8.940029078522324,3.1229817986518142,2.5481898603409525,0.0079074911773204,-0.0608169585466384,0.0007187412702478,0.4407703751910844,-0.3661878613493888,-0.4857827923467925,-0.6600326711589379,0.0178965516388416,0.025477860122919,-0.0181056261062622,-0.0035192966461181,-0.0085848271846771,0.0034986734390258,-0.0320615954697132,0.0482245907187461,-0.0389291578531265,-0.028293140232563,0.0347073023743927,0.0139507839411497,157
1733293999744638000,0.2937280947864055,0.0520610266268253,0.174331315511465,8.948039951020478,3.112325380080938,2.5330618493139743,-0.0625754743814468,-0.0358102172613143,0.0187982730567455,0.4403953578919874,-0.3672982732132273,-0.4857383765846791,-0.6596985270926395,0.0047453287988901,0.0311389416456222,-0.0167657900601625,-0.003894567489624,-0.002504676580429,0.0012981295585632,-0.0263606496155262,0.0398935750126838,-0.0208814599871635,-0.0346503257751464,0.0266497777229174,-0.0162099610447883,158
1733293999784638000,0.2882300818920135,0.0420145566478371,0.2511971130490303,8.950096299028395,3.103068891435861,2.5371499954104424,-0.0593040138483047,0.0030000298283994,-0.0079655768349766,0.4397655873774239,-0.3681940748467234,-0.4848447942489517,-0.6602763736332565,0.0310078263282775,0.01771080493927,-0.0182778667658567,-0.0068424344062805,0.0011393427848815,-0.0040211081504821,-0.0262390971183776,0.0307436995208263,-0.0410591556191444,-0.0275585874915123,0.0200396023355424,-0.0255447756230831,159
1733293999824638000,0.1713981846690178,0.0506046903386712,0.1821197774305939,8.945721152684092,3.106898094335198,2.547868373301625,-0.0025733741931617,0.0254771076142787,-0.0368333682417869,0.4394969029188871,-0.3680010823317357,-0.484427560917358,-0.6608687981061484,0.0166882742196321,0.0070452713407576,-0.0232882034033536,-0.0027371048927307,-0.0040474832057952,-0.0012816488742828,-0.0336061976850032,0.0297917053103446,-0.0514198061138391,-0.0156827047467231,0.0156966777604073,-0.01490121653378,160
1733293999864638000,-0.0184907654583454,0.0385340210556983,0.0685749390542507,8.937939412766694,3.120315794312954,2.558762107759714,-0.0070866644382476,0.0137876197695732,-0.0349138341844081,0.4392479735531048,-0.3672700906064451,-0.484409049748716,-0.6614543542952349,0.01474922709167,0.0033098147250711,-0.0175941661000251,-0.0017111897468566,-0.0046510398387908,0.0062814056873321,-0.0388022363185882,0.0341051965951919,-0.0353746802419424,-0.0099413618445396,0.0198759727390483,0.0018833295285701,161
1733293999904638000,0.0645434915810823,-0.0105666944608092,-0.0066699792832136,8.932716709682344,3.1303610952481624,2.564724815556407,-0.0309248231351375,0.0041338135488331,-0.0470507815480232,0.438702920170373,-0.3670220028842881,-0.484283258562641,-0.6620456560506836,-0.0219073221087455,0.0102876164019107,-0.0215417705476284,-0.003807246685028,-0.0143801271915435,0.0101432800292968,-0.0376933515071868,0.0094881244003772,-0.0135053782612085,-0.0043806303292512,0.0479124921126291,0.014312018468976,162
1733293999944638000,0.0256552502602338,-0.1054606083810329,0.0311617387220263,8.928208876869082,3.141457366541028,2.56684604549408,-0.0029408116824924,-0.0029708915390074,-0.0250789113342762,0.4380652643713676,-0.3668498561495401,-0.4843020340470362,-0.6625492069509311,-0.0030137910507619,0.0135166458785533,-0.00617959164083,0.0051594376564025,0.0029751062393188,0.0037231147289276,-0.0230793412774801,0.009092791005969,-0.020005846196413,-0.0144572658464312,0.0499034832667559,-0.0054687867999076,163
1733293999984638000,0.0193844994276762,-0.0268809926629066,-0.0434220853582024,8.928047548827529,3.147723148937524,2.559728322443366,0.0221881959587335,-0.0300001893192529,-0.0093228472396731,0.43783392462065,-0.3668019200913564,-0.4847128226626217,-0.6624284175114381,-0.0213110409677028,0.0038561888504773,-0.0140233328565955,-0.0039328932762146,0.0006495118141174,0.0010154247283935,-0.0128004997968673,-0.0002851895987987,-0.041115854242444,-0.0184583887457847,0.0401117917664349,-0.01652384929955,164
1733294000024638000,0.0352291342914104,0.0541407555103302,-0.0048804655179381,8.932254352867602,3.150648096473515,2.5413874868497253,0.0025748442858457,-0.0488510355353355,-0.0015860290732234,0.4374241060032506,-0.3672584503330926,-0.4853313621713161,-0.661993168804859,0.0157167539000511,-0.0029395590536296,-0.0079814866185188,-0.0005369186401367,0.0066646039485931,-0.0032741427421569,-0.010887517593801,-0.0050421268679201,-0.0367541519016027,-0.0099132340401411,0.0495162375148385,-0.0147077397882938,165
1733294000064638000,0.0827618698388338,0.077779989773035,0.0316474764123559,8.93589592424035,3.1496032635957,2.529848732486367,-0.0123053947463631,-0.0253613796085119,0.0041488814167678,0.4370644314345528,-0.3677764490865103,-0.485545149220298,-0.661786205804867,0.0080716162919998,0.0010805890196934,-0.0074624363332986,-0.0143829584121704,-0.016007512807846,0.0098967552185058,-0.0115287313237786,-0.0060548507608473,-0.038094460594654,-0.0030495426617562,0.0506959853513166,-0.0194546420544385,166
1733294000104638000,0.2172188556015491,0.0487424035981297,0.0625900194257497,8.938357930439711,3.149312463955581,2.521501467640698,-0.0267569459974765,-0.0314432829618454,-0.0260205324739217,0.4365428611886821,-0.3683176535247203,-0.485573172796387,-0.6618089790410112,-0.0295066535472869,0.0204303171485662,-0.0051955534145236,-0.0038508772850036,-0.0028486549854278,0.0063199400901794,-0.0143573507666587,-0.0006040870212018,-0.0333364524126052,0.0009134458377957,0.0676158847637474,0.0179144268751144,167
1733294000144638000,0.1411503459215164,-0.0113292032659053,0.0646954672724008,8.936315610957145,3.1606022119939325,2.514608200995624,-0.0017237514257431,-0.0195386093109846,-0.0324617810547351,0.4356834793420404,-0.3684525496862896,-0.4858326735634493,-0.6621097529031409,0.006084366235882,0.0067915781401097,-0.009461804293096,-0.0083537101745605,0.0004800856113433,0.0015050768852233,-0.016712050884962,-0.0071100308559834,-0.0489794272243976,0.0009691786835901,0.0628376740438863,0.024632921475172,168
1733294000184638000,0.0427349798768758,-0.0017322306200861,-0.009578560206294,8.935072332897782,3.166567550139129,2.511519295069576,-0.0039260247722268,-0.0007066338439472,-0.0048826970160007,0.4354048724562199,-0.3683854063127454,-0.4860456237923887,-0.6621740754399301,-0.0086746057495474,0.0001670182973612,-0.0147282052785158,-0.0084997415542602,0.0003786087036132,-0.0005325675010681,-0.015513245947659,0.0029136235825717,-0.0695417382597923,-0.0105531113222241,0.055436530941911,0.000568739798665,169
1733294000224638000,0.0019575638085603,0.0533349920853972,-0.0211500477954745,8.93604673088789,3.166267982670665,2.5084262974902987,-0.0236617587506771,-0.0238813497126102,-0.0101594077423214,0.4351002175082548,-0.3686781656282714,-0.4859858624215888,-0.662255239484829,0.0511591657996177,-0.0119866365566849,-0.0047071296721696,0.0011579394340515,0.0053374767303466,0.0042481422424316,-0.0128415431827306,0.0097625153139233,-0.0645505058437585,-0.0202943608164787,0.0442164506062865,-0.0051397009760141,170
1733294000264638000,0.1069271738022565,-0.0103255791813135,0.040009938827157,8.936571047022937,3.170671770587563,2.5009862106174228,-0.0197496656328439,-0.0308326929807662,-0.0232858005911111,0.4344347917588995,-0.3690542044074575,-0.486090714239883,-0.6624056926347879,-0.0386761836707592,0.0076297814957797,-0.0060063530690968,-0.0088639855384826,-0.0142404437065124,0.0086286664009094,-0.0136501444503664,0.0095544988289475,-0.043816345372796,-0.0116419782862067,0.0500389827473089,-0.0059440030962228,171
1733294000304638000,0.1190337911814451,-0.0234238379463553,-0.0155693250536918,8.937333263567089,3.175540253406763,2.492071375016868,-0.0227925647050142,-0.0286964960396289,-0.0129140513017773,0.4337163261638342,-0.3694690963697612,-0.4862430582157259,-0.6625334014969977,0.0694622695446014,0.0089805899187922,0.0094266654923558,-0.0051725506782531,-0.0053969919681549,0.0034710466861724,-0.014803534373641,0.0108280563727021,-0.0489876105308532,0.001038059592247,0.0431906512225046,-0.011318681871891,172
1733294000344638000,0.0727303051680326,-0.017730594740808,0.00562280831784,8.937696836182475,3.1765798255875706,2.489434304511547,-0.0207504332065582,-0.0122733134776353,-0.0081681031733751,0.43325720694443,-0.3697944626204072,-0.4861339654364225,-0.6627321705150301,-0.0601559057831764,0.0196398384869098,0.0023041074164211,-0.0053894519805908,-0.0111506581306457,0.0101258754730224,-0.0223980117589235,0.01554184127599,-0.0256219325125217,0.0001403478672727,0.0432456328127533,-0.0069201546519994,173
1733294000384638000,0.1135989066511392,0.0281067350655794,0.0158744454801082,8.93962575841844,3.175784291295707,2.483522742380201,-0.0109205543994903,-0.0275565478950738,-0.0081770829856395,0.4329096082040533,-0.3701940061855696,-0.4861398785706166,-0.6627320397953657,-0.0065118530765175,0.0200468767434358,0.0043946886435151,0.0014135837554931,0.0224775373935699,0.0016279518604278,-0.026485189795494,0.0155564108863472,-0.0163788878709077,0.0006652976735495,0.0486208230450749,0.0219037887722253,174
1733294000424638000,0.0935807854950428,0.0698924513936042,0.0444680872797966,8.940340628689526,3.180086664664745,2.4754288677737115,-0.0140267089009284,-0.0222943723201751,-0.0168934762477874,0.4323717308522645,-0.3704931319172307,-0.4863363975021479,-0.6627718109680801,-0.003025775309652,0.0122728431597352,-0.0200227703899145,0.0013809204101562,0.012552797794342,0.0012809634208679,-0.0197225008159875,0.0111987479031085,-0.0045674540460109,-0.000540682405699,0.0636937794165685,0.032741993650794,175
1733294000464638000,0.0593073444932699,0.0034977789878845,0.0281748318657279,8.941543574738501,3.1797426735326644,2.471521046680212,-0.0385863184928894,-0.019593508914113,0.001207897439599,0.4318548666579038,-0.3709578916397698,-0.4861869403132774,-0.6629584366227547,0.0243842788040637,0.0194279570132493,-0.0120695047080516,0.0011934041976928,0.0045089721679687,-0.0002219080924987,-0.0064392825588583,0.0023792255669832,0.0271463656008243,-0.0120424730703234,0.1166909178497269,0.0390823025882244,176
1733294000504638000,0.1076578261643648,-0.0495431985870003,0.0312526318758726,8.9422748116225,3.178914113754034,2.46993991496861,-0.0213494338095188,-0.0091771259903907,-0.01665592007339,0.4313324901597606,-0.3714129430986482,-0.4859223552858598,-0.6632376201573245,0.0421627424657344,0.0333097353577613,-0.0074836751446127,-0.0080183744430542,-0.006060779094696,0.0050220489501953,0.0025049336254596,0.0003437823615968,-0.0356283627420663,-0.0132510559633374,0.0854107038471847,0.0710001203745603,177
1733294000544638000,-0.0683253482073545,-0.0908063523456454,-0.0438140072852373,8.942284163972735,3.179625769154727,2.4689903591588136,-0.0190275758504867,-0.0200948640704154,0.0159006174653768,0.4310685220896477,-0.3715839596896744,-0.4858414134345832,-0.6633727450608804,0.0146046169102191,0.0290921963751316,-0.0051221833564341,-0.0044443011283874,-0.0108678340911865,0.001193881034851,0.0024886804167181,0.0019405799685046,-0.040440731459856,-0.0209276340901851,0.0791647586623206,0.0022159224838018,178
1733294000584638000,0.0539729977279901,0.0289528305009007,0.0036102994516491,8.947177196711301,3.1695506576031445,2.4642127694934604,-0.0407738983631134,-0.0271515194326639,0.014695662073791,0.4308695408356496,-0.3723588862734526,-0.4854986840980435,-0.6633183963992608,-0.0102474689483642,0.0241415929049253,0.0091064870357513,-0.0016446113586425,-0.0090066194534301,-0.0047749876976013,-0.0098085440695285,0.0166858714073896,-0.05182838691473,-0.0236419346183538,0.0690467943497002,0.0019540566772222,179
1733294000624638200,0.0622024814128875,0.0165492760017514,0.03617167583853,8.952416850930453,3.157713504815101,2.4603823975503443,-0.0546409785747528,-0.0277280937880277,0.0284104086458683,0.4305159472998081,-0.3733253524070005,-0.4849573040144365,-0.6634008822986582,0.0143998200073838,0.0168509222567081,0.0060884598642587,-0.0034652352333068,0.007216989994049,-0.0036205053329467,-0.0153837613761425,0.0259632654488086,-0.038200843578577,-0.0224753264337778,0.0678355188637971,0.0084369889557361,180
1733294000664638000,0.1145464166343212,0.0362783510833978,0.0369417834281921,8.957233311301469,3.1459152227327225,2.4579662763193246,-0.0261473152786493,-0.0230769589543342,0.0128846429288387,0.4302750823998316,-0.3741816828206867,-0.4844240613318035,-0.66346434802464,0.0370649173855781,0.0241603404283523,-0.0008928840979933,-0.004359483718872,0.0036535561084747,0.0009320378303527,-0.0099796969443559,0.0285093393176794,-0.0282914439827203,-0.0187292750924825,0.0737474828539416,0.0102063367158174,181
1733294000704638000,0.1813186901807784,0.0749020962491631,-0.0047317046970129,8.959294335484504,3.1429049350008365,2.454299278244376,-0.0344503968954086,-0.0136863486841321,-0.0077537782490253,0.4299325975617272,-0.3746578292676341,-0.4842489855757116,-0.6635453607776779,0.0394569709897041,0.0304198358207941,-0.0017211937811225,-0.0054514408111572,-0.0011900961399078,0.0096482336521148,-0.0120809078216552,0.0260259564965963,-0.020220365729928,-0.0131496079266071,0.0698422921089455,0.0124625912100076,182
1733294000744638000,0.063889411586523,0.0624929887920618,0.0028860768303275,8.96105491541624,3.135412533418834,2.4574559887096283,-0.0592348538339138,-0.0011109032202512,0.0237139370292425,0.4295699066442613,-0.3752721850893211,-0.4836066625291604,-0.6639015112005374,0.0296442881226539,0.0323481783270835,0.0003854332026094,-0.0021243691444396,-0.0061473548412323,0.0083507299423217,-0.0104932337999343,0.0376863554120063,-0.0290951615810394,-0.0054536880925297,0.0374943758096545,0.0285170694321393,183
1733294000784638000,0.0801017107188701,0.0218576115429401,0.0557481907069683,8.965042523747682,3.1191853289783,2.4635505061924454,-0.0515207238495349,-0.0044984426349401,0.0172410532832145,0.4295232400336392,-0.376074528281215,-0.4826611907399765,-0.6641655754802736,0.0111797917634248,0.0264743100851774,0.0072380136698484,-0.0030284523963928,-0.0086188614368438,0.0027977228164672,-0.0165070910006761,0.035608559846878,-0.0165109898179769,-0.0038836472667753,0.0326956702910363,0.0152642046272754,184
1733294000824638000,0.1216997955203056,-0.0210500945523381,0.0306304083243012,8.966389846703409,3.116153998458385,2.4624817079171537,-0.0500202514231205,-0.0276859775185585,-0.0182751324027776,0.4288921326328757,-0.3767146469335277,-0.4822182575109184,-0.6645322691718297,0.0120810056105256,0.0292485244572162,0.0084737204015254,-0.0031473040580749,-0.003824770450592,0.0027865469455718,-0.0167646780610084,0.0346391908824443,-0.019575053563714,-0.0055635455064475,0.0293572831159457,0.0253992296725511,185
1733294000864638000,0.0722042354673147,-0.0787239926248788,0.0587716301813721,8.967254354578255,3.1136744566023347,2.4624723555669186,-0.0398591943085193,-0.0061558419838547,0.014042928814888,0.4283040574577894,-0.3772745609615931,-0.4817808105375576,-0.6649111729882244,0.0125593096017837,0.027751188725233,0.0022420561872422,-0.0046209692955017,-0.0052106082439422,0.0074972510337829,-0.0097542246803641,0.0334852002561092,-0.0437993942379951,-0.0107185216620564,0.0130395143151283,0.021941782695055,186
1733294000904638000,0.0284065947949886,-0.0748740391984581,0.0665343731373548,8.970798895317316,3.101294575239718,2.4651842448741195,-0.0297625102102756,-0.015216221101582,0.0291349310427904,0.4283436730585511,-0.3778626397771028,-0.4811760753818011,-0.6649896142123176,0.0084021147340536,0.0233252812176942,0.0123827746137976,-0.0032114386558532,-0.0076960027217864,0.004393994808197,-0.0065661761909723,0.0296473354101181,-0.0262689982444047,-0.0126724261790514,0.0187865335345268,0.0063648588567972,187
1733294000944638000,0.1077893435895442,-0.0246165548622608,0.0893921016335487,8.973567190986872,3.0956290968239304,2.4622286099389195,-0.0216147266328334,-0.0201708041131496,-0.0106557561084628,0.4280834431961512,-0.3784068458753115,-0.480904917835656,-0.6650438644786718,0.0020965486764907,0.0246450379490852,0.0071734981611371,-0.0013284683227539,-0.002571016550064,0.0036932826042175,-0.0030621038749814,0.0174914058297872,-0.0304039060920476,-0.0100236292928457,0.0329407310932874,2.16273099184e-05,188
1733294000984638000,0.097687051770091,-0.0250458861902356,0.085831194281578,8.975140139392018,3.095609223079681,2.45651169359684,-0.0081366254016757,-0.0189428571611642,0.0035464831162244,0.4277182223521236,-0.3787730548986715,-0.4809196772909224,-0.6650596750235933,0.0107840467244386,0.0211050044745206,0.0124347060918807,-0.0007673501968383,-0.0015494525432586,0.0015725791454315,-0.0015116739086806,0.0109306219965219,-0.0468313092797994,-0.0119786858558654,0.0353192602602764,-0.0222059865891933,189
1733294001024638000,0.2173001041442155,0.0103387309238314,0.0561187775850295,8.976732961541414,3.093294808657467,2.453602820412814,-0.0079663591459393,-0.0020392825827002,-0.008635145612061,0.427603594895002,-0.3790313332288949,-0.4808703771095742,-0.6650218488281677,0.0292570628225803,0.0128488317131996,0.0183589737862348,-0.0037423372268676,-0.0026560127735137,0.0049175918102264,-0.0010800021700561,0.0128936450928449,-0.0620177724957466,-0.0099815698340535,0.0156152465546503,-0.0227612823843956,190
1733294001064638000,0.0892021320194006,0.0237622761204838,0.0086941785871982,8.97629281655848,3.093039372591674,2.455537880128622,-0.0024660644121468,0.010253339074552,0.0122456150129437,0.4276069642251417,-0.379008397389936,-0.4807858655253822,-0.6650938952230715,-0.0005612859968096,0.0133488671854138,0.0059042354114353,0.0001633167266845,-0.0072278380393981,0.0118104219436645,-0.0077646332792937,0.0080020660534501,-0.0334913507133722,0.0044510830193758,0.0332899098571389,-0.0152560213208198,191
1733294001104638000,0.0405792631477117,0.0055702013477683,0.0045852819636464,8.976581570371986,3.0877380513131616,2.461143152789772,-0.0159834399819374,0.0029166729655116,0.0008787810220383,0.4278073416916703,-0.3790481730361229,-0.4804571825770454,-0.665179807463889,-0.0277015604078769,0.0218625124543905,0.0134314596652984,-0.0007023811340332,-0.015065461397171,0.010508120059967,-0.009193473495543,0.0257842727005481,-0.0580664045214653,0.0054593216627836,-0.004084712030366,0.0048819268226623,192
1733294001144638000,-0.052561377364397,-0.0705883247032761,-0.0729851567119359,8.979342267256975,3.08788096691519,2.4508760257974265,-0.0172167047858238,-0.0716149359941482,-0.0074322000145912,0.427234157374894,-0.3796364921402998,-0.4805374429589926,-0.6651548001645958,-0.0398551635444164,0.0192170348018407,0.0089333821088075,-0.0028563141822814,-0.0095838010311126,0.0017594099044799,-0.0098002115264534,0.0158337689936161,-0.0434258847504854,-0.0113446712493896,0.0083296926563605,-0.0075192895889282,193
1733294001184638000,0.1625163745552301,-0.0860839999988675,0.0925127178721129,8.983183745115994,3.091255704045296,2.432472207970172,0.0090550053864717,-0.0256147235631942,0.0002780969371087,0.4265362781438664,-0.3802855677902997,-0.4810003313779795,-0.6648971956292624,-0.0056721586734056,0.0141998529434204,0.0152705051004886,-0.0006700754165649,-0.0011853575706481,-0.0063764452934265,0.0007803756743669,0.0056497883051633,-0.0264577988147735,-0.0192399844527244,0.0342434842549264,0.0101695118367671,194
1733294001224638000,0.1680342611938715,0.0056748307660222,0.0064297407865524,8.988440350469947,3.0807503843829034,2.426378567270189,-0.0089148012921214,-0.0102103538811206,0.0392546765506267,0.4268053665752799,-0.3807606114629721,-0.4809474784743496,-0.6644909043338774,-0.0196055509150028,0.0121367555111646,0.0108320154249668,-0.0086875557899475,-0.0067876875400543,0.006257951259613,0.015318033285439,-0.005576092749834,-0.042878187739849,-0.0154570005834102,0.0483576420642435,0.0090501524180173,195
1733294001264638000,0.1951665982693433,0.0479158896461129,0.047367315852642,8.991234949624538,3.07217778634876,2.4268901700541377,-0.0189787130802869,-0.0007185420254245,-0.0010277018882334,0.4268719434486461,-0.3811618455054857,-0.4806024180914426,-0.6644676720769579,0.0258122645318508,0.0089194439351558,0.0040768408216536,0.002071738243103,0.0059674978256225,0.0059054791927337,0.0159483663737773,0.000160857103765,-0.0800724846243858,-0.0059973560273647,0.0195654820177704,-0.0259673849493265,196
1733294001304638000,0.0250251356631517,-0.0224275203853845,0.0086532620549201,8.992436142107843,3.0690491329342127,2.4263991716668007,-0.0059989509172737,-0.0151860881596803,0.0183566454797983,0.4268044276803736,-0.3813865156046364,-0.4804502022193235,-0.664492211268203,-0.0010156212374567,0.014575838111341,-0.0073712230660021,-0.0044654011726379,0.0058575570583343,0.0079964399337768,-0.0023916028439998,0.0143991010263562,-0.0662047027915716,-0.0013941060751676,0.0293462502652779,-0.0599462269186973,197
1733294001344638000,0.137312959715724,-0.0360424965009093,0.0866103619605302,8.99656637378037,3.0620141197308897,2.419968992488831,0.0048365881666541,-0.0192333720624446,0.0127584896981716,0.4268662827053316,-0.3818308434778156,-0.4804384715962997,-0.6642057206839157,0.0099744461476802,0.0228771232068538,-0.0025145492982119,-0.0075219869613647,-0.0052845478057861,0.0041450262069702,-0.0198917873203754,0.0223369672894477,-0.038534605577588,-0.0057002152316272,0.0513213141754269,-0.0294388604521751,198
1733294001384638000,0.123315998545289,-0.0268652105718851,0.0633884763270616,8.998442689046263,3.0622640028387305,2.41266495308578,0.0221834629774093,-0.018465619534254,-0.002063199179247,0.4268473925440953,-0.3819595509023491,-0.4807236422154701,-0.6639374872076365,0.0143542801961302,0.0268440619111061,0.0025013145059347,-0.0078046917915344,-0.0016772150993347,0.0045493841171264,-0.0230490434914827,0.0292863436043262,-0.0418628732174634,0.0024246606044471,0.0390082875039428,0.0302227043062448,199
1733294001424638000,0.0054927521973848,0.0238040694355964,-0.0316128434903919,9.00029562343657,3.0614237526223063,2.406810527969152,0.0184320863336324,-0.0023602303117513,0.020801905542612,0.4270616722856913,-0.3819517673071382,-0.4810401853506825,-0.663574766211454,-0.0119204670190811,0.0361098386347293,-0.002649838104844,-0.0046955347061157,-0.0074367523193359,0.0066836178302764,-0.0201685763895511,0.0315613076090812,-0.0228080441355705,0.0060371947474777,0.0355622752359136,0.0517576597660779,200
1733294001464638000,0.03748655782938,-0.0024164134919643,0.0177113055184483,9.004963030725717,3.052928311477601,2.400132511509955,-0.0048694289289414,-0.0339118801057338,0.0162876453250646,0.4272654025981748,-0.3823746289725803,-0.4810581440554822,-0.6631869197529153,0.00357540207915,0.0238750092685222,-0.0120437396690249,-0.0006909370422363,0.0027546286582946,-0.0002430081367492,-0.0173584036529064,0.0317771062254905,-0.0058335284590721,-0.002419012133032,0.0440437609205022,0.0386351433426141,201
1733294001504638000,0.1319715986877679,-0.0296732537299394,0.0469317009143531,9.009239392870665,3.0516043693974613,2.3857268234081563,0.0223064869642257,-0.0322800427675247,0.0031053232960402,0.4269730597703555,-0.3829084467760224,-0.481396826738784,-0.6628213935713573,0.0201551765203475,0.026662329211831,-0.002023595618084,-0.0098485946655273,-0.0026869773864746,-0.0015491247177124,-0.0129426773637533,0.0162258706986904,0.004099252012372,-0.0065256836824119,0.0635292730372399,0.0541004234999418,202
1733294001544638000,0.0519487984240055,0.0558572040393948,-0.0124848030418157,9.013097237342595,3.048374593695998,2.375262712538987,0.0323351696133613,-0.0037104510702192,0.0312580578029155,0.4273399809207288,-0.3829956888371172,-0.481881322148265,-0.6621821844674448,0.0144746555015444,0.0365661457180976,-0.0012743817642331,-0.0091357231140136,-0.0025350451469421,-0.0005482137203216,-0.0068701347336173,0.0078608999028801,-0.000704933398962,-0.0032540797255933,0.0541192377982661,0.0700876817047596,203
1733294001584638000,0.0173643917769193,0.0269335996329784,0.0162812727153301,9.018352673652767,3.036447424536944,2.3705881448566912,-0.0193898566067218,-0.0271442141383886,0.0310205072164535,0.4277007178628853,-0.3834512399936884,-0.4817663241744571,-0.6617691878335441,-0.0001716655679047,0.0142875239253044,-0.0112046431750059,0.0019780397415161,-0.005218356847763,0.0010569989681243,-0.0015581743791699,0.0129105290398001,-0.0373965414583683,-0.0082202591001987,0.0279917669164016,0.0239817640900611,204
1733294001624638200,0.0550128621697425,-0.0098980014190077,0.0796076435916125,9.024547436639669,3.028537089803814,2.3570909499019383,0.0202123038470745,-0.0486329570412635,0.0125156641006469,0.4275218926919308,-0.3842363146811091,-0.481855023075413,-0.6613645954277295,-0.0210854709148406,0.0164681207388639,-0.0010923547670245,-0.007449448108673,-0.0096272826194763,-0.0017744004726409,-0.0111956689506769,0.0299652181565761,-0.01533025560081,-0.0183926224708557,0.0235804898127913,0.0240139127939939,205
1733294001664638000,0.0868640444606542,0.0192500593930482,0.1265039809316396,9.029956602206823,3.0281197411745784,2.3368302521616218,0.0490474253892898,-0.0360561050474643,0.0193066019564867,0.4276086306182985,-0.3845422046938138,-0.4826821995044384,-0.6605271664102182,-0.0100338831543922,0.0113752512261271,-0.007126878015697,-0.0043294429779052,-0.0016722083091735,-0.0015660524368286,-0.0201529804617166,-0.0099731348454952,0.0677010788291692,-0.0082555022090673,0.0956657750755548,0.0336737215429544,206
1733294001704638000,0.1620510951310396,0.0403822792708873,0.0868118758819997,9.033627984195949,3.0225492475658653,2.3298352787077428,-0.0100208558142185,0.0016325728502124,0.0258582364767789,0.4278889255381791,-0.3847539638862376,-0.4828828510594434,-0.6600753928572619,0.0186992287635803,0.0204965248703956,0.0118777053430676,-0.0065057873725891,-0.0002629160881042,0.0038381218910217,-0.0071713291108608,-0.0003649201244115,0.0210328511565923,-0.0099828960373997,0.0836302136385813,0.0380827701568603,207
1733294001744638000,0.1130892035633325,0.0950561187446117,0.084411975133419,9.037549541553854,3.0102234344780445,2.330589165814966,0.0037661870010197,-0.0014308993704617,0.0254662800580263,0.4282048607925331,-0.3851686194524807,-0.482512337110486,-0.6598997262631298,-0.0158670060336589,0.0365178883075714,0.0079573998227715,-0.0082282423973083,-0.0071935057640075,0.0020003318786621,0.0033160736784338,-0.0022483146749436,-0.0103682492792606,0.0011411411687731,0.0879279108325019,0.0736380676627159,208
1733294001784638000,-0.015358312651515,0.0478404863223433,0.0599602554440498,9.03970292019546,3.004168079961836,2.3300515518069265,0.0149693693965673,0.0015426720492541,0.0193512700498104,0.4286354205440435,-0.3851861170808006,-0.4825267771962643,-0.659599374556312,0.0019761738367378,0.0060574514791369,0.009540582075715,-0.0025883316993713,0.0019046068191528,-0.0033432841300964,0.0088469060137867,0.0012822113931179,-0.0375187065333127,0.0022556791082024,0.0696277725754305,0.0333171631902456,209
1733294001824638000,0.0410731841444969,-0.0571262010619044,-0.0192220023423433,9.042677552092076,2.998552578167617,2.3257357344344256,-0.0111792758107185,-0.0266329292207956,0.0132799400016665,0.4287019631655148,-0.3855102322982432,-0.4824959486584187,-0.6593892132938824,-0.0079670045524835,0.0037426848430186,0.0117662521079182,-0.0046157836914062,-0.0071341097354888,-0.0020886957645416,0.0016116327606141,0.0173975452780723,-0.0509422517299652,-0.0093416208401322,0.0416375034963712,0.0050070145070552,210
1733294001864638000,0.0995581063389778,-0.0355550052449107,0.0300979088827967,9.045992375728488,2.99209419580847,2.321157466733456,0.0215034130960702,0.007412617560476,0.035185907036066,0.4288468716487374,-0.3858261679777552,-0.4824853100951497,-0.6591178865806799,-0.0089963162317872,-0.0014741813065484,0.0075191101059317,-0.0026493072509765,-1.513957977294922e-05,-0.0001170337200164,-0.0031994893215596,0.0297359861433506,-0.0078822776824235,-0.0165611319243907,0.0431885688632726,0.028556816920638,211
1733294001904638000,0.1647258672982454,0.0835123959451913,0.0087549688637256,9.05010740983188,2.978970802602172,2.3220000550374387,0.0040981550700962,0.0059898449108004,0.0263628512620925,0.4296271801334514,-0.3859403671731015,-0.4823494329273571,-0.6586422521605598,-0.0015642326325178,0.0092077050358057,0.0094922455027699,-0.0081156492233276,-0.0008995831012725,0.000953584909439,-0.0007178056985139,0.0183112770318985,-0.0129921680420637,-0.0093930102884769,0.0530680482449009,0.0451455481499433,212
1733294001944638000,0.0762812756478786,0.0415305725231766,0.0270844062805175,9.051911828905345,2.972021129594743,2.323872278650105,-0.021456703543663,-0.0032739592716097,0.0192009359598159,0.4297247363596995,-0.3862075939925815,-0.482036494767211,-0.658651089863874,0.0038867257535457,0.0181030891835689,0.0074169775471091,-0.0113299489021301,-0.0001589059829711,0.0011723637580871,0.0062782070599496,0.0135973468422889,-0.0054500820994377,-0.0104122357442975,0.0527080923587083,0.0315150822043418,213
1733294001984638000,0.1388771402925253,0.0947623964950442,-0.030873277169466,9.054109046688676,2.964578412373364,2.3248175966762004,-0.0015242146328091,-0.002406948711723,0.0059923278167843,0.429853617646827,-0.3864934824009146,-0.4817572850236084,-0.6586035570684974,0.0216465480625629,0.0134078282862901,0.0055238693021237,-0.0036273598670959,0.0026283860206604,0.0034790635108947,0.0025373364333063,0.0179660283029079,-0.0287128842651844,-0.006929375231266,0.0347910351350903,0.0357300695508718,214
1733294002024638000,0.0310118088573217,0.0513730443626642,-0.0528396097838878,9.053786390605568,2.9654709772989154,2.324937131402641,-0.0141829866915941,-0.0017901598475873,0.0056670089252293,0.4298023164085263,-0.3864815005620642,-0.4817605674957407,-0.6586416725187185,0.0076095582917332,0.0086160572245717,0.0046134679578244,-0.0105126500129699,-0.0078597068786621,0.0027807354927062,0.000125473132357,0.0224353354424238,-0.0338420638471841,-0.0055619971826672,0.0178632081445306,0.0194517194449901,215
1733294002064638000,0.0372176777601242,0.0126209966421127,-0.0031385902866721,9.056111034160852,2.957087179835141,2.326561809995025,-0.045150302350521,-0.0126554016023874,0.0161032881587743,0.4296874635796173,-0.3869837789421445,-0.4812711425730224,-0.6587795057890674,-0.0177796892821788,0.0150902550667524,0.0052670072764158,-0.004044234752655,-0.0115583837032318,0.0030940175056457,-0.0043258760124444,0.0245949085801839,-0.0214122058629989,-0.0120991608127951,0.003127484370768,0.0145329677432775,216
1733294002104638000,0.0767816263854503,-0.0200859256953001,0.0078588968068361,9.05904299595952,2.9468481098935007,2.3281335893563924,-0.0437212511897087,-0.013065262697637,0.0238182004541158,0.4294810466030949,-0.3876513960360952,-0.4806501991434233,-0.6589747848123401,-0.0130118308588862,0.0024889751803129,-0.0004927441477775,-0.0026730298995971,-0.000402420759201,-4.0918588638305664e-05,-0.0048827053979039,0.0214389413595199,0.0039320787519216,-0.0127335237339138,0.0235971121540293,0.030073066702485,217
1733294002144638000,0.1022252797216177,-0.0345221550658345,0.0753682524561882,9.063228172689676,2.9353967415526507,2.3263151417575774,-0.0234233699738979,-0.0097623327746987,0.0200279131531715,0.4293640163631025,-0.3883748675572956,-0.4801623667775268,-0.6589807984469828,0.0172315593808889,0.0105993654578924,-0.003002640325576,-0.010428249835968,0.0031995773315429,-0.0012181401252746,-0.0019259396940469,0.0100726187229156,0.0007318214058876,-0.0124521637335419,0.0475697430895641,0.0282744928479194,218
1733294002184638000,0.2002268042683601,-0.001538461613655,0.1084703115910291,9.066231446158886,2.928150715947151,2.323739446050673,-0.0042400583624839,-0.0071361134760081,0.0046660709194839,0.4293674939909009,-0.3887999718815879,-0.4799550417349206,-0.6588788049475821,0.0302400365471839,0.0145880887284874,-0.0065303961746394,-0.0024458169937133,0.0042735636234283,0.0049819946289062,-0.0037898668088018,0.0114322314038872,-0.0329348858743906,-0.0148503184318542,0.0222878561863675,0.0036240357160568,219
1733294002224638000,0.037387773630023,0.0574517797544598,0.0379758026510477,9.066863314321637,2.927369502441585,2.3222581214517355,0.0010725243482738,0.0002621097082737,0.0082127368077635,0.4293801707319644,-0.3888573455262794,-0.4799872389649959,-0.658813237912809,0.0100918915122747,0.0054575474932789,-0.001186897046864,-0.0010738968849182,-0.0116169452667236,0.0046767592430114,0.0004715574905276,0.0026613818481564,0.0054775546282529,-0.0087667163461446,0.0654821241380646,0.0087993925273418,220
1733294002264638000,0.0618225421845912,0.0156879829972982,0.0518517677903175,9.068166213613749,2.920800353184342,2.3254406970106065,-0.0257870219647884,-0.0026023106183856,0.0163386426866054,0.429494378874483,-0.3890674988499785,-0.4796477934698737,-0.658861954847571,0.0106535516679286,0.0098753590136766,0.009520742110908,-0.0013089179992675,-0.009254366159439,-1.1920928955078125e-06,-0.0042555397376418,0.017922606319189,-0.0420043275147676,-0.0038728881627321,0.0199875798873603,0.0088859017670154,221
1733294002304638000,0.1092839660614728,0.0189659817546606,0.0159964644245803,9.07023425205946,2.916324961335957,2.322988773813844,-0.0168590415269136,-0.0246197283267974,-0.0068393805995583,0.4292516229681654,-0.3895226726714604,-0.4794086172235325,-0.6589252308811685,-0.0136965299025177,0.0045771063305437,0.0065940609201788,-0.0011507868766784,-0.0017047524452209,0.0051093697547912,-0.0115437358617782,0.0104297986254096,-0.0150666362285614,-0.0019864551723003,0.0183787929838523,0.0081757076710462,222
1733294002344638000,0.0494441221266984,0.0411094245016574,0.1006819958023726,9.070967827031016,2.9167767967566847,2.319556461277604,0.0007492166478186,0.0105469711124897,0.0192440822720527,0.4290908708009212,-0.3896744352863595,-0.4794677965693425,-0.6588971612403488,-0.0001879108604043,0.0096732778474688,0.0097588943317532,-0.0024031996726989,-0.0012798905372619,0.0016246736049652,-0.0067358235828578,0.0041685118339955,0.010389876589179,0.0073490245267748,0.0559644272735342,0.0450263056844472,223
1733294002384638000,0.0859334856122732,0.0176923085570335,0.0331060046575963,9.074730394434928,2.8981457460448143,2.328174944280088,-0.052046213299036,0.0123457079753279,0.052553504705429,0.4296708336964864,-0.3900890030448233,-0.4786717932050207,-0.6588526423951571,-0.0026609222404658,0.0061772405169904,0.0037308963946998,0.0004960894584655,-0.0005856454372406,-0.00151327252388,0.0058568702079355,-0.0005954946391284,-0.0134399118095636,0.0036248352844268,0.042233898486942,0.0458200864106416,224
1733294002424638000,0.0728659142464399,-0.0079705404877662,0.0373892349347472,9.077923052996397,2.8813121001437305,2.336611787105352,-0.057215429842472,0.001716231694445,0.0197508875280618,0.4296368823922915,-0.3908554169722062,-0.4775960572624933,-0.6592012927056944,0.0099813695996999,-0.0052182134240865,0.0059959143400192,-0.0042372345924377,0.0019305348396301,-6.523728370666504e-05,0.0193837285041809,-0.0044018933549523,-0.0037362639188766,-0.0035502931568771,0.0593652121603488,0.0385018723517656,225
1733294002464638000,0.0736538497537374,-0.0727563163921237,0.0386287136018276,9.080576197853684,2.864544797477126,2.346893819405884,-0.0317110531032085,0.0250656493008136,0.057185411453247,0.4299185055298869,-0.391354875109475,-0.4766372585351083,-0.6594151903306706,0.017265647649765,-0.003262014593929,0.0091490307822823,-0.0012155175209045,-0.0071395933628082,0.0015934109687805,0.0227640643715858,-0.014689851552248,-0.022900398594141,0.0007202841807156,0.05825798157081,0.0046463645011186,226
1733294002504638000,0.0799672706842422,0.0321565949782729,0.0237770352981984,9.08638283830583,2.825622069364786,2.371472234214842,-0.0460931360721588,0.0504152178764343,0.088383063673973,0.4313471145122405,-0.391934937164573,-0.474842682129617,-0.6594323760391863,-0.015303480438888,-0.0090401684865355,0.0112330876290798,0.0014770030975341,-0.0121811628341674,0.009107232093811,0.0182595234364271,0.0032971873879432,-0.0648205549567937,-0.004675980657339,0.0407706210013478,-0.01654255400002,227
1733294002544638000,0.1493131941109895,-0.0256648948714137,0.0866676451057195,9.08961173722446,2.8005446189925074,2.3887873800225554,-0.0284017641097307,0.0162602495402097,0.0228791013360023,0.432095748124749,-0.3924016930161496,-0.4735257647522766,-0.6596117153212602,-0.020008485764265,0.0014133777003735,0.0229805558919906,-0.0074642896652221,-0.0062025189399719,0.0081419944763183,0.0120724495500326,0.0111206769943237,-0.0408662633955478,-0.0045205187052488,0.0303480111863464,-0.0079120882987976,228
1733294002584638000,0.1138058274000883,-0.043087154315412,0.0359906201831996,9.089804044926169,2.7979151472717523,2.391131166669726,0.0025578425265848,-0.0011241066968068,-0.0019440201576799,0.4321534931899219,-0.3924559025901824,-0.4733546309034606,-0.6596643354495468,-0.0123508339747786,0.0189565252512693,0.0164954271167516,-0.0099473595619201,-0.0014173984527587,0.0053848326206207,0.0111658507958054,0.0085118468850851,-0.0236889186233282,-0.0006816922686994,0.0356188277287408,0.0179775552392005,229
1733294002624638200,0.097060444304347,-0.0360749374657869,-0.0067556117400527,9.089640378797052,2.7982351730063555,2.391380319125205,3.9545353502e-05,0.0024993165861815,0.0010918476618826,0.4321802353649043,-0.3924156795322698,-0.4733745593671304,-0.6596564683962998,0.0280104391276836,0.0121790999546647,0.0094934441149234,-0.0023227334022521,0.0124641358852386,0.0053597092628479,0.0069087673909962,0.0138753959909081,-0.044139001455903,0.0105730537325143,0.0237288122422993,0.009373393023014,230
1733294002664638000,0.0745604432046413,-0.0056315761461853,0.0485328525006771,9.091042062288524,2.7923329632252454,2.3929542904436585,0.0010150782763957,0.0045373579487204,0.0221225395798683,0.4324103844871206,-0.3925301922583555,-0.4731948179274238,-0.6595665740715824,0.021763727068901,0.0064851017668843,0.0048624733462929,-0.0063658952713012,-0.0089190304279327,0.0029293596744537,0.0018074964173138,0.0140834096819162,-0.0230173029720783,0.0021412838250398,0.0149609108317643,0.0094254154711961,231
1733294002704638000,0.1385264271587133,0.0159185768827795,0.0089250647336244,9.092766986384987,2.787392291952669,2.392160071326047,0.0059408145025372,-0.0069553232751786,-0.004258728120476,0.4326275965841806,-0.3926454421447057,-0.4731419813413856,-0.6593934216318261,-0.0084817931056022,0.0081373266875743,0.0232844892889261,-0.0020452141761779,-0.0070653557777404,0.0021912157535552,-0.00138591369614,0.007300594355911,-0.0269102187573909,0.0023536027874797,0.0152250781932845,0.0265875626742839,232
1733294002744638000,0.1025812535524368,-0.0485518494620919,-0.0058265141963958,9.09235022227764,2.7929055024161933,2.3873089780330656,0.0099374130368232,-0.0061580911278724,-0.0107652088627219,0.432395470707055,-0.3926103522917872,-0.4734323888585767,-0.659358113069086,-0.0127665540203452,0.0083452127873897,0.0070773577317595,-0.0038527846336364,0.0027833580970764,0.0001023411750793,0.0041402336210012,0.003028358798474,-0.0140963298916816,-0.0051904898136854,0.0117926925918087,0.0177799868404865,233
1733294002784638000,0.0263876561880111,-0.0048591304689645,-0.0920841171965003,9.094175099617242,2.7876702321112155,2.386478080166876,-0.0068027712404727,-0.0048859324306249,0.031403936445713,0.4326287110170839,-0.3927300273754496,-0.47337786909161,-0.6591729923621478,-0.0106892874464392,0.0040807467885315,0.0042436881922185,-0.0091835856437683,0.0043945908546447,0.0018370449542999,0.0059361052699387,0.0026057348586618,0.0123170452594757,-0.0008795424364507,0.0532157496199011,0.038709962144494,234
1733294002824638000,0.1137888762652873,0.0282899826779961,0.0110819505065679,9.097153823167083,2.780557769757509,2.383419277118146,-0.0125948041677474,-0.0150006581097841,0.0007070224964991,0.4325813339826208,-0.3931877990170416,-0.4731625452039966,-0.6590857442348201,0.046718344092369,0.015100747346878,-0.0042559239082038,-0.0047463774681091,0.0111823678016662,9.298324584960938e-06,-0.0044307163916528,-0.0027824384160339,-0.0550216299980878,0.0084654539823532,0.0118166945219039,0.0321931275963783,235
