frame,pose_x,pose_y,pose_z,ori_x,ori_y,ori_z,ori_w,phone_acc_x,phone_acc_y,phone_acc_z,phone_gravity_x,phone_gravity_y,phone_gravity_z,phone_gyro_x,phone_gyro_y,phone_gyro_z,phone_ori_w,phone_ori_x,phone_ori_y,phone_ori_z,watch_gyro_x,watch_gyro_y,watch_gyro_z,watch_acc_x,watch_acc_y,watch_acc_z,headphone_gyro_x,headphone_gyro_y,headphone_gyro_z,headphone_acc_x,headphone_acc_y,headphone_acc_z
0,0.014999,0.166516,0.527211,0.103142,0.084626,-0.681601,0.719458,-1.5309887935563922,16.67101320667267,-4.333846365666389,-0.35983189448677,9.595472762650251,-1.9919332572825248,-0.4932023584842682,-0.4857558012008667,0.1382211148738861,-0.2164194799813426,-0.2930385927434591,0.7181146973134761,0.5929605649088185,-0.5040898323059082,0.3873661458492279,0.5585898756980896,-0.4319389462471008,0.3052155375480652,-0.2371486723423004,0.1571743786334991,0.191538318991661,-0.2416930976499803,-0.3902967274188995,0.0236547994413063,-0.5811926721986382
1,0.01206,0.154246,0.529551,0.100036,0.070965,-0.672524,0.729842,0.1621296950588934,15.696963591611384,-6.272251884770393,-0.2921648457913659,9.721377608644962,-1.2569133476145564,-3.143474102020264,-0.1318769305944442,0.3090339004993438,-0.2255699764892038,-0.2776860360670445,0.697836089650861,0.6205106116282186,0.2704120278358459,1.486911654472351,-0.4457331597805023,-1.30771803855896,0.8908050656318665,-0.970104992389679,0.1627474427223205,0.1760464161634445,1.15898459604308,-0.5479314923286438,0.2742282070844434,-0.0987062296168412
2,0.008934,0.126294,0.527248,0.088321,0.055136,-0.665275,0.739303,-0.1881843016339466,3.567027296155691,-3.0710745012819767,-0.1386242797763086,9.805637608087062,-0.0256750395228038,-2.6701550483703613,-0.5081523060798645,0.5209357142448425,-0.2448343551707481,-0.2548394544598882,0.6605799839204747,0.6623799529276169,2.42641544342041,1.0061737298965454,-1.482115626335144,-1.3105764389038086,1.1899855136871338,-0.6971924304962158,0.0299803484231233,0.0552975013852119,0.7349534203030169,-0.6740256547927856,0.0841518172267358,0.7591870402622968
3,0.007764,0.049437,0.513441,0.033406,0.016577,-0.671526,0.740042,0.98532942622751,-7.819694677260518,-4.697799504801631,0.0377428204456577,9.772764681532978,0.8136561509441584,-1.9863498210906985,-0.3589674234390259,0.2395237982273101,-0.2540611414008496,-0.2313317671519481,0.636396649645554,0.6906068840135529,2.361098051071167,0.3507044613361358,-2.100280523300171,-0.3503708839416504,0.7579854130744934,0.2062808871269226,0.0862845703959465,-0.007901532575488,0.4788473828265443,-0.2621990442276001,0.2295317726751789,1.4117748235024512
4,0.006704,0.013748,0.506384,0.002776,-0.00972,-0.675095,0.737661,1.7898071952641008,-13.547093250387906,-3.507784249070286,-0.0924677279529161,9.658310034835338,1.6967207691572606,-2.403115749359131,0.5934233665466309,-0.8477793335914612,-0.2611825125615632,-0.2250776815670765,0.6023548429590768,0.7199251936784373,1.99288022518158,0.2775495648384094,-2.2247414588928223,0.6982425451278687,0.0310078263282775,0.8367449641227722,0.1742573976516723,-0.2040141522884369,-0.2858872085602953,0.1601554155349731,0.360859155175276,0.5912104275397956
5,0.007013,-0.011558,0.500688,-0.027628,-0.027702,-0.6786,0.733465,1.6090809180185195,-16.04587522895932,0.6814592921331525,-0.4917370038095861,9.507311664116385,2.353640809448063,-0.696180522441864,0.2510573863983154,-0.886329710483551,-0.2616469938585334,-0.2345957136954095,0.570054881423765,0.7426595840630782,1.5857467651367188,-0.1143585592508316,-1.9300353527069087,1.2467052936553955,-0.4480445086956024,0.9913877248764038,0.2236763089895248,-0.1646880954504013,-1.136639420178905,0.2119544148445129,-0.2664339730116538,-0.3420239236608147
6,0.00824,-0.026588,0.497236,-0.04721,-0.03976,-0.682063,0.728684,1.505826587510109,-15.79855700317025,0.7483078457862138,-0.8098621654886752,9.502854100185631,2.282601379976421,0.7391664385795593,-0.342517226934433,-0.8735915422439575,-0.246684503254435,-0.2438386762562606,0.569352628413418,0.7453368465279868,0.0013217199593782,0.027326351031661,-1.110289454460144,1.3581786155700684,-0.5551320314407349,0.9139978885650636,0.1540924310684204,0.1625805795192718,-1.4426635905019938,0.1121376007795333,-0.6983152229312807,-0.6323755277514458
7,0.007589,-0.036089,0.49683,-0.05338,-0.045673,-0.684928,0.725216,0.9442235819224268,-12.437663689500091,1.373512312864512,-1.099547268494591,9.553099017301202,1.923453156904876,1.2223663330078125,0.0846095532178878,-0.683466374874115,-0.2273373556177571,-0.2544341957295201,0.580684441416125,0.7391796344713857,-1.1019928455352783,0.3961803317070007,0.4070446193218231,1.2546162605285645,-0.6653721332550049,0.6571357846260071,0.0714841037988662,0.3336633741855621,-0.5514415309268981,-0.0274570733308792,-0.4095255709277465,-0.7980891639780253
8,0.008974,-0.038701,0.499988,-0.049768,-0.033035,-0.691609,0.719798,-0.3283459653116762,-5.648819541931152,0.765598003283143,-1.2308778658650814,9.642497548675536,1.2952107834354043,1.916104197502136,0.651509702205658,0.2088817954063415,-0.2203035834632489,-0.2711024993736403,0.6003882605082957,0.7193773243575239,-1.513105869293213,0.7971957325935364,1.1967765092849731,1.0531678199768066,-0.5683554410934448,0.551654577255249,-0.1622261106967926,0.2273688316345214,0.3166962613871321,0.0028465213254094,-0.1051499989287462,-0.1044190269062295
9,0.007996,-0.037896,0.501815,-0.047668,-0.032104,-0.692369,0.719252,-0.2239848426051437,5.196220151093602,-0.0048906946510076,-1.0917786072544753,9.734919227263331,0.4579932127051055,2.2772364616394043,0.1806281059980392,0.3453684151172638,-0.2190972692307519,-0.2811228548581188,0.6305702059610568,0.6894545324298653,-1.6409904956817627,0.4929157793521881,2.116499900817871,0.7540088295936584,-0.0839004516601562,0.3316283822059631,-0.2138089090585708,0.1339679807424545,1.0058568120799958,0.6720608472824097,0.1114190601277165,1.8397000840716065
10,0.008248,-0.03852,0.503284,-0.047156,-0.033823,-0.692076,0.719488,-1.467218624435365,8.430706514465808,-0.8850421288311481,-0.9787576466217636,9.74667045533359,-0.4634921389149501,2.1708216667175293,0.5954040884971619,0.3328153789043426,-0.2144754421126345,-0.2924611847769889,0.6618897018850515,0.6560249619911989,-1.9372615814208984,-0.4069080352783203,2.643205404281616,-0.0466151237487793,0.1495475172996521,-0.0429159700870513,-0.0638816729187965,-0.2224065959453582,0.7271379242464899,0.781982958316803,0.3306806553369388,0.5346586288323626
11,0.008457,-0.041085,0.504039,-0.048995,-0.035528,-0.691361,0.71997,-0.4984131936378776,7.96141142489314,-1.9236299747765064,-0.8209413395162671,9.70495312806666,-1.1446894556436686,1.3123382329940796,0.4267461001873016,0.3629169166088104,-0.2172206072867769,-0.302900467067749,0.6830916675273074,0.6280543224792162,-1.6786316633224487,-0.3061980903148651,1.330817461013794,-0.7974383234977722,0.6306377053260803,-0.3011662364006042,0.1050107702612876,0.0398147739470005,-0.3741506714900955,0.4096198081970215,-0.4458203251566737,-0.2853119294229895
12,0.007768,-0.04488,0.502312,-0.054358,-0.038934,-0.690453,0.72028,0.0312044818852096,5.938686285114288,-2.641449743318557,-0.7144499998480082,9.67285644658208,-1.4476977852769195,0.657047688961029,0.0071671544574201,0.2919920682907104,-0.2175351326613327,-0.3043377163910729,0.6936790301742449,0.615521382864333,-0.8988096714019775,-0.3587903082370758,0.6968305110931396,-0.7459455728530884,0.5124682188034058,-0.4691098928451538,0.0984390452504158,0.1011785864830017,-0.1847236763186752,-0.0325746610760688,-0.1775696398455649,-0.3858342776842415
13,0.006784,-0.057301,0.499502,-0.068238,-0.048067,-0.688905,0.72003,0.1778234684761613,3.560831364125013,-1.4973719167672097,-0.6084804555641486,9.675810620212554,-1.4760773459345102,-0.3617008030414581,0.2691304385662079,0.2464422434568405,-0.221863655690659,-0.3024503833923506,0.6955449389207223,0.6127947687504361,-0.3432007730007171,-0.1239645257592201,0.3217138648033142,-0.4255543351173401,0.2982404232025146,-0.4473426640033722,0.0539228059351444,0.1281657367944717,0.3609872020017355,-0.0924113914370536,-0.0172768687570933,0.1004035533203277
14,0.008728,-0.052967,0.495667,-0.068552,-0.052937,-0.692912,0.715801,0.4328057626197114,1.1692810952603816,-0.3774256380401551,-0.5014892035497353,9.704732763314247,-1.317967974166572,-0.3526375591754913,0.1032165437936782,0.1790876239538192,-0.230480162676131,-0.299900238274301,0.6908382703544975,0.616182741257231,0.3715213239192962,-0.1247980967164039,-0.0422102734446525,-0.2226836085319519,0.290880024433136,-0.2213135659694671,0.0129500776529312,0.0105717629194259,0.0699246411967324,-0.0728894993662834,0.0392146876630838,-0.0382133605668554
15,0.011591,-0.029805,0.496751,-0.049652,-0.04201,-0.702791,0.708417,0.2067254455726593,-0.6243576409906149,0.3168564569175243,-0.4711352010140195,9.714991707000136,-1.2519416966818273,-0.0087440088391304,-0.1209770590066909,0.0126382037997245,-0.2320126978133579,-0.2975345088621348,0.6894232940737349,0.6183355616937511,0.176070362329483,0.0130911162123084,-0.1059460416436195,-0.0528960227966308,0.0385433435440063,0.0156036913394927,0.0003721945686265,0.0088571216911077,-0.1398293629834428,-0.1193868964910507,-0.1015602216753177,-0.0600776530123315
16,0.014804,0.013649,0.504659,-0.009487,-0.004676,-0.711853,0.702249,0.3528864227304235,-1.6201912178367377,0.6941700128853321,-0.4815748350290581,9.711844641146063,-1.2722199300788342,0.1031390056014061,-0.0313849970698356,-0.0403915345668792,-0.2302637033848553,-0.2969117257302079,0.6904408693009545,0.6181532734739339,-0.0864805653691291,0.0549141429364681,-0.0826806053519249,0.0313841700553894,-0.0723912119865417,0.1027275919914245,0.0441753044724464,-0.0067040817812085,-0.0702082393445074,-0.0881648287177085,0.0187861419505265,0.0492134369096718
17,0.016741,0.066317,0.516513,0.036967,0.025627,-0.709275,0.703495,0.5275198264610022,-1.8911001625716688,1.295320235159248,-0.4969938283592462,9.700987147045137,-1.3469449161954223,0.3200806677341461,0.0705886036157608,-0.0429903790354728,-0.2290344384242602,-0.2988012435811378,0.6923820469782821,0.6155227598182216,-0.2412680238485336,-0.0365092493593692,0.0222462154924869,0.1290032267570495,-0.1247491836547851,0.07627934217453,0.1056707352399826,-0.0459345616400241,-0.1532994507355615,-0.078166514635086,-0.020489405629388,-0.0543325106561882
18,0.018717,0.114368,0.530151,0.070032,0.040335,-0.701738,0.707837,0.5146088338963687,-1.405865745589137,0.5813292311251164,-0.5042838027043268,9.673941903731226,-1.526739757809788,0.5336307883262634,0.1256433874368667,-0.022608071565628,-0.2271942029464214,-0.3025191436662445,0.6973695096253862,0.6087205818564607,-0.3715006113052368,-0.2069036662578582,0.1770862638950348,0.1573238372802734,-0.1195185184478759,0.0706382989883422,0.1621117144823074,-0.1033914312720298,0.0504048158184392,-0.1627732217311859,0.1634508423937484,-0.1768480293064378
19,0.020518,0.168631,0.550797,0.094019,0.066067,-0.681965,0.722302,-0.3909378479009494,2.9008792626619337,0.0610277385450899,-0.5098804902002215,9.64264192558229,-1.7116807301409542,0.4143931567668915,0.0740784928202629,0.0295533668249845,-0.2257194291830156,-0.3067603090645679,0.7022603090664542,0.6014808969625731,-0.3349194228649139,-0.2642419636249542,0.4060975313186645,0.1466337442398071,-0.1001151204109191,0.0306912660598754,0.2019940167665481,-0.1297747939825058,-0.1526244010182097,-0.199498251080513,-0.1626124188082292,0.0530642305863089
20,0.019265,0.169626,0.555677,0.100529,0.076443,-0.674618,0.727284,-1.4828810345999897,14.69997499951124,-3.1905016756951805,-0.4041985306860879,9.628854223248362,-1.8144276956491168,-0.1328339874744415,-0.3287842869758606,0.5365994572639465,-0.2259790030054238,-0.3024479045416646,0.7078384942166022,0.5970119957225819,-0.1453944891691208,-0.1122658476233482,0.5787756443023682,-0.1953624486923217,0.2437388300895691,-0.2850394248962402,0.2092395722866058,-0.0577294863760471,-0.3308781506704166,-0.235700786113739,-0.0884308371196501,0.2326271266083233
21,0.01739,0.15316,0.554859,0.101022,0.072741,-0.671299,0.730658,-1.192142842344567,18.152729435276985,-8.065151200830936,-0.1423253810502588,9.720267017054557,-1.2909401203788815,-2.7552523612976074,-0.1133966594934463,0.8774823546409607,-0.2385138701931962,-0.282517933996691,0.6971393292320188,0.6142405609052457,1.139820218086243,0.7370696663856506,-0.4841393530368805,-1.0687941312789917,1.0065548419952393,-1.072165608406067,0.1828774809837341,0.0884988158941268,1.14925420627594,-0.4444794356822967,0.1453316593273077,-0.1863831704961135
22,0.016313,0.121453,0.547611,0.089168,0.058642,-0.667525,0.736899,1.2630556497618557,7.360407771483064,-4.67109386870563,-0.0037057332103504,9.806616682252288,0.0255945079327677,-3.397566318511963,-0.5804316401481628,-0.1560639292001724,-0.2587163425491132,-0.2582903499955551,0.6572527203089734,0.6590682142982379,2.9972705841064453,0.843522846698761,-1.6473336219787598,-1.4653130769729614,1.4005552530288696,-0.7646760940551758,0.1217312142252922,-0.0641885176301002,0.8584236595619469,-0.6812301278114319,0.2768492763030342,0.2132322336507961
23,0.015046,0.080518,0.536819,0.063719,0.036373,-0.668792,0.73982,-0.0767622092989273,-6.152139066180586,-1.3943611857563256,-0.1473947658695746,9.746284086364508,1.0763812777668238,-1.9316881895065308,-0.7859989404678345,-0.5657088160514832,-0.2555643376856791,-0.2383466049952929,0.6231458282602144,0.6996906573009635,2.749389171600342,0.5384833216667175,-2.247644424438477,-0.4936602115631103,0.5937883853912354,0.3119162321090698,0.0859619453549385,-0.0243855137377977,0.4133580252300947,-0.214248239994049,0.1277326185442973,0.9546645311117172
24,0.014739,0.005076,0.516635,0.011391,-0.015523,-0.676388,0.736294,1.4239638584680854,-13.29628309082985,-0.6652328183449805,-0.3699164679864421,9.664577278536555,1.6215667439736423,-1.053900957107544,0.0104240532964468,-0.6915810108184814,-0.2487450924589382,-0.2337173880523611,0.602245206661813,0.7216665901550028,1.6149661540985107,0.7409502267837524,-2.49802041053772,0.5286454558372498,0.0114935636520385,0.9502763748168944,0.0949663072824478,-0.159083291888237,-0.4437541864071041,0.2499284297227859,0.2381724492431618,0.4836468189975246
25,0.015455,-0.017408,0.508829,-0.019065,-0.031783,-0.681605,0.730781,2.610224291710556,-16.19610553791523,-0.6471390893802046,-0.6763081199150532,9.58032838501036,1.9825055037237704,-0.9319474101066588,0.3294406533241272,-0.7329915165901184,-0.2451051407145361,-0.2413770313326833,0.5836587026793848,0.7355292548755745,0.9512864351272584,0.1920546293258667,-1.712621569633484,1.272266864776611,-0.4123629629611969,0.934040069580078,0.1238682270050048,-0.0993676632642746,-1.194667830777541,0.2751858234405517,-0.0879666628071572,-0.2506627504440024
26,0.016006,-0.030154,0.502553,-0.040966,-0.047725,-0.684504,0.726291,2.4541598697736857,-16.56718341436386,0.7236328387349844,-0.881319235850498,9.50668271856308,2.2397898277319968,-0.250596284866333,-0.0407066792249679,-0.3092308044433594,-0.2432444875395934,-0.246465629783473,0.5701378737455114,0.745003145626463,0.3950418531894684,-0.2459793239831924,-0.8004441857337952,1.300276517868042,-0.6855924129486084,0.770121693611145,0.1644166409969329,0.1094311326742172,-1.3743009790241718,-0.0286573488265275,-0.4471129953157156,-0.8879195108983665
27,0.01668,-0.035276,0.497323,-0.050846,-0.055223,-0.685205,0.724472,1.7006927415281534,-13.569404450917244,1.2482938416987657,-0.9920089770566672,9.5242511084795,2.115409414825588,0.883251428604126,-0.0930510461330413,-0.4444663524627685,-0.2350605389659423,-0.2496386870754481,0.5743036294619404,0.7433723753538706,-0.7106493711471558,0.0381133779883384,0.3404135406017303,1.2279548645019531,-0.6351273059844971,0.7804874181747437,0.0541765391826629,0.2888393998146057,-0.5900180759500712,-0.3670076131820678,-0.3754346468860283,-0.970499009907618
28,0.016645,-0.03555,0.49512,-0.053154,-0.052329,-0.685932,0.723833,0.6226361509602516,-8.115373906114696,1.3327997787259518,-1.1340974075458945,9.616986675322057,1.5484721355378628,2.009411573410034,0.3031024932861328,-0.0235472153872251,-0.2246383039167104,-0.2628593840454926,0.5932578183652901,0.726971592429333,-1.6850464344024658,0.4637233316898346,1.5269898176193235,1.0526647567749023,-0.479738175868988,0.7760778665542603,-0.119061529636383,0.176862433552742,0.2064049997129477,-0.1834377497434616,-0.0719150980613194,-0.0657224265668075
29,0.016908,-0.03304,0.494565,-0.049373,-0.045024,-0.689711,0.720995,-0.1996294959623366,4.892307931423187,-0.7574398312687873,-1.0902465023163703,9.72279682779312,0.6700514706730842,2.2737393379211426,-0.1783761829137802,-0.0113741625100374,-0.2147618519645299,-0.2720065064091412,0.6259787077041433,0.6985989134744538,-2.388486623764038,-0.0611963234841823,2.566755533218384,0.6531433463096619,-0.1098368465900421,0.2769279479980469,-0.2139265239238739,-0.0121635599061846,1.2890477307610213,0.5446568727493286,0.2204492523575201,1.747358777243644
30,0.016299,-0.033641,0.495812,-0.047878,-0.042067,-0.689338,0.721631,-2.419171266239881,8.9819591717571,-1.2081880412817,-0.9909197205152362,9.75536112678945,-0.1461813623586669,1.9144821166992188,0.677264392375946,0.6814257502555847,-0.2093956802825101,-0.2801623446364878,0.6549520867251969,0.6698508446882443,-3.412229299545288,-0.727894127368927,2.592527389526367,-0.315812349319458,0.4376629590988159,-0.3660649061203003,-0.0549740567803382,-0.2038588225841522,0.1280733400070574,0.5237415432929993,0.0863959885574877,0.0230043293260736
31,0.015586,-0.036379,0.496757,-0.049516,-0.041481,-0.688858,0.722013,-0.3371741455420851,9.130916392037271,-1.21548053637743,-0.7976775144372135,9.731801387503742,-0.9089248895261436,1.7785284519195557,0.4896377325057983,0.2947257459163666,-0.2137447934301922,-0.2910428225532372,0.6794382577360635,0.6387260277594542,-1.5650526285171509,-0.2595151662826538,1.3343430757522583,-0.931818187236786,0.8624399900436401,-0.2545557022094726,0.0773413702845573,-0.0127833150327205,-0.124145343775209,0.1353460401296615,-0.0764728846632642,-0.2336414182174019
32,0.016452,-0.04069,0.495932,-0.055028,-0.045818,-0.6878,0.72236,0.3357284037131816,6.160474932849406,-2.259445983707905,-0.6679238109946251,9.672979196178913,-1.4689239670485257,0.9510626196861268,0.1023830696940422,0.1725009679794311,-0.2128542570205271,-0.2963112046191027,0.6979211621483152,0.6162781765294233,-1.20490562915802,-0.1661598086357116,0.9566918015480042,-0.6876970529556274,0.5606411099433899,-0.4249492883682251,0.1266204416751861,0.0060791596770286,-0.151857179505378,-0.0624519474804401,-0.1454888317835517,-0.3623745647069066
33,0.015456,-0.046365,0.494294,-0.065077,-0.056231,-0.685154,0.723303,-0.0658642918560653,3.3844501303464174,-1.8136355223581195,-0.6441659187883139,9.651527242827417,-1.613513639768958,-0.0559903047978878,0.2435804307460785,0.0233487710356712,-0.2135542694331623,-0.2995289726285858,0.7018181336901258,0.6100230614434801,-0.5432092547416687,-0.0867986232042312,0.4936381876468658,-0.4003937840461731,0.3365712761878967,-0.4372512400150299,0.0755122825503349,0.0604341961443424,-0.088134329257952,-0.0533385761082172,-0.178861341890227,-0.2848185746817849
34,0.014685,-0.03412,0.490567,-0.067575,-0.067948,-0.686745,0.720554,0.4319266416976228,0.3066320000231265,-1.3034008118927478,-0.576177328254655,9.665666827338931,-1.5534801729582248,-0.2353924065828323,0.1116733476519584,0.2095062285661697,-0.2189761039439642,-0.299081341097146,0.6998255480364924,0.610609603859898,0.0609488300979137,-0.1226886063814163,0.0705807879567146,-0.220599889755249,0.2730931043624878,-0.2162030935287475,0.000539495027624,0.0713330134749412,-0.213314340709988,0.0003411426441743,-0.1130866371469106,-0.4847820701051503
35,0.016642,-3e-06,0.49432,-0.036798,-0.04009,-0.697749,0.714272,0.5215592740887776,-1.4109686216861008,-0.6260217748105525,-0.5315851396711543,9.683533907940983,-1.4549886729374526,-0.2533756792545318,0.0148215321823954,-0.0042825946584343,-0.2223856166611219,-0.2968985892669196,0.6971621061306925,0.6134826207300805,0.2523238360881805,-0.1289495378732681,-0.190965861082077,0.0064781308174133,0.0753719210624694,0.0021578669548034,-0.0899628475308418,0.0043841619044542,-0.1007691991617903,0.0306551866233348,-0.0605266343222698,-0.2921065579991787
36,0.019191,0.049541,0.503851,0.008133,0.002112,-0.706942,0.707222,0.3742173069855198,-1.7832430144429203,0.3715735510110854,-0.5467495737183838,9.69308674918413,-1.384021724180132,-0.0776893272995948,0.093899205327034,-0.0652035847306251,-0.2236439855320977,-0.2973634039552165,0.6943633600851808,0.615969068660026,0.0841942355036735,-0.0976841300725936,-0.1426228284835815,0.1050307154655456,-0.0818715691566467,0.1294812262058258,-0.0752017349004745,-0.0364615656435489,-0.0594233355557545,0.0833000466227531,-0.0176957323483366,-0.0332918871850939
37,0.021745,0.10368,0.515687,0.051657,0.027374,-0.712107,0.699633,0.4743170093879103,-1.7471493722766638,1.056156528122723,-0.555420481027849,9.68706851180792,-1.4221693762667476,0.286070317029953,0.0475509129464626,-0.0264093726873397,-0.2238542227324458,-0.2993260202687692,0.6949204217281835,0.6143115594079512,-0.1932991594076156,-0.1249786540865898,-0.0945722088217735,0.129344642162323,-0.1068571805953979,0.1477821767330169,0.0066932332701981,-0.0440608486533165,-0.1642202558636665,0.0667597651481628,0.0016102738952293,-0.1044389737157151
38,0.023148,0.150077,0.528534,0.082681,0.040252,-0.713868,0.694216,0.4371541305549442,-0.285690918803215,1.147063272102922,-0.5867920265756547,9.648816230303048,-1.6511923591695723,0.8719202280044556,0.005466473288834,-0.1314091384410858,-0.2198916694715584,-0.303771804246885,0.7013630102305947,0.6061851277580266,-0.5211169719696045,-0.2058199197053909,0.0345577448606491,0.1210325360298156,-0.1425588130950927,0.1138951778411865,0.0813050121068954,-0.0475384443998336,-0.3580701820438727,0.0161856804043054,0.0218155602162121,-0.1576105554003268
39,0.020066,0.197906,0.551625,0.11903,0.092954,-0.697475,0.700514,-0.7473492298871278,6.4217217307478185,-0.7471934548035264,-0.6384448377277702,9.580225509157776,-1.9955146229006349,0.7591115832328796,-0.1293586045503616,-0.0793848410248756,-0.2120405461570867,-0.3086464162234854,0.7116743052980014,0.594387057158739,-0.540421724319458,-0.0994913503527641,0.2995262444019317,0.0638302564620971,0.0046978592872619,-0.0135647654533386,0.1368894875049591,0.0209626853466033,-0.4537607627671212,-0.0710292756557464,-0.133522517924197,-0.4249159592179581
40,0.017068,0.194403,0.556652,0.125161,0.103682,-0.691972,0.703391,-2.263295498742908,16.49679762649536,-5.6675102138757705,-0.5783225235898047,9.573963526153564,-2.0433150694735347,-0.8532195687294006,-0.3132188022136688,0.5178642868995667,-0.2105858073857549,-0.3038643655274777,0.715434496562753,0.5928519887106749,-0.4594738781452179,0.2301547229290008,0.2835055887699127,-0.3104215264320373,0.4465770721435547,-0.4661848545074463,0.0962083935737609,0.1099988967180252,-0.1659549159028567,-0.1177833452820777,-0.2175590290750376,-0.224521780759748
41,0.014069,0.173995,0.555633,0.121071,0.092561,-0.690265,0.707325,-0.6725619191240519,15.782308463680744,-6.939221756041049,-0.3283637566966936,9.734343473201989,-1.1424052171640098,-3.506793975830078,0.0146143389865756,0.7051944136619568,-0.2303503124446736,-0.2824284052068975,0.691722958385506,0.6234517811736415,1.996435523033142,0.5980100035667419,-0.4667620360851288,-1.1541955471038818,1.3754322528839111,-1.2275129556655884,0.023860290646553,-0.0508281588554382,1.3585326242670417,-0.1779328882694244,0.2487181009159423,-0.2925603844475932
42,0.012046,0.140442,0.549823,0.109127,0.075951,-0.686268,0.715093,0.5964337882112711,4.265737290558219,-2.722397841733694,-0.0994873609240166,9.802892108771204,0.2526291551461443,-3.1835105419158936,-0.656080961227417,0.476085364818573,-0.2539809749220293,-0.2541300253465888,0.6500287903525841,0.6696075742398228,3.26303768157959,0.3824085295200348,-1.617998719215393,-0.998116374015808,1.2673170566558838,-0.5412618517875671,-0.0360522679984569,-0.0581137537956237,0.9330274304516613,-0.0581676922738552,0.2676387822241522,0.6139034669935703
43,0.009118,0.099985,0.541589,0.084876,0.05588,-0.68138,0.724842,0.9419669621020555,-7.49275580226779,-1.9542828871935605,0.1051971168729476,9.731333769991991,1.2084891431201248,-1.812970399856568,-0.881234347820282,0.3179484605789184,-0.2603681462302437,-0.223311284965954,0.62331073299286,0.7027262413690097,2.620926141738892,-0.1425308585166931,-2.3007025718688965,-0.2503584027290344,0.512641429901123,0.3179365992546081,-0.0423870310187339,-0.1233648210763931,0.2485787472441792,0.2444176375865936,0.3089789650080725,1.0119449728872627
44,0.006527,0.064355,0.533687,0.059251,0.033722,-0.67801,0.731884,1.166318080736324,-14.651611658358574,-2.791210096675157,0.0988676398567855,9.626482233420012,1.8685446318924424,-1.9016990661621087,0.3083721399307251,-0.3631845116615295,-0.2631973667815134,-0.2108710122710571,0.6002200866512412,0.7252561554758977,1.4561264514923096,-0.3254641890525818,-2.3161911964416504,0.659340500831604,-0.213978886604309,0.8928149938583374,0.0372205860912799,-0.1586344242095947,-1.0221875499602406,0.3256686627864837,0.1238154907663352,0.2462803158423863
45,0.007186,0.024755,0.518341,0.002298,0.004112,-0.681725,0.731594,1.4502610598936676,-16.73432744871974,-1.3252186759471891,-0.1401839942405466,9.451165998524427,2.612700326435268,-1.7288023233413696,0.6540917754173279,-0.5200424790382385,-0.2711798988343546,-0.2148131150541056,0.5662549562566861,0.7481124051532889,1.4036986827850342,-0.4618326723575592,-1.5496580600738523,1.2031221389770508,-0.531424880027771,0.8709651827812195,0.0703883022069931,-0.039055973291397,-1.3695533461056648,0.1383598148822784,-0.1627610882976092,-0.4194231704879552
46,0.007831,0.017935,0.513267,-0.01362,-0.00594,-0.683536,0.729766,0.872242853012681,-16.331574331068992,0.1196577682986855,-0.2983825329961255,9.359060546278952,2.9136458052545784,0.1729551553726196,-0.139483094215393,-0.2292168736457824,-0.2726845745791899,-0.2184047882932606,0.5511304384030568,0.7577583172105943,0.7055435180664062,-0.185975432395935,-0.7581208348274231,1.2923789024353027,-0.6660014986991882,0.7535259127616882,0.0569518916308879,0.147688403725624,-0.8359027618046849,-0.1202858909964561,-0.300934519033879,-0.7943593297999352
47,0.008658,0.014905,0.508697,-0.02021,-0.00811,-0.685866,0.727402,0.6305927359879017,-13.010607369595766,-0.5359264933437109,-0.3859354730363935,9.436064290982484,2.642375333730876,1.0675779581069946,-0.1562165021896362,-0.4600479006767273,-0.2622452899192788,-0.222097795714217,0.5620933417817627,0.7522972624451122,-1.008318305015564,0.3762275278568268,0.5316662788391113,1.1864635944366455,-0.7230792045593262,0.7880747318267822,-0.0340205170214176,0.3037896454334259,-0.6656009940702468,-0.4350947737693786,-0.4556062445033341,-0.9582686200182884
48,0.009332,0.014155,0.506504,-0.023973,-0.003845,-0.689331,0.72404,0.5726109410099685,-5.44483017025888,1.4110672597549856,-0.6070274072116241,9.55657166184783,2.1151428728438915,1.835198283195496,0.3440650403499603,-0.601222813129425,-0.247899062963725,-0.2363544232674051,0.5799088806052278,0.739180800102549,-2.301557779312134,0.6326612234115601,1.6028788089752195,0.953987717628479,-0.6644902229309082,0.7770556807518005,-0.2142607122659683,0.2403956949710846,-0.0322631240926682,-0.3352683186531067,-0.0439445109302643,0.0974743132017087
49,0.009803,0.013695,0.505355,-0.026188,-0.000862,-0.692538,0.720905,-1.3356870246000587,8.138485317111014,0.5917736143805086,-0.8355546790193766,9.679014969211815,1.3375040108941494,1.9551022052764893,0.226554200053215,-0.4106710851192474,-0.2339572934126074,-0.2569239958516702,0.6048109918007204,0.7165596819998202,-2.8103220462799072,-0.012840136885643,1.9478429555892944,0.4661152362823486,-0.1956920027732849,0.3206336498260498,-0.1935371607542038,0.0005563917802646,1.305151308821887,0.3127311468124389,0.2019179539593867,1.6954067639492452
50,0.010163,0.010857,0.50287,-0.032785,0.002751,-0.694183,0.719046,-1.2188505242671817,10.612433298677203,1.1278577825039624,-0.8660502089176326,9.75040145855546,0.5916275569733231,1.873659014701844,0.7536762952804565,0.1518223881721496,-0.2297114039055263,-0.2729458177578391,0.6287574805437698,0.6909394523453831,-2.71465277671814,-0.6154990196228027,1.150347352027893,-0.7034192085266113,0.4459285140037536,-0.2386694550514221,-0.0482608266174793,0.1151520609855651,0.3515205777373165,0.3861976265907287,-0.1810434169033542,0.1382308965445496
51,0.009419,0.009583,0.502462,-0.037914,0.00477,-0.691326,0.721532,-0.8501769324813038,7.268702716732025,-0.7969161016106605,-0.8143916986770927,9.772326874637605,-0.0937267607038375,1.4085835218429563,0.4678190648555755,0.1848035007715225,-0.2311406526964572,-0.2882849018087409,0.6493616481319565,0.6646768355595416,-1.1125376224517822,-0.5245485305786133,0.4721322059631347,-0.7400959134101868,0.83614182472229,-0.3960663378238678,-0.0183435417711734,0.0050126914866268,0.1448038177946116,-0.0239371713250875,-0.1175294692994095,-0.4604610275907441
52,0.009411,0.010572,0.498907,-0.042401,0.005954,-0.686691,0.725688,-0.0434497040174901,3.755436236858368,-1.1164566830456255,-0.7416985837142914,9.766565242370962,-0.4842172392966225,0.543931782245636,0.1687275469303131,0.1826142370700836,-0.2313179060062808,-0.2940099718806307,0.6620017703790894,0.6494642541711741,-0.8621736764907837,-0.3954692184925079,0.1196586564183235,-0.5786044001579285,0.4533432722091675,-0.4985735416412353,-0.000360500649549,0.0746500492095947,0.0536092059168964,-0.1550876498222351,-0.0145124763694533,0.0112014829497202
53,0.008639,0.01032,0.497617,-0.047811,0.009518,-0.682392,0.729359,0.1206722791034728,1.1882166818767783,-0.8926970274984836,-0.6470975152608007,9.76914649103582,-0.5616304781164974,-0.0524596720933914,0.3644093573093414,0.2785087525844574,-0.2365765807524264,-0.2951009004766551,0.6644927717113931,0.6445125049118405,-0.1079922541975975,-0.2144928276538849,0.1642904281616211,-0.2337475419044494,0.2948312759399414,-0.3120856881141662,0.0322796627879142,-0.042817797511816,0.1305310170911718,-0.0658943653106689,0.180814978442341,0.1171943921261467
54,0.00862,0.009858,0.496189,-0.054419,0.015389,-0.681129,0.729976,0.4807798852590844,-0.2300344980329275,-0.6831879425566643,-0.5307586622517556,9.777062086465952,-0.5456362056490034,-0.0465959124267101,0.2020422965288162,0.2527725398540497,-0.2445492167540652,-0.2949793758168929,0.6639328824059928,0.6421649892737644,0.2407300472259521,-0.1006758734583854,0.1585297435522079,-0.0368696451187133,0.1537086963653564,-0.0418437421321868,0.0478849671781063,-0.0500753037631511,-0.2672669349707663,-0.060249276459217,0.0288191804841393,-0.0754703519906383
55,0.011839,0.00823,0.490809,-0.063885,0.021171,-0.683089,0.727228,0.4848226578438654,-0.433960741341114,-0.312466697525978,-0.4469642710274085,9.781372935402391,-0.5434603229146451,0.0346180461347103,0.1973080933094024,0.1190106943249702,-0.2494917924649261,-0.2943462121477998,0.6641303128667311,0.6403476241977553,0.1123787313699722,-0.0912218168377876,0.1740270853042602,0.0498042702674865,0.0016744136810302,0.0145331621170043,0.0413099527359008,-0.0057734255678951,-0.2007629569716751,-0.0993200093507766,-0.0143968357917736,-0.1877331420666538
56,0.012387,0.007312,0.489271,-0.067152,0.018813,-0.684152,0.725998,0.5545347842345014,-0.1846083793759345,-0.0495743974428623,-0.444700636944361,9.779370363408326,-0.5801003103846684,0.1200472190976142,0.2725726366043091,-0.1356240361928939,-0.2521806986573635,-0.2980326347538135,0.6638926368035564,0.6378305909632114,-0.0273232404142618,-0.0735261738300323,0.0562852099537849,0.0438930988311767,-0.0513485670089721,0.1084851324558258,0.0133199859410524,-0.0002659555757418,-0.0488939728640718,-0.1108210682868957,0.0443267791129648,-0.1015822325777262
57,0.013202,0.006591,0.485734,-0.069643,0.014503,-0.68465,0.725392,0.5746942135574296,0.1716857694387435,0.1677238070052117,-0.5323468447586521,9.77128525663018,-0.639530952464044,0.1676450967788696,0.2183436453342437,-0.3548510372638702,-0.2521142328203338,-0.3056329678487959,0.6627182598171623,0.6354773935153918,-0.1955567151308059,-0.0641119554638862,-0.0078000342473387,0.0190840363502502,-0.0653757452964782,0.0705447196960449,-0.0090843252837657,-0.0476730950176715,0.0232483740648836,-0.0922649726271629,0.0651984483584761,-0.0513576549972873
58,0.013309,0.00591,0.484887,-0.071867,0.013301,-0.68554,0.724357,-0.1834087212625891,0.4084674036443233,0.3577531154513358,-0.6720694594319909,9.759108496624233,-0.6917443931736051,0.0734046921133995,0.3315810859203338,-0.3510597944259643,-0.2498661816549494,-0.3142922643211301,0.6606735354360671,0.634269448773635,-0.1734442263841629,-0.0444956943392753,-0.0259652566164731,-0.0043580532073974,-0.0376147031784057,-0.0088378489017486,-0.0117418402805924,-0.0495386719703674,-0.09179430393707,-0.0893442258238792,-0.0355188881853362,-0.0652144679115153
59,0.013233,0.005381,0.484804,-0.073492,0.016132,-0.685586,0.724093,-1.0683938592094928,-0.5535042356103659,0.1247381403028965,-0.7494038973946124,9.75038100028932,-0.7340622436169535,0.0006304429844021,0.5493032932281494,-0.0169380698353052,-0.252805538031601,-0.3238460734878308,0.6576856983489995,0.6313973468540529,-0.1497458219528198,0.0348331630229949,-0.0383419655263423,-0.03677898645401,0.0135498046875,-0.0047375261783599,-0.0382583886384964,-0.0181760154664516,-0.1531716687705833,-0.0973568633198738,-0.0697415990802925,-0.0614399954406777
60,0.015347,0.004447,0.484063,-0.073213,0.016566,-0.690279,0.71964,0.0840961141172796,-0.0388742127954959,0.4701368010938167,-0.6979095647398382,9.754993462520837,-0.7234734103895724,0.0037995167076587,0.3237640559673309,0.1348223686218261,-0.2598426098556711,-0.3273879359248626,0.6555181299603429,0.6289633930316434,0.2712522447109222,0.018460314720869,-0.0764555260539054,-0.027535855770111,0.0817333459854126,-0.0869350135326385,-0.0878254994750022,0.0326073244214057,-0.0484826018844731,-0.0930409058928489,-0.0629262519430601,-0.1196897982716094
61,0.015782,0.003198,0.484263,-0.074021,0.017491,-0.691072,0.718773,0.578550633257255,-0.0040478140860795,-0.1619827060699462,-0.6413985729668289,9.754434075072409,-0.7810328152369708,0.1937944591045379,0.1881527155637741,0.1176404282450676,-0.2644167235149393,-0.3301628242870887,0.6563643040863542,0.6247097181111333,0.0522400252521038,0.0513783693313598,0.1314632445573806,-0.0004960298538208,-0.0417728424072265,-0.0041383206844329,-0.1119452565908432,0.0192690398544073,0.0175420978478272,-0.072569727897644,0.0068688839765993,0.0559488278456032
62,0.015736,0.002845,0.483365,-0.073357,0.022559,-0.688683,0.72099,0.7496770152475685,0.1578431220471859,-0.2239407842677086,-0.5916595595467835,9.749961313572523,-0.8709578547034412,0.2840421795845032,-0.0840596035122871,0.0860411897301673,-0.2648799297510255,-0.3301244556185857,0.6598669078672426,0.6208317488104287,0.072183109819889,0.0332643501460552,0.1512075960636139,0.0302995443344116,0.0163224935531616,-0.0258058309555053,-0.0961394906044006,-0.0199351552873849,0.0378453971874318,-0.0740869492292404,0.0270250955750234,0.0585832588692661
63,0.015611,0.001903,0.482104,-0.074481,0.021609,-0.685536,0.723897,0.2557789974791929,-0.0478805260717868,-0.4289258889790624,-0.5543063457734883,9.743352124565838,-0.9645000617537648,0.1616606265306472,0.0292818024754524,0.1362193971872329,-0.2638224073191972,-0.3294175901782288,0.6638221673161396,0.6174318754688578,-0.1272064298391342,-0.0064624520018696,0.1160960122942924,0.0277371406555175,0.0079085826873779,0.0081461668014526,-0.0585910566151142,0.0055946581996977,-0.0540168049036757,-0.0484310984611511,-0.0027356680458324,0.2631626414570957
64,0.015714,0.000376,0.480319,-0.075957,0.014203,-0.683863,0.725507,0.1061333200108259,-0.0116483522176742,-0.3749370360948145,-0.525866981220059,9.743180859652162,-0.9819768278639764,-0.0768719762563705,0.2327719181776046,0.0114031489938497,-0.2659163858158854,-0.330290446853484,0.6640595639648679,0.6158097378220282,-0.0777667015790939,0.0192200075834989,0.0270566157996654,0.0217323899269104,0.016781210899353,0.0359552800655365,-0.0198292918503284,0.0016131808515638,-0.1091724502447061,-0.0823154151439666,0.01249797761722,0.0146633937564911
65,0.016186,-0.002887,0.475179,-0.076706,0.001336,-0.682399,0.726943,-0.3916461788333952,-0.8108049262315035,0.308276990751177,-0.4769998552637174,9.747460728928449,-0.9642882456339896,-0.1089934259653091,0.1478554159402847,0.2412384897470474,-0.2697420504340717,-0.3305221985936596,0.6632647246249436,0.6148773447245848,-0.1055405437946319,0.0176437888294458,-0.0105727175250649,-0.0074377059936523,-0.001899778842926,0.0196142196655273,0.0017706155776977,0.0349887311458587,-0.1835804793666116,-0.1288508772850036,-0.0074033875747001,0.0092903429656173
66,0.015937,-0.004491,0.47394,-0.08402,0.006195,-0.682143,0.726349,0.1851357277182862,-0.7101210307329893,-0.5614204155623912,-0.333726050914824,9.752122875520586,-0.9773029177688062,0.1479043960571289,-0.2485092878341674,0.4297164380550384,-0.2732393078612,-0.324958005468295,0.6665064713493397,0.6127901350148804,-0.1596594452857971,-0.0486689768731594,-0.0293932110071182,0.0206711888313293,0.0092006921768188,0.007886379957199,0.0118000488728284,0.0534623488783836,-0.0392478090479737,-0.1497199088335037,0.0517126698468811,-0.0235499668103642
67,0.016085,-0.006039,0.471884,-0.096104,0.011209,-0.684712,0.722362,0.7173580693144351,0.2038894184291362,-0.0646129035554826,-0.2962776879376732,9.754491942739486,-0.96564207139574,-0.2284755259752273,0.2405159920454025,-0.178215205669403,-0.2756908035559365,-0.3246913560924167,0.6661903394746505,0.6121767777826201,-0.5187838077545166,-0.0687002018094062,-0.0397389940917491,0.0054354667663574,-0.0423051714897155,0.0007606744766235,0.0011919817188754,0.0723896697163581,-0.0721423492122441,-0.1433642208576202,-0.0208716692455112,-0.0502245821470161
68,0.016169,-0.007094,0.470389,-0.103378,0.012222,-0.686355,0.719779,0.0115586646402254,-0.0068956047326326,1.0791174247324469,-0.3843059721384197,9.75803005373776,-0.89641034893319,0.0284487623721361,0.0240516308695077,-0.259683221578598,-0.2755832441387575,-0.3283342076052757,0.6617407769998147,0.6151013719028394,-0.3469233512878418,-0.0814490243792533,0.0902891159057617,-0.042488694190979,-0.0719707012176513,-0.0438661277294158,-0.0148696741089224,0.0894500017166137,-0.0957821679968386,-0.1405509859323501,-0.0019479323262901,-0.1172637401684652
69,0.01587,-0.007612,0.469582,-0.10496,0.011349,-0.686307,0.71961,-0.0881213875779882,-0.312455591610074,0.5689641089402139,-0.4646402129715308,9.74411492563188,-1.003362218785286,0.3959417343139648,-0.2541934549808502,-0.080270379781723,-0.270290302578443,-0.3315318240534933,0.6642619092486273,0.6130138839990392,-0.5546877384185791,-0.0600581429898738,0.1106795370578765,0.0148987770080566,-0.0788649916648864,0.0262832939624786,-0.0238519143313169,0.0773457214236259,-0.0310682791517581,-0.1224972605705261,-0.0068051716614456,-0.0566334856415167
70,0.014377,-0.007764,0.467771,-0.106561,0.014334,-0.682447,0.722983,0.6600065350640565,0.161291216674447,-0.0663163464725017,-0.493609483150579,9.726761639770864,-1.147543529900536,0.3500370681285858,-0.3439975678920746,-0.0720022842288017,-0.2623219302359577,-0.3294656729015966,0.6707911794861581,0.6104742732797064,-0.5011539459228516,-0.1577102988958358,0.059114284813404,0.0095599889755249,-0.0183393359184265,-0.0492332875728607,-0.0339236781001091,0.034587662667036,0.1002138029018882,-0.0779958888888359,0.0897630629709456,0.0378830600334098
71,0.01349,-0.007919,0.467228,-0.100402,0.010665,-0.680687,0.725583,0.2470890566756948,-0.0191518597155809,-0.5342857403993606,-0.5596820839950815,9.71207728085816,-1.238022623053193,0.1020130068063736,0.1194112226366996,-0.14121775329113,-0.2571157736000469,-0.3311993071448658,0.6733710749667785,0.6089087935251865,-0.4790307879447937,-0.2815083265304565,-0.0190974976867437,0.0276131629943847,0.0228058695793151,-0.0221471041440963,-0.0091974539682269,-0.0384585075080394,0.0677948626264231,-0.0172604266554117,0.0545672007614746,0.1392499647934455
72,0.013212,-0.009986,0.464582,-0.097177,0.003912,-0.680609,0.726163,-0.8272552719034254,0.2068810014605522,0.4842167643725871,-0.5453705769827589,9.70646061002016,-1.287471421355009,0.190241739153862,0.8057080507278442,0.0973869189620018,-0.2633945268250388,-0.3387775558265513,0.6714704315420074,0.6041362368655226,-0.1802872270345688,-0.2329419404268264,0.0792877301573753,0.027082622051239,-0.0005505084991455,-0.0050732791423797,0.0174486339092254,0.0077599664218723,-0.0213940628515323,-0.0287980604916811,0.0410842717940919,0.0246136824851622
73,0.012574,-0.011934,0.462211,-0.09942,0.000809,-0.681099,0.725409,0.3088331633292138,0.4059948760509491,-0.3313922011397778,-0.459218845509924,9.69439315560758,-1.406498636665195,0.2682603895664215,0.8072490692138672,0.0877632051706314,-0.2736437556261155,-0.3483041047576058,0.6711152813316726,0.5944809398862908,-0.1446043252944946,-0.2307198941707611,-0.013884425163269,0.0278770327568054,0.0756040811538696,-0.0515764355659484,0.0232632346451282,0.0022057383321225,-0.0631194775267969,-0.0283612310886383,0.0215087821222492,0.0433780361539218
74,0.011137,-0.013417,0.460426,-0.102084,7e-06,-0.680376,0.725719,-0.3498298847040161,0.6364157430529594,-0.1937432874679565,-0.3750148140387609,9.684688338673114,-1.4955151829846205,0.145161435008049,0.7400058507919312,0.1753632575273513,-0.2847073080103307,-0.3581742609185361,0.6692990731179173,0.5853987691071555,-0.0198773089796304,-0.0421638824045658,0.0583133362233638,-0.0300406813621521,0.0153625011444091,0.0635510236024856,0.0060418872162699,0.0133113525807857,-0.0722701220440678,-0.0421613007783889,0.0283805219221045,-0.0431170927959494
75,0.011209,-0.014993,0.458178,-0.106074,-0.002495,-0.680175,0.72533,0.0312060345214791,0.3800140470981598,0.0978372738957405,-0.2243882905731908,9.68296516814232,-1.5363032665774226,0.0316597335040569,1.0070003271102903,0.3221853971481323,-0.2978911961379713,-0.3644275645631462,0.6674745082829289,0.5770019030407315,0.043882492929697,0.0132964458316564,0.0517049059271812,-0.0122660398483276,0.0009819269180297,-0.0018766969442367,0.0041788499802351,-0.0084009002894163,-0.0376334714698023,-0.0838462114334106,0.0452333725638687,-0.0560460502755362
76,0.010472,-0.017415,0.457017,-0.105379,0.00215,-0.68345,0.722349,-0.5210366019215434,-0.182578334853053,0.0839268219649791,-0.0185566977008711,9.684117260786891,-1.5452872218914329,0.0216938965022563,1.1390315294265747,0.4283376336097717,-0.3168616985287176,-0.3727032075401078,0.663234531641721,0.5664017486581099,-0.0965177565813064,-0.0457360371947288,-0.0027586040087044,-0.0165619254112243,-0.0250909328460693,-0.0169451683759689,0.0153402611613273,-0.0110178450122475,-0.0668237434387905,-0.0910350903868675,-0.0029210922031372,-0.0196713124458445
77,0.011371,-0.019944,0.455398,-0.103138,0.005826,-0.685806,0.720416,-0.8306963522680103,0.2552659699231386,0.0732559364773333,0.2683583652029745,9.673936058512329,-1.5853439224697647,0.2588188648223877,1.551860809326172,0.6624820828437805,-0.3382175090149603,-0.3799570163523116,0.6606532460501808,0.5520677789854413,0.0223255380988121,-0.0132643245160579,-0.0099475402384996,0.0105454921722412,0.0030431151390075,-0.0115164965391159,0.0206203367561101,-0.0024206747766584,-0.0128748378307966,-0.0520059913396835,0.0055727026904642,-0.0130401068285282
78,0.011932,-0.021594,0.453737,-0.102748,0.002032,-0.687026,0.719329,-1.5427707090258598,-0.27930326359272,-0.756392368042469,0.7341288791123777,9.646018708539009,-1.6080309705741702,0.0579824335873127,2.256154537200928,1.0853179693222046,-0.3722807341694871,-0.3906712387156649,0.6552577709204774,0.5286022345490574,0.0172865707427263,0.0133614270016551,-0.0390162132680416,0.0238430500030517,0.0537173151969909,0.034197449684143,-0.0047095702029764,0.0096801798790693,-0.0342969497415237,-0.0150810088962316,0.006153422333757,0.0083586778638942
79,0.012677,-0.022727,0.45227,-0.10333,-0.003836,-0.688613,0.71772,-1.220646833099425,-0.1407429341644048,-2.319147880476713,1.3316777889586984,9.594996377310157,-1.5274366540327666,-0.2262584418058395,2.156153440475464,1.2785334587097168,-0.412960804921438,-0.3979134115546263,0.6477210172940592,0.5015832901494222,0.0083103869110345,-0.0315629541873931,-0.002256132196635,0.0581116080284118,0.0205894112586975,-0.0098724961280822,-0.024709828197956,0.0227513443678617,-0.109200507295411,-0.0105630103498697,-0.0280055762460455,0.011448494822107
80,0.015312,-0.025575,0.45028,-0.102564,-0.007293,-0.690852,0.715647,0.2603008953504264,-0.7288233931154012,-0.4320658675052225,1.955383395781368,9.548165068030356,-1.0860076226375996,-0.904769480228424,2.898533821105957,1.2804315090179443,-0.4627613239777847,-0.3990270283802025,0.6294032162304751,0.4800844111581417,-0.0638716593384742,-0.0594681985676288,0.036131739616394,0.0373603105545043,-0.0189619064331054,0.0237651467323303,-0.0216807480901479,0.0422740019857883,-0.04203706074059,-0.0384375117719173,-0.0020782093549205,0.0265495299355476
81,0.018049,-0.028598,0.448465,-0.099341,-0.01105,-0.69513,0.711902,1.6822943305283784,-0.3164940533459186,-0.0548060144860297,2.468952072975039,9.47671077414751,-0.516361193989031,-0.9543603658676147,2.477833271026612,0.7972375750541687,-0.5147234933650157,-0.4036352554735858,0.6028313821237807,0.4568727537462486,-0.1870468556880951,-0.1233196184039115,-0.0634981840848922,-0.0142490267753601,0.0150886178016662,-0.0035393834114074,0.0182822700589895,0.0162698831409215,-0.0225128788475878,-0.0539497062563896,0.0618211996108759,0.0486469027678249
82,0.018676,-0.030338,0.447118,-0.100374,-0.014972,-0.694942,0.711869,1.021329544891417,-0.5541951404839753,1.847124242722988,2.6878873771056533,9.43099707072079,0.0441454722958849,-0.6756393313407898,1.8507779836654663,0.3873461484909057,-0.5514820770138185,-0.4065289646247587,0.5766137426974968,0.4451048821356719,-0.1157223433256149,-0.1402604579925537,-0.1439721286296844,-0.0386863946914672,0.0484209656715393,-0.0487771481275558,0.0266345087438821,-0.0161545984447002,-0.0439150656400714,-0.0971004515886306,0.0392710803257068,-0.0664586912523722
83,0.018278,-0.031535,0.445661,-0.101425,-0.023222,-0.695176,0.711269,0.088335870578885,-0.3861304841518402,1.7840362106472252,2.8195713910236955,9.384436979597806,0.3907966858645901,-0.3886604905128479,0.8206604719161987,0.4165195524692535,-0.574948556457112,-0.4087906951463873,0.55943282086772,0.4351541276002816,-0.019235486164689,-0.0695385709404945,-0.0444141700863838,-0.0413489341735839,-0.0100433826446533,0.0045254677534103,0.0157737266272306,-0.0234432984143495,-0.0131104560929117,-0.1325350999832153,0.080946253517922,-0.1353295125472359
84,0.017808,-0.032833,0.444948,-0.100372,-0.029903,-0.696182,0.710184,0.5025885796263814,-0.258819863012433,2.1938135278463364,2.970650133502484,9.331050257325172,0.526448507435061,0.1837217062711715,1.312616229057312,0.4854708015918731,-0.5899490424010845,-0.411174380733711,0.551447391357792,0.4228494310851831,-0.0625392794609069,-0.0092715537175536,0.0383414961397647,-0.0405148267745971,-0.0254527926445007,0.015787661075592,0.0052381153218448,-0.009520199149847,-0.1938300159033388,-0.1645738035440445,-0.0029255566032341,-0.1896759466974996
85,0.017524,-0.033991,0.445465,-0.09794,-0.034169,-0.696287,0.710229,-0.2191091993927955,-0.0245925894647836,0.5269668687533587,3.127016460995376,9.276385185679793,0.5837931004879996,0.2860894501209259,0.9535465836524964,0.4903516471385956,-0.6060634687076419,-0.4197822756467762,0.542233967838322,0.4030535414298326,-0.1261608749628067,0.0366507172584533,0.0585435032844543,-0.047879934310913,-0.0254908800125122,-0.0022822022438049,-0.0297505483031272,0.025531105697155,-0.1206966189602855,-0.170102521777153,0.046461379988864,-0.1563771046152338
86,0.015405,-0.036197,0.446794,-0.098337,-0.040992,-0.694192,0.711862,0.2204886710524559,0.0911135185986757,0.8496879068553447,3.247512141422927,9.235499633061885,0.5741140025166794,0.3761536777019501,0.5924481153488159,0.2640242874622345,-0.6145206332810301,-0.4249020315623182,0.5386897019965858,0.3894048067115656,-0.1136040613055229,0.0390127263963222,0.0374041944742202,-0.0133471488952636,-0.0161225199699401,0.0234771966934204,-0.0360695533454418,0.015948062762618,-0.0765976846532896,-0.1467091292142868,0.0389452093722065,-0.0905960888621397
87,0.014368,-0.037223,0.448611,-0.10133,-0.044519,-0.690593,0.714725,0.1888327190726995,0.145071318757534,-0.8534773622661829,3.313285174798965,9.219548615214228,0.4386819611767306,0.4255374372005462,0.2717474699020386,0.1515960991382599,-0.6155196338850023,-0.4313852977394931,0.5399445984634621,0.3788167369031509,-0.0597789175808429,0.0728865936398506,0.0132261551916599,0.0088311433792114,-0.0145739316940307,0.0203911066055297,-0.0279453489929437,0.0494867488741874,-0.0475114872634178,-0.1165887415409088,-0.0112801468096557,-0.0001111533446965
88,0.012964,-0.039102,0.451277,-0.102225,-0.045675,-0.687959,0.717061,0.0176680508986115,-0.0651303515583276,-0.7341191614359617,3.3867364877179265,9.192275408363342,0.4499573153635486,0.0979176014661789,1.0620697736740112,0.358098953962326,-0.6227160631564241,-0.4366986142096118,0.5351195021289518,0.3676494392544621,0.0592103190720081,0.0554563105106353,0.0125377271324396,0.042460560798645,0.0168917179107666,0.0183687657117843,-0.0240703020244836,0.055063646286726,-0.0146449972999864,-0.1147250607609748,0.0208006407027598,0.0233485624867491
89,0.010918,-0.041669,0.454621,-0.101511,-0.046408,-0.685683,0.719292,0.3598886661753058,0.1021691656202077,-0.3161772790143266,3.518718023277819,9.134809892344474,0.5867225050034001,-0.0408660359680652,0.9910185933113098,0.4211885333061218,-0.6365104563332518,-0.4398474680628018,0.5259464632340303,0.3532264026829176,0.0602204538881778,0.0536073297262191,0.0012141000479459,0.0296977758407592,0.0097404718399047,0.0296294540166854,-0.0123629244044423,0.0396066159009933,-0.0571775796226924,-0.1439853608608245,0.0044647996724233,0.0583609578880947
90,0.008957,-0.044183,0.459804,-0.101402,-0.050681,-0.683618,0.720982,0.1602004988282918,0.1094581535845994,0.3914817820519208,3.616802549932897,9.088466658842565,0.6992266386877745,0.1923543512821197,0.8211623430252075,0.2698533833026886,-0.6482183749230161,-0.4437823454244966,0.5171137141658219,0.3397994730223918,0.3684520423412323,0.0386573038995265,0.0245290752500295,0.0256180763244628,0.0086686015129089,0.010610893368721,-0.0106174778193235,0.0522778779268264,-0.113032541472651,-0.2244226038455963,-0.0031832576913497,-0.0444933724181028
91,0.004639,-0.051624,0.469642,-0.101205,-0.054987,-0.681453,0.722742,-0.3973243706002831,-0.1491325768470764,0.0009713292501866,3.7008737488046286,9.054812811043858,0.695890699198097,0.3158040344715118,0.6850613355636597,0.3526716828346252,-0.6545927941750239,-0.4491001540287737,0.5126680206957235,0.3270912865113171,0.2161429524421692,0.0614976361393928,-0.0274281315505504,0.0337349772453308,-0.0086317062377929,0.0612399578094482,-0.0055569391697645,0.0773269906640052,-0.1584821506030857,-0.3487924039363861,-0.0240577839017612,0.04772601136351
92,0.003367,-0.056708,0.476116,-0.101048,-0.059573,-0.681896,0.721982,-0.7042439553931356,0.0103664957135915,-0.245436649826169,3.852320155552029,8.992280074763297,0.6847728736605495,0.4828062653541565,1.0316356420516968,0.6499348282814026,-0.6629824569099727,-0.4548536133282583,0.5081284202075476,0.3088170827537536,0.3134548366069793,0.1755063384771347,-0.026919400319457,0.0061456561088562,0.044094979763031,0.0942195057868957,0.0119372038170695,0.1052992492914199,-0.109220426705433,-0.4443091750144958,-0.004874735034295,0.1479528655432164
93,0.001889,-0.06159,0.480916,-0.102035,-0.065223,-0.682566,0.720721,-0.7420029004231095,-0.2828027961462735,0.0015740443836897,4.111242894417047,8.877686896377801,0.6743391579296439,0.6692638993263245,1.5943028926849363,1.0008150339126587,-0.6746862950343342,-0.4611008791357119,0.5029952789028034,0.2813895553884967,0.0694781392812728,0.2880975008010864,-0.0199220776557922,0.0331440567970275,-0.0009334087371826,0.0748671293258667,0.0368848778307437,0.1264917850494384,-0.101332623464521,-0.4981923997402191,-0.0690261397207388,-0.0138498477422574
94,0.000472,-0.06603,0.484629,-0.103344,-0.06893,-0.684469,0.718381,-0.8071455269411206,-0.414417251959443,-0.375285849532485,4.472069425964356,8.695212606421112,0.7511755832422524,0.9464911222457886,2.423880100250244,1.3791145086288452,-0.6943152525446475,-0.4713852632118881,0.4893839371308327,0.2371195041814826,0.0159552562981843,0.2394493222236633,0.013795138336718,0.0871031284332275,-0.0002912282943725,-0.0083748698234558,0.035048022866249,0.1643917858600616,-0.0121436979865655,-0.4808800220489502,-0.0555432153199333,0.100786424291227
95,-0.000568,-0.07019,0.489973,-0.103099,-0.072703,-0.685936,0.716643,-0.435051751448214,-0.5148486340016126,-0.6810995919752866,4.899190384413302,8.447287062388659,0.900917158833146,0.8378002047538757,2.6384806632995605,1.521378993988037,-0.7156845722825598,-0.4805785769661501,0.4723454653631259,0.1836560711341948,-0.042362380772829,0.2425433248281479,0.0444483868777751,0.0886712074279785,0.0034653544425964,0.039151906967163,0.0440068803727626,0.1066445931792259,0.0727656413428951,-0.3737821280956268,-0.0141228902466886,0.0346542296134401
96,-0.003982,-0.075352,0.49783,-0.098624,-0.08259,-0.685963,0.716175,-1.200713175356388,-0.7422913619756698,-0.545997220981121,5.316196776083111,8.143217606329918,1.263509531009197,0.2708140015602112,2.693819046020508,1.7332632541656494,-0.7401081361112705,-0.4824372788804611,0.4503700834857186,0.1290778572551583,-0.2452132254838943,0.2558578550815582,0.097035564482212,0.0762341022491455,0.0150551795959472,0.0353424251079559,0.0298627782613039,0.0861841738224029,-0.0263810962997726,-0.3670684695243835,-0.0174944227811996,-0.1502291399121284
97,-0.005644,-0.075759,0.50041,-0.09647,-0.090482,-0.683981,0.71741,-1.4276368478924035,-0.6884522197604179,0.3059633069813251,5.7548570734173055,7.737729510757327,1.783127425239235,0.3611777424812317,2.7483041286468506,2.106284618377685,-0.7653470082488039,-0.475309641147236,0.4279796130310597,0.0718202716479238,-0.2692280411720276,0.2250034809112548,0.1329708695411682,0.0679600834846496,0.0200898051261901,-0.0071061104536056,0.02656065300107,0.0425506830215454,-0.1287246891884133,-0.3626792728900909,-0.0919049886367749,-0.0106488768685259
98,-0.007536,-0.076284,0.503104,-0.094076,-0.098477,-0.681962,0.718595,-1.2786357884705066,-0.7048737777292728,-0.1081219365447759,6.209943020373583,7.232664604145288,2.301210949508845,0.2261575907468795,2.4679388999938965,2.3316550254821777,-0.7856416276322438,-0.4642683406678871,0.4088102287651245,0.0098205154669862,-0.3003787696361542,0.1664950549602508,0.2052111774682998,0.0180636048316955,0.0157530307769775,-0.0138866752386093,0.0325799100100994,0.0382723771035671,-0.0626320821689209,-0.3050801753997803,-0.0278679784232401,-0.1048041081005241
99,-0.009421,-0.076739,0.506215,-0.090604,-0.104461,-0.680597,0.719491,-0.817161601781845,-0.9368775300085544,-0.0368026672184467,6.612625995397568,6.614726767069101,2.947702973157168,-0.3003697693347931,2.642966985702514,2.4402403831481934,-0.8048630731956526,-0.443274826079288,0.3914286779239585,-0.0498643408511489,-0.3325364291667938,0.11162631213665,0.2205381989479065,0.0116763710975646,0.0149337649345397,-0.0348520874977111,0.042057778686285,-0.0070983665063977,-0.1188747190290596,-0.2483780533075332,-0.0758950208432273,-0.0697986721629276
100,-0.011085,-0.076566,0.511066,-0.085182,-0.10708,-0.679964,0.720366,-0.5820224740862846,-1.2172247496962547,-0.0368196183532476,6.811435334083438,5.8844216109633445,3.892083133880794,-0.964729070663452,3.549452543258667,2.351036310195923,-0.8285040163600448,-0.4104108189605674,0.3648588086083907,-0.1096452012332021,-0.2394836992025375,0.016217241063714,0.2536244392395019,-0.0507900118827819,-0.0018301010131835,-0.0404673814773559,0.0423276536166667,0.0210846196860075,-0.1594052933299914,-0.1818064153194427,-0.058331170104607,-0.2051421219039708
101,-0.012095,-0.076231,0.516272,-0.076796,-0.104042,-0.681274,0.720516,0.390752298733592,-1.1584773771733046,-0.469019195240736,6.532530714419484,5.05593840470016,5.285254525330663,-1.4700740575790403,4.7381768226623535,1.951460838317871,-0.8604014927205069,-0.3621861190546219,0.315195524489965,-0.1708284058576533,-0.2216362655162811,-0.0104229981079697,0.1119584515690803,-0.0481724143028259,-0.0024707317352294,-0.0182023495435714,0.0298062115907669,-0.0263352431356906,-0.1249244657883886,-0.120308369398117,-0.0327296867250697,-0.2141784832586534
102,-0.011989,-0.075168,0.52634,-0.063923,-0.098344,-0.68254,0.721375,1.1649667391926048,-0.5047574480980634,-0.4349947605639696,5.495103728947044,4.320665981575846,6.877941065648198,-1.4523656368255615,6.128055095672607,1.0701478719711304,-0.8942058440248819,-0.3059964895103183,0.2359846464068365,-0.2259943386359781,-0.1331487447023391,0.0009753843769431,0.0842758268117904,-0.0569721460342407,-0.0260443687438964,-0.0225154310464859,0.0018823469290509,-0.0176876969635486,-0.1877603406008333,-0.0840311124920845,-0.0692217353580752,-0.1818005188809707
103,-0.011402,-0.074908,0.530277,-0.05884,-0.101603,-0.682881,0.721033,0.1993552821308374,0.49118660338521,-1.6575824985980987,4.061126864378154,3.514761686867476,8.205125488710403,-3.4295010566711426,3.2664241790771484,0.0285604763776063,-0.9240510566426924,-0.2375676072316454,0.1587975610066039,-0.2539184038586635,-0.1294717043638229,0.0244624949991703,-0.0508643463253974,-0.0460489392280578,0.0124902725219726,0.0115031003952026,-0.0046591102145612,-0.0217136703431606,-0.1051085618066601,-0.048148114234209,0.0368032882729545,-0.0633619079805444
104,-0.011184,-0.074796,0.532833,-0.056846,-0.103054,-0.682526,0.721323,0.5646271026492119,-1.0701540738150477,0.7716162406593561,3.109574620068073,2.492010877001285,8.960514232668281,-2.3289225101470947,2.094081163406372,0.2314419001340866,-0.9435684473011532,-0.1680325521276204,0.122090058444197,-0.2579491414880885,-0.1552013158798217,0.0320486687123775,-0.0748388543725013,-0.0284732580184936,0.0025495886802673,-0.0098236203193664,-0.0095275752246379,-0.0080641554668545,-0.1702182541694492,-0.0543079935014247,-0.0623528496690094,-0.1258516910353675
105,-0.0104,-0.07528,0.535987,-0.052215,-0.103166,-0.682918,0.721286,-0.7838990913882851,0.940239115396142,1.9432009366869925,2.5993025002017616,1.7367776158660648,9.295031433960794,-1.6592844724655151,0.367570161819458,0.6524413228034973,-0.950425033646344,-0.1225736692563916,0.1051711410130166,-0.2657199048213429,0.0002854838967323,0.0711486637592315,-0.1229049190878868,-0.0424801111221313,0.0150703787803649,-0.0052352547645568,-0.0177626218646764,-0.0126934116706252,-0.0942956009672023,-0.0908791646361351,0.0408249632707796,-0.1426523388491477
106,-0.009903,-0.075393,0.537793,-0.048989,-0.103181,-0.682963,0.721468,-1.0866390524089335,-1.0229285045206546,3.891227686095237,2.9220939001262187,1.338065298038721,9.265060074067115,0.3514904677867889,-1.1597684621810913,1.6320903301239014,-0.9439479490424292,-0.1099269798566952,0.1246173132080575,-0.2852172239421208,0.1507383733987808,0.0874052941799163,-0.1304806023836136,-0.0118180513381958,0.0101084113121032,-0.0318912714719772,-0.0088487723842263,-0.0234240479767322,-0.0449061088043032,-0.0752558931708335,0.0107558192581636,-0.0495329603207763
107,-0.011147,-0.076309,0.539971,-0.041248,-0.111317,-0.680307,0.72325,-0.6324065074115991,-1.433050397373736,0.2755009487003088,3.449932656343281,1.2953838019147514,9.087921884441377,0.3468929827213287,-1.1272540092468262,1.78913676738739,-0.9291350315957236,-0.1214579045220027,0.1479624991999259,-0.3163274734245908,0.3510275185108185,0.1294715702533722,-0.1424774229526519,-0.0387808084487915,0.0212538838386535,-0.0109763741493225,0.0087988041341304,-0.0150438202545046,-0.1353416231101378,-0.0551520995795726,0.0672620206916239,-0.1330285329953301
108,-0.011721,-0.076335,0.539669,-0.04043,-0.116884,-0.677518,0.725033,-0.0863853210330009,-0.1193514057632535,0.8125935632139444,3.802036659991741,1.044411145271361,8.979092676410078,-0.2036535143852234,-0.2704559564590454,1.90029525756836,-0.9144407641001004,-0.1214161229027995,0.1656858342774168,-0.3487184203384606,0.3053479194641113,0.2128683626651764,-0.1529835313558578,-0.0177814364433288,-0.0002320408821105,0.0192167311906814,0.0010112117743119,-0.0260594021528959,-0.2084189150849357,-0.0653556585311889,0.098882188971946,-0.1598975886252708
109,-0.011998,-0.076376,0.539197,-0.040021,-0.121243,-0.675575,0.726153,0.0909367007270455,0.0594861716588959,0.6360790584445,3.9132159382805214,0.6113392425287515,8.971253653347492,-0.4041059911251068,-0.1042754277586937,1.9777390956878664,-0.9005728798747166,-0.1090490908797285,0.1752188742139797,-0.3825902165932133,0.0079878782853484,0.2265325039625167,-0.1203635334968566,-0.0249383449554443,-0.0130009055137634,0.0213952660560607,-0.0168050453066825,-0.0032868101261556,-0.2375612037433311,-0.0800813660025596,0.0681004397105658,-0.2568123225823044
110,-0.012563,-0.077218,0.53886,-0.040336,-0.122345,-0.673842,0.727558,0.9163891609922052,0.3012110344203189,0.92370006852746,3.954015566180646,0.2244658127888105,8.97138575529456,-0.1412472128868103,0.0206154584884643,1.6046966314315796,-0.886347715302326,-0.0978723361782225,0.1816800531862641,-0.4144888152084687,0.0919421687722206,0.2505292296409607,-0.1267200261354446,-0.0081453919410705,-0.0033138990402221,-0.0133947730064392,-0.0515165887773036,0.028036193922162,-0.1248403129025828,-0.0668421983718872,0.0887809748647268,-0.2045337807472795
111,-0.012808,-0.07763,0.538839,-0.039249,-0.120096,-0.673423,0.72838,0.741464848023653,0.4473236789243295,0.1490191796004772,3.982594302672148,-0.0234003200734499,8.961516687709093,-0.0845211744308471,-0.1205284744501113,1.1270134449005127,-0.87488573230437,-0.0917655857981087,0.1861958290573617,-0.4375902855893268,0.0487789809703826,0.1874171644449234,-0.0850094705820083,0.0025563240051269,-0.0256732106208801,-0.0324156135320663,-0.0418138466775417,0.0578649789094924,-0.1513173552739433,-0.0350430347025394,0.0365411233555641,-0.0881839679528027
112,-0.01215,-0.078823,0.538246,-0.040137,-0.110003,-0.676594,0.726986,0.4867001056209206,0.5849539244282991,-0.0249012170225381,3.9935990962892767,-0.2083160392323508,8.954225361657143,-0.0751962140202522,-0.0327450782060623,0.8993773460388184,-0.8660969815163861,-0.0870953219317021,0.1894094984886626,-0.4543286285081406,0.1003974378108978,0.1187848895788192,-0.0981489717960357,-0.0019251108169555,0.0105141401290893,-0.0264395475387573,-0.0369755029678344,0.0735041350126266,-0.1229623080031015,-0.014121126383543,0.0474316863257437,-0.1115255618426483
113,-0.011387,-0.079843,0.537641,-0.042008,-0.108123,-0.67844,0.725441,1.0299100339710712,0.560953820963949,-0.1571171458601951,3.9943221498668193,-0.3957538333479314,8.947578178727627,-0.2077046185731887,0.0107585424557328,0.7507546544075012,-0.8584698250386135,-0.0816069485805925,0.1927194264316194,-0.4682191894047119,-0.1057703793048858,0.1141797006130218,-0.0307640731334686,0.0101807713508605,-0.029822289943695,-0.002622902393341,-0.051798403263092,0.0684036090970039,-0.0985153192877769,0.0135404169559478,0.0252682967692613,-0.0607344455537851
114,-0.01044,-0.080999,0.53682,-0.045186,-0.106294,-0.680363,0.723717,1.2338573200672864,0.749811674477905,0.1782937894016504,3.9497389117747534,-0.5481002576749772,8.959326484188438,-0.1427948772907257,0.1169602870941162,0.3989912271499634,-0.8537733380313025,-0.0755346499950406,0.193638811696687,-0.4773568144038745,-0.1735390424728393,0.1231555715203285,-0.0351050235331058,0.0066534280776977,0.013515830039978,0.0179442465305328,-0.0547794289886951,0.0738210454583168,-0.0972126300582196,0.0260429941117763,0.0362862786615267,-0.0854453459023032
115,-0.010181,-0.082191,0.537472,-0.047839,-0.102729,-0.681361,0.723122,1.0773042378306388,0.4254286945130676,-0.136003630682826,3.933759544615447,-0.6643998746521771,8.958487110754847,-0.2209787964820861,-0.0781668797135353,0.1811168640851974,-0.8513152425987944,-0.0708340121982601,0.1955167720540215,-0.4816826753505493,-0.1385496258735656,0.0796058550477027,-0.0084277410060167,0.013900876045227,0.0035670399665832,-0.013006567955017,-0.0532758869230747,0.070387564599514,-0.0323429181804764,0.0147693809121847,0.0226803968846215,-0.0287076783671043
116,-0.010035,-0.083242,0.537519,-0.050921,-0.094235,-0.682954,0.722565,1.126909395737946,0.3427478540211915,0.5315525160431862,3.984411873488128,-0.7154950519215315,8.932128096139431,0.0223346073180437,-0.3644181489944458,-0.0831767544150352,-0.8505714684689707,-0.0699255385964036,0.1992451191894614,-0.4816015713268251,-0.0092867156490683,0.0394344143569469,0.0070878351107239,0.0105233788490295,0.0076582431793212,-0.0090919733047485,-0.0223252288997173,0.0615678392350673,-0.0436513960354728,0.032072938978672,0.004401088498914,0.0590456111174309
117,-0.010405,-0.084049,0.536741,-0.055938,-0.080238,-0.685263,0.721697,2.910721734501421,0.5837444755733013,1.075377069160342,4.237017684291303,-0.6169640236079692,8.822551869133115,0.2519022822380066,-0.8112538456916809,-0.7170379757881165,-0.8507063151685934,-0.0799793520220588,0.2092327501070433,-0.4755247421296595,0.1727006584405899,-0.0197917316108942,0.0014764212537556,0.0127269029617309,0.0215950608253479,-0.0244939029216766,-0.0176156591624021,0.0518876574933528,-0.0191283829418709,0.0471539497375488,0.0401139654572121,-0.02023784887098
118,-0.010049,-0.084535,0.536397,-0.058598,-0.076647,-0.686894,0.720325,1.6492469241902232,0.4103520848797634,1.168741581556201,4.533928793027997,-0.291689392033033,8.690730492570996,0.5965352654457092,-0.8380028009414673,-1.1927345991134644,-0.8557368103833827,-0.0990487791390672,0.2169917238005702,-0.4591497992498955,0.3090323805809021,-0.0359815694391727,0.0023061956744641,0.0229533910751342,0.0042228102684021,-0.0011936873197555,-0.031122513115406,0.0440447032451629,-0.0772490247014909,0.0311608798801898,0.0334362161427852,-0.0782406386878807
119,-0.009241,-0.085284,0.536395,-0.060253,-0.075473,-0.688415,0.718859,1.2397040002688764,-0.0321230854343157,0.5819102458834647,4.823013153661787,0.1350738572857342,8.537604462173581,0.4722444117069244,-0.7698183655738831,-1.2649685144424438,-0.8618384022063101,-0.1217096170041044,0.2233609137728598,-0.4387838958627698,0.0919967666268348,0.0020347365643829,0.0525688342750072,0.0001946091651916,-0.0073785781860351,0.0250179171562194,-0.0369485542178154,0.0482876151800155,-0.0721142967281164,0.0142031973227858,0.0196318823344656,-0.0470096843542763
120,-0.008442,-0.085151,0.535885,-0.063024,-0.072629,-0.689321,0.718045,0.1377057584255933,-1.0035352372646331,1.5322680197119711,4.970922033932805,0.5448959817409516,8.435840954744815,0.5265231132507324,-0.2072705924510955,-1.1713920831680298,-0.8697103275971838,-0.1395490075441896,0.2245392961787257,-0.4167878462618337,0.0335710011422634,-0.0140350963920354,0.0803420096635818,0.0065017938613891,0.0029873251914978,-0.0050949454307556,-0.0384578183293342,0.0510654412209987,-0.0382848160845809,0.0172163844108581,0.039724381617736,-0.0436905955346999
121,-0.00744,-0.085348,0.535738,-0.064461,-0.071582,-0.690696,0.7167,-0.2419949849396944,-1.1226321568101645,1.4777870724618434,4.953035664108396,0.93543566063717,8.412061435228585,0.7621992826461792,0.2725714445114136,-0.6121538877487183,-0.8745839577579432,-0.1550019587415602,0.2169760510700726,-0.4049676447668237,0.0757698565721511,-0.0444054119288921,0.1095746681094169,0.0254871845245361,-0.0180688500404357,-0.0071536153554916,-0.0337914712727069,0.0408678129315376,-0.0458690994844073,0.0175607688724994,0.0227441074873087,-0.0293923315964406
122,-0.005975,-0.086354,0.534027,-0.070245,-0.069476,-0.69166,0.715434,-1.2370406262785196,-0.9699585463553666,0.600511485978961,4.765046117861568,1.2861426569692789,8.474111356428265,0.7899086475372314,0.5778734683990479,-0.2634651362895965,-0.8776728772564313,-0.1665808494603484,0.2004779212639651,-0.4021813006844634,0.2699744701385498,-0.1100170761346817,0.0696161240339279,0.0207586884498596,0.0250362157821655,-0.0109292566776275,-0.0239689871668815,0.038370668888092,-0.035076067188126,0.0209848023951053,0.0498966242677066,0.0278216162475757
123,-0.0057,-0.086929,0.532841,-0.073626,-0.067776,-0.69299,0.713968,-1.0438184400752186,-0.8645571208156645,0.1655687478631734,4.579605087053776,1.5730911746181546,8.52777748016417,0.7374092936515808,0.449438601732254,-0.2322108894586563,-0.8789703448261006,-0.176014895672335,0.1849948954623171,-0.402749184381988,0.2333075553178787,-0.0819381400942802,0.0578494817018508,-0.0021142363548278,0.017842411994934,0.0271681249141693,-0.0107987411320209,0.0236905254423618,-0.0072165363620006,0.0170610472559928,0.046529554420826,0.0129428855402395
124,-0.006347,-0.086923,0.531395,-0.078659,-0.06448,-0.692177,0.714525,-1.5827847395062449,-0.4649278342738747,0.0633101503938436,4.42051225720644,1.8719703685574232,8.551326698055863,0.8890207409858704,0.4122366905212402,0.0595815815031528,-0.8783520143999597,-0.1872273164288506,0.170145854350084,-0.4055788672569639,0.148161232471466,-0.0691220015287399,0.0368461981415748,-0.0093702673912048,0.0234493017196655,0.0171523392200469,-0.0103741707280278,0.0146815674379467,-0.0357274140861933,0.0103869596496224,0.0443876333215739,0.040177070988412
125,-0.007743,-0.085743,0.528397,-0.085908,-0.063269,-0.68944,0.716442,-1.320221013790369,-0.2274482809320092,-0.5452180533021688,4.315815911196172,2.148645183342695,8.539756087249517,0.9000418782234192,0.2717137932777405,0.3089849650859833,-0.8745515597174309,-0.1995767940406142,0.1573616954120449,-0.4129961817594271,0.0284303035587072,-0.0053123389370739,0.0384099371731281,-0.021438717842102,-0.002030074596405,0.0113465189933776,-0.0010146460263058,0.0450985841453075,-0.085512702916935,-0.0243600979447364,-0.0295566005137516,-0.0548018223681021
126,-0.008163,-0.085743,0.526513,-0.090339,-0.064537,-0.688704,0.716492,-0.3922279242441058,0.0476269897021353,-0.9672469493091106,4.282805621998012,2.3676735725842413,8.498357908934354,0.6921838521957397,0.2303710281848907,0.4089025855064392,-0.8686715279466054,-0.2112659801478673,0.1485632212441055,-0.4227357320145228,0.0347118973731994,0.0583804622292518,0.0273741986602544,-0.0235773921012878,0.0060577988624572,0.00664883852005,-0.0127033423632383,0.0299556292593479,0.001614336436527,-0.0263826847076416,-0.0064792972830124,-0.0324960834651719
127,-0.007681,-0.086497,0.525608,-0.095101,-0.062821,-0.68948,0.715281,0.048141222834587,0.3473389812037348,-1.3769535393595695,4.26321741669178,2.4797636821076274,8.47620979001224,0.4305003583431244,0.0116147333756089,0.4101576805114746,-0.86312100078926,-0.2179543928178931,0.1425814194359413,-0.4326527707518043,0.0433586500585079,0.0531640201807022,0.0353702753782272,-0.0070290565490722,-0.0005988478660583,-0.0061808228492736,-0.0333205051720142,0.0283041503280401,-0.0583045195596991,-0.0174630470573902,-0.0384326658733421,-0.0573251029011793
128,-0.006172,-0.086342,0.525569,-0.096973,-0.059862,-0.694063,0.710837,0.4994105341121554,0.4402653944432735,-0.9907873993724584,4.338821815991402,2.547847915035486,8.417451311573386,0.3086006343364715,-0.1296246945858001,0.2235360443592071,-0.858404808604551,-0.2244173469581346,0.1430604219752654,-0.4385338299918566,0.0208501480519771,0.0407264716923236,0.0235871169716119,0.0055211186408996,-0.0064253807067871,0.0101509690284729,-0.0291439406573772,0.0002084140432998,-0.0001838743751461,-0.0198539290577173,-0.0317549142756266,0.0006776880573655
129,-0.006322,-0.086394,0.525309,-0.097185,-0.06458,-0.693969,0.710486,1.1184972489625216,0.3832566822811961,-1.328632283782959,4.445926392187178,2.6305940027832984,8.335711770519614,0.2878245115280151,-0.3512910306453705,-0.004453229252249,-0.8550288391908404,-0.2318938125275032,0.1456784924643543,-0.4403733425459626,0.0135296508669853,0.0140977371484041,0.0457279048860073,0.0084007382392883,-0.0267282724380493,0.0038662552833557,-0.011402684263885,-0.0222877580672502,0.0185050885279313,-0.0180806219577789,-0.0051194053941901,0.0358082014045561
130,-0.00664,-0.086045,0.524607,-0.097574,-0.060733,-0.693749,0.710987,0.477585071273148,0.1728311400815844,-0.9932920756697654,4.515223215775191,2.6785131072998047,8.283037580430507,-0.1176930740475654,-0.1192926466464996,-0.1645372360944748,-0.8547984334845353,-0.2358354481976919,0.1485404295724558,-0.437763664235051,0.1308517456054687,-0.1231537014245987,-0.0162772759795188,0.0346903204917907,0.0637266039848327,-0.0590347051620483,0.0075952596962451,-0.0127160176634788,0.0044833856418845,0.0079311113804578,-0.0193133247544523,0.0435864090744406
131,-0.006746,-0.08577,0.524503,-0.09749,-0.056496,-0.694242,0.710867,-0.3452344101399183,-0.1157876488670706,0.2209048506379127,4.520572760109603,2.65094793176502,8.288985675179958,-0.1038387715816497,-0.0707927718758583,-0.0911143720149993,-0.8567217706683105,-0.2340109000613739,0.1503936619438703,-0.4343367763015724,0.1019319519400596,-0.1568361818790435,0.0197458397597074,0.0069887042045593,-0.0033709406852722,0.0126321017742156,0.0045807971619069,-0.0349995158612728,-0.0405785461950814,0.0092401094734668,0.000191133520528,-0.0020539625421195
132,-0.006656,-0.085832,0.524498,-0.09975,-0.053085,-0.69494,0.710134,0.0001373626440763,-0.1002247535541653,0.3516664890140294,4.564408394704759,2.6774332031086088,8.256386304870247,0.173411563038826,-0.1775282919406891,-0.0353667885065078,-0.8562667042719038,-0.2364189783630229,0.1521431204790774,-0.4333195634230047,0.0312311500310897,-0.0960582718253135,0.0646368786692619,-0.0124323964118957,-0.0276799201965332,0.0294340550899505,0.0055472692474722,-0.0290094092488288,-0.0726098205935209,-0.0147880176082253,0.0053742495174054,-0.0385468166051898
133,-0.005522,-0.087649,0.524782,-0.105685,-0.060382,-0.697442,0.706229,0.1685579928070306,0.0019277531921863,0.2622796480774879,4.631517060598731,2.770857336737216,8.187904889318347,0.2741117179393768,-0.2606720924377441,-0.1008015871047973,-0.8551576453021291,-0.2427352454315558,0.1536639920994064,-0.431477133161452,0.4032281339168548,-0.0825779438018798,0.0194939039647579,-0.0028549432754516,0.0143604278564453,0.0101135671138763,0.0057754437439143,-0.0339108221232891,-0.073388933473546,-0.0190171729773283,0.0491174520221771,-0.019083877079864
134,-0.005452,-0.088156,0.524902,-0.104445,-0.064334,-0.698245,0.705271,0.0772825616449117,0.0046656537234783,-0.2692366276085376,4.718453001251817,2.8864824885189533,8.097827143508196,0.2790398895740509,-0.2567709386348724,-0.0748113840818405,-0.8534326290807592,-0.2507923426446866,0.1556563967923007,-0.4295661764493497,0.2110954523086547,-0.0302225891500711,0.0481223538517952,-0.0076863765716552,-0.0466831922531127,0.0208325386047363,0.0033305981196463,-0.0141499759629368,-0.1049527319241315,-0.0321290604770183,0.0280546464020269,-0.0672544949722941
135,-0.005416,-0.08786,0.525266,-0.104052,-0.062489,-0.697696,0.706037,-0.0883291485771536,0.0218617031961679,-0.552668369308114,4.762858252428472,2.9484444391742346,8.049362680068612,0.0619849897921085,-0.0463708862662315,0.0042369496077299,-0.8523014792978143,-0.2551477573867544,0.156513084929249,-0.4289352283632565,0.1067906245589256,0.0039345826953649,-0.0217225737869739,-0.0097672343254089,-0.0602545738220214,0.0441918075084686,-0.0152353979647159,-0.0035802163183689,-0.0772490247014909,-0.0435766503214836,0.0334362161427852,-0.0782406386878807
136,-0.005697,-0.087636,0.525993,-0.102763,-0.060394,-0.696524,0.707564,0.2073465731456875,0.0842719821408391,-0.4822048400282859,4.768253389470279,2.953969924597442,8.044141146028041,-0.0300737395882606,-0.0206009726971387,-0.0510204806923866,-0.8524160826287149,-0.2554909848923314,0.1568033657029701,-0.428396908361264,0.4978254735469818,-0.0835951566696167,-0.1178477779030799,0.0106372237205505,0.0345907807350158,-0.0484083592891693,-0.0272834487259387,0.0171928536146879,-0.114646881334111,-0.0295158009976148,0.003296040733307,-0.0119972889529308
137,-0.006211,-0.087596,0.526453,-0.104003,-0.059167,-0.694501,0.709472,0.1985439657479524,-0.0584676787987351,-0.4254173694014549,4.781395487377047,2.946772706569731,8.038978648698329,-0.0815712958574295,-0.0232474766671657,0.0076901721768081,-0.852640490785429,-0.255371518146413,0.1578339517832561,-0.4276424511319723,0.4820675551891327,-0.0587710924446582,-0.1401114016771316,0.0031723976135253,0.0090260505676269,0.0312612652778625,-0.0282768681645393,0.0364192649722099,-0.0545722011635778,-0.0338119976222515,0.0265007657402427,0.0089391457746154
138,-0.00685,-0.08772,0.529534,-0.097278,-0.063078,-0.689883,0.714576,0.1261605743214487,-0.0653521776154637,-0.1817582506418228,4.782850654621422,2.9104116456389426,8.051349469971656,-0.1678340137004852,0.0640345513820648,0.0332451313734054,-0.8529773239459115,-0.2535658823883011,0.158744372191532,-0.4277080623522308,0.5816881656646729,-0.0338123142719268,-0.1003490090370178,0.0122289061546325,-0.0053020119667053,0.0250923633575439,-0.0323540307581424,0.0342942588031291,-0.0365345817336346,-0.0414911732077598,0.0476272819630801,0.056425112720998
139,-0.005689,-0.089262,0.531401,-0.088316,-0.069891,-0.695267,0.709873,-0.4653545352533459,-0.1481260301530361,0.2011637928575277,4.762497602422535,2.844296374696493,8.08696380418837,-0.176285982131958,0.1409259438514709,0.1157568022608757,-0.8535871839536059,-0.2497608750583031,0.1590568953511572,-0.4286134566218297,0.8550181984901428,-0.0223506037145853,-0.0988277420401573,0.0088639855384826,0.0239500403404235,0.0082283616065979,-0.0117531428113579,0.0102117704227566,-0.0086469978525594,-0.0368231087923049,0.0847637659794651,0.0447612798064015
140,-0.003437,-0.090952,0.533564,-0.078803,-0.074061,-0.702409,0.703511,0.233224526245892,0.0936804464772343,0.1925713210791349,4.765718610295653,2.7883395096749064,8.104534532192348,-0.0481465756893157,0.004049677401781,0.0542385950684547,-0.8532486283798775,-0.2473300388842354,0.1600362566378136,-0.4303291100580826,0.3128558993339538,-0.0325290448963642,-0.0458022132515907,0.0013933181762695,-0.0366981029510498,0.0332923233509063,-0.0070444620214402,0.0242985840886831,-0.060358273751731,-0.060111079365015,0.0347961086024297,-0.0099363595263741
141,-0.002773,-0.092089,0.534826,-0.071461,-0.081205,-0.703322,0.702593,0.3312117300063371,0.1209732348114252,-0.1693973662406206,4.767839255711436,2.799054964956641,8.09959181509316,0.0967096835374832,-0.0335880629718303,0.0121522285044193,-0.8529615157335192,-0.2479885402727625,0.1598043674011282,-0.4306052625984831,0.1563480496406555,0.0065206182189285,-0.062960959970951,0.0015131831169128,-0.0141556859016418,0.0121307671070098,-0.0172018986195325,0.0327674262225627,-0.0160754593613673,-0.070474125444889,0.0590348476948216,0.0551669567529112
142,-0.003106,-0.092586,0.535376,-0.067231,-0.089411,-0.701034,0.704299,0.5339776973634958,0.128081020990014,-0.6741355251163244,4.761547462090849,2.804965358044207,8.101247765606642,-0.067735731601715,0.0492027141153812,-0.024783281609416,-0.8529088697114293,-0.2481413769838475,0.1593021182786754,-0.4308074925296081,0.2067470550537109,0.0102213472127914,-0.0918635129928588,0.0074546933174133,0.0076929926872253,-0.002515971660614,-0.0204803794622421,0.0440183542668819,-0.0430000514206942,-0.0584343709051609,0.0099100800158688,0.0466901563765946
143,-0.004409,-0.093368,0.536869,-0.069129,-0.098005,-0.697391,0.706585,-0.1088257008999586,0.1411862940177321,-0.8326216212421655,4.731879469057917,2.7554984395638105,8.135535235133768,-0.2539605498313904,0.1549706608057022,0.0626123622059822,-0.8539216101216326,-0.2447648683308343,0.1590386743524365,-0.4308303918580189,0.2534064054489136,-0.0288161747157573,-0.1161901578307151,0.0219702124595642,0.0213895440101623,-0.0054888725280761,-0.0227451045066118,0.0339376889169216,-0.063798870059126,-0.0604034885764122,-0.0245037604038603,0.0525185931020183
144,-0.004877,-0.093451,0.536855,-0.069608,-0.101285,-0.696122,0.707326,-0.0498667314529418,0.097069796654582,-0.8935404925853013,4.698957150404155,2.6260353165656327,8.197202294495701,-0.4426272213459015,0.2012634873390197,0.1868946701288223,-0.8548677928233647,-0.237597936868649,0.1600194297394238,-0.4325992424014805,0.0459075607359409,0.0050147604197263,-0.0669493079185485,0.0107286572456359,-0.0119415521621704,0.0156321227550506,-0.0065489565022289,0.0428523533046245,-0.0227248045652173,-0.0491153858602047,-0.010437263961439,0.0461096896075177
145,-0.004852,-0.093872,0.537223,-0.072146,-0.105372,-0.694859,0.707716,0.0417570747554302,-0.0413226288609206,-0.7054355032652616,4.665093751507997,2.42325400550887,8.278594629547,-0.4561448991298675,-0.0337098091840744,0.1591139286756515,-0.8559070130336779,-0.2269775860695143,0.1624509892764823,-0.4353321569990556,0.0558930858969688,0.042969599366188,-0.0828494429588317,-0.0038636922836303,-0.0374057292938232,0.0243038833141326,0.005371980369091,0.025254750624299,-0.0149846935661509,-0.0560393370687961,-0.0022056317019392,0.0279188386775087
146,-0.004008,-0.094791,0.536922,-0.076388,-0.110442,-0.696477,0.704902,0.1110083056360483,0.3498926112093031,-0.8110545170783996,4.73575368014276,2.295699931002408,8.27482797048986,-0.2890141308307647,-0.2946422398090362,0.0427931435406208,-0.8559663012672476,-0.2226073570456061,0.1689590051886533,-0.4349947199383991,-0.1324025243520736,-0.0102693876251578,-0.0254651140421628,0.0411279201507568,0.020850658416748,-0.0022788047790527,0.0178519785404205,0.0246231816709041,-0.0826436594197992,-0.0555360466241836,-0.0423906279851915,0.0212806678882217
147,-0.002797,-0.096043,0.536246,-0.081458,-0.108413,-0.700024,0.701126,-0.5842474566593766,-0.2192385248608887,-1.3327607618898152,4.8198891764223575,2.140435573402047,8.267865145739913,-0.6357627511024475,-0.0811977759003639,0.2469373941421508,-0.8562128225743711,-0.2171557946500453,0.1769168366624184,-0.4341007551258273,-0.3478011190891266,0.0563534758985042,0.0232226643711328,-0.0095589756965637,-0.0474141836166381,0.0575689673423767,0.0126999076455831,-0.0109164463356137,0.012407367591164,-0.0633330717682838,0.0206732194973854,0.0247178712287102
148,-0.000916,-0.098846,0.538664,-0.075403,-0.100746,-0.704526,0.698432,-0.3076186729729175,-0.1596757443018257,-1.6067402001112698,4.888624274474382,1.7429912296839056,8.320680205604434,-1.1575274467468262,-0.1487117707729339,0.655997097492218,-0.8554068855584733,-0.2005772180843913,0.1884997295573832,-0.4387662046273352,-0.2371158748865127,0.0856511741876602,-0.0194273944944143,-0.0040009021759033,0.0336785912513732,-0.0247302651405334,0.0334670692682266,-0.0098178079351782,0.009618113615259,-0.0463479124009609,-0.0331176608460606,0.0748173679746221
149,0.000576,-0.100472,0.540149,-0.067566,-0.10393,-0.710336,0.692861,0.7205401334166527,0.1407429341644048,0.0704559304952621,4.974965756365656,1.245350189462304,8.358779926896094,-1.0573984384536743,-0.2245249897241592,0.3863845765590668,-0.854616238465521,-0.1797778187402179,0.2037173857273101,-0.4425044811549476,-0.1971556842327118,-0.0063348328694701,-0.0987690165638923,0.0139891505241394,0.0354387164115905,-0.0475332736968994,0.0308991707861423,-0.0147206410765647,-0.0503805353271309,-0.0570402778685092,0.0015538823742506,-0.0761936430301982
150,0.002635,-0.102433,0.542618,-0.058804,-0.110258,-0.716084,0.686738,-0.8193763552218675,0.0920383783586323,-0.6215571966171264,5.109336817410588,0.8521750474959612,8.326995964622498,-0.8545369505882263,-0.3997083306312561,0.6359285712242126,-0.8520955125976069,-0.165574446082852,0.2191493990757818,-0.445524405693695,-0.2541795670986175,3.922992618754506e-05,-0.0522681660950183,0.0073791742324829,-0.019366979598999,-0.0168325901031494,0.0089144790545105,-0.019530601799488,-0.0378173447033041,-0.0788098573684692,0.0134784594298864,-0.0553683610765263
151,0.00415,-0.103952,0.54483,-0.053318,-0.115127,-0.718756,0.683589,-0.4520873496621846,-0.2391206716123968,-0.5307926375865936,5.167617156943678,0.3408742421690374,8.32765998148918,-1.4049240350723269,0.2073639780282974,0.6443485021591187,-0.8488838612144133,-0.144660731085483,0.2334111528914251,-0.4516511293494447,-0.2726267576217651,0.0274080038070678,-0.0617568083107471,0.0126252770423889,2.396106719970703e-05,0.0021287500858306,-0.0002063189167529,-0.0297707244753837,0.0345088777424418,-0.0701400786638259,0.06610504180938,-0.0058214664160535
152,0.005011,-0.104867,0.547261,-0.046385,-0.122958,-0.717695,0.683845,-2.2208552640289065,-0.8698609993774443,0.3981441625505685,5.07893349584043,-0.3073378832701594,8.383338614091276,-1.376477837562561,0.2371127158403396,1.1129624843597412,-0.8464944686763871,-0.1139177798502904,0.2441135357576553,-0.4592151808340823,-0.3330157995223999,0.0378974489867687,-0.0968735218048095,-0.0024434924125671,0.0105057954788208,-0.0004383325576782,0.011928173713386,-0.0495088994503021,-0.1605920006302185,-0.0547276847064495,-0.031836119435809,0.0886849580111913
153,0.007606,-0.106197,0.556917,-0.002809,-0.14982,-0.711827,0.686184,-0.3799859900474548,-0.6894799553729594,1.7159575306773185,4.9171483581691975,-0.9726944741252808,8.428873453819751,-1.0654752254486084,0.4917149543762207,1.1825724840164185,-0.8394265987902458,-0.08316203861643,0.2516567936245439,-0.4744638245213938,-0.3849439620971679,0.0695254132151603,-0.1020343899726867,-0.0019208788871765,-0.0065325498580932,0.0377763509750366,0.0278113633394241,-0.0082329167053103,-0.1205887746716383,-0.0557058714330196,0.020340023753955,-0.0269802038372377
154,0.008506,-0.107359,0.560583,0.011603,-0.157377,-0.709709,0.686594,-0.2056993904605507,-0.5591730750270187,1.5008780251920222,4.774733691400289,-1.4761977574437857,8.43760270372033,-0.659127414226532,-0.0260347221046686,1.0446088314056396,-0.8310577945826683,-0.0608459148100062,0.2570987321744615,-0.4894291341795473,-0.6250604391098022,0.1099454909563064,-0.1189234256744384,0.0114804506301879,-0.0125824213027954,-0.0011149644851684,-0.0043078828603029,-0.0019514055456966,-0.1187905661432538,-0.0547968000173568,0.0456156407465692,-0.060153974218131
155,0.008685,-0.108821,0.561836,0.008682,-0.15807,-0.708818,0.687397,1.2330097633272408,-0.1317925888590514,2.388709492480755,4.689048043069243,-1.8154415488667783,8.419464989483355,-0.3100863099098205,0.2863775193691253,0.783173143863678,-0.8231972060039766,-0.0470555527342321,0.2617489987107109,-0.5016170307190595,-0.4875611662864685,0.0583584122359752,-0.0994058474898338,-0.0057726502418518,-0.0133499503135681,-0.0287034809589386,-0.020125089213252,0.0359414741396904,-0.1267145458092447,-0.069800429046154,0.0056290942114428,-0.0412854386556893
156,0.008476,-0.10995,0.561755,-0.000221,-0.153415,-0.706613,0.690769,1.1340911239355802,0.217215348470211,1.5324889689862726,4.464300837789476,-1.9881763889670367,8.502209323665499,0.0541855692863464,0.5934218764305115,0.657988965511322,-0.8182490383685738,-0.0364197844569998,0.2553068281978454,-0.5137709812742044,-0.3590716421604156,-0.0025915470905601,-0.1813506484031677,0.0120401978492736,0.0550855994224548,-0.0041843056678771,-0.0384987518191337,0.0702428370714187,-0.1170484534499701,-0.0789755657315254,-0.0101158545539248,-0.0997575470343697
157,0.007778,-0.110793,0.560649,-0.014073,-0.151149,-0.700847,0.696972,0.7455293209835887,0.0835264244705438,0.7518447877407074,4.269275693817437,-2.038392079988122,8.59003081498146,0.1078730300068855,0.664148211479187,0.5039925575256348,-0.8161791365522605,-0.0305575247505816,0.2471771838376527,-0.5213648088381453,-0.3886782526969909,0.0565281249582767,-0.1469042003154754,0.0080593228340148,-0.0235103964805603,0.0511209368705749,-0.0538441054522991,0.0718050599098205,-0.1019559155951719,-0.0906340405344963,-0.034031576803606,0.0017205070746073
158,0.005357,-0.110786,0.560955,-0.024882,-0.151845,-0.69337,0.703962,0.3058469871252775,-0.07582637148723,0.0467050525516271,4.025862366512418,-2.080002585879713,8.696919410338998,0.147347554564476,0.3858588337898254,0.4369636178016662,-0.8139438782267524,-0.0238201737446482,0.2366709032592262,-0.5300140514242443,-0.4208966493606567,0.1833068430423736,-0.0720545202493667,0.0006004571914672,-0.0340834259986877,0.026490032672882,-0.0246423278003931,0.0693532526493072,-0.0567101082414155,-0.0826089978218078,-0.0217811213737819,0.0466831923462683
159,0.004341,-0.113084,0.563369,-0.036292,-0.154112,-0.687093,0.709109,0.7928013597682118,0.3266748172290623,-0.7214461423456668,3.9052208478733896,-2.0648652225025,8.755339450603723,0.1044775918126106,0.2025193572044372,0.1574456840753555,-0.8122283581497896,-0.0222940958338762,0.2304450022348186,-0.5354280804855894,-0.1491308957338333,0.0375597588717937,-0.203812688589096,0.0202270746231079,0.0578975081443786,-0.0459435880184173,-0.0056403181515634,0.0510858483612537,-0.0961698430070187,-0.0613146387040615,-0.0423269196657929,0.0205960146588855
160,0.004218,-0.114515,0.565184,-0.041913,-0.150962,-0.689104,0.707524,0.500780361160636,0.2812777785360813,-0.6052040277093649,3.8391590606838464,-2.105659297444672,8.774818642577529,-0.171836107969284,0.2064285278320312,0.1772087067365646,-0.8111978385116085,-0.019213958364869,0.2285598018560027,-0.5379120486913767,-0.1465010344982147,0.0629841089248657,-0.0702365785837173,0.0276287198066711,-0.0656994581222534,-0.0075317025184631,-0.0046191839501261,0.0589047148823738,-0.0670356737229973,-0.0540852881968021,-0.0751795523505192,-0.0222085256061516
161,0.004941,-0.117022,0.566503,-0.046957,-0.151429,-0.692291,0.703986,0.5047445886164903,0.1931052818253636,-0.3015384762763977,3.7311966986149545,-2.215906409449876,8.794220677661896,-0.3299528658390045,0.2965972125530243,0.0460310205817222,-0.811055945275093,-0.0115078573071648,0.2269076997920825,-0.5390442784589903,-0.1800557971000671,0.1316777318716049,-0.1534845381975174,-0.0222722291946411,0.0523537397384643,0.0539607107639312,-0.0043869451619684,0.0261641591787338,-0.0062815953119134,-0.0630318224430084,-0.0059622888132289,-0.0104126409768359
162,0.00586,-0.11982,0.567365,-0.051989,-0.152668,-0.696192,0.699504,0.1088084575042128,-0.1042765131630003,0.2304845798879861,3.6436537319794295,-2.3229950574241576,8.803287196692823,-0.255895048379898,0.205033466219902,-0.0223141033202409,-0.812361782950268,-0.0038349427301107,0.2261471913201973,-0.5375045557960266,-0.0947448909282684,0.0601863488554954,-0.0770659297704696,0.0273194909095764,-0.0028225779533386,-0.0502650737762451,0.0073750931769609,0.0125358924269676,-0.0064654696870595,-0.0610346421599388,-0.0377172019472112,-0.0097349540611146
163,0.006711,-0.120904,0.570094,-0.054978,-0.149773,-0.698235,0.697864,-0.1146393556147813,-0.13470467691347,0.2836930229842662,3.57575713057816,-2.3865394549652934,8.814123648005724,-0.129056692123413,0.2046129554510116,-0.0013731342041864,-0.8134325637119908,0.001249173751781,0.2249515686949117,-0.5363978073035858,-0.0950732603669166,0.0158382728695869,-0.1066138967871666,0.0215211510658264,0.0155695676803588,0.0221304595470428,0.0046898620203137,-0.0163749605417251,-0.0376615216706413,-0.0610470473766326,0.0047298192714253,-0.059260948068276
164,0.007096,-0.123856,0.57315,-0.05552,-0.139812,-0.700049,0.69807,-0.4088163632124662,-0.1956169723853468,0.2866425204396248,3.4967379543989896,-2.425136019863188,8.835265804755688,-0.0440807230770587,0.2169127613306045,0.1445237398147583,-0.8136842130719868,0.0051214824064877,0.2224872526245291,-0.537020683309272,0.0211052782833576,-0.0617141500115394,-0.0123081672936677,0.0439141988754272,-0.0206540822982788,-0.0372622013092041,0.0137943858280777,-0.0318688042461872,-0.0935644554147496,-0.0561291277408599,-0.0202909513146849,-0.0288257974545937
165,0.006543,-0.124368,0.574291,-0.054617,-0.138238,-0.700202,0.698301,0.1743663868248462,0.1364589732348919,-0.0303770180851221,3.4096038608253,-2.4521008914172646,8.86183875438273,-0.0186383035033941,0.2115301489830017,0.1022199913859367,-0.8130648262705521,0.0083137327769037,0.2193236134422095,-0.5392157505670863,0.0579517073929309,-0.0662491917610168,0.0409429371356964,0.0155133605003356,-0.0165649056434631,-0.0175400674343109,0.0169254131615161,-0.0378390811383724,-0.0767815533202141,-0.0427269041538238,0.0071902950965799,-0.0899184087962843
166,0.005897,-0.12499,0.575661,-0.053165,-0.137279,-0.699572,0.699233,0.1034811250016093,0.2742477337688207,-0.2462678399533033,3.303767112608254,-2.478858549961448,8.894423511645197,-0.0837268456816673,0.3214550912380218,0.0870460122823715,-0.8133944407638952,0.0123737645928647,0.2153079301351989,-0.5402581388375426,0.1092340722680091,-0.0671866238117218,0.0827774032950401,0.0089640617370605,-0.0138313770294189,0.0119605660438537,0.004680966027081,-0.0129584651440382,-0.1392777387163601,-0.0262211207300424,-0.0062954822733707,-0.0621107206093613
167,0.005226,-0.125799,0.577139,-0.052702,-0.135875,-0.699864,0.699251,-0.0743999919459223,0.1367044724285602,-0.5105547361999749,3.160974844698608,-2.5530524979412554,8.925275746026635,-0.2580375671386719,0.4166878163814544,0.1915089040994644,-0.8134457698576978,0.0194681164193853,0.2110890240212974,-0.5416349789291383,0.0646165385842323,-0.0963613912463188,0.1158225014805793,-0.0033544301986694,-0.0066940784454345,-0.0422118604183197,-0.0036322544328868,-0.0132391471415758,-0.189734307554923,-0.0326583422720432,-0.0626178664139006,-0.0082297873622854
168,0.004167,-0.126407,0.577073,-0.051009,-0.135432,-0.699261,0.700065,-0.2657020237416029,0.0007151625320315,-0.2105494608402252,2.968156855382025,-2.698082315644622,8.948786385473609,-0.3363836109638214,0.4569816887378692,0.3144827485084533,-0.8124502120916525,0.0307483873641679,0.206865679684464,-0.5442294088428269,-0.0014146782923489,-0.1003809571266174,0.171618714928627,-0.0128821730613708,-0.0188177227973938,0.0139379203319549,0.0172938033938407,-0.0161098428070545,-0.0948390967267565,-0.0245943088084459,0.0091946189438487,-0.0008999907510034
169,0.003218,-0.12975,0.578255,-0.054741,-0.126335,-0.701687,0.699055,-0.5415338118314743,-0.1806254472196102,-0.078934420505166,2.7943282286956905,-2.8513316801607607,8.95723272677958,-0.3190858364105224,0.3159441947937011,0.3974339067935943,-0.8098038784187648,0.0413659112184792,0.2039536326864127,-0.5485520561561731,0.0446854382753372,-0.0911022424697876,0.2104534059762954,0.0044480562210083,-0.0162533521652221,-0.0082877874374389,0.0262133721262216,-0.0261848252266645,-0.0656768795251846,-0.0007106033153831,0.0168455304184113,-0.0404896303691901
170,0.003528,-0.13263,0.576586,-0.06092,-0.123094,-0.704716,0.696069,-0.0299009250059723,-0.1949497406482696,0.546769374397397,2.660380361498892,-2.9876924537181853,8.953572450706362,-0.1369366198778152,0.1980810612440109,0.4416977167129516,-0.8058790110851306,0.049760167001723,0.2025309499670168,-0.5541337807094544,0.0655363947153091,-0.1183966547250747,0.1601570099592209,0.0045739412307739,0.0240120291709899,-0.0046917498111724,0.0193312410265207,-0.0248947590589523,-0.0077120573732943,0.0199729446321725,0.0322719193204771,0.0214057510060374
171,0.003975,-0.135517,0.575839,-0.065447,-0.123972,-0.707816,0.692347,0.3295873436748981,0.004462824627757,0.2063309663623571,2.558418408888578,-3.0421058886900543,8.964957768073678,0.0338494032621383,0.045415248721838,0.3466034531593323,-0.8019016199042388,0.0535783798810409,0.2001092518895211,-0.5603921422226784,0.0320375524461269,-0.1581957340240478,0.0977941676974296,-0.019879937171936,-0.0058493614196777,0.0024190247058868,0.0144293382763862,-0.0389461815357208,-0.0613493169159628,0.0026194886304438,0.0062808446807757,0.0069893702635774
172,0.004348,-0.138056,0.576097,-0.06824,-0.122684,-0.711439,0.688583,1.122775949195027,0.175308636111021,0.1811830811023712,2.5176076750725507,-3.067204966372252,8.967959287977218,-0.0069768540561199,0.0211042705923318,0.1574502140283584,-0.7990420151708033,0.0548288497431789,0.1993868927951174,-0.564597658043306,0.0488815121352672,-0.177675262093544,0.0569070540368557,0.0043709278106689,0.0157556533813476,0.0102233588695526,0.0218428187072277,-0.0503154918551445,-0.0214221130523714,-0.0135699724778532,0.0005807196432928,0.0213987846924224
173,0.00344,-0.137498,0.57564,-0.068843,-0.122668,-0.71287,0.687045,0.433149424958229,0.0719064215645194,-0.0202069217264652,2.542992876219749,-3.037873365686833,8.970780190616846,0.1862656623125076,-0.1839011013507843,-0.1023459881544113,-0.7988520091244898,0.0527248025007223,0.1995935836093045,-0.5649937262492498,0.0615142174065113,-0.1634062677621841,0.009083074517548,-0.0003223419189453,0.0164703130722045,0.015562891960144,0.0307615008205175,-0.0366234816610813,-0.0546002536477055,-0.0280552450567483,-0.0140027881230227,0.0057242474110535
174,0.000312,-0.137043,0.57671,-0.069447,-0.122156,-0.708193,0.691894,-0.3634662324011325,0.022764204993844,-0.9344412427723408,2.6051868820652366,-3.001899258247018,8.965042523747682,-0.110768049955368,-0.0567092187702655,0.0212006345391273,-0.7989213164631473,0.0493986988022609,0.2011711081544595,-0.5646367472300959,0.0655481070280075,-0.1647250652313232,0.0520369336009025,0.02163827419281,0.0182121992111206,-0.0010325014591217,0.0348573438823223,-0.0650984570384025,-0.0470159633980132,-0.0516589507460594,0.0029774848657601,-0.0085740159563836
175,-0.000218,-0.136242,0.57697,-0.066489,-0.122867,-0.707115,0.693161,-0.4285799250856041,0.0438268667668104,-0.3585708615750074,2.582014973053336,-3.118430711218714,8.93190773138702,-0.3818312287330627,0.1146825477480888,0.2160554230213165,-0.7974218426474402,0.0548171634816251,0.2039473610206333,-0.5652601434932445,0.0491744615137577,-0.1655052006244659,0.1459270715713501,0.020099937915802,-0.0105354785919189,0.015530914068222,0.0564361475408077,-0.0818795189261436,-0.0341411289921496,-0.0544981658458709,-0.002595217824704,0.0044660908721445
176,-0.000611,-0.136111,0.577905,-0.064296,-0.120856,-0.706151,0.694701,-0.0271598096042871,0.2569137371301651,-0.0197246911674737,2.5265564129427074,-3.246972335457801,8.901913575139641,-0.2597781419754028,0.0630311071872711,0.2068015187978744,-0.7949487965714387,0.0613431579914069,0.2058293844771392,-0.5673866366894785,0.0097168022766709,-0.1354342848062515,0.1957402378320694,-0.0076550841331481,-0.0394888520240783,0.0338147282600402,0.0679757371544838,-0.08995071798563,-0.06518135565978,-0.0400113984942436,0.0311031632354715,-0.0489524935516994
177,-0.000609,-0.136664,0.579144,-0.063597,-0.116304,-0.706065,0.69563,0.2517781278073787,0.0437359736129641,0.0755763422489166,2.475367200714349,-3.379457436625659,8.866916496038437,-0.3611174523830414,0.1003666892647743,0.1775516271591186,-0.7926934675755885,0.0680357724852078,0.2080485668444662,-0.5689674266329565,0.002665018197149,-0.2211521118879318,0.2463271766901016,-0.0034457445144653,-0.0279471278190612,-0.0264729112386703,0.0754756554961204,-0.1002851352095604,-0.0553033421494532,-0.0267276093363761,0.0876166803257074,-0.1048873933366499
178,-0.00137,-0.140408,0.581544,-0.063267,-0.1135,-0.707288,0.69488,0.3717028764791786,-0.0408463896512985,0.3723293378144502,2.4149982183389365,-3.4971851136445995,8.837865173599123,-0.1915346384048462,0.0779475569725036,0.1350020766258239,-0.7909005641112427,0.0744986734399404,0.2093901273353876,-0.5701595161267555,0.1257685720920562,-0.1784925907850265,0.2031056135892868,-0.00212162733078,0.0282554030418396,-0.0083337426185607,0.0675422623753547,-0.0775252655148506,-0.0490217456958955,0.0014886166900396,0.093578967997292,-0.0944747477932367
179,-0.002963,-0.144075,0.583998,-0.064349,-0.109835,-0.701832,0.700876,0.151838474804908,-0.4044336180835962,0.2324450663059949,2.3891575285091995,-3.551236145044863,8.82332285350561,-0.0912599563598632,0.0349972695112228,0.0852170512080192,-0.7896881972857674,0.077279179326997,0.210151484867479,-0.571188926112579,0.1401144862174987,-0.1620948016643524,0.1739252209663391,-0.0014353990554809,0.0198056101799011,0.0095503330230712,0.0610268637537956,-0.0830007642507553,-0.0084631240482354,0.0273269545286893,0.1165186756885144,0.0440835906073916
180,-0.0053,-0.146599,0.580094,-0.068281,-0.108531,-0.697789,0.704734,0.1092863041490316,-0.1284460549101233,0.164402042171359,2.3524020614333447,-3.587953472067416,8.818343311527371,-0.0509463548660278,0.0229072123765945,0.1568447947502136,-0.7883515419856507,0.0795214794808021,0.2099189093781829,-0.5728108487877519,0.147003024816513,-0.1891815066337585,0.1160643845796585,-0.0178509950637817,0.0218605995178222,-0.0092914700508117,0.0800972655415535,-0.0784332528710365,-0.0287664228170178,0.0149443056434392,0.096362470369134,0.0414491595837287
181,-0.006908,-0.149252,0.578335,-0.074205,-0.107862,-0.693275,0.708682,0.7101454345218837,-0.1423024385660886,0.0377934318214654,2.3491953743465244,-3.6134517782002686,8.808781702455878,-0.0244518965482711,-0.0479967892169952,0.031120678409934,-0.786923341223272,0.0802697668383156,0.2107935008263673,-0.5743469674136813,0.2037472575902938,-0.2014741748571396,0.0480057746171951,-0.0114033222198486,0.0343905091285705,0.0096722245216369,0.066186174750328,-0.0793724358081817,0.0192405860285158,-0.0126797500997781,0.1219002408626954,0.0330974468918051
182,-0.008166,-0.151973,0.577878,-0.08217,-0.107286,-0.687865,0.713148,0.3970097516931593,0.2023077021956443,-0.2054109289079904,2.3904395311437545,-3.603420798051357,8.801791989699005,0.0574174858629703,-0.1503700762987136,-0.0555053390562534,-0.7867747867738882,0.0785876608872547,0.2122674788304154,-0.5742402714646103,0.2537907063961029,-0.2001015394926071,0.1088123321533203,0.0258249640464782,-0.0311798453330993,-0.0052505433559417,0.0574744418263435,-0.0720936805009841,-0.0917581275119911,-0.022487536072731,0.0686190613237675,0.0777197109531611
183,-0.009243,-0.154792,0.575991,-0.085462,-0.106599,-0.684331,0.716257,0.2991495353132486,0.1640095357224345,-0.6430144106656313,2.466901570186019,-3.606123335008323,8.779559115102886,-0.1315906941890716,-0.1100315600633621,-0.0893311649560928,-0.7869437402866792,0.0766283520324963,0.2156273581898168,-0.5730205808276304,0.4369112551212311,-0.2789733707904815,0.1246429607272148,0.0331698060035705,0.0201631188392639,-0.0552208721637725,0.0497707463800907,-0.0868021845817565,0.0408465768809663,-0.0545646287500858,0.1530744372074957,0.0110209752836613
184,-0.008985,-0.158811,0.577681,-0.081179,-0.102223,-0.684163,0.717553,-0.0243815770626068,0.0964773837193846,-0.2795511008739471,2.534552380132675,-3.654111413107812,8.740360492658615,-0.1717977523803711,-0.1048193052411079,-0.1023536548018455,-0.7873421663934504,0.0771285374277267,0.2200382297180598,-0.570724803755209,0.4787801504135132,-0.4656677842140198,0.1540710180997848,0.0530877113342285,0.0244693160057067,-0.0813076496124267,0.057229109108448,-0.0691592469811439,0.0105374854909896,-0.0430396571755409,0.1256568991156295,0.0714289311127271
185,-0.006475,-0.167414,0.584795,-0.054244,-0.082453,-0.690783,0.716295,-0.3005494652390479,0.1533899420306086,-0.4915624509602785,2.5883587891221045,-3.706086222755909,8.702626682069898,-0.2296586632728576,-0.1062399968504905,-0.0471416898071765,-0.7875728416566756,0.0781644957738576,0.224008583913143,-0.5687173585402936,0.5039680600166321,-0.3465910851955414,0.2462307661771774,0.011633813381195,-0.0134922862052917,0.0658033788204193,0.0553270503878593,-0.0581663288176059,0.0186172916145762,-0.0351366065442562,0.1568948083464056,0.0486677994253812
186,-0.004904,-0.171939,0.589506,-0.035579,-0.071842,-0.695463,0.714076,-0.3752943250998854,0.0808174577727913,-0.7298977443486452,2.6535265500813723,-3.809187993051112,8.63824451853037,-0.3614079058170318,-0.2408559322357177,0.0013640308752655,-0.7865299172396125,0.0808227407795149,0.2303037021436804,-0.5672728045692048,0.4471769332885742,-0.4031491875648498,0.2632273435592651,0.0237513780593872,0.0053703188896179,-0.0095206499099731,0.0394242890179157,-0.0450753346085548,0.0256780055147362,-0.0412445105612278,0.1191138889466412,0.0396175008768914
187,-0.003343,-0.17633,0.593349,-0.021953,-0.060105,-0.700163,0.71111,-0.4245800417944789,0.3079480510577559,-0.6778115832805633,2.724510011582076,-3.9441418224200606,8.555183958005905,-0.4171378314495086,-0.1579424291849136,0.0864062383770942,-0.784483763753622,0.0844701351922066,0.2380583908798056,-0.5663728975504143,0.3392262458801269,-0.3805747628211975,0.3083177208900451,0.0142034888267517,0.006170630455017,0.0347164869308471,0.0354123450815677,-0.0202932748943567,-0.0247785587572492,-0.0395143330097198,0.0627915059477556,0.0934984318406786
188,-0.001282,-0.179754,0.594067,-0.015475,-0.052821,-0.702921,0.709135,-0.091914898109436,0.2722445772528648,-0.4078063093870878,2.7026421709060666,-4.125412581805884,8.47626590411365,-0.5206290483474731,0.1103903949260711,0.2614708840847015,-0.7814481422819246,0.0925100056686694,0.243459691529903,-0.567016790493527,0.1963759064674377,-0.288417249917984,0.3461121022701263,-0.0067178606986999,-0.0155056715011596,0.0565015077590942,0.0423319786787033,-0.021721551194787,0.0103536111158435,-0.053721684962511,0.0939019894065801,0.072106620311737
189,-0.000713,-0.18309,0.595002,-0.011984,-0.049514,-0.703597,0.708771,0.3669833006113767,0.3708317927330732,-0.0541957005679607,2.6393857965260743,-4.313633014199137,8.402177754595876,-0.4404444098472595,-0.0310426745563745,0.1017208471894264,-0.7785009519412057,0.1021309070828814,0.2473406952479012,-0.5677394383222746,0.1330858767032623,-0.3231144845485687,0.3625409603118896,-0.0050396919250488,-0.0066103935241699,-0.013848066329956,0.0649204701185226,-0.0319950655102729,0.0085554014458146,-0.0658523961901664,0.0686263815471203,0.1052803929759189
190,-0.000572,-0.189386,0.594193,-0.014808,-0.05226,-0.701904,0.710197,0.0770090054005384,0.1575081910043954,0.1729635342895984,2.697421805909276,-4.427117939081787,8.324357432812452,-0.2536050975322723,-0.2559127509593963,-0.1071984991431236,-0.777349670284766,0.1056292902174277,0.2538077015520795,-0.5658193282112696,0.1550963670015335,-0.3002197742462158,0.3535182178020477,-0.0108358263969421,0.0155089497566223,-0.0130184590816497,0.0814604684710502,-0.032468594610691,-0.0165709798018389,-0.0824512094259262,0.04477721716105,0.0636298199354205
191,-0.000639,-0.192674,0.593778,-0.016836,-0.055013,-0.700658,0.711174,-0.0782651429414749,0.0232902746945619,0.0229980137497186,2.7861072205781934,-4.496856076696515,8.257498065504432,-0.307898610830307,-0.1370808184146881,-0.0252253673970699,-0.7764648780745951,0.1063007858874378,0.2601632254520111,-0.564019080878884,0.1812582015991211,-0.162409022450447,0.3388104438781738,-0.0317417979240417,0.0005338191986083,0.0450659394264221,0.0793823599815368,-0.0194733161479234,-0.0476673125793691,-0.0904083102941513,-0.0025315066511946,0.0037814359303418
192,-0.000686,-0.195839,0.593711,-0.018329,-0.057293,-0.69967,0.71193,0.0463148841902613,-0.122297761413455,0.2011591166824102,2.821340446522832,-4.623907754638791,8.17495539137423,-0.4080511331558227,-0.1144995465874672,-0.0277951378375291,-0.7753506027829778,0.1112288530180376,0.2661229141040809,-0.5618167905920382,0.1178435385227203,-0.0702383443713188,0.3173584640026092,-0.0408488512039184,0.0051523447036743,0.0292792618274688,0.0791224092245101,-0.0137780392542481,0.006932939926692,-0.0843949243426323,0.0114712809010059,-0.0019428109098895
193,-0.000922,-0.19902,0.591782,-0.018608,-0.057563,-0.69973,0.711842,0.0221069101288914,-0.2446805707618594,0.5532043758809566,2.869041524374485,-4.734510694344341,8.094652020603418,-0.3154311776161194,-0.0897601768374443,-0.0313986949622631,-0.7743842231815549,0.1151367840147846,0.2720865958845979,-0.55950115180922,0.025643303990364,0.0001189649337902,0.3124516308307647,-0.0321963429450988,-0.0146963596343994,-0.0045937895774841,0.0784591063857078,-0.0249459762126207,-0.0758665391008369,-0.0516435541212558,-0.0221707074965466,0.0232304456825484
194,-0.000586,-0.202572,0.591496,-0.016839,-0.054861,-0.700811,0.711035,-0.1270055007129907,-0.2406365560680627,0.5775257471889257,2.888717115703225,-4.822052491936088,8.035764362826942,-0.2115975618362426,-0.0574399717152118,0.0622954405844211,-0.7731864526285238,0.1185419054796593,0.2761120509086133,-0.5584734965133393,0.0440689139068126,-0.0136281121522188,0.2725527286529541,-0.0249373018741607,-0.0138218998908996,0.0060702860355377,0.0839836373925209,0.0044837431050837,-0.0536372584010241,-0.0304313134402036,-0.0259910763521678,-0.0144163818841043
195,-0.000152,-0.208803,0.590357,-0.01439,-0.05207,-0.7025,0.709631,-0.2708870251640677,-0.2691884045526385,0.0248152923047542,2.8804171971306203,-4.892261461932957,7.996209182029962,-0.1852475255727768,-0.0661318302154541,0.1360067129135131,-0.7713766674631268,0.1215048001187913,0.2784661210568685,-0.559170153421474,-0.0123605355620384,-0.0623212940990924,0.2557156980037689,-0.0036014318466186,-0.0379653573036193,-0.0083090662956237,0.0634259656071662,0.0290836784988641,-0.0524903944874182,-0.0203627496957778,-0.0062244537306192,-0.0352346986658056
196,-0.00085,-0.209531,0.588535,-0.016462,-0.054577,-0.701148,0.710734,0.0881985079348087,-0.0846124661415815,-0.162317052590847,2.8943782102048394,-4.977926944258809,7.938085494363308,-0.272133320569992,-0.1247366219758987,0.0412882752716541,-0.7690688310766325,0.1244531942970389,0.2824565313529345,-0.5596987617633762,0.0647880434989929,-0.15143983066082,0.1852012425661087,-0.0027019679546356,0.0130835771560668,-0.0204727351665496,0.026806641370058,0.070743940770626,-0.103966049841186,-0.0074809589423239,-0.1315656573685351,0.032357063153549
197,-0.001343,-0.21042,0.587682,-0.01848,-0.05626,-0.699941,0.711742,-0.0369388608187437,0.1599058997958898,0.1311930155307054,2.935868158456683,-5.062781986984611,7.868882194277644,-0.2498673498630523,-0.1325521171092987,0.0176910869777202,-0.7674156455233686,0.1269919035436643,0.287526911147714,-0.5588154256292409,0.0470157042145729,-0.1537956595420837,0.2075043618679046,0.0077321827411651,-0.0374313592910766,0.0116324424743652,0.0078633595257997,0.0630009546875953,0.0442267117053968,-0.0022352142259478,-0.0567683640675619,0.0586735127022955
198,-0.002879,-0.209932,0.584619,-0.019468,-0.0573,-0.698038,0.713499,0.2464391048669814,0.1065969189345836,0.2475643095046281,2.965831335043907,-5.1405555470168585,7.8069789880722755,-0.2181836366653442,-0.1010754778981208,0.0110263442620635,-0.7658322077241222,0.1295238177149927,0.2918534430137069,-0.5581633308458294,-0.096303105354309,-0.0686445981264114,0.2333590537309646,0.0068536698818206,-0.0401543974876403,0.0515010356903076,-0.0124376667663455,0.0249160081148147,0.0168346505480818,-0.0241356417536735,-0.0796472084170207,0.0618744824343826
199,-0.003924,-0.210134,0.582877,-0.021022,-0.057851,-0.696272,0.715134,0.3473004027590155,0.2516238140285015,0.2310802076935768,3.0159540870845314,-5.180536844271421,7.761213846719264,-0.0778590142726898,-0.1688964962959289,-0.1122901439666748,-0.7652840060236752,0.1300800650667995,0.295579770693499,-0.556823230356672,-0.153822585940361,-0.0535420253872871,0.2349285930395126,-0.0051977634429931,-0.0155105590820312,0.0213774442672729,-0.0087346155196428,0.0046561225317418,0.0083154238148796,-0.0428494848310947,-0.0441356450216146,0.0995282683231402
200,-0.006407,-0.20929,0.579432,-0.025313,-0.062481,-0.691426,0.719295,-0.000999532431364,0.0920072525680065,-0.126162035626173,3.0950562653720377,-5.174298826664686,7.734186723583936,-0.1015093103051185,-0.121538445353508,-0.137451484799385,-0.7659569294112026,0.1280780813276292,0.2987678340261703,-0.554656496119175,-0.1218369603157043,-0.0691846907138824,0.205409973859787,-0.0008551776409149,0.0010626912117004,-0.0042624473571777,0.0013535431353375,-0.0028806417249143,-0.0027612014917773,-0.037178412079811,-0.0132873264801804,0.0533143968219403
201,-0.007384,-0.209044,0.577823,-0.027585,-0.064891,-0.689754,0.720603,-0.5289645453765988,-0.2642693605899811,-0.0405687417536973,3.1524107222318647,-5.189422746038437,7.700816953423619,-0.1799808591604232,-0.0182959996163845,0.031196966767311,-0.7659408108763384,0.1274346030838801,0.3018741951157478,-0.5531428719160286,-0.1309127509593963,-0.0743944719433784,0.1881536245346069,-0.0044336318969726,-0.005388855934143,0.0031673312187194,-0.0010122389066964,-0.0112353628501296,-0.0702362872620578,-0.042055282741785,-0.021717408487806,0.045998539116932
202,-0.00768,-0.209516,0.577442,-0.028344,-0.065204,-0.689144,0.721128,0.0554264114066958,-0.2238672075748443,0.1889578067570924,3.085167031781375,-5.291475007280707,7.658486462694406,-0.3473910689353943,0.2047417312860489,0.2567207813262939,-0.7641154954194799,0.1336944361833606,0.3027402423686257,-0.5537161241571642,-0.170051634311676,-0.0786096155643463,0.2045357972383499,0.0091822743415832,-0.0140819549560546,0.0147467851638793,-0.0014310887781903,-0.0015707480488345,0.0330503654802218,-0.0271207671612501,0.0638356995047535,0.0227820283449022
203,-0.007082,-0.208694,0.577067,-0.028018,-0.064347,-0.689252,0.721114,0.5598363612413406,-0.0307861834079027,0.3672451664179563,3.0057284611463544,-5.40031064505279,7.613975705316662,-0.2017253041267395,0.0701077803969383,0.0906234681606292,-0.7620480902301565,0.1405559737859673,0.3033797854101241,-0.5545155808107692,-0.0638516917824745,-0.1517763435840606,0.1425099670886993,0.005885362625122,0.0381942987442016,-0.0472456216812133,0.0070670861750841,-0.0067089246585965,-0.0816526116889901,-0.0396493338048458,-0.0138753646343597,0.004354937527448
204,-0.006664,-0.20865,0.576695,-0.027748,-0.064872,-0.689517,0.720825,0.0762166859790682,-0.0097463179886341,0.2376747836530208,2.988062163813412,-5.440953036564588,7.591963195472955,-0.0509305521845817,-0.0165651589632034,0.0021253270097076,-0.7615049767160359,0.142952758133333,0.3041087178855271,-0.5542497133498274,-0.1046390682458877,-0.176726222038269,0.130516692996025,0.006777137517929,0.0144518017768859,-0.0178481638431549,0.0102836657315492,0.0121226822957396,-0.0270523648911505,-0.0351428352296352,0.0001274223470187,-0.0013693087419611
205,-0.005847,-0.20899,0.573828,-0.031543,-0.070025,-0.689478,0.720223,-0.1468500188678503,-0.1554243704676628,-0.1063917517513036,3.0183956350177525,-5.444164399826526,7.577647669872641,-0.028925385326147,-0.1308584511280059,-0.0285622775554656,-0.7612254206560288,0.1422042223294744,0.3056557693351721,-0.55397506157891,-0.0817611813545227,-0.1594966799020767,0.1848767399787902,0.0242560803890228,-0.0207340121269226,0.0141247510910034,0.0146957822144031,0.008275993168354,-0.034452775057475,-0.0205246414989233,0.0149020624922181,0.0122512671389325
206,-0.005506,-0.209047,0.57274,-0.032584,-0.071957,-0.689518,0.719948,-0.0061155602708458,-0.2847533456921577,0.2170727251291274,3.085358170439303,-5.427961453044414,7.562287019133567,0.0454203970730304,-0.1325198709964752,-0.0677587389945983,-0.761090919896244,0.1395348793019926,0.3081569246698074,-0.5534526865047713,-0.1705853193998336,-0.0698562264442443,0.2436255365610122,0.0087391734123229,-0.0119474530220031,0.0493560433387756,0.0194966252893209,0.0240533575415611,-0.0072445871336618,-0.0060789324343204,0.0060259999867383,0.0097279877474997
207,-0.005223,-0.209285,0.572393,-0.032747,-0.072941,-0.690092,0.719292,0.1428770235836506,-0.1045300495326519,-0.1173351705700159,3.1111423077762126,-5.414104777127504,7.561656320014595,0.0367327220737934,-0.0620189234614372,-0.0256114937365055,-0.7610411905557924,0.1380885505532015,0.3088597970969828,-0.5534920954836172,-0.1244929283857345,-0.0238200295716524,0.2952123880386352,0.0123834013938903,-0.0078520774841308,0.0240676552057266,-0.0039108889177441,0.0230561159551143,-0.0007791173038967,0.0046379249542951,0.0437432025047717,0.0194629395253257
208,-0.005474,-0.209285,0.572278,-0.032851,-0.073296,-0.690541,0.71882,0.0268102655142545,0.0370329688429832,-0.2104442469000816,3.121116004779935,-5.412913521516323,7.5583987795233725,0.0065662078559398,-0.033971294760704,-0.039795659482479,-0.7610655972320841,0.1377849203932217,0.3092640211063814,-0.5533085394384764,-0.0853186324238777,-0.0516479834914207,0.3721684217453003,0.0209945440292358,-0.0245787501335144,-0.0077117085456848,-0.0226259957998991,0.0104117225855588,-0.0313518750162445,0.0056545133702456,0.0511956602354534,-0.0456334092987002
209,-0.005813,-0.209388,0.572106,-0.03358,-0.073199,-0.690687,0.718656,-0.0402805724620819,0.0401011242419481,-0.2089519625157117,3.126556150007248,-5.4301972492724655,7.543738386008143,-0.0797054767608642,0.0167964808642864,-0.0167088955640792,-0.760993050020784,0.1385670898307778,0.3101218021846484,-0.5527325291245322,0.0486482195556163,-0.1415639221668243,0.3564993143081665,0.0061665475368499,0.0090246200561523,-0.0201048702001571,-0.0329798310995101,0.0229881107807159,-0.104117514075851,-0.0022636046633124,0.0653185493404977,-0.0802876343455631
210,-0.006392,-0.209973,0.56994,-0.035649,-0.074235,-0.690683,0.718454,0.0006873977422714,0.099427173435688,0.005039163210988,3.137961048857868,-5.4458285336464645,7.527717810055613,-0.0281296335160732,-0.0037244029808789,-0.036721371114254,-0.7612156264138387,0.1392771199387048,0.311119107049899,-0.551686018677013,0.2946806252002716,-0.2580457925796509,0.3473207950592041,0.004239022731781,0.018483817577362,-0.0466210842132568,-0.033045046031475,-0.0039189583621919,-0.1603321075850166,-0.0116729559376835,0.0577950585004873,-0.0420673097483813
211,-0.006676,-0.210154,0.56915,-0.037363,-0.072655,-0.690992,0.71823,0.0113271574392914,-0.0083925652921199,-0.1426034673392772,3.1542563500985503,-5.450536857467889,7.517492768639325,-0.0529395528137683,-0.0271413754671812,-0.0637116208672523,-0.7615039256134621,0.1392965238224232,0.3119471162773178,-0.5508151698908123,0.864935576915741,-0.4322094321250915,0.4035559594631195,0.0068466067314147,0.0616419911384582,-0.0253444910049438,-0.0111883580684661,0.0278334617614746,-0.088976999760326,-0.0211354456841945,0.0587755391715094,-0.1120990600148215
212,-0.006638,-0.210116,0.569573,-0.036999,-0.070613,-0.691887,0.717591,0.0305143807291984,-0.1858329527348279,0.0508177485674619,3.167390264698863,-5.466726944768428,7.50019442783594,-0.121964156627655,0.0576689578592777,-0.0710325390100479,-0.7622126894216341,0.1402805106113031,0.3129183516154461,-0.5490311661774591,1.6882215738296509,-0.5649717450141907,0.296077013015747,0.0338355600833892,0.0362248420715332,-0.03799968957901,-0.0190655663609504,0.019855136051774,-0.1189463868926279,-0.0177259016782045,0.0543642803342081,-0.0562613872263813
213,-0.006374,-0.211212,0.56799,-0.036033,-0.069659,-0.693546,0.716131,-0.0766816731423139,-0.0314490312308073,0.2072702930390834,3.1521833432167767,-5.485240506580472,7.493080796438455,-0.043240588158369,0.0868751481175422,-0.0130780432373285,-0.7628924698503203,0.142084490820765,0.3126838541592188,-0.5477552975049049,1.3974357843399048,-0.5886836647987366,0.255077987909317,-0.0141971409320831,0.0404930710792541,0.0268345773220062,-0.0080613931640982,0.0497023276984691,-0.175528726868797,-0.0030158450827002,-0.0166690367737668,-0.0166856819478911
214,-0.005773,-0.21191,0.56675,-0.034374,-0.073422,-0.695215,0.714216,-0.1274611355260014,-0.0236497556567192,0.0442857164502143,3.141312405112385,-5.491842681324481,7.49281074732542,-0.0135385319590568,0.0381965525448322,-0.0175522975623607,-0.763379986230657,0.1430024895342488,0.3122871455530542,-0.5470631966326663,0.3676594793796539,-0.4585922956466675,0.2137876152992248,-0.0393376350402832,-0.0283407568931579,0.0772015154361724,0.0076653072610497,0.0386136993765831,-0.1278614142894279,-0.0127680879086256,-0.0141375261268171,-0.0204671207323437
215,-0.005368,-0.212455,0.565469,-0.035355,-0.07765,-0.696043,0.712913,-0.0220019884496927,-0.0732376701682806,-0.0633276860505342,3.1272815416723487,-5.50001488186419,7.492685075119137,-0.0568014904856681,0.0374554172158241,-0.0038389037363231,-0.763576011897659,0.1439207421105155,0.3118752826078065,-0.5467835953864338,0.0361859574913978,-0.1690835356712341,0.1337902545928955,-0.033141016960144,0.0006570219993591,0.0797690749168396,0.0149198928847908,0.0312137268483638,-0.0803779795101378,-0.020036419853568,-0.0433609343220712,-0.0235708657512092
