time_imu,phone_acc_x,phone_acc_y,phone_acc_z,phone_gravity_x,phone_gravity_y,phone_gravity_z,phone_gyro_x,phone_gyro_y,phone_gyro_z,phone_ori_w,phone_ori_x,phone_ori_y,phone_ori_z,watch_gyro_x,watch_gyro_y,watch_gyro_z,watch_acc_x,watch_acc_y,watch_acc_z,headphone_gyro_x,headphone_gyro_y,headphone_gyro_z,headphone_acc_x,headphone_acc_y,headphone_acc_z,frame_imu
1719919217053431800,-2.1056603203579782,19.187920039999483,-5.592713623827695,-0.0754575199085287,9.712489368790388,-1.3536134341739117,-1.292520523071289,-0.4064484238624573,0.6531150937080383,0.0998749471811108,0.1205477941665545,-0.7446363598452264,-0.6488528511764556,0.2159371078014373,0.2423011511564254,-1.022269606590271,14.944093552476168,-13.655128093171118,3.594782149043679,0.0156652051955461,0.2993420660495758,15.920636737918851,-0.2098776251077652,2.049165987458825,0.4613511082982644,0
1719919217093196000,-0.3211480531642213,18.82196023721695,-2.8512556923151013,0.1610358536738902,9.76809961233139,-0.8536216661076992,-1.16422438621521,-0.0819210633635521,0.4985718727111816,0.1075035838151996,0.1052929879985546,-0.7296821077578663,-0.6670235043352396,0.5289781093597412,0.6912984848022461,-1.7671527862548828,13.764263006150722,-12.482612253773212,2.074092777314037,-0.0520738773047924,-0.0364638268947601,11.300503241121769,0.0024685142561793,1.5156258047297595,0.4623973294155672,1
1719919217132960300,-0.5039296189717948,6.752202223870158,-4.668765718019008,0.3448649192404002,9.792328629180789,-0.4021540923116728,-1.3073946237564087,0.4728168547153473,0.4963485300540924,0.1183270521889107,0.0981877286916014,-0.7147470336378436,-0.6822715306934775,0.2831073403358459,1.4104467630386353,-2.4833595752716064,6.232043208500743,-6.098941144478321,1.005795875672996,-0.3944679200649261,-1.1512356996536257,-1.540250104507059,-0.4098685383796692,0.2264323818877339,0.0420322293018456,2
1719919217172723700,-0.0318196546414867,-10.329240626430511,-4.0862715347677465,0.5167950553616508,9.786205177864431,0.3653829527426511,-2.7477712631225586,0.926345944404602,0.3478144407272339,0.1389890340184303,0.0978169808335986,-0.6868788050901227,-0.7066197149654421,1.0245004892349243,3.158968925476074,-2.95358943939209,-3.8172003268539902,1.3355261349499226,0.1771069177046418,-0.5970396995544434,-0.4805989265441894,-11.604451116627454,0.1946499496698379,-3.0544810938775537,1.78239516544193,3
1719919217212488000,0.4937083769477903,-18.956620052075387,1.941187843298912,0.5972993920646608,9.648712185406684,1.6480198666132986,-3.2775557041168213,0.0382036119699478,0.086226537823677,0.1568777686081749,0.0931431514807349,-0.6381995959466422,-0.7479405027447273,1.4734114408493042,3.3289241790771484,-2.720764398574829,-10.518199017709494,7.471548179066181,-4.95448177126348,-0.2911356389522552,0.2810809910297394,-5.746219593453407,0.5154311060905457,-0.833786646433547,1.0548830741208046,4
1719919217252252400,1.1632703836034983,-18.15230273429752,6.964279624930024,0.516262080996111,9.488584751814605,2.4229361717313527,-0.474130779504776,-0.3447798490524292,-0.5934445261955261,0.1515773315807072,0.0848902773394639,-0.6076662556210216,-0.7749578831248815,0.0442883782088756,0.7492399215698242,-0.4882541298866272,-16.91463140890002,8.380570318421722,-11.15251165100336,-0.1114735230803489,-0.2724491357803345,-9.83643139027953,0.7093284726142883,-1.7208331738896667,0.1987858116798102,5
1719919217292015600,-0.2512140641838312,-16.279796213036775,1.529351840004325,0.2958060883705504,9.574834463769196,2.098910846097767,1.7092952728271484,0.0123986294493079,-0.6382421255111694,0.140128394739787,0.0936535895678141,-0.6198502530085239,-0.7664063678657248,-0.2997496724128723,-0.3360633254051208,0.5734186172485352,-14.742172803771496,7.148708556085825,-9.554173953056337,0.1785805523395538,-0.0765330046415329,-9.761903680300712,0.0992353931069374,-1.8656153004422784,-1.2870669322073458,6
1719919217331779800,-0.6739404409356415,-13.355993170905112,-5.619068546789884,0.074342622035765,9.697652449664472,1.4561504101932048,1.366018295288086,-0.2934005558490753,-0.4667139947414398,0.1248324324542458,0.1025513555523044,-0.6443913467757225,-0.747435468077674,-0.6392478346824646,-0.8756988048553467,1.1756315231323242,-11.501233903259038,4.496787687635422,-7.448818460863828,0.1965100616216659,0.0497044660151004,-9.672491704922914,-0.3157989680767059,-2.179275883927941,-1.073323205370456,7
1719919217451071700,0.3797121050095185,1.621378381794691,1.1267740789204834,0.1711038778975606,9.746889651042222,1.067362543400377,-0.3278103470802307,-0.0333482585847377,0.3651748597621918,0.1250280626182608,0.1005186070989477,-0.6599058015120282,-0.7340220522605323,-0.4291225969791412,-0.6999877691268921,0.3513711094856262,-0.4772516015350818,1.4731781173616647,-0.2648381003886461,0.2619034349918365,-0.5085545778274536,7.604974068215489,-0.6520599126815796,3.372099767339229,-0.3001991539640352,8
1719919217530600200,0.3369483374295756,8.208681719887256,3.551849600768089,0.405104539615102,9.79137527397871,0.3677580843761563,1.4003485441207886,-0.0882743373513221,0.368807852268219,0.1231464111775893,0.0902554049242909,-0.6878252086568526,-0.7096375394734822,-1.4038838148117063,-0.8754810690879822,1.5114688873291016,5.083385214552283,-3.824536661091447,2.4723908152520657,-0.2271149009466171,-1.5597082376480105,20.359521687161923,0.4910905957221985,4.3598529135823245,0.7235219257064164,9
1719919217570363600,1.909448596949876,8.043366654524206,1.881261490124464,0.4287886359328404,9.78909622313082,-0.4001492918279021,2.571512222290039,-0.2738995552062988,-0.2839264571666717,0.1154728995410498,0.089043027422992,-0.7158723881331196,-0.6828353222279296,0.4306781589984894,-0.2831605970859527,1.3955624103546145,10.425857418620586,-8.668121185877919,5.418955724290013,0.08299520611763,0.1491222232580185,3.761649412284792,0.4332852065563202,-0.0383503076524008,-0.7763703763838857,10
1719919217610127600,-0.271193862623535,5.017566880729794,-6.229291863965988,0.3736955846663564,9.73924468924701,-1.0852943598017095,0.4223577678203583,0.0439393073320388,0.036180306226015,0.1106287091567447,0.0953637158383164,-0.7390807620772467,-0.6575916075502971,0.1547581702470779,0.2280726730823516,0.8805651068687439,3.920190745729208,-0.7158505142956971,2.818713312889636,-0.115324005484581,-0.676973819732666,0.9149940533719956,-0.0514777973294258,0.408749398923479,-0.222319320545718,11
1719919217649892000,0.8878190461985767,2.0842712031096218,-1.1670448606409132,0.3435486855426803,9.754608262595534,-0.9486812189184128,-0.595908522605896,0.1625276356935501,-0.1993306577205658,0.1103720799276381,0.095833998717008,-0.734292262983257,-0.6629093704304879,0.050137210637331,0.7181814908981323,0.321218192577362,2.148480348169804,-0.3429921841710805,0.3727934481948614,0.056361760944128,-0.3246565163135528,-2.014790255126357,0.256632000207901,-0.2513731089367531,0.5314337119691074,12
1719919217689674200,0.5718280470039695,-1.4134902491182089,1.4332196164608,0.2972670460348948,9.77060078149736,-0.785737631927058,-0.2496961951255798,0.4654534757137298,-0.0354799292981624,0.1146359064785546,0.1021359790963662,-0.7277566301352506,-0.668428897432854,0.0338919311761856,0.2934948801994324,-0.0416273325681686,-0.796646637019515,1.4201952997148035,0.0608595423713326,-0.0490843467414379,-0.422808825969696,-4.0210613959714765,0.5956091284751892,-0.5641562702670693,0.3530140311654657,13
1719919217729439000,0.6793255680400878,-2.774640654668212,0.3427191393833607,0.3307281477404758,9.774539289990066,-0.7207046032633632,-0.1195820942521095,0.3179183602333069,0.0761983543634414,0.1212579905247017,0.1060692060313491,-0.7249103617949112,-0.6697394453230593,0.1611207276582718,0.1253924220800399,-0.2504662275314331,-1.9421283390194173,2.65925720268786,-1.0684726965993645,-0.0648024901747703,-0.147122636437416,-3.085257340413332,0.8083342909812927,-0.5203949795497581,0.2214364732965827,14
1719919217769204000,1.0257509415302426,-0.2197895828723907,0.0733318512577563,0.3389440047588199,9.779536952146888,-0.645097208289057,-0.2529554069042206,-0.1636088341474533,-0.1071052104234695,0.1234341412365041,0.1068907824859451,-0.7221254493428417,-0.6722151238064954,-0.334657609462738,-0.5735252499580383,0.0033828860614448,-2.44670166272223,1.5289736543416976,-0.1425762870714068,0.0646557956933975,0.4404045045375824,1.5824312498934563,0.8442736268043518,-0.1463375758336857,0.2037493523713201,15
1719919217808968000,0.8950752278719097,11.189055959546565,-1.2277063962221144,0.2234657141018659,9.774574361303449,-0.7603783689387142,1.0843600034713743,-0.751985490322113,-0.2737778425216675,0.1132301544917732,0.1058044589346169,-0.7263428411233616,-0.6696346461573313,-0.5339558124542236,-0.4419555366039276,0.0230410080403089,5.385467880707979,-6.833498112809657,1.099559031997621,0.1188075914978981,0.3229559957981109,10.602524483603238,-0.077438399195671,1.6297339760772882,-0.7409017342481762,16
1719919217848733000,-1.2524503768563269,15.158836373353004,-6.46347705193758,0.206782874848321,9.71961118349433,-1.287151541750878,1.05391263961792,-0.4933739006519317,0.3302376270294189,0.0997070165663974,0.097939780758167,-0.7456770497204864,-0.6514844239029337,-1.590870976448059,-0.2598890364170074,0.0839443728327751,8.610297942462562,-10.493993966257571,0.6642680649660527,0.083848088979721,0.7026954889297485,18.239384805423025,-0.1892946660518646,2.3189375987268983,2.633867909887433,17
1719919217888498000,0.0866638457134366,15.061727413731813,-5.019240366899967,0.3103245709307491,9.691775082063677,-1.4641088218517602,0.0447168834507465,-0.6526004076004028,0.1898545622825622,0.0950711510905785,0.0864460046565433,-0.7531107932189947,-0.6452231063739401,0.0537388697266578,-0.2976817786693573,-0.2014133483171463,11.649336552536488,-15.442614736533164,4.821380291762948,-0.0609355606138706,-0.3216069042682647,12.700621382969617,-0.8329244256019592,1.919936819346994,0.4344037358682602,18
1719919217928261600,-0.8157841759487986,5.276310755896568,-4.612581473982334,0.3258705881740897,9.700168816399572,-1.4038973681256175,-0.645942747592926,0.1708223819732666,0.0912738442420959,0.0916640199810954,0.0806834841215219,-0.7517107313258803,-0.6480886660726232,-0.1214859336614608,0.9674991965293884,-0.9103330373764038,5.9988528767853975,-3.6915707906693216,1.1116931219056247,-0.1441490054130554,-1.3305214643478394,-4.703715743108093,-1.1573262214660645,-0.3730392761820927,0.4616251759992912,19
1719919217968018700,-0.3451225107306614,-7.874789372494816,-3.333856838184595,0.423682143106684,9.772493463376165,-0.6994752066213638,-3.0884737968444824,0.8836857080459595,0.2674660682678222,0.1064957598955046,0.0829642579457965,-0.7271727746539992,-0.6730493458611345,1.0327844619750977,2.386512994766236,-2.232304334640503,-1.5836638604283333,3.515398231205344,1.8592007572248577,-0.2156779915094375,-0.0903787687420845,-11.699542306685448,-0.374127060174942,-3.097181879223883,1.379767573866993,20
1719919218007783700,0.1757807471347972,-13.130709082269668,2.350509233424068,0.5357461318081245,9.751442492040992,0.8903420618701726,-4.4499921798706055,0.0853900834918022,0.1745911836624145,0.1242540736444336,0.0768107424834786,-0.6698546854692056,-0.7279805041557196,2.43019962310791,1.724366545677185,-2.192985773086548,-7.890063513994217,6.711254127410053,-2.198679672577977,-0.0576230883598327,-0.3923261761665344,-6.579763590237498,0.2847104966640472,-0.6120113331040367,0.6644416679672897,21
1719919218047548700,-0.2022305453062057,-13.384020995515584,6.856788972026109,0.541608594100736,9.54970703677535,2.1633654903516173,-1.6089059114456177,-0.0594076812267303,-0.0840493068099021,0.1283949255784224,0.0675666039277577,-0.620591498665227,-0.7705943983751428,1.3073992729187012,0.5211535692214966,-1.4316644668579102,-8.442706748861074,7.348997319674491,-6.723810242122411,0.0001963904360309,-0.238360971212387,-10.582703346323964,0.4160707592964172,-2.9025042335152627,-1.5105841573007404,22
1719919218087312600,-1.1183085945226252,-13.48153210619688,2.7550825522392985,0.5399591098606586,9.54756067239642,2.173231927588582,1.0483438968658447,0.4547016620635986,0.1946189105510711,0.1315148657423294,0.0700895324038716,-0.619906013529578,-0.7703946730563733,0.199527233839035,0.69710373878479,-0.7020813226699829,-9.513010168018935,7.3306678822577,-8.023046335551141,-0.0977929681539535,0.3953227996826172,-9.918969388234617,-0.0728726908564567,-2.856747275468707,-1.893152711187303,23
1719919218127077600,-0.318560119030252,-13.629395101499556,-3.477221353024244,0.5980831263208761,9.629880643686652,1.75444405932948,0.8111942410469055,0.0968229994177818,0.1503795683383941,0.1377271319546836,0.0756469730835805,-0.6362592083500741,-0.7553032358478294,-0.5603394508361816,0.0311888009309768,-0.2319187223911285,-11.503472622096538,5.186071682044863,-7.445100317123532,-0.1012233644723892,0.3935987949371338,-9.428212992960214,-0.2325176447629928,-2.1836625745795666,-1.0772476122725754,24
1719919218166842400,0.2695079553632065,-12.232233471369742,-4.704745962938666,0.5974922477556392,9.64784241683483,1.6530365257315336,-0.1035430133342742,-0.2720730900764465,-0.2360868155956268,0.1355287812443678,0.0748784425022956,-0.6403997281037117,-0.7522721662660253,0.1638973355293274,-0.405132532119751,0.1232761293649673,-11.488071639347076,3.8252363337934017,-5.677892491680384,-0.0572555363178253,0.1616045832633972,-9.469073995658755,-0.1434779614210128,-1.448400088327378,-0.4694900276228785,25
1719919218206606300,-0.0705928547479212,-8.20738817294538,-2.7852339448750016,0.4656361652063205,9.657824297145009,1.6370643189653753,0.1805393248796463,-0.4023496508598327,-0.394008070230484,0.1242294107877255,0.0741756703025888,-0.6411169332859094,-0.7536802935199949,-0.2595942616462707,-0.6735550165176392,0.3802266418933868,-10.101835892379285,2.663605168764293,-5.433754649493098,-0.3091881871223449,1.634349346160889,-6.792745831182598,0.0690661966800689,-2.5570044504374265,-0.5332020368158817,26
1719919218246371600,-0.2316293660089373,2.578712424376606,3.276615778571367,0.4017673580164089,9.686033908063171,1.4797646561451256,0.8670341968536377,-0.5111339688301086,-0.3119908273220062,0.1149924810997182,0.0719953752269244,-0.6475875711561357,-0.7498157629416312,-1.885442495346069,-2.59788465499878,1.8531525135040283,-5.381019084605574,0.0566579990282654,-2.0567051507920024,-0.1403714120388031,-0.5370221138000488,8.846343079087138,0.2449925541877746,1.8855043883912264,1.1585924549203366,27
1719919218286136300,-0.3092600104391574,10.474447554266453,2.52182441598475,0.2218716133108362,9.773615745404362,0.7730457620058209,2.444673538208008,-0.2200053483247757,-0.4391290843486786,0.0963893089695392,0.0737760564097402,-0.6746426671490026,-0.728095790656098,-0.5889236927032471,-0.5742226839065552,0.9780116081237792,18.72940470311641,-8.177473511675,1.144212412716448,-0.0958977118134498,1.909270167350769,16.67347053669691,0.1579300463199615,1.5638175887078043,2.6897037788778544,28
1719919218325900300,-0.3680227997269481,13.10668523260355,3.312134835720062,0.2334985391479916,9.80058675443828,-0.2536922543330118,2.9840164184570312,-0.1446459740400314,0.0866735056042671,0.0902005329696477,0.0756232982723142,-0.7121908606425116,-0.6920470864482073,-1.7667094469070437,-0.7663320899009705,2.33589768409729,11.819631159877776,-8.619089151683449,2.5053356379985807,-0.1821327209472656,-1.060352444648743,7.738557193753123,0.4343371987342834,1.155283914894238,0.0694154860981972,29
1719919218365665500,-0.0341232371424324,9.896215120112895,-6.77950231872797,0.1949837159831076,9.717981536465883,-1.3012271211154758,1.7308295965194702,0.1716298758983612,-0.0752047747373581,0.0861035964982258,0.0834119389300306,-0.7479214994007863,-0.6528721099632784,0.0766926631331443,-0.0457830540835857,1.5203009843826294,8.49264070033133,-8.497633101791143,6.855383781403303,-0.0747973695397377,-0.6865499019622803,4.795779986560344,-0.6515527963638306,1.5256323810897767,-0.8336257567834109,30
1719919218405430300,-0.4014079135868698,4.181404225879907,-5.36745057798028,0.2641902309391647,9.689403092235326,-1.4886441281713545,-0.3613247573375702,-0.0914449170231819,0.3168718814849853,0.087553037697346,0.0814918951211318,-0.7544924131424361,-0.6453175489780422,0.0845793485641479,1.2430312633514404,0.6237553358078003,5.547948014906049,-0.843387345406413,2.413627660638094,0.0240848753601312,-0.2348426878452301,-4.727421612866222,-0.3462015986442566,-1.4625656840629877,0.69461914489232,31
1719919218445194200,-0.1786588598543778,-0.8156050199896097,-1.0642869353473186,0.401169903579913,9.7226337461859,-1.2164889097023754,-1.0215271711349487,0.4241956770420074,0.3381500244140625,0.0954298000042242,0.0774269867023396,-0.745673343190053,-0.6548813053568303,0.3829625844955444,1.3495535850524902,-0.4631851613521576,0.4658645306020975,1.0179863719433546,0.0858504835039377,-0.0163133218884468,0.1652296185493469,-4.549466261638701,0.0737156271934509,-0.9289448373131454,0.8454290073018521,32
1719919218524724200,1.032946625187993,-4.614727838361263,1.9925825149714944,0.4881195439647883,9.784856685864924,-0.4344059643579647,-0.4683425426483154,-0.1221977695822715,-0.0737688764929771,0.1073139626952363,0.076472723525462,-0.7185405084884535,-0.6828873822347642,0.4725009799003601,0.4289684295654297,-0.6854084134101868,-3.6545027505129575,4.211507103198766,-3.2009716317832466,-0.1949644386768341,-0.2082122564315796,-3.895781111615896,0.9956859350204468,-0.4070499380618333,0.1698613670231774,33
1719919218564489200,0.6561570930942893,-5.1590328684717415,1.0466028100967406,0.4590920773250982,9.787622058925033,-0.4025624539168551,0.2641288340091705,-0.2812973856925964,-0.1382910460233688,0.1033053895538096,0.0740930628185456,-0.7176595234416655,-0.684691844298354,-0.7233251929283142,-0.0657412558794021,-0.3577395379543304,-4.458118057501316,4.282801238083839,-3.286850756859779,-0.1420280784368515,-0.214854896068573,-3.9761274447456,0.7130906581878662,-0.6121037971604615,-1.610836675644666,34
1719919218644018200,1.2241872821852564,9.47150502219796,-1.6420342163324355,0.30914928007368,9.787153272369505,-0.5351940508833155,-0.01293321326375,-0.6646078824996948,-0.3500749468803406,0.0881410769152589,0.0703073305219678,-0.722733824818773,-0.6818678766171914,-0.4114447832107544,-1.1703585386276243,0.1840890198945999,3.10590674521029,-6.28033231537342,1.7192589103102682,-0.0675015300512313,0.581749439239502,10.135829347395896,-0.4460508227348327,1.909711924061179,-0.4699387943036854,35
1719919218683783200,-1.173487607039511,17.85605768825412,-1.7207319054722785,0.1691199558050371,9.779465055954455,-0.7098321307890116,0.8514324426651001,-0.1318617612123489,-0.1114886328577995,0.0770398629910825,0.0702411792823161,-0.7288741615263697,-0.6766635710756889,-0.7059856057167053,-0.6478155851364136,0.4845441281795501,11.608265706479548,-12.927854267585277,3.614595687538385,-0.17549829185009,0.364704817533493,21.295259399485587,-0.4583039283752441,4.148532760630547,2.5789313278242942,36
1719919218723547000,-0.7445599644947797,20.89058086673021,-2.6171383088827134,0.1531921635693404,9.754751470458508,-0.9958611224401742,1.0220575332641602,0.0220311880111694,-0.1390809863805771,0.074738327436153,0.0711648235146041,-0.7387221102514289,-0.6660626153349969,-0.2413092851638794,0.0737179368734359,0.2781742215156555,16.993868027222156,-15.24013752298951,5.196903457182645,-0.1943278163671493,-0.6567876935005188,13.721439763468505,-0.1666290909051895,2.467931790016592,1.081439218743518,37
1719919218763284000,-1.705602140879631,11.899592585343122,-7.76666860499382,0.1082207846762146,9.73605904494822,-1.1695396000660956,-0.4607752561569214,0.6592453122138977,0.0466723218560218,0.0770347020721353,0.0785776971529099,-0.7439458779658539,-0.6591173622159917,0.3599512577056885,1.7033679485321045,-0.7854383587837219,8.954801700240374,-5.368646509766578,1.4425865797430275,-0.2526094317436218,-1.3499678373336792,-3.113005179038644,-0.3189187347888946,-0.6676504008807241,0.6219687000274657,38
1719919218803048000,-0.1802789718694984,-4.7962429278969765,-5.093757555484771,0.246867650743667,9.788753108781576,-0.5383018076403067,-2.770620107650757,1.2818223237991333,0.3491031229496002,0.0990961309004433,0.0865415012113909,-0.7210799698111343,-0.6802457403808821,2.1583218574523926,3.209836006164551,-2.3731417655944824,-0.3440945924550295,1.5958616632223128,1.537996918752789,-0.3631704449653625,0.0541320256888866,-12.544362315243482,-0.1887667030096054,-4.794860241366923,0.0957791905884631,39
1719919218842811000,1.6950938986077904,-14.68529882390499,0.025640052691102,0.3526968184424564,9.76431658666134,0.8391157325018197,-3.760306596755981,-0.4041415154933929,0.0747339129447937,0.1155839242917031,0.0819077349375358,-0.6711990228707401,-0.7276148413580308,2.3762075901031494,1.8945109844207764,-2.006819248199463,-10.570849242401122,6.749224084842204,-6.73009735956788,-0.193790853023529,-0.4530919194221496,-5.597212104290724,-0.2123529314994812,-0.7503914471272378,-0.1397282589628361,40
1719919218882574800,0.8478808574333786,-15.366367363154888,5.798522612142563,0.304029379776679,9.637043374922872,1.790348900925368,-0.7268556952476501,-0.1686194241046905,-0.3756072223186493,0.1093124280203201,0.0708838408153631,-0.6353684711803175,-0.7611394208542621,-0.1652968078851699,-0.4760274887084961,-0.4540449380874634,-14.575328044623136,8.035558026599883,-14.042422944927214,-0.1077741533517837,-0.0244493838399648,-9.508429269969463,0.0495810769498348,-3.1618446132704614,-1.191009235204756,41
1719919218962097700,-0.0545312526652589,-15.449095915246009,-2.056534470400214,0.155237286930345,9.744311324986814,1.0930183781825005,1.1903504133224487,0.0328948982059955,0.0113287707790732,0.1156521458917157,0.092904343326633,-0.6600305704712959,-0.736446220185248,0.0633587464690208,-0.5512418746948242,0.6447104215621948,-10.45078493912816,4.271673694869875,-3.388928737065196,-0.1051918938755989,0.0898225232958793,-9.407346730542182,-0.5228917002677917,-2.467643328464031,-0.9800760357439516,42
1719919219001860600,0.185040706378594,-12.568895867997409,-2.403967267367244,0.1303954262790735,9.780997087827323,0.6967514807458967,0.879481315612793,-0.5165486931800842,-0.2782101631164551,0.1081748211331409,0.0917496380542682,-0.6753203435933132,-0.7237558904496457,-0.0612202025949955,-0.120298832654953,1.050464749336243,-10.041258381819723,5.871740993088483,-3.897971899658441,-0.1609065532684326,-0.0474597737193107,-9.840940392136574,-0.3216933310031891,-2.5435949337661263,-0.1905703747865743,43
1719919219082632400,-1.3203005087673665,5.817001102641225,1.2027245151787995,-0.0708804806168423,9.806062555500864,0.0807172762007918,0.368624746799469,-0.3591475188732147,0.3260406851768493,0.0870780241135894,0.0914134516470022,-0.6982321568683156,-0.7046509467917632,-0.5465070009231567,-1.464431643486023,1.0828760862350464,-1.6103203966856,-0.4143389260262251,-0.3468871457830071,-0.0487810485064983,-1.0711711645126345,3.796682147221267,-0.1421514153480529,2.26412654273957,1.4249369412839412,44
1719919219122396400,-0.0396068196526728,13.649638263583183,0.3367699121227487,0.0231465325420489,9.801268306961656,-0.3240506792705506,1.3916198015213013,0.2715137302875519,0.324491947889328,0.0864146271633502,0.0876345324534625,-0.7133317428657018,-0.6899352369581792,0.1672015190124511,0.0984877869486808,-0.0702061802148819,17.45026388773322,-5.372029137942195,2.2096952798500658,0.7173379063606262,3.136955738067627,22.84371633745432,-0.7159092426300049,3.9299841177299615,3.1792300478354094,45
1719919219162160400,1.2108576258171349,15.134872144919632,3.2669571388661858,0.1441108031623065,9.766620771950484,-0.8733535176683217,1.960611820220948,0.026760259643197,0.0826513245701789,0.0882075762706017,0.0856420408068517,-0.7329352479586004,-0.6690970360452677,-1.3562829494476318,-0.8357337117195129,1.202325463294983,10.580220297336576,-9.834940859460833,2.4420523756116626,0.2000685632228851,0.6127758622169495,8.458428634127975,0.3252846002578735,0.4995157115196809,-0.1479104146409779,46
1719919219241687300,0.3071728654341772,8.31190360943079,-6.819443868494034,0.1397947483277879,9.627399348264932,-1.861183455474675,-0.6555107235908508,-0.1996204257011413,0.0492539182305336,0.0860943521246533,0.0932237435991877,-0.7656391325336741,-0.6306296455900987,1.0274370908737185,0.3198946714401245,0.1396511793136596,7.629560227939486,-6.456836298748851,5.564467188030481,0.2321322113275528,-0.2528319358825683,-0.0973166201556567,-0.9951378107070924,-0.0361951046631787,0.7136138412848114,47
1719919219281451300,-1.24804366632998,1.753517738264799,-1.7307997105002402,0.2583404271987267,9.697350251847505,-1.4370286533549428,-1.1988967657089231,0.5019914507865906,0.500237226486206,0.093269097833902,0.0881081498601506,-0.7520006797053297,-0.6465545873475057,0.701442539691925,0.8780481219291687,-0.7825918197631836,2.417282676014304,0.113739191904664,-0.4682870815739035,0.1467276811599731,-0.1028846353292465,-3.858120950785279,-0.7811582684516907,-1.062951741220802,0.3025104083147831,48
1719919219321214200,-0.7887544224649667,-3.040568888381124,0.1405553026378154,0.5152167731942608,9.743585348799824,-0.9836135622203348,-1.0668212175369265,0.8345744013786316,0.5462709069252014,0.1140156245671656,0.0873157659585777,-0.7365638402102277,-0.660946406901269,1.1355092525482178,1.0430830717086792,-1.128146052360535,-1.3444786722123625,1.6844833650052546,-2.284047341001034,0.0767483636736869,0.2067372053861618,-3.6111040460303423,-0.5673946738243103,-0.5678836202271282,0.4249252385029569,49
1719919219360978200,0.0237817845385521,-4.8839644659698,0.306780468583107,0.6679927115123718,9.766639476650951,-0.5804677189249545,-0.9810524582862854,0.2785453796386719,0.1351843029260635,0.1287128108434928,0.08747732186817,-0.7224564592313473,-0.6736746103521365,0.994780957698822,0.6704068779945374,-1.1050564050674438,-3.744476451426744,3.245415169143677,-3.185519211107492,-0.0343251079320907,0.1284151077270507,-2.0521955644130707,-0.329275518655777,-0.0066124735173827,0.7573633319664747,50
1719919219400742400,-0.1463938725981861,-4.948708448559046,0.9483493566155432,0.7002026441130786,9.7797573168993,-0.1908836237205192,-1.0217976570129397,-0.7454766631126404,0.1002454161643982,0.1291303493971764,0.0812205136249718,-0.7093205089990514,-0.6881808964766241,-0.3147675096988678,-0.1731744557619094,-0.4403327703475952,-4.292226653555035,3.205240979665517,-4.137537319363654,-0.1171748489141464,0.1163685694336891,-1.1152165467914192,-0.1393841207027435,0.0974189206195063,0.6081824589982628,51
1719919219440505300,0.9483652848370372,-3.088894820132851,1.476353824788332,0.6419831679217517,9.785027950778604,0.1071114260616712,-0.5640197396278381,-1.0978118181228638,-0.5434223413467407,0.1129914995757686,0.0660700824184968,-0.7001239758414901,-0.7019217024500861,-1.0240209102630615,-0.494461715221405,-0.164988487958908,-2.07329037488997,0.8831932860940694,-2.132200244498253,-0.1668560057878494,0.0630429461598396,-0.3769822051215916,-0.1037144139409065,0.3482219745833426,0.3803510239675641,52
1719919219480269300,-0.2691415332036093,-1.2389391533762215,0.6021288580477238,0.3882530292637646,9.796413852667808,0.2234216922970488,-0.2659162282943725,-0.8782511353492737,-0.5446824431419373,0.0909116301982197,0.0613370131565623,-0.6963091519213229,-0.7093140551398557,0.0694725662469863,-0.4946325421333313,-0.2363891005516052,0.1367541567891836,-1.3634446539670229,0.3006108400374651,-0.1305610835552215,0.0524326860904693,0.1390427974493242,-0.1453833431005478,0.4202042013304308,0.2392269632647745,53
1719919219520033000,-0.1500305486001074,0.091916651675105,1.0088198996692894,0.2929344601906836,9.798230546700951,0.2815051027522422,0.0629484876990318,-0.8738285303115845,0.013146330602467,0.0751766147317144,0.0523056315267698,-0.6949182363836571,-0.7132329360130186,-0.4483082592487335,-0.0636401921510696,-0.237096905708313,1.5908692617624998,-0.2903840450555086,-0.0826239226728677,-0.107280820608139,-0.0044563580304384,1.0466558554582297,-0.2180052548646927,0.5079606280535459,0.2668177116322331,54
1719919219559797000,-0.0122695163233205,0.4468085324764251,1.326190735849738,0.3553886148096993,9.799925075659155,0.0744172216419363,0.8940508961677551,-0.3406746089458465,0.1613751351833343,0.066755275900877,0.0407916986480441,-0.7032366707133938,-0.7066384339653279,-0.9843376278877258,0.2936785221099853,0.0925126299262046,1.133576744672656,-0.0745528444200754,-0.169068280416727,-0.1258187144994735,0.0792534127831459,-0.0950147455546073,-0.0246756244450807,0.0669725270926021,0.8116964682437479,55
1719919219639324000,0.3834716402061283,-0.5690571940511465,-0.4646107311487197,0.3843188681526109,9.787930686482786,-0.4680806722816079,0.1257519274950027,-0.5413070321083069,-0.1347475498914718,0.0609888028628414,0.0356374084410839,-0.7229076342476327,-0.6873244559848625,0.0904950276017189,-0.0093284798786044,0.0407761968672275,0.1464548820704221,0.7407382873147725,0.068522039823234,-0.0564563646912574,0.0079559162259101,-0.4740558377010747,0.1365633904933929,-0.0641458796987775,0.3843684063827619,56
1719919219679087900,0.4691727053020149,-0.4979612120866775,0.2270691454213112,0.3025083807544783,9.790306183442471,-0.4783096957532688,-0.0328766554594039,-0.8335816860198975,-0.1692753583192825,0.0483529383117378,0.0284380132410509,-0.7235870975333623,-0.6879498655057626,-0.6885373592376709,-0.1028778702020645,0.1926402896642685,0.3758323774993419,1.4121645534723997,-0.406190690883994,0.0451720394194126,0.0310591105371713,-0.1852664779584854,-0.0579130239784717,0.1293352040358819,0.0553237136506242,57
1719919219718850800,0.3772676709994673,-0.1344552321970462,-0.2324106525797396,0.2115561353984288,9.79176807268858,-0.4969235030693933,0.0682760924100875,-0.8991039395332336,-0.1882893592119217,0.0331722265477039,0.0192519411352492,-0.7245449676893103,-0.6881596455184474,0.2162183374166488,-0.246216133236885,0.2904813587665558,-0.0275426714420318,0.6309568931251764,0.6552732959970832,0.1397633403539657,-0.0294791981577873,0.1339716133985668,-0.2965441048145294,0.2401148520152084,0.0547394337895326,58
1719919219758614800,-0.0555727793411351,0.2870464250653982,-0.311927768343687,0.1688483723220415,9.791195825758576,-0.5237983947850764,0.0153296878561377,-1.1864361763000488,0.0448129400610923,0.0177026966822006,0.006162709604562,-0.7257191657467633,-0.6877356899293828,0.4725377261638641,-0.355320543050766,0.4410859048366546,-0.1555202320575714,0.7557336118727922,0.3946615811318159,0.2064212560653686,-0.0691534951329231,0.1747939097882248,-0.3696388602256775,0.2281845775836147,0.3188020745599642,59
1719919219798378800,-0.1871775540105067,-0.1597211908787489,-0.4933855016689747,0.1855316317006945,9.791593300643562,-0.5105337664771825,-0.0820117071270942,-1.1961216926574707,0.1786970049142837,0.0017219309294487,-0.0119264121396314,-0.7251811764555046,-0.6884525733300242,0.4288094341754913,-0.2801513969898224,0.5647708177566528,-0.4371440475523471,0.2450461892038583,0.366816711872816,0.2623057067394256,-0.1388485729694366,-0.1568035863989964,-0.4103260338306427,0.1141044267541728,0.1613790045557543,60
1719919219838171000,0.138938387226779,-0.053648588079214,-0.1634498560130596,0.2240823846954852,9.790866739934682,-0.5090218275442719,-0.00345667777583,-1.151676893234253,0.1135814040899276,-0.0133668850264186,-0.0306666847287259,-0.7245774248404294,-0.6883810538135606,0.7400458455085754,-0.2434936314821243,0.5553715229034424,-0.3494377070486545,-0.6185393101006746,0.0777729755103588,0.2925554513931274,-0.0826692655682563,-0.1681120574041269,-0.4305074512958526,0.0958251120894216,0.2491323077400214,61
1719919219877935900,0.1431922452789731,0.0873936212927103,0.1502419263284653,0.2172846325804479,9.790036134329435,-0.5276283648693934,0.0613052546977996,-0.7917772531509399,-0.0417619869112968,-0.0266936447898824,-0.044258126875049,-0.7245293490587944,-0.6873034331922333,0.2768894135951996,-0.4181855022907257,0.3535407483577728,-0.6757710173636674,-0.959150152093172,0.4538759866446256,0.3208348751068115,-0.1143607124686241,0.0395800595099106,-0.3453486561775207,0.2461943728582933,0.1786660567801445,62
1719919219917700900,-0.056057950775884,0.420775096553564,-0.3607925196798518,0.1655927863258868,9.788697579202056,-0.5695036591770127,0.0918730944395065,-0.522861659526825,-0.1328243464231491,-0.0375359598249676,-0.0520614419531925,-0.7254834339238326,-0.6852403286211193,0.4127489626407623,-0.2977665066719055,0.2997163534164428,-0.2481131755590438,-0.2394213350594043,0.2990510433748364,0.2853149771690368,-0.1452589482069015,-0.1281730557881761,-0.2916113138198852,0.0033597530484606,-0.0126819410406227,63
1719919219957461800,-0.5086117854386568,0.4059142120301723,-1.028608961309865,0.1276342910026665,9.789794726788998,-0.5603927895477041,-0.1827573478221893,-0.4032393395900726,-0.039895050227642,-0.0447539945959011,-0.0568425038952097,-0.7248041188029419,-0.6851460597443675,0.7542818188667297,-0.1333223283290863,0.2108575850725174,0.1622071624755859,-0.5963368306428194,0.0842521083965897,0.2067442685365677,-0.0065747867338359,-0.2013426200231537,-0.2157455831766128,-0.1501651164988987,-0.1889149722623638,64
1719919219997225700,-0.4272654084209352,0.361299994277954,-0.1117009640753269,0.101354643500084,9.795053085708618,-0.4659004421656951,-0.2227233350276947,-0.2809078693389892,-0.0355810895562171,-0.0509865642769623,-0.0609341093336333,-0.7211389227671324,-0.6882195435920462,0.0469816327095031,-0.2074589729309082,0.0665813609957695,-0.0036924247771501,-0.4730898056805133,-0.0275210441321134,0.0966401994228363,0.0690786391496658,-0.2010029397400096,-0.1722611635923385,-0.1271588646437972,-0.1934852393199689,65
1719919220039474700,-0.3699186234109103,0.0171416889369487,-0.2151987844834104,0.106406593127409,9.796991360294818,-0.4219583880539983,-0.0423869118094444,-0.2500396966934204,0.1160070821642875,-0.0543236074983684,-0.0645289945430211,-0.7192703937131735,-0.6895906132275675,-0.0463405922055244,-0.0295337755233049,-0.1346488296985626,0.0368763169765472,0.1534147842109203,0.2239811893433332,0.0285886991769075,0.107043981552124,-0.1114462586618959,-0.1198109835386276,-0.0501661071251612,-0.0802043491094373,66
1719919220079240000,0.2486459307288751,0.1520323899418115,-0.2656839035630225,0.1615107046440243,9.796025145611166,-0.4268385978436097,0.0915475264191627,-0.4462105631828308,0.1573903858661651,-0.0576274860793958,-0.0720509230749441,-0.7187290000284132,-0.6891417623372579,-0.2097090035676956,-0.0745417848229408,-0.1055385395884513,0.1505991422683,0.2428986557811498,-0.4448278800532221,0.0236086212098598,0.0973411351442337,-0.04122989080986,-0.107030488550663,-0.0053178579964267,0.0103014893446059,67
1719919220198534000,-0.1717448609485291,-0.1532107860714197,-0.0656534986495971,0.0665496757377637,9.800496738067269,-0.3409122726244852,-0.1964558660984039,-0.4081272482872009,-0.0809840410947799,-0.0789188355788113,-0.0865624066164029,-0.7140648704327444,-0.690210214779622,0.0042749154381453,-0.0810307338833808,-0.1039539575576782,-0.0611824907153844,-0.3357125485569238,-0.2102843801632523,0.1680739223957061,0.0839259922504425,-0.1276775456225033,-0.113454595208168,0.0176173824405879,-0.021144807648065,68
1719919220238297600,-0.2047880843019112,-0.0848953747361898,0.0620049130141735,0.0240257425123942,9.802361362895368,-0.2890047560589387,-0.157604694366455,-0.4231455028057098,-0.0899024754762649,-0.0870208563460456,-0.0913687418656684,-0.7116086666208272,-0.6911528621807616,-0.0969939082860946,-0.0751260295510292,-0.1169782802462577,0.0590332037270069,0.2537754391044378,-0.0645990211606025,0.1792076230049133,0.0542637705802917,-0.0562663328295573,-0.123576633632183,0.0996049685548525,-0.084746760045737,69
1719919220278062800,-0.1119098849851172,0.0386772289186716,0.1308136608242988,0.0022255088711215,9.804035433587432,-0.2264317060342989,-0.0979003384709358,-0.4459035992622375,-0.0464858897030353,-0.0937680954901903,-0.096119631899755,-0.7087353669621149,-0.6925768817792793,-0.243264302611351,-0.095998503267765,-0.1151027455925941,0.2199181776881217,-0.0458101495385169,-0.5914873447850346,0.181427463889122,0.0353321842849254,-0.1108747058516368,-0.1493219435214996,0.0219677893525687,-0.2187417908525094,70
1719919220317827600,0.5662952550571412,0.214397368440032,0.3969242288341745,-0.0314904980356455,9.803542097112537,-0.2448924416805617,0.2766807675361633,-0.884343683719635,-0.1862910389900207,-0.1015135832507467,-0.101805424220181,-0.7086054582925779,-0.6908031781812214,-0.2089380174875259,-0.1237498149275779,-0.1753172278404235,0.268368612602353,-0.1183499005705118,0.1708966648876667,0.1695039868354797,0.0482019744813442,-0.0990987634652294,-0.1937447637319564,0.0140011772628931,-0.3181728367457166,71
1719919220357592600,1.2162678873628376,0.0011895020455121,1.5457868419766423,-0.2198310108613222,9.791544200804829,-0.4977258324282244,1.0065419673919678,-1.5497287511825562,-0.6789441704750061,-0.1252571064721236,-0.1157530813672677,-0.7155265055262935,-0.6774464782423919,-1.1018283367156982,-0.3528212904930115,-0.2438847571611404,0.0800754072338342,0.1444786135613918,0.8790764984250068,0.2015269994735717,0.0680690631270408,-0.0979998714457731,-0.2276701480150222,0.0163950866621045,-0.2057016920154914,72
1719919220437121500,-0.7664023054033517,-0.4971054720401763,-0.0155715170107781,-0.5918578951304778,9.730193367785215,-1.0693008179865775,0.1518684327602386,-0.1322977989912033,0.1586146503686905,-0.1604621632749326,-0.1348100515482215,-0.7323560749370089,-0.6478677520607031,-0.327675312757492,-0.2035059928894043,-0.0329860411584377,0.1808335370123386,0.1557049409747123,-0.0750210464537143,0.2035652101039886,0.1115459352731704,-0.1536952451201155,-0.2084940522909164,-0.1245027789107523,-0.0561920346174854,73
1719919220476886800,-0.3975085315281525,-0.2260305230885744,-0.3933561976216733,-0.4633563106408342,9.737743637034296,-1.0639642061989754,-0.0694001987576484,0.0462011806666851,0.3373483717441559,-0.1557610534888437,-0.1390807771003015,-0.7313710515767468,-0.6492236351183064,0.0593416281044483,-0.0847698077559471,0.0054855183698236,-0.0065782093465328,0.1626344479769468,-0.0994435400485992,0.1037855967879295,0.119082897901535,-0.0584684688166016,-0.1730024814605713,-0.0933184082318097,-0.1931517878482118,74
1719919220516650800,0.0660767655629664,0.1404319685190916,-0.2470422583919018,-0.3939327188679948,9.738642047178743,-1.0835358256965877,0.1942014098167419,-0.3349045813083648,0.0563110187649726,-0.1542093981743686,-0.1428614353817625,-0.7313245272697902,-0.6488254601811607,-0.2616358399391174,-0.0887743085622787,-0.0307945925742387,0.0402788188964128,-0.2598468679726123,-0.1872546561010181,0.0073953140527009,0.0864595025777816,0.026576771852211,-0.1430998742580413,-0.0375158980882959,-0.1266722045048605,75
1719919220556415500,-0.8452127342026681,-0.1800239741951227,-0.399778047362715,-0.4112944072311744,9.727203538319468,-1.1759061394233257,0.2032920718193054,-0.5145016312599182,0.1402685940265655,-0.1617500679275622,-0.1516409979741312,-0.7327752275838476,-0.6433369991778592,-0.7171275019645691,-0.127406969666481,-0.0075860749930143,-0.4119757040262222,0.1011573582291603,-0.0237744049496948,-0.0343646444380283,0.093891441822052,-0.0425687564644962,-0.121494248509407,-0.120473779122997,-0.1079217834633309,76
1719919220596180700,-0.1766001372262835,0.0863999340802431,-0.784554778818041,-0.2548052753425203,9.734915720131992,-1.1562455264680087,-0.2139214426279068,-0.0206451434642076,0.4888401329517364,-0.1589318520465087,-0.159863626132597,-0.7303394657886676,-0.6448167932201949,0.2624779641628265,-0.0506123229861259,-0.0220136828720569,0.1997194392681121,-0.1117372044324874,0.1514599968813359,-0.0235830619931221,0.0682339444756507,0.020946520013432,-0.1633365750312805,-0.0379691948137478,-0.1494402910893782,77
1719919220635944700,0.6905658509135246,0.1848153001248836,0.0369780237853527,-0.131968840475101,9.743190796524283,-1.1059888458494096,-0.016041962429881,-0.0530828312039375,0.2094979435205459,-0.1550701739507743,-0.1638262845757819,-0.7277023331278989,-0.6477372633295732,-0.0005248996894806,-0.0331923738121986,-0.072270393371582,0.2430488779067993,-0.0112292500227689,-0.1599072149701416,0.0033555109985172,0.023134522140026,-0.0154602911716676,-0.2133447974920272,-0.0395941017349949,-0.1001226722860243,78
1719919220675709400,0.1618120622107759,0.0599053103864192,-0.4852537062048911,-0.0525766571319196,9.74584686399102,-1.0890834498863666,-0.104711577296257,-0.1113884374499321,0.2257641851902008,-0.1538518808090867,-0.1680871157566951,-0.7261367125341387,-0.6486924057220833,-0.1242534965276718,-0.121990256011486,-0.0493321903049945,-0.1901075613141059,-0.020613748961687,0.3979411873243749,0.0125725343823432,0.007226048503071,-0.0322431955494917,-0.188998281955719,-0.0670753481462597,-0.0390300700774881,79
1719919220755239400,0.499118930754438,0.2144973216831684,-0.6326198579013347,0.111701886523934,9.762589908999203,-0.9218154968898744,-0.1865483820438385,-0.6218977570533752,0.0522509925067424,-0.1551530379448578,-0.1787148576122678,-0.7176771629529746,-0.6549259812115632,-0.2305849939584732,-0.0792380571365356,-0.0303640253841877,-0.0432534507930278,-0.1152618714272975,0.1260872168242931,0.0530784800648689,0.0335157588124275,-0.118123654066585,-0.1144535765051841,-0.1601417726446874,-0.0924765140475705,80
1719919220795003400,1.195983808746934,0.6910264541625977,-0.2948597291648387,-0.0117517178356705,9.765050746154785,-0.9022409547828136,0.0417147576808929,-1.338488221168518,-0.4772117137908935,-0.1735006977884883,-0.1894108600948539,-0.7142303624967399,-0.6510729921713286,-0.6330666542053223,-0.2647010385990143,-0.0624403357505798,-0.1804220336019992,-0.1386731421530246,0.1766594661980867,0.0626581758260726,0.0386808663606643,-0.0677150662553263,-0.0802348852157592,-0.1211921017264947,-0.0130679720829881,81
1719919220834768600,0.5964146085867658,0.0312327581316232,-0.0247122703216969,-0.2812777420034631,9.758058110788465,-0.9335674556124954,0.1163639351725578,-1.4791048765182495,-0.5492319464683533,-0.20060317287531,-0.2002594278872746,-0.7123867302871694,-0.6419965654504354,-0.7021956443786621,-0.1773093789815902,-0.0849907845258712,0.4261941989928484,0.3070388272583484,0.1907214554287493,0.0772643387317657,0.0499941185116767,-0.0671715659291949,-0.0871464163064956,-0.0895617591120302,-0.1548203218935988,82
1719919220874533400,0.1819406580040231,-0.2181090824395418,0.2096202171660959,-0.496179297105968,9.747479433628916,-0.9543661326870322,0.0995072722434997,-1.3551912307739258,-0.2579409778118133,-0.225428001071709,-0.2127517333408978,-0.7095039318165549,-0.6328688691129578,-0.6243836879730225,-0.3017309606075287,-0.0759874358773231,0.0366577057898044,0.1911713911533355,0.7361964061014353,0.069650262594223,0.0322483591735363,-0.1077501166908536,-0.1328366100788116,-0.0893706204541027,-0.1568742770150303,83
1719919220914288600,0.0956079074084758,-0.0144996499955654,-0.5469897391498089,-0.617394377849251,9.743188458436729,-0.9270904416181146,-0.1044647991657257,-1.3805822134017944,-0.1496893614530563,-0.2467215957583691,-0.2271929968309823,-0.7040254244209367,-0.6259872626095537,-0.6219317317008972,-0.2383089363574981,-0.0262223444879055,0.2330389405459165,0.3356710475027561,0.1504155293297022,0.0699411034584045,0.0495262071490287,-0.0876306905847508,-0.1790031939744949,-0.1009693248437717,-0.1535621567923575,84
1719919220954044400,0.1718485587850212,-0.1773831042975187,0.157542677795887,-0.7252083444233983,9.743265615326166,-0.8445292089179157,-0.1962625235319137,-1.4299662113189695,-0.1622124314308166,-0.2686210342420889,-0.2418392463215164,-0.696112623546118,-0.6203093942793086,-0.6375280022621155,-0.2053621113300323,0.0062324684113264,-0.0511474189132451,0.103947865730524,0.0520773932397365,0.0393285751342773,0.0483020842075347,-0.0931051125410012,-0.2324541062116623,-0.1101712611568626,-0.1802228395017795,85
1719919220993809000,-0.0139412854604423,-0.0328653277695178,-0.0586649549365043,-0.8735592693734914,9.74255016053319,-0.6999974769297986,-0.2414876967668533,-1.5522208213806152,-0.3837526142597198,-0.2936067381102573,-0.2551238833293335,-0.6860041860315867,-0.6149025373790613,-0.752777099609375,-0.2122000455856323,0.0267364792525768,0.1608762061327695,0.6013274785369634,-0.7729875290125608,-0.0004796123830601,0.098176009953022,-0.0851293935546185,-0.2211456596851349,-0.1773131808664649,-0.0761242858547251,86
1719919221033573600,0.2753427624639123,-0.4870552026689052,0.3472972609538585,-1.066626118884608,9.730617730677126,-0.589710288642533,-0.1544829905033111,-1.16767418384552,-0.3889816105365753,-0.3182059202136894,-0.2656735598570505,-0.6778527982134577,-0.6071886763698813,-0.7564631700515747,-0.1592099517583847,0.0466508008539676,-0.0253401929616928,0.2924415621072054,-0.3130558955907822,-0.0113541232421994,0.0698811635375022,0.0525103184640174,-0.1916458457708358,-0.016906386910309,-0.1012696777635253,87
1719919221073337300,0.0424764020059257,-0.3229769856244325,-0.3817021828481927,-1.2030659490276128,9.722613872441649,-0.4402566631475463,-0.3645037412643432,-0.7917728424072266,-0.2111569494009018,-0.3358207106910391,-0.2710158024735182,-0.6700725918031436,-0.6039683350665115,-0.5538706183433533,-0.2402064353227615,0.0303412657231092,-0.2843248911470175,0.0305476984769105,-0.0082464348196983,-0.0008837244240567,0.029051000252366,-0.0589839120920281,-0.169016495347023,-0.0844452106827404,-0.0481845505196601,88
1719919221113102000,0.1917208417296409,-0.0138578449606895,-0.1826853023588657,-1.2932035352662206,9.71740753597021,-0.2645809655561111,-0.2806862592697143,-0.9321257472038268,-0.2627986371517181,-0.351472969647239,-0.2762799529347302,-0.6611802043656211,-0.6024756452840184,-0.6437997221946716,-0.2987303733825683,0.0181532427668571,-0.2000011788189411,0.1507528715252876,0.0494505153348669,0.0237902626395225,0.0349326692521572,-0.133080290582031,-0.1519518792629242,-0.1218438527666497,-0.0613427775773219,89
1719919221192630300,-0.1145993158653378,-0.0379600205600261,-0.0460498035132884,-1.6297260850317776,9.6702822121799,0.0041511554441342,-0.230486124753952,-1.1253663301467896,-0.4613648951053619,-0.3915995985331677,-0.2881571490435035,-0.6455647197856068,-0.5889494087002578,-0.704364001750946,-0.1672864258289337,0.0078272363170981,0.1614706648945808,-0.023213702327013,-0.1974783823430538,0.0522651821374893,0.0229006595909595,-0.0633395271853776,-0.1076070070266723,-0.1143840656794607,-0.0988784535117447,90
1719919221232395000,-0.0523098868213593,-0.1866752487778663,-0.024437106642127,-1.7888313359692691,9.6398812286973,0.2077435000414028,-0.4514299035072326,-0.9487028121948242,-0.4085260927677154,-0.4116820010219374,-0.291960328882159,-0.6357414537456222,-0.5840461310640108,-0.6962613463401794,-0.0727456957101821,0.0400926992297172,0.1078857897013425,0.1526864699363708,-0.296411050260067,0.0622522830963134,0.0170898418873548,-0.0356077674786094,-0.1048436760902404,-0.0684989557751687,-0.1066496903014369,91
1719919221272159500,0.1130110237605869,-0.1661392412275076,0.4102501588752493,-1.925421534368396,9.606475802701713,0.4227821255270391,-0.2644992172718048,-0.8569629788398743,-0.3490255773067474,-0.4300664494432787,-0.2946741467714016,-0.6257885082514413,-0.5801712282630453,-0.5549116730690002,-0.0435087643563747,0.0379784815013408,0.036880408629775,0.090036829277873,-0.209651781348139,0.0636327788233757,-0.0110073173418641,-0.1043855447617359,-0.1136977672576904,-0.0879470265249256,-0.0892546476579271,92
1719919221351688000,-0.0601297667920589,-0.331903803923726,0.1666238098740577,-2.0011285172596573,9.583099018767475,0.5745309492871165,0.0241539720445871,-0.152426928281784,0.1483965963125229,-0.446036961318333,-0.300953857946705,-0.6165499574451456,-0.5747555760519623,0.3125509917736053,-0.0086978953331708,0.0257617607712745,-0.0819143130987882,-0.3353337783724069,0.3488591765083372,0.0315974242985248,-0.0084187239408493,-0.0503805353271309,-0.1346622258424759,0.0015538823742506,-0.0761936430301982,93
1719919221391452700,0.4614917223453521,-0.0308142404586076,-0.5728992564320564,-1.9523313147343693,9.591908932688831,0.5950458409842103,-0.0903582647442817,-0.2832964956760406,0.0073962234891951,-0.4471523909020868,-0.3044548736793432,-0.6139774718718737,-0.5747988221792313,0.2212961763143539,-0.0285739190876483,0.0943125262856483,-0.1613771413922309,0.1138935056835412,0.0024281769949942,0.0396229736506938,-0.0294880382716655,-0.0381289930519182,-0.1251447796821594,0.0309757397468085,-0.0475831870930269,94
1719919221431217400,0.3751454181484878,0.2803039650678634,-0.579988922432065,-1.989436179769784,9.579317746663094,0.6702206897601485,-0.1312342882156372,-0.5358409285545349,-0.2429884374141693,-0.4543484162729566,-0.3067161447095951,-0.6097158856862511,-0.5724851352599345,-0.0196543857455253,-0.0110235819593071,0.1197762787342071,0.0020218612164258,0.0768576142311096,-0.2550549575209617,0.0421313792467117,-0.050836618989706,-0.0240792376817436,-0.1156013384461402,0.0856732089745812,-0.0521464946868829,95
1719919221470980900,0.2953529195092618,0.2632142985790968,-1.0226356590539216,-2.091452931307256,9.547176641514897,0.8047637463711201,-0.3603645265102386,-0.6546688675880432,-0.3712105751037597,-0.4668850097395791,-0.3080365972867678,-0.6033920150617407,-0.5683748788590842,-0.0825025886297226,-0.0436945483088493,0.0836401060223579,-0.1730786851018667,-0.0519733483433723,-0.0472549415193498,0.0553236193954944,-0.0391271449625492,-0.1579386548435315,-0.1248523667454719,0.0075725621376361,-0.0940263281723018,96
1719919221510745900,0.5939404370255768,0.2229723045617342,-0.9392636214274912,-2.235764225477725,9.493744911056757,1.020068073588237,-0.4069124758243561,-0.7345709204673767,-0.5135465264320374,-0.4826821515423986,-0.3066161685946755,-0.5949601053895983,-0.56482465258802,-0.2187682837247848,-0.1088627949357032,0.0387041233479976,-0.1184644668608903,-0.2190665292948484,0.2213561015367507,0.0479410290718078,-0.0047847065143287,-0.1295835984395351,-0.1488160938024521,0.018463122824527,-0.1173679311953019,97
1719919221550510300,0.6331875747866929,-0.2083259395718574,-0.9768458216510713,-2.408188976715505,9.425554002884027,1.2369164153769612,-0.3917753398418426,-0.6930305361747742,-0.5559410452842712,-0.4997461397809063,-0.3044670125318517,-0.586715138450337,-0.5597491697728472,-0.1146107241511344,-0.1915718466043472,0.0615479871630668,-0.5025076233446598,-0.3513338960587978,0.4549579366624355,0.0428704470396041,0.0123166907578706,-0.1425862056772224,-0.1607914865016937,0.0732880166826071,-0.1233005452478304,98
1719919221590274000,0.613605653090775,-0.4535609293460845,-0.8982127221800387,-2.5951065098166466,9.346074223455789,1.4445391751155257,-0.3771984875202179,-0.5754348039627075,-0.655784010887146,-0.5161401461126132,-0.300893765037298,-0.579492828046042,-0.5543016273272403,-0.0090898917987942,-0.2270440310239792,0.1299048662185669,-0.6407143170297146,-0.4056447474390268,0.413480117239803,0.0420676991343498,0.0267799012362957,-0.1416232149971183,-0.1757930368185043,0.061299728453462,-0.1434411785387433,99
1719919221630038800,0.0151902626082301,-0.3647375675112009,-0.6528508911557496,-2.824635396414995,9.247374779772755,1.6364187145382163,-0.3755277693271637,-0.3645753264427185,-0.7102651000022888,-0.5314726320380809,-0.2940739884778752,-0.5745314191928342,-0.5486081712738229,-0.0752177760004997,-0.3854753673076629,0.1805589199066162,-0.8373667699426413,-0.3738742291688919,0.3187560069285333,0.0242139436304569,0.0496907010674476,-0.2112362192616798,-0.1969949305057525,0.0045877576193452,-0.1130129873888101,100
1719919221669803300,-0.6872641790196299,-0.0778892953664064,-0.4510135829508304,-3.0653476480677724,9.136052001360058,1.8184020061075683,-0.4006834328174591,-0.3311591446399688,-0.7148157358169556,-0.5453974369197787,-0.2853451036562198,-0.5708462781637147,-0.5433731336452812,0.0192890185862779,-0.3154601156711578,0.0805362612009048,-0.2078752731949091,-0.5061088627070188,-0.467377857774496,0.0228065103292465,0.1030043810606002,-0.1642202558636665,-0.2164651900529861,0.0016102738952293,-0.1044389737157151,101
1719919221709568000,-1.503245046584308,-0.1412403622925281,0.562909192815423,-3.2634611134439706,9.03315569050908,1.9804810121588408,-0.2631076574325561,-0.2835567891597748,-0.4916357696056366,-0.5573470236256229,-0.2779423412420819,-0.5672491756713517,-0.5388327494866576,0.1411062777042389,-0.3222780227661133,-0.0654198750853538,-0.1237771863162517,-0.5780985786408186,-0.7302396896541118,0.0351862199604511,0.1563605517148971,-0.173914387007337,-0.2442608028650283,-0.0231483317734906,-0.0491817631297744,102
1719919221749331700,-1.510615575352311,-0.5549900902539492,0.9389448378019034,-3.3928590622514485,8.961031534540652,2.087775119577348,-0.1259517669677734,-0.2616517841815948,-0.3647613227367401,-0.5661132548087228,-0.2739612234968451,-0.5643565732080648,-0.5347547736466846,0.0526480413973331,-0.1475384533405304,-0.1726576536893844,-0.1133235968410968,-0.4899900870770216,-0.9724807583093644,0.0741981491446495,0.1738672852516174,-0.1226986338319256,-0.2877015769481659,0.0125616893615515,0.0139787405271548,103
1719919221789096400,-0.8386419044449925,-0.5768786814570427,1.601331619066,-3.490523609928786,8.914237050139903,2.1267394948743283,0.050445232540369,-0.1205667629837989,-0.276547372341156,-0.5717791549326495,-0.2719273501819504,-0.5635796090328062,-0.5305678116450702,-0.0165925491601228,-0.1146743968129158,-0.2261867821216583,-0.2093850932359695,-0.2692494870901107,-1.1441583444416523,0.1242183148860931,0.1933820694684982,-0.1773549924478866,-0.321149617433548,-0.0824482099129352,0.013273186073685,104
1719919221868624600,-0.9105752140164376,-1.1201964540958405,1.089620114046335,-3.607582301644981,8.879953672266005,2.074167888376861,0.1840369552373886,-0.2329709231853485,0.0127425100654363,-0.5755397985803563,-0.2710781446866294,-0.5663598773576325,-0.5239342989268759,0.0735237672924995,0.3076048493385315,-0.0809991061687469,-0.2416390111088752,0.5186182156682014,-0.0006057108081877,0.1169318109750747,0.1405141353607177,0.0063576219734793,-0.3811390399932861,0.063838553615543,-0.1196619330171495,105
1719919221908382200,-0.4567179320722818,-0.7438754162967205,1.336619775405526,-3.5421973908036946,8.926658724817633,1.9844366179168225,0.571007490158081,-0.2967758476734161,0.2323059439659118,-0.5754822618356722,-0.27958065082958,-0.5662654384551529,-0.5196135854718097,-0.2498852014541626,0.3960226774215698,0.0296604968607425,-0.1008610056310892,0.7448761177718639,-0.7771744593083858,0.0977457389235496,0.1404334157705307,-0.13610517309485,-0.3450986444950104,-0.1002611857075709,-0.1335326831251848,106
1719919221948146700,0.2797258729189634,0.216590494570136,1.3595704428821802,-3.390093104669452,9.03669964672625,1.736581362641603,0.9105074405670166,0.0038048699498176,0.5048439502716064,-0.5692102781346697,-0.2945568698878386,-0.5698203596234914,-0.5143351988106132,-0.1614932715892791,0.2387580126523971,0.0443168692290782,0.394939229029417,0.4832371056854724,-0.0738683692872524,0.0640473216772079,0.1592247933149337,-0.2809894813803024,-0.2514352202415466,-0.2546419745395891,-0.0986593126020394,107
1719919221987906800,0.6748737762629985,0.2637456289768219,0.1422868026055395,-3.182650669933856,9.166117469277978,1.422473473779857,0.6570959091186523,0.0635428056120872,0.6026739478111267,-0.5576140833517356,-0.3102070020302823,-0.5755394435882879,-0.5114612930697602,0.1632752269506454,0.4574975073337555,-0.0010297055123373,1.4460299981951712,0.7918406980425119,-0.2215302890598773,0.0664099231362342,0.1716516613960266,-0.1988930714465677,-0.2034719735383987,-0.119380513126729,-0.2344442042339593,108
1719919222027671300,0.3085971626162528,0.2219400389045476,-1.028164651608467,-2.9251603019595143,9.282741276708244,1.2018933981169015,0.0874034166336059,0.936545431613922,1.0408971309661863,-0.5395752475206591,-0.3168802957238171,-0.581641958887053,-0.5197481327377661,0.2954548299312591,0.5033371448516846,-0.0304255429655313,0.4423006996631622,0.1186503448218107,0.1179062484562396,0.0825066566467285,0.0736965239048004,-0.0022975032449641,-0.1873956471681594,0.0849679285157471,-0.2146199251495301,109
1719919222067435800,1.041120871554315,0.4565770622968673,-0.7037959193646908,-2.628327226895094,9.375660383424162,1.1658766936443743,-0.023694772273302,0.24508897960186,0.6136280298233032,-0.5247608528859299,-0.3207219445900014,-0.581114675213767,-0.5329814353475033,0.5301235318183899,0.1986545473337173,-0.1082935109734535,0.0285398657858371,0.0544055439263582,0.6594565730310976,0.0744274482131004,-0.0068586943671107,-0.0776965675395913,-0.126041442155838,0.0365512976897065,-0.2030672518586739,110
1719919222107200300,0.9102686322852968,0.3150251498371362,0.0231423906564712,-2.49448223555088,9.419499525150655,1.1049755040884015,0.3285127580165863,-0.1107517406344413,0.1776123344898224,-0.5199000037648949,-0.3265394850089875,-0.5805462007261477,-0.5348289699446375,0.067398764193058,0.173574224114418,-0.0103894518688321,-0.0232914437383413,0.3140086662709713,-0.1294260058581829,0.0686235278844833,-0.0522549524903297,-0.0559067148700822,-0.0845662429928779,0.0994804014602676,-0.225821410382539,111
1719919222146963700,-0.1221720892071723,-0.0228378547519445,-0.973739380068332,-2.407151742622256,9.454195575478671,0.9970827001243828,0.2376769483089447,-0.0974195674061775,0.3279460072517395,-0.5169794890106856,-0.3337539277797253,-0.5811809071048004,-0.5325121523773709,0.0450204797089099,0.096769779920578,-0.0473676435649395,-0.0968178677201271,-0.0148906951397657,0.4784476063866168,0.02810550481081,-0.0710560083389282,-0.1592214063967578,-0.0811986625194549,-0.0265762603955576,-0.2058198019698262,112
1719919222186728000,-0.0074532386153936,0.1040250226199626,-0.9844820156179368,-2.263447328303754,9.494629877197742,0.948269861638546,0.0818160623311996,-0.0445019826292991,0.3730471432209015,-0.5126262616223652,-0.340091165984605,-0.5796461782073472,-0.5343807066723485,0.2248003631830215,-0.0502781495451927,-0.1011006459593772,-0.3652133683294057,-0.5050520471304655,0.4027754025477916,-0.0063721472397446,-0.0439787618815898,-0.1109226823123637,-0.0639282241463661,0.0045950784135202,-0.0854523144992068,113
1719919222226492400,0.0257169173195958,-0.056013563644886,-0.861545590974763,-2.1282745954871176,9.527325109097362,0.9332215647842734,0.0592509433627128,-0.232971653342247,0.3196749687194824,-0.5100089822421938,-0.3461789393565223,-0.5766966989071177,-0.5361640277900686,0.1276711523532867,-0.1380184292793274,-0.079061321914196,-0.2444096448659896,0.0065016369789838,0.2613233702659607,0.0009851533686742,-0.0246098786592483,-0.1558767721439711,-0.0553110055625438,-0.0020218172631197,-0.001695796754214,114
1719919222266256000,0.2757093307539821,-0.2416051088392734,-0.5928191779106855,-2.0156953872725367,9.551158989149332,0.9395297980830072,0.0364893674850463,-0.3431934118270874,0.2225615978240966,-0.5101712304412319,-0.3528407282602088,-0.57236416170311,-0.5363095893750758,0.0434500165283679,-0.279356300830841,-0.0213010217994451,-0.5005997438967228,-0.0319692557126283,0.0798036776203662,0.0071395402774214,-0.0117131555452942,-0.1639846204768866,-0.0780437067151069,-0.0737632695115404,0.017850426294771,115
1719919222306020400,0.1291844521872699,-0.0997322938621044,0.2232504639159888,-1.9236385964743792,9.569248772591353,0.9484115351315588,0.0814688950777053,-0.5020037293434143,0.1922015696763992,-0.5121769319016103,-0.3600492254687249,-0.5674583910919357,-0.5348180412456391,0.1118152290582656,-0.3582077324390411,0.0074171088635921,0.3625117081552744,0.3017734540760517,-0.0197357240181416,0.0250600483268499,0.0968066975474357,-0.2165591678501106,-0.0982147976756095,-0.2014983951067551,-0.0270289657492539,116
1719919222345784600,0.3926720147497952,-0.4682727607876062,0.7205646833360194,-1.8511895924657584,9.581951017776133,0.9642054627213626,0.1423568278551101,-0.8187554478645325,0.0669571831822395,-0.5179613591889904,-0.3697004863475505,-0.5605004488291336,-0.5299781265470054,-0.1110681816935539,-0.3589693009853363,0.1013016626238823,0.1070756423622369,0.7063239765375852,-0.2393511924326419,0.046589907258749,0.0788525268435478,-0.0054463768928108,-0.1240510642528534,0.031301615266886,-0.0234457826333935,117
1719919222465076700,0.4069599216908216,-0.2351093170791864,0.4123427837729453,-1.4692374169118705,9.673201899018885,0.6640004270058125,0.7240351438522339,-0.3232820928096771,0.3743906319141388,-0.5242584173722242,-0.4129181107628649,-0.5437315825446182,-0.5089280239670385,0.3096846342086792,-0.1347121149301529,0.0634798482060432,0.3419628411233425,-0.5611322462707757,0.0846527981519699,0.0248481296002864,-0.0096484655514359,-0.010269459371682,-0.1128551512956619,0.0276086676166392,-0.0624619178003631,118
1719919222504841200,0.4543605552911758,-0.458062332418561,-0.0443611197739839,-1.3294412620782852,9.70895885657668,0.3729651514999568,0.8150402903556824,-0.1758515387773513,0.3390511870384216,-0.5169951089985487,-0.427566683617904,-0.5460501812602835,-0.5017290686304494,0.3415493667125702,-0.1827243417501449,0.0907641947269439,-0.249341840571165,0.2659662276357412,-0.0605295797646045,0.0026557189412415,-0.0876909866929054,0.1012528270934242,-0.0849405080080032,0.1356510452523361,-0.1123321381183341,119
1719919222544604400,1.189417728229612,-0.178253457391262,-0.4112532349705696,-1.2444839280217883,9.726927643987535,0.0922259185536764,0.634316623210907,-0.1447339057922363,0.0557129196822643,-0.5106025977888473,-0.4396339414100583,-0.549563266783916,-0.4939505087303112,0.2088440358638763,-0.3030014932155609,0.239560067653656,-0.3845879308849573,0.4937053082078695,-0.1371545542836189,-0.0151954917237162,-0.0600523762404918,-0.1744379542237147,-0.0547956377267837,-0.0779095253036823,-0.0439337977400049,120
1719919222584369000,0.7916904759168625,-0.0658931526243686,-0.3265840702056884,-1.2732242848157882,9.723206577637791,-0.0925515794446226,0.3478826582431793,-0.2171150594949722,-0.1558274328708648,-0.5091798915948886,-0.4459814249024824,-0.5530093906021125,-0.4858159498720866,0.1654113382101059,-0.3158492743968963,0.3618616759777069,-0.1298866091072559,0.6026145957380533,-0.3993757501721381,-0.0060632522217929,-0.0485009364783763,-0.0935364074971992,-0.0469445586204528,0.0202126025485806,-0.0256108973785652,121
1719919222624133400,0.6219800982043147,0.0071218147039413,-0.3924690029909834,-1.3679232606858014,9.70989350707829,-0.1308133411638904,-0.0127316201105713,-0.60340815782547,-0.3527975976467132,-0.5153267986832031,-0.4496692938805328,-0.5517854206483455,-0.4772510441034305,-0.3923965394496918,-0.3177134990692138,0.4516378939151764,0.0456026442676782,1.002121863335371,-0.4293734135508537,0.0210930798202753,-0.0625183209776878,-0.0598826784295029,-0.0102918576449155,0.072184580918774,0.1181051594286691,122
1719919222663897900,0.4572241280287504,0.3658370531857013,-0.025819505477813,-1.5221953923784195,9.68771616206169,-0.0385246367394225,-0.2565617561340332,-0.6841169595718384,-0.4298798441886902,-0.5283078061442401,-0.4510451767027617,-0.5463720877871443,-0.4678960829939723,-0.4853448569774627,-0.3103047311306,0.4790943562984466,0.0936053354144096,0.5733236193239688,-0.6712604080714285,0.0369631722569465,-0.051048457622528,-0.1131883713551796,-0.0407686978578567,0.0055653841795778,-0.0406007808597758,123
1719919222703661300,0.1656231083989143,0.1729980210810899,0.1666319931805133,-1.6600541494086385,9.6641780500859,0.1351874006628058,-0.4135977923870086,-0.5577221512794495,-0.2930104434490204,-0.541990943876563,-0.4497660239152816,-0.5392753329056559,-0.461669241822231,-0.4187352061271667,-0.3123910427093506,0.3789109885692596,0.4872890114247798,0.303945537418127,-0.3280006590053439,0.0341948121786117,-0.0240045972168445,-0.0777925295941997,-0.0442987568676471,0.00180587067421,0.0635117008479312,124
1719919222743425500,0.0864798674486577,0.2997258738964796,-0.177442141008377,-1.7465594435594975,9.644291446354984,0.3279772415971383,-0.4186071753501892,-0.4843008518218994,-0.2173747271299362,-0.553437876305671,-0.4476065012367441,-0.5319081064585099,-0.4587251233045364,-0.5011006593704224,-0.3036582767963409,0.3005613088607788,0.2626747848749161,0.2699783858865499,-0.2154278805315494,0.0387673452496528,-0.0643875747919082,0.0039641680903499,-0.0946658477187156,0.1140610625364817,-0.067702914593229,125
1719919222783190000,0.0958897930897772,0.3761906894177198,-0.3253999384550377,-1.847097939237952,9.61585913259685,0.5420753348296508,-0.5003885626792908,-0.6289777755737305,-0.3267863988876343,-0.5664710088884206,-0.4451986113219974,-0.5236029478631523,-0.4546961681891957,-0.5674501061439514,-0.2916141748428345,0.2574011981487274,0.316299407556653,0.1342944886773824,-0.2172752619639039,0.0340618379414081,-0.0825465396046638,-0.0560307157090865,-0.1144642382860183,0.0242314234356163,0.0375426399647491,126
1719919222822953500,0.1780471211642026,0.471387677937746,-0.1310808603931218,-1.953646781247109,9.576626607882975,0.8011581230945884,-0.6066806316375732,-0.5789827704429626,-0.3214856684207916,-0.5810852491814881,-0.4415808553845124,-0.5139636677254983,-0.4507632917205132,-0.5991427898406982,-0.3149117231369018,0.1719215661287307,0.3522334752470255,-0.166718502420187,-0.219279879784584,0.0412007495760917,-0.0854597389698028,0.0139219813967065,-0.0980748161673545,0.1039496740951202,0.0025441760489891,127
1719919222862718000,-0.0067423138670623,0.162005502423644,0.2901701100438833,-2.051822201056033,9.529124267473817,1.0752726589377968,-0.5733035802841187,-0.4980004429817199,-0.2784434556961059,-0.5951446557970702,-0.4367029591283788,-0.5044470997108921,-0.4479135676716022,-0.3878971338272095,-0.264514684677124,0.0604158751666545,0.475067243233323,-0.4614174880653619,-0.0873565041527152,0.0390370823442935,-0.0972663462162017,-0.0186048100172716,-0.0971361920237541,0.0948751544208265,-0.0254858119774609,128
1719919222902482200,0.0823167564198374,-0.0724789607554674,0.4805506430804729,-2.1197822230823338,9.486779163697362,1.2953487306013702,-0.3658439815044403,-0.4435215890407562,-0.2148239314556121,-0.6065724411528635,-0.4333366625950448,-0.4961601913141501,-0.445100308594695,-0.3041345775127411,-0.2026124596595764,0.0473185181617736,0.3501321190536022,-0.1345943484067917,0.0626557781383395,0.027254706248641,-0.0815328955650329,-0.1015601120774634,-0.0808282867074012,0.0699818056109128,0.003580032748371,129
1719919222942248400,0.1069794885113835,-0.018676058897376,0.5441821343831718,-2.1686862469829618,9.45901320489347,1.4121797510415317,-0.1006566956639289,-0.2719312310218811,-0.1243032664060592,-0.6141496630492198,-0.4324892219047397,-0.4908685608583312,-0.441385640122365,-0.2272493839263916,-0.1223471760749816,0.0479177981615066,0.2989233253419399,-0.2503343587398529,0.0058043023645877,0.0314647071063518,-0.0819277018308639,-0.0794586087760515,-0.0720255896449089,0.1154136279229074,-0.0269593071796814,130
1719919222982007800,0.273303438656032,-0.0254606044709682,0.4402155639521777,-2.1988396854452787,9.44798970657587,1.4390831016667187,0.0712450668215751,-0.2413036525249481,-0.1451173424720764,-0.6184636581153755,-0.4341719353790767,-0.4879773705095517,-0.436892925899874,-0.0425493158400058,-0.0911440402269363,0.0444271229207515,0.2750876917243003,-0.1437292564988136,0.055064300096035,0.0491008386015892,-0.0748587846755981,-0.121523717434192,-0.0684426575899124,0.0728318658463656,-0.0036246778909844,131
1719919223021772300,0.2966528961919248,-0.1957388451993465,0.3464640980653464,-2.2447845672793685,9.441995434597134,1.4071388342648743,0.2026192396879196,-0.1970219165086746,-0.1552274376153946,-0.6211621047291305,-0.4367071367154754,-0.4873835888498325,-0.4311632263228297,0.0274960827082395,-0.0924405679106712,0.0494756810367107,0.102853056231141,-0.00932487770617,0.0692959468051791,0.0656262263655662,-0.0725714713335037,-0.0343686221716692,-0.0584759674966335,0.1364127229403704,0.0218959685086621,132
1719919223061536800,0.2865631715930998,-0.3224064922600984,0.4796906652502715,-2.286619091185182,9.44506242095232,1.3162594166830182,0.3277466297149658,0.040407471358776,-0.0745099633932113,-0.6213571663303288,-0.4401606845428418,-0.489027624873002,-0.4254711922895975,0.1349498480558395,-0.1051990836858749,0.0563090816140174,0.0697784696251153,0.0704582685828209,-0.0304492065384983,0.0856207609176635,-0.086298294365406,-0.0601183001165511,-0.0712543874979019,0.1475581214714329,-0.004184244577572,133
1719919223101300200,0.3329356311894953,-0.2731564314007759,0.0825747497688978,-2.3141376510992644,9.4579119656533,1.1674977189749478,0.3819446265697479,0.1626231223344802,-0.0614697597920894,-0.6178148255237205,-0.4435303107410918,-0.4937155522991788,-0.4216997146172602,0.1895230710506439,-0.1371280997991562,0.106319323182106,-0.0926461349934339,0.0793020847737789,-0.040934944717586,0.0903017297387123,-0.0992567613720893,-0.1105268879278097,-0.0974755138158798,0.1086084505532402,-0.0835927859713323,134
1719919223141064700,0.1110961300499737,0.098175712069869,-0.5303045618087053,-2.3447366413719952,9.46591173223555,1.033984809129313,0.2215285301208496,0.0400458350777626,-0.0908995047211647,-0.6147357496428063,-0.446345479844026,-0.4980533685211823,-0.4181131384542739,0.0308221038430929,-0.1725826412439346,0.1851355731487274,-0.188369193214178,0.352182037320733,-0.2426478958904743,0.0982702076435089,-0.0658208951354026,-0.1537108080154284,-0.1015203520655632,0.0867636162934824,-0.036224944962305,135
1719919223180829000,0.0320306305110454,0.3678361180484295,-0.8176261505536735,-2.3949584698729214,9.455275187408924,1.0160459054000677,-0.1058086529374122,-0.1413594335317611,-0.1869527548551559,-0.6162381363000726,-0.4465878158168057,-0.498753847109891,-0.4147946539211244,-0.1585843116044998,-0.1896057426929474,0.188602015376091,0.0336976869404315,0.1312532212853431,-0.1542883521750569,0.0890760719776153,-0.0472897961735725,-0.2070644865349866,-0.092825174331665,0.0027717143234593,-0.0616414043308701,136
1719919223220593700,0.1284182901203632,0.4301695323646068,-0.5539852971255779,-2.479075407582521,9.420624145266412,1.12979072332792,-0.3321783542633056,-0.3314999938011169,-0.3039652109146118,-0.6232167139984913,-0.4435936404902524,-0.4956020450569752,-0.4113445158847167,-0.3182450830936432,-0.2374181598424911,0.1795356720685959,0.0656616819560527,0.0067740241795778,-0.1419005797669291,0.085847295820713,0.0173960346728563,-0.2858561558349058,-0.0831795409321785,-0.0875720831321552,-0.1209232490567024,137
1719919223260357000,0.1274494450882077,0.2099713686913251,0.1356727912932634,-2.5849478116348386,9.371474037650229,1.2899245135955513,-0.3173738718032837,-0.3121605515480041,-0.2781328856945038,-0.632471998144665,-0.4393076350443246,-0.4911628611035835,-0.4071203972970574,-0.2897766828536987,-0.161243125796318,0.1042949184775352,0.4294014706015586,-0.1120206975489854,-0.1229153087899088,0.0703454762697219,0.1036841943860054,-0.2154640478234738,-0.0983302444219589,-0.0746033005322562,-0.1708143751653842,138
1719919223300121600,0.0163666129112243,-0.136453128015995,0.4168200753174721,-2.6449004682943222,9.335873147436976,1.4199816569641233,-0.2075772732496261,-0.2601314783096313,-0.1676512211561203,-0.6395783062788571,-0.4366476345621622,-0.4867647555685075,-0.4041514783523604,-0.2615002989768982,-0.0732431784272193,0.0416099652647972,0.4226134178966284,0.1115928275257348,0.0197688225701451,0.0271137598901987,0.1137557476758956,-0.1235419801877345,-0.0672352463006973,-0.0883366103644017,-0.1127074011715129,139
1719919223339885800,0.3233738759875297,-0.1213660335212945,0.5756896178029477,-2.687797360734641,9.313603447961809,1.4842211971625685,0.0021704409737139,-0.1215182319283485,-0.1221594214439392,-0.644326215839115,-0.436117078598625,-0.4838674091146506,-0.4006468492487595,-0.1086484342813491,-0.0388699658215045,0.0354178510606288,0.1098737486481666,-0.0759516053020954,0.0968058850213885,0.0022084233351051,0.1168476492166519,-0.0745719783788081,-0.036984346807003,-0.0747871189668308,-0.1411997380211949,140
1719919223419414000,0.4202434738948941,-0.2283236024618148,0.0525619618862867,-2.742918067193031,9.321052594923971,1.328443775473535,0.2837647497653961,0.273625910282135,-0.0922407433390617,-0.6397976914960468,-0.4375313268517838,-0.4907489727574334,-0.3979832861303891,0.2412400543689727,-0.0439673103392124,0.0794186666607856,-0.2562485512197017,-0.1927045920699834,0.1488885389581322,-0.0003252887399867,0.0548169985413551,-0.0059699486757657,-0.067156121134758,-0.023459569130151,-0.018197817243624,141
1719919223459178500,0.0082464348196983,-0.1955050364434719,-0.205976746097207,-2.80362651065588,9.32100466412902,1.1953805821567771,0.2667681276798248,0.2055532187223434,-0.1536152809858322,-0.6363057312342705,-0.4384139014633457,-0.4968357926360478,-0.3950474454528058,0.1947327405214309,-0.0472370311617851,0.1515011191368103,-0.2227151149302721,0.0385515567123889,-0.0286541398152708,0.0109168412163853,0.052579291164875,-0.0565542829254642,-0.0531321726739406,-0.0305297609614208,0.0427906053545186,142
1719919223498943000,0.0089408468246459,0.0277349791437387,-0.3873831145614385,-2.867916904258728,9.31294352274835,1.1020525293137875,0.1270545721054077,0.1317996084690094,-0.1566606611013412,-0.6344019222223195,-0.4385222858751811,-0.5015068931319142,-0.3920755395496913,0.0363337807357311,-0.0981461256742477,0.195660650730133,-0.1836953561842441,0.1012707554757595,-0.0350786199048161,0.0172945708036422,0.0361519530415535,-0.0945274552280083,-0.0499854795634746,-0.0083026625147176,-0.0086851693010801,143
1719919223538706200,0.248239724548161,0.2467553312093019,-0.1631857251841574,-2.9466543408870693,9.292491686350107,1.0663981553476305,0.0111710336059331,0.0913793295621872,-0.2486348152160644,-0.634613603025109,-0.4368322556346499,-0.5047835231281512,-0.3894056163943863,0.0146058499813079,-0.0720399543642997,0.1756140291690826,0.1401946526318788,-0.0486959341078996,-0.1000067268893122,0.003390859812498,0.0643632262945175,-0.1754290110876783,-0.0563713088631629,-0.1064247863712254,-0.0270080736582749,144
1719919223578470700,0.0440989617064595,0.0964531260609626,0.2073789410453289,-3.04148951035738,9.263228766986726,1.0546647551950066,0.0233105365186929,0.1121255233883857,-0.2267009168863296,-0.6359718022400239,-0.4341914537829926,-0.507646377447056,-0.3864101390725984,0.1433100402355194,-0.0318542420864105,0.1112150102853775,0.21507249122262,-0.1537777723044157,-0.1300233872294426,-0.0053827720694243,0.1017245203256607,-0.1430580335732083,-0.0496328361332416,-0.0886016179761383,0.0049145087806129,145
1719919223618235400,-0.1833329526126384,-0.1047054060995578,0.3194568486742675,-3.1121348259449,9.245316678199172,1.0045366693921387,0.1396868377923965,0.1906898766756057,-0.1209527403116226,-0.6351438938982624,-0.4324795874218088,-0.5116095101347077,-0.3844596093388029,0.2357773929834365,-0.0007103836978785,0.0698649063706398,0.1251800388514995,-0.1319189917176962,-0.0158788293942809,-0.0011825578985735,0.1285132020711898,-0.0665401452910155,-0.0443731881678104,-0.0609219263833248,-0.0306713887886609,146
1719919223657998800,-0.1062719247639179,-0.2038052472770214,0.1642664330929517,-3.144455671574175,9.2447596288383,0.9039967124089598,0.239341527223587,0.2903569042682647,-0.03105422668159,-0.6318537951619713,-0.4328722075311417,-0.5162660636404254,-0.3832125283570577,0.2265623211860656,-9.4554372481e-05,0.0619127750396728,-0.0669487991571426,-0.0853700065106153,-0.1435939396813511,-0.0191161427646875,0.1272777765989303,-0.0304449870211072,-0.0484189428389072,-0.0417997357202228,-0.0722038381750928,147
1719919223697763300,0.2087327668070793,-0.1249964989781379,-0.1470767402958124,-3.16377675037682,9.250197435978054,0.7712150394473224,0.2672272026538849,0.2938056886196136,-0.0541666150093078,-0.6269973434987846,-0.4339402465212751,-0.5218954269982601,-0.3823552177942051,0.3001446425914764,-0.0182176306843757,0.041139718145132,-0.0065203416794538,-0.0765711985051631,0.1735851733192801,-0.0375655777752399,0.1095937639474868,-0.0248147351823281,-0.0451553128659725,-0.0413464389947708,-0.0494357424574205,148
1719919223737527600,0.3809782159551977,-0.0976285995811224,-0.2990279547601938,-3.210924578259885,9.243778216585516,0.642596039123088,0.2465899586677551,0.2034030556678772,-0.156282365322113,-0.6231834804036094,-0.4345187534040885,-0.5276648292105185,-0.3800075603901124,0.2549071311950683,-0.0701394230127334,0.040282979607582,-0.1143278054475784,0.0374912340044975,0.0616676438838243,-0.0317655950784683,0.1068003699183464,-0.0810293195583391,-0.0181529782712459,-0.0488699298347812,-0.0112154132936615,149
1719919223777292300,0.2794236751019954,-0.1155553014159202,-0.4631541391322389,-3.290730520902574,9.221302180883288,0.5559291612023487,0.1482530087232589,-0.0808915123343467,-0.2635928392410278,-0.6224649937449164,-0.4347168510628709,-0.5316735462696376,-0.3753422755360752,0.093215174973011,-0.0833969041705131,0.108244389295578,-0.1057926168143749,0.3705097211718559,0.1287903383031487,-0.0245631244033575,0.1022994443774223,-0.0399552540644304,-0.0053320066072046,-0.0348034265424939,-0.0176243156465177,150
1719919223817055700,0.2199547103062272,0.1527671339571475,-0.4589333065668121,-3.3925711852207776,9.183720930507778,0.5657744460534304,-0.0659482851624488,-0.2984086275100708,-0.2991978824138641,-0.6267269280951663,-0.4342564740608797,-0.5315776956661327,-0.3688628137018238,-0.223838672041893,-0.1295125186443328,0.1829179674386978,-0.0729763888835906,0.6846475667804479,-0.0861705092385411,-0.0324704572558403,0.1236097887158393,-0.0525184424049686,0.0128395687788724,-0.0467280087355291,-0.038449598741834,151
1719919223856820200,0.17592589122653,0.2488917587161064,0.1149544859785586,-3.499676638199389,9.136230280536411,0.6722888012710958,-0.2768172025680542,-0.2530123591423034,-0.3130867481231689,-0.6339417593530216,-0.4311924135386765,-0.5289573823446956,-0.3638614961818845,-0.2693297266960144,-0.1147690415382385,0.1502041518688202,0.191888599511981,0.1207511164933443,-0.3687327746272087,-0.0556497909128665,0.1177111342549324,-0.1303670769674237,0.0193272680044174,-0.1259292406504508,0.0186322996707516,152
1719919223896584400,-0.2267445165768265,-0.1340834762752056,0.614168839931488,-3.5846745965272184,9.093335726183652,0.794819202396646,-0.1894873529672622,-0.1114059686660766,-0.1566876620054245,-0.6403267115732453,-0.4270841147848379,-0.5263788172275303,-0.3612563995270919,-0.0361856929957866,-0.0506427362561225,0.0747660547494888,0.1560410410612821,-0.2992728694319725,-0.1554571036934852,-0.0404658839106559,0.1153904348611831,-0.0328384397625923,-0.0114399120211601,0.0084227652092056,-0.020244815184595,153
1719919223976108300,-0.0501224597796797,-0.1056868183523416,0.2159246510725468,-3.580983633054793,9.104442226609589,0.6753169169206172,0.3893271386623382,0.3470389544963836,0.1769331097602844,-0.6364289354098568,-0.4299024904784225,-0.5298606124128609,-0.35970779652893,0.1827756911516189,0.0415754504501819,-0.0273284874856472,0.1702431694149971,-0.2952794158816337,0.1716100738540291,-0.0350124314427375,0.0561956763267517,-0.0859041499199345,-0.0769394040107727,0.0545655887597007,-0.1731986399534158,154
1719919224015872500,-0.0269376912862062,0.1159516072571277,-0.4565465940933674,-3.528901271378994,9.137339118561147,0.4757003169724717,0.3539608418941498,0.4049463272094726,0.1484924256801605,-0.6277294064009203,-0.4339849912068573,-0.5360998613735564,-0.3608460250094777,0.3980943858623504,-0.0169760659337043,-0.0854077041149139,-0.0023193828582763,-0.5360591798126697,0.2797092140451073,-0.0534561462700367,0.0391673184931278,-0.0991666593359783,-0.0654153525829315,0.01975930353984,-0.0483789908129489,155
1719919224055637000,-0.0778898798882961,0.2161228770583868,-0.4621802525987848,-3.490668571357429,9.15867358301282,0.3230172445695847,0.2032948583364486,0.2971600294113159,0.0910685360431671,-0.6207247765517593,-0.4364195006047122,-0.5413582202087559,-0.3621742358574018,0.364842414855957,-0.0093811564147472,-0.1320414543151855,0.0276636674731969,-0.281395851957798,0.0424526558041572,-0.023747419938445,0.0565805956721305,-0.1463665005340706,-0.0298737585544586,-0.0090181213034491,-0.0562753198536112,156
1719919224095400200,0.1764902471110224,-0.0391962843567132,-0.0277998610734939,-3.4858754918619987,9.163199536004662,0.2341504271854646,0.1460021585226059,0.2142860442399978,-0.0506809204816818,-0.6169939118342306,-0.4372885461865227,-0.5448305954658458,-0.3622938954411672,0.3190653622150421,-0.0095359394326806,-0.1528069227933883,-0.0487894576102495,-0.2878402057915926,-0.1367427586123347,-0.0018841243581846,0.065221682190895,-0.1151424006329383,0.0072931540198624,-0.010961591512931,-0.0035344257704215,157
1719919224135164400,-0.0329348858743906,-0.2285842992246151,0.3379799089670181,-3.490731115199625,9.16359467280209,0.1170685007241554,0.2804522216320038,0.3162197470664978,0.0842276737093925,-0.6122841286727754,-0.4380334316015192,-0.5496888943804512,-0.3620455065829811,0.4818918108940124,-0.0108787585049867,-0.1106008067727088,-0.1679261246442794,0.0213660286337137,-0.002926116579771,-0.0080050732940435,0.0800258964300155,-0.1122534285926259,0.0412194393575191,-0.0469264539170777,-0.0639563119434285,158
1719919224174928600,-0.1321533849954605,-0.0163777188271284,-0.0280184745435253,-3.4416417978599667,9.18287980350852,-0.015377162340813,0.2183814346790313,0.1380957961082458,0.1266086101531982,-0.6065332506697839,-0.4414615526715637,-0.5530783982223773,-0.362399711585158,-0.0134486872702836,0.0049090995453298,-0.0747679024934768,0.0091723174929618,0.7827730099678039,-0.434180813832581,-0.0360863171517849,0.06007581949234,-0.0647419367626309,0.0303536765277385,-0.0356463139572879,-0.0638451568862656,159
1719919224214692000,0.2734358328640461,0.2343459314912557,-0.1555143868386745,-3.4059494299709794,9.195965495052931,-0.0641542137022828,0.0018085492774844,0.0322077497839927,0.0687462761998176,-0.6043755716183513,-0.443717007823022,-0.5535216090256775,-0.3625731026875753,-0.0020386402029544,0.0043373717926442,-0.0534404478967189,-0.0120715460658073,0.0487198995053768,-0.2202136535033583,-0.0353740788996219,0.0724168643355369,-0.0885855527573265,0.0205993615090847,-0.025346643252077,0.0062977467248711,160
1719919224254456600,0.1324067752346396,-0.051496378481388,-0.1291197163879871,-3.3864261065945027,9.203331639906764,-0.0342844007872045,-0.1259839236736297,-0.0636816993355751,0.025521183386445,-0.6049781236491374,-0.4437292770910014,-0.552134355575814,-0.3636666140220708,-0.1124743372201919,0.0069033275358378,-0.067723847925663,-0.0204775553613901,0.2451391281843185,-0.0987391911715269,-0.013483203947544,0.047041468322277,-0.0457132787350332,-0.0083425370976328,0.0139954678996698,-0.0332849208714789,161
1719919224294220800,0.1758732842564582,-0.2624725403010845,0.1141992106318473,-3.377669384165108,9.206612561273577,-0.0066096593641443,-0.0454350225627422,0.0359705872833728,0.0305455029010772,-0.6057185312057891,-0.4434553951761686,-0.5510755949329682,-0.3643737036547007,-0.0333385057747364,-0.0220322906970977,-0.055803470313549,-0.1370259594678878,-0.0559311460584402,0.1395776897773146,-0.0219235382974147,0.0499362535774707,-0.0449061088043032,-0.0076428521424531,0.0107558192581636,-0.0495329603207763,162
1719919224333985000,-0.0798828072711825,-0.0167161570012569,-0.0142868840277194,-3.3415807104349136,9.219728063434362,-0.0291081991591257,0.0068979561328887,0.02986297942698,0.0863452777266502,-0.6041686979980376,-0.4448309526172661,-0.5510077392792225,-0.3653712163268133,-0.0655353218317031,-0.0602031126618385,-0.0639301091432571,-0.019114450314641,0.0476233364403247,0.0937576033666729,-0.0415472835302352,0.0290583632886409,-0.0126909634556504,0.0055729853920638,0.0373276158244465,-0.0137177948858938,163
1719919224373748200,0.0529220273703336,0.1672007329791784,-0.0314320800960063,-3.305594620296359,9.232734260001775,-0.0074732293781853,-0.0535431280732154,-0.1556176245212555,0.039367027580738,-0.6045447757102694,-0.4460478249919773,-0.5490194591062246,-0.3662576424820483,-0.0925224646925926,-0.0580137819051742,-0.0674783661961555,0.0571913752526044,-0.1372597682237625,0.0128416536554694,-0.0346162095665931,0.0289414022117853,-0.0291341715673101,0.0078864889219403,0.0328526418178807,0.0428045379817485,164
1719919224413512700,0.8079030673101544,-0.1810813742935657,0.2674737095892429,-3.305205328717828,9.232809663325549,0.0350934658474987,-0.1032639145851135,0.0434958674013614,-0.0404291562736034,-0.6061811198114037,-0.4455862045523334,-0.5474154414492887,-0.3665156902362273,-0.2209163904190063,-0.0323417596518993,-0.0644337758421897,0.1176683480471372,-0.2160655939131975,-0.084583532308042,0.0097866412252187,0.0261358693242073,-0.0534733045775443,0.0099256364628672,0.0288946728561655,0.1214103110544383,165
1719919224453277000,-0.1255769292145967,-0.1396539698839187,0.2548328392028808,-3.304715791635215,9.232982097283005,0.0359130157691892,0.0365141220390796,-0.0101421205326914,0.0418429337441921,-0.6060020054211215,-0.4452913441874436,-0.5476171696689033,-0.3668687673315032,0.1759968698024749,-0.0433414690196514,0.0267145726829767,-0.163795892971754,-0.0477928477883338,0.3375578841626644,0.0283151362091302,0.0157043188810348,-0.0101055101147794,0.0148970261216163,0.0824944236748386,0.0733647762798238,166
1719919224572568800,0.1038441130951046,-0.0236012403398752,0.2058510738909244,-3.2962121671840547,9.235141905665396,0.1323297005435917,-0.0490428581833839,-0.0276156533509492,-0.0089653860777616,-0.6105206982659253,-0.4458790551941794,-0.5426278016077462,-0.3660756297277209,-0.0692706704139709,0.0087892711162567,0.0042439526878297,0.1140057338863611,-0.0460188238531351,0.010091478164494,-0.0160771589726209,0.0435881577432155,-0.0278314823377528,-0.008990247733891,0.0438706237101461,0.0180936296417203,167
1719919224612333000,-0.0284232536688446,-0.0916729060471057,0.28150398850739,-3.2829075721919536,9.240067087107896,0.1186269091472961,0.0485813282430172,0.0363371782004833,0.0561379939317703,-0.6100048927907084,-0.4468391865604401,-0.5424817530316535,-0.3659813908168976,0.0482815206050872,0.0192585308104753,-0.0502679571509361,0.154580905380845,-0.0428366866856813,0.0837114256486296,-0.0033689856063574,0.0380551777780056,-0.0561865364584606,-0.0127161145210266,0.0329800630232552,0.0414352269564988,168
1719919224652096500,0.0472410591244697,-0.0701888039916753,0.1866033525854349,-3.2484380240961905,9.252699189665911,0.0746639629446202,0.1132583767175674,0.1006269305944442,0.0936699509620666,-0.607788755190356,-0.4486035275247942,-0.5430912192044134,-0.3666054204430556,0.0668418928980827,0.0089215775951743,-0.0877313166856765,0.0863648627668619,-0.0680512074410915,-0.0284992415145039,-0.0073075899854302,0.0340660139918327,-0.0338014304426964,-0.011011341586709,0.0204110545799951,-0.0001041847477928,169
1719919224691860700,0.0970244962081313,-0.0279717105090618,0.0352829057386843,-3.21996070215255,9.262854672977328,0.0416307632283307,0.099793903529644,0.0550716407597065,0.0705649703741073,-0.6060923015983708,-0.450032374082434,-0.5434595515252925,-0.3671165663214559,0.0296069029718637,0.0108576957136392,-0.0773357227444648,-0.026951135289669,0.0907674816399812,-0.1204717150300741,-0.011868817731738,0.0146985538303852,-0.000467470382338,-0.0131653556600213,0.0262459210462053,0.011677764400182,170
1719919224731625000,0.0833440536409616,-0.1835766982406377,-0.0779091691106557,-3.201940769076347,9.269122501200435,0.0363094654575805,0.0261251796036958,-0.0119723519310355,0.0500730313360691,-0.6057810320859376,-0.4509935820775714,-0.5429120752484404,-0.3672608622740677,-0.0403735116124153,-0.0016371104866266,-0.0406504198908805,-0.0725549486011266,0.1368120244562626,0.01117138235569,0.0041292789392173,-0.0007740397704765,-0.0148008203326491,-0.0124101294204592,0.0295492802903987,0.0272411494784988,171
1719919224771388400,0.2141983387365937,-0.0581792172461748,-0.0244406137734651,-3.1854025989905,9.27480814562142,0.0391050898087676,0.0121847055852413,-0.044950220733881,0.0224886834621429,-0.6058815254692793,-0.4519176752020416,-0.542011632760043,-0.3672892384485688,-0.0579522401094436,-0.0295306853950023,-0.0090448213741183,-0.0758645115405321,0.1603331852972507,-0.0127896312072873,0.0179319325834512,-0.0272593740373849,-0.0225409290484269,-0.0089320484548807,0.0213176480308989,0.0454320049750851,172
1719919224811152600,0.1369213300496339,0.0123790045797824,0.0232931927374331,-3.1838419255450368,9.27532720105946,0.042846294764243,-0.0047175795771181,-0.0446793772280216,-0.0124719627201557,-0.6064756822534056,-0.4526289895819197,-0.5412415771072976,-0.3665675326632704,-0.0644737854599952,-0.0402386710047721,-0.0171829089522361,0.0475204605877399,0.0073906947731971,-0.0298079860255122,0.024709828197956,-0.0227513443678617,-0.0363787587009719,0.0105630103498697,0.0388786423754412,0.0525325257292483,173
1719919224850916900,-0.034715047289431,0.0102566055983304,0.1033282725274562,-3.181146695111692,9.276254252776504,0.0425684139712015,0.0124496286734938,-0.0191951189190149,0.0096199456602334,-0.6067205108320648,-0.4531667656808396,-0.5408044909652641,-0.3661429833392151,-0.0100294556468725,-0.0289203431457281,-0.023570567369461,0.0418874231368303,-0.045871524336934,-0.0540220975667238,0.0163860581815242,-0.048110332340002,-0.0346086003734264,0.0259739160537719,0.0236507032215013,0.0161438541306823,174
1719919224890681300,-0.0814773829862475,-0.0432417603552341,0.1088116723746061,-3.1656586186006663,9.281568141275644,0.0384316155605716,0.0216548442840576,-0.0338941663503646,0.0269446093589067,-0.6067332628802369,-0.4543722758453378,-0.5399873775525075,-0.3658335582288698,-0.0609229989349842,-0.0062327678315341,-0.0282942838966846,0.0276700972139835,-0.0265291104853153,-0.0740656454250216,0.0111565794795751,-0.0270395949482917,-0.0628078314614715,0.0229196734726429,0.0040115018053271,0.0355928621704224,175
1719919224930444500,0.0640031010940671,-0.0713303752422332,0.075724810808897,-3.151326141865552,9.28646234305799,0.0336604168200981,0.0433822013437747,-0.0015802504494786,0.0337106697261333,-0.6066554799557384,-0.4554190082925312,-0.5393304397895706,-0.3656299946989693,-0.022036850452423,0.0160815920680761,-0.0176751278340816,0.0141974521785974,-0.0862146406412124,0.0175134448587894,-0.004474785644561,-0.0183325689285993,-0.0698685407950542,0.0273192375898361,0.0417924154968699,0.0446431607189122,176
1719919224970205000,0.1936284289166331,-0.1318202075183391,-0.0860311007678508,-3.1495702381089328,9.287099471917749,0.0201907674593967,0.0366309769451618,0.0395192801952362,0.0248393192887306,-0.6063462931766693,-0.4559921425639883,-0.5394828294183576,-0.3652037254874387,-0.0207031387835741,0.0042258384637534,0.0005769795970991,-0.0685024583399295,0.0572895749300718,0.1059063063219189,-0.0079350462183356,-0.005734933540225,-0.0755268405513837,0.0152384229004383,0.0008355649081524,0.0186601694917888,177
1719919225009974000,0.0853106775388121,-0.2081044057756662,-0.1862099693536758,-3.1382170694455502,9.290956731867787,0.0097870781156409,-0.0022158080246299,0.181966632604599,0.0487393587827682,-0.6052634182957667,-0.4557697879293731,-0.5401619186009052,-0.3662719874658051,0.0502498634159565,-0.0367821045219898,-0.033201690763235,-0.0523275686085224,-0.2836287255764007,0.2864651180461049,-0.0171944014728069,-0.0141109023243188,-0.0494094207060756,0.014524252153933,0.0531999857951886,0.0433850047508254,178
1719919225049738800,-0.3018760376676916,0.0917851342499256,-0.0456651881098747,-3.12183262861669,9.296478125637767,-0.0073070510607562,0.0129502555355429,-0.0141241867095232,0.0001997458748519,-0.6037295466627466,-0.4556363265057662,-0.5410804874505522,-0.3676114021605231,0.1491303741931915,-0.0349271036684513,0.0569576993584632,-0.1309977852195501,0.0464455248326063,0.0449947415024042,-0.0217637568712234,0.0221999268978834,-0.1006532263656146,0.0218049939721822,-0.0230135903447633,-0.0229903989821323,179
1719919225093230800,0.2103261734783649,-0.4955670104265213,0.3881435775399208,-3.1882635413795706,9.273906228345632,0.0027102524746631,0.0028803662862628,0.0398126207292079,-0.1186166852712631,-0.6062657502547943,-0.454826508731032,-0.5412898138172154,-0.3641152611206906,-0.0160846840590238,0.0220547970384359,0.0904062017798423,-0.238482008382678,0.1462321792304515,-0.1782043575525283,-0.0383828207850456,0.0507890209555625,-0.0753710198020096,0.0301687847822904,-0.0079130758211307,0.0147675779334618,180
1719919225132994600,-0.625511779461801,-0.00458791231215,0.1217091478705406,-3.1869553813904523,9.27433935906589,-0.0189087362837337,0.0793781802058219,-0.034172423183918,0.0400982163846492,-0.6056770230770883,-0.4555224009007216,-0.5417226407845777,-0.3635813720387213,0.0406899154186248,-0.038951352238655,0.1402002573013305,-0.2498001057326793,0.2189741748362779,-0.1029252446845173,-0.0358540788292884,0.0273352619260549,0.0483747575958259,0.0214071460068225,0.0890475990448147,-0.0097070888066547,181
1719919225172759000,0.2290536703020334,0.2322685406953096,-0.0563911602190462,-3.1791584439039227,9.276901318508386,-0.0492530337011208,0.0816477239131927,0.0698509141802787,0.003589475294575,-0.6048327938166999,-0.4568217304823501,-0.5420563737622439,-0.362858168491218,-0.0425562411546707,-0.0253362078219652,0.0401207953691482,0.1785807896494865,-0.292313551813364,-0.1069216208443045,-0.0086188009008765,0.0612310990691185,-0.1502745682227425,0.0025347194168716,-0.0420720726884668,0.0178573948916746,182
1719919225212523500,-0.0190787944793701,-0.0156646021217107,-0.1695674438442103,-3.184661425234377,9.274789440920948,-0.0810752136598341,0.0505612827837467,0.1013890951871872,0.0234222449362278,-0.6035763889145085,-0.4568288010106769,-0.5435449677756673,-0.3627143625068671,0.1391680240631103,-0.0192388482391834,-0.0259987711906433,0.2083411371409892,-0.0865934108257293,0.1623439405977726,0.0215437281876802,0.0641137436032295,-0.0722701220440678,-0.0217287819832563,0.0283805219221045,-0.0431170927959494,183
1719919225252288000,0.0895297565385699,-0.0962140566080808,-0.1558054787397384,-3.173710115370154,9.27827669851482,-0.1074071393389254,0.0336629226803779,-0.0321303978562355,0.0224766321480274,-0.6021808590497538,-0.4572070578328478,-0.5444611522486658,-0.3631831531253458,0.0366813242435455,-0.0509949102997779,-0.0360152535140514,-0.0208703540712595,-0.0372685311645269,0.1027647934257984,0.0481890477240085,0.0580704174935817,-0.0365345817336346,-0.0078752413392066,0.0476272819630801,0.056425112720998,184
1719919225292051500,0.7253796824023128,-0.0593126051902771,0.0855786808252334,-3.171056678251922,9.279232976326346,-0.103086472261371,-0.0565798878669738,0.0137753076851367,-0.1076073348522186,-0.602377956906155,-0.4573583049857423,-0.5441317195329636,-0.3631595975906906,-0.2267021089792251,-0.0233393181115388,0.0045235841535031,0.1637976465374231,0.2647235340982675,-0.2327607081264257,0.0652254447340965,0.0523836649954319,-0.0962976158388424,0.0248906146734952,0.0069252754975779,0.027703499443375,185
1719919225331816000,-0.0779670367777347,-0.123082774311304,0.1569032108485698,-3.204932936629653,9.26758696219623,-0.103184005218558,0.0240926519036293,-0.00147815735545,-0.0628003701567649,-0.6028208016717554,-0.456040114125232,-0.545241537702286,-0.3624173158465971,0.120756521821022,-0.0312587060034275,0.106869600713253,-0.1808960808545351,-0.1641489441931247,0.2084849295258521,0.0782001838088035,0.0180440694093704,0.0243472638010513,0.0617807693779468,0.0675923577576875,0.0611135079992469,186
1719919225371580700,-0.0740463562026619,0.1133820490300655,0.1023439285320695,-3.2178318734303115,9.263060424682497,-0.1080300296107772,0.0027374969795346,-0.0741811841726303,-0.0447753742337226,-0.6034305975333452,-0.4565377414212994,-0.5450516391210348,-0.3610590139341357,-0.2757292985916137,0.0117905484512448,0.1287408769130706,0.1598433559536933,0.4227420127123594,-0.2984299888670444,0.0930703654885292,-0.0041771037504076,-0.0272081879238132,0.0441384688019752,0.0088760625054797,0.0025232793914328,187
1719919225411345000,0.0581114127069711,0.0081575874924659,0.0043698947804514,-3.2195047750785943,9.262638984400033,-0.0931049664105288,-0.0194447115063667,0.0092478208243846,-0.0296407677233219,-0.6042763913638537,-0.4566743411485912,-0.5442385308315446,-0.3606978098246612,-0.1068516001105308,0.0447396039962768,0.0339748859405517,0.2261912666082382,-0.2101414645612239,-0.1351049282774329,0.1221539229154586,-0.0068699386902153,-0.0067771168940293,0.0244744941592216,-0.0202199204886448,-0.0019497772235044,188
1719919225451108400,0.2326011336505413,-0.2580827809095382,0.0686754859524313,-3.2391192838698624,9.255642257380485,-0.1075809432695619,0.0556682609021663,0.0680065155029296,-0.0439696498215198,-0.6039826626000775,-0.4560876703390721,-0.5454073145012691,-0.3601663606618943,0.1029024273157119,-0.0142748216167092,0.0558070763945579,-0.1782148789465427,-0.0410024569958448,0.1349579210221767,0.1290131658315658,-0.0107826301828026,-0.0846774850686546,-0.029250755906105,0.0077073029955412,-0.0678349663079483,189
1719919225490873000,-0.3237783651351928,-0.0581394697576761,-0.1004886469210497,-3.2468738435193893,9.252770501336457,-0.1200767060968093,-0.0368717573583126,0.0995353311300277,0.0507680624723434,-0.6034237194037789,-0.4556572395936067,-0.5463503348487485,-0.3602187006076473,-0.1168890595436096,-0.0621134489774704,0.1040690839290618,-0.2050917799562215,0.4586339948266744,-0.2687324774786829,0.12034872174263,-0.0308255795389413,0.0457413266525836,-0.029039291664958,0.026508083680307,0.0364998209475073,190
1719919225530637600,-0.3542567977681756,0.062110126954317,-0.1958347067892551,-3.189161367002129,9.27303119907677,-0.1025421362516004,-0.0836058482527732,0.1470929384231567,0.1880454272031784,-0.6019317692463378,-0.4555884772875158,-0.5455889784790131,-0.3639366908117611,-0.0330159962177276,-0.0817834511399269,-0.0502409264445304,0.0938520036518573,-0.5872831710934638,0.2345850009441375,0.081484243273735,-0.0536129623651504,0.0557751654788618,-0.0110405283048748,0.0742729634661926,-0.0233276635459042,191
1719919225570401000,0.3203098122417926,-0.0115577513247728,-0.1725742427110672,-3.11209800106585,9.299114319360257,-0.1081460846053436,-0.0485940724611282,0.1808552592992782,0.2409286648035049,-0.5989765182720761,-0.4560989285967153,-0.5454243147526808,-0.3683926887797373,-0.135704293847084,-0.0469332747161388,0.0108602428808808,-0.0694815325051546,0.3848246622502803,-0.3499801433622836,0.0356691256165504,-0.021916402503848,-0.1919999874645844,-0.0024413629435002,-0.0616475646435981,0.0366217485604342,192
1719919225649930000,1.0150117400467396,-0.7302642395734786,-1.728422459974885,-2.8818899000316858,9.373630923423171,0.0114805282199638,-0.8926951885223389,1.2716468572616575,0.3026356995105743,-0.5856960416145722,-0.4426727827287979,-0.5508679182993299,-0.396919952223583,0.1219823807477951,-0.3336071372032165,0.197847843170166,-0.5995739128679036,-0.270920050650835,0.9814473240971564,0.095800332725048,-0.0073157604783773,-0.037965041511727,0.0028233469929546,0.0858614889551419,0.0882434978540055,193
1719919225689694700,0.630610563905537,-0.4958943426847457,-1.8773668207734824,-2.756661345863342,9.406962699660658,0.2832771356597542,-1.5480877161026,1.8705931901931765,0.4306667447090149,-0.5755151552908827,-0.4196130915143941,-0.5563108297998411,-0.4280483534630798,-0.0845353752374649,-0.5288123488426208,0.2923927009105682,-0.5026747966051102,0.5117834012120962,0.5196227165356279,0.2013163715600967,-0.0160583779215812,-0.0573053478879388,-0.002097450196743,0.0537169908400392,0.0654684426725842,194
1719919225769222400,1.0716744152501223,-1.1905050850749015,-1.073051110430807,-2.505053606186807,9.325704220122098,1.7106570861816406,-3.225263833999634,2.4372174739837646,0.5879071354866028,-0.551624995367026,-0.3309650048484798,-0.5506749738397325,-0.5319108736452877,-0.8148122429847717,-0.6557140946388245,0.5556081533432007,0.0900485197156667,0.8663929579406976,0.4637611285820603,0.2587615847587585,-0.082630380988121,0.0389124624466523,0.0285460241138935,0.1134166271531023,-0.0884170460563153,195
1719919225808987100,0.7011342989400029,-0.8576303902924061,0.3161573687374591,-2.5585855821490284,9.0959286652863,2.6245208203494546,-2.93888258934021,2.1845552921295166,0.2434251755475998,-0.5394657266765989,-0.2742246727026959,-0.5394325776185529,-0.5854827678966463,-0.9249472618103028,-0.5585677623748779,0.591463565826416,0.1566588806986808,0.1040010572224855,-0.2208861459374427,0.2034955471754074,-0.0307795982807874,-0.2174660718282684,0.0087673952803015,-0.1085029991510789,-0.0004585414394387,196
1719919225848751600,-0.5865493038609624,-0.9435428331166504,0.8487605628773569,-2.762040700814128,8.786348336851596,3.367727543604374,-2.258368968963623,1.4551246166229248,-0.2961703836917877,-0.5325163105682957,-0.2245354281769679,-0.5271408878498093,-0.6230029523658612,-1.0607693195343018,-0.4936997294425964,0.6612157821655273,0.0903568550124764,0.3546019579440355,-0.3879775733232498,0.1712076216936111,0.0066547351889312,-0.0916665311052463,0.0150545509532094,-0.0847710907693952,-0.0723219572625821,197
1719919225888515000,-0.4283472853735089,-0.3099304570466279,1.4643921688377857,-3.2328362580776213,8.425824587643145,3.8372681323707103,-0.9221499562263488,0.3048822283744812,-1.6688058376312256,-0.5421045930657654,-0.184590497316789,-0.5198847180096656,-0.6338523528091835,-1.295900583267212,-0.4283381998538971,0.7036777138710022,0.0457698175281286,0.3797258778065442,-0.3195727301388978,0.1546031683683395,0.0324829928576946,-0.1010209728326182,-0.0031471606343984,-0.0865234143294394,-0.0216350228674011,198
1719919225928279300,-0.0888847366333007,-0.0606575900584459,2.0837106466174125,-3.89446827545166,8.11520088763535,3.891917129664123,0.6864240765571594,-0.6358217597007751,-2.4197423458099365,-0.5721952159396679,-0.1658046973656999,-0.5235229187813086,-0.6091183905301063,-1.0366679430007937,-0.3834999501705169,0.6871939301490784,0.0704591453656554,-0.0088403090596199,-0.1516577114105224,0.1467577368021011,0.0237108021974563,-0.047907286214549,-0.0015218394109979,-0.1152935269408859,-0.0019706773059937,199
1719919225968041000,-1.0148521655708551,-0.2272305465281009,0.9343062182158232,-4.527575040087104,7.867277681690454,3.711792033182084,0.9414575099945068,-0.5367845296859741,-1.9970378875732424,-0.6026147149879032,-0.1594444584156917,-0.5341617206403516,-0.5710554392019975,-1.0205473899841309,-0.2109532058238983,0.6250364184379578,0.2420972762703895,-0.2632277425825595,-0.9685364045977592,0.1250444501638412,0.0145168751478195,-0.0121237717266776,-0.0127839539200067,-0.0786740525359287,-0.0357179475715267,200
1719919226007785500,-0.8392734803467988,0.397971728593111,0.307524564948678,-4.966515907928347,7.686049592402577,3.5254426553577183,0.8403380513191223,-0.3996258676052093,-1.37248957157135,-0.6227262157324243,-0.1577196395571148,-0.5434859412958384,-0.5403328779761064,-0.2080927342176437,-0.1393211483955383,0.3905572593212127,0.8322016422644257,-0.7514326998084783,-0.1674509083479642,0.0567474663257598,-0.0056450981646776,0.0045033101893059,-0.0499278642237186,-0.042444166537025,-0.0929179650716017,201
1719919226047548400,-0.4262111501276492,-0.2389537175476551,-1.4768801867499948,-5.239666494110226,7.541866746917367,3.440424823285639,0.7329666614532471,-1.6387008428573608,-1.0065914392471311,-0.6416814589717564,-0.1622269394744957,-0.546140617045715,-0.5134761512642366,-0.502629816532135,-0.0506241992115974,0.2854175269603729,0.6205234696552157,-0.1573112071275711,-0.5953431434303522,0.0024569171946495,-0.0272494927048683,-0.0113166029375919,-0.0648003965616226,-0.0819137011774349,-0.0519659870208241,202
1719919226089795800,-0.6683510964959859,0.4915449153035879,-0.3349874491527676,-5.134744230389595,7.492069573569298,3.6977927339240906,0.7493689656257629,-2.1864218711853027,-0.5294836759567261,-0.6697251867909284,-0.1852805740203833,-0.5264372228746953,-0.4899011085667454,-0.5151059627532959,0.2302089482545852,0.2142441272735595,1.111733746176958,-0.4557207377284765,0.1000555344671011,-0.0063623627647757,-0.0711622461676597,0.0489699972423492,-0.0603851824998855,0.0135494891142821,-0.0284923414162592,203
1719919226129559600,0.3075549600869417,0.5600789378255605,1.326108902785182,-5.0522635155797,7.536662164011597,3.720718559220433,1.2282785177230835,-1.1169196367263794,-0.4864173531532287,-0.6873826204249248,-0.2089044831300076,-0.5163865417469734,-0.466056893377446,0.3376667201519012,0.1327523440122604,-0.0545029155910015,0.0603749737247824,-1.7968571137756109,0.348953722923994,0.0173231549561023,-0.0976603105664253,-0.0243391375768114,-0.0139651643112301,-0.0039579655367822,0.0786057730726897,204
1719919226169322200,-0.3523299213588237,0.173294373679161,1.0413292536079883,-5.0810114711582655,7.633449052071571,3.476230003899336,1.57552170753479,-0.892714262008667,-0.5844697952270508,-0.6946634588370547,-0.2304318324570235,-0.5192906354520367,-0.4412269102850398,0.7486891746520996,0.1917437016963958,-0.0655187517404556,0.3138119746550917,-0.7404372585415839,0.3664057929843664,0.0268987827003002,-0.0646560564637184,-0.045897151968535,0.0249709039926528,-0.0177594440926681,-0.0326072339557576,205
1719919226209086000,-2.153268166968226,-1.677431108406186,-0.6842731805101037,-4.985942492932081,7.758405219039321,3.3343557276174423,1.3430825471878052,-2.9730935096740723,0.3977918922901153,-0.7079889848582116,-0.2621291082573215,-0.5111589784244214,-0.4107999199919955,0.854989230632782,0.2264257818460464,-0.1072430983185768,-0.1472828573271632,-1.003027872264385,-0.4009031058698892,0.0166297350078821,-0.0795395746827125,-0.0271801377229741,0.0335482321679592,0.0493796192228561,0.0057381777549948,206
1719919226248849700,-0.3662298518955707,0.7014315283209085,2.772519424730539,-3.858788182522357,8.251535942229628,3.632119361530244,1.919002652168274,-2.359916925430298,1.423994064331055,-0.730521894025432,-0.3367757139744601,-0.4487711704039108,-0.3892612284510336,-1.0366387367248535,0.3953406512737274,0.0683108195662498,1.0271791477024554,-0.8910989446520805,-1.1232552571445702,0.0352698415517807,-0.066618762910366,-0.1067228925349656,0.0195792447775602,0.0432825855559669,-0.0308658267986611,207
1719919226288613400,2.2000638204127547,-0.2617062321037054,0.6865083922162651,-3.731604110372066,8.59068431045413,2.9061405441910027,1.802921891212464,1.011406421661377,0.2420730739831924,-0.7046643314580446,-0.3618813213698602,-0.4699680614291467,-0.3893842033579945,0.8595006465911865,0.3278931975364685,0.2181416600942611,-1.8663830699443813,1.1650398044288155,-0.7806219694137573,0.0455486737191677,-0.078918732702732,-0.1132082907652016,0.0145449629053473,0.028696220824751,0.0959035932862665,208
1719919226328375800,-1.9947800250157712,-0.4650064524680375,-0.0296967807359993,-3.717635206252336,8.758819693934917,2.373320346299559,1.0562199354171753,-0.5245185494422913,0.1725246459245681,-0.6925838997571794,-0.3833012654250409,-0.4817410873058632,-0.3759431108093022,0.9993125796318054,0.4765196442604065,0.1592539697885513,1.055727196794748,1.0725409689515828,1.8586878392666577,0.0426923595368862,-0.0203428119421005,-0.188899080573488,0.0376058183610439,-0.0253539657587185,-0.0212629244522657,209
1719919226368139500,-1.7998846449032424,-1.5074351917505264,1.0325178783819078,-3.457184234906733,8.914497162380814,2.179453578582406,0.9437676668167114,-0.7466654181480408,0.90813010931015,-0.6885738985663471,-0.4053630120081547,-0.4738772230213122,-0.3701179886239328,-0.8655656576156616,0.794804573059082,0.6707211136817932,-0.1146425704851746,1.7368395751863717,-1.2724123839110135,0.0374082215130329,-0.0011008358560502,-0.1478250196461565,0.0032940967939794,-0.0112874670330085,-0.0276718256634776,210
1719919226407903200,-0.5105301862806082,-2.026297153046727,-0.4643243154227733,-2.9577701936632392,9.159221864545344,1.87899836749807,1.1170403957366943,-0.8418582677841187,1.3314508199691772,-0.6778508959350515,-0.4378473923337347,-0.4609635647086408,-0.369215981439138,-0.2515129148960113,0.754153311252594,0.7339174151420593,0.4788344868123531,-0.5454407561421394,-0.3889683379262685,0.0367065332829952,0.0116364294663071,-0.1473575482648797,-0.0087997112423181,-0.0375333903625025,-0.0393495934885926,211
1719919226447667000,0.7389527190722525,-0.3340764717876911,-1.238954497075826,-2.40741200099364,9.361562884488702,1.6540493560358882,0.7528331875801086,-1.5832550525665283,1.1677188873291016,-0.6698621562229365,-0.469813968886009,-0.4415221279962633,-0.3682630202991061,0.0530805364251136,0.896805465221405,0.7081044316291809,0.1931476596623659,0.622758973622322,0.6815636292904615,0.017834048718214,-0.0296055823564529,-0.0624201564512914,-0.0549261495471,0.0443904874323634,-0.1022668903736397,212
1719919226487429600,1.3914219174340368,1.026696917143464,-0.1008120519228279,-2.035012812813372,9.463197797101737,1.573844331073016,0.7115524411201477,-2.281910896301269,0.0542840771377086,-0.6759606111745611,-0.4992852003988288,-0.4128808040546615,-0.3511707943729871,-0.5802849531173706,0.641438364982605,0.9575978517532348,-1.405285607613623,0.97056761816442,0.2974813098400831,0.0046434663236141,-0.0128202550113201,-0.0241353380834218,-0.032697319984436,0.004666108097916,-0.0585762948389397,213
1719919226527193300,1.0460495601281523,1.3920564159452915,1.3012981405250728,-2.0971042350672184,9.480611873239278,1.3749705488488078,1.4713423252105713,-2.294528007507324,-1.0171722173690796,-0.687967572249835,-0.5249571614340569,-0.3928307408526321,-0.3111344441186659,-0.2883774638175964,0.4543963670730591,0.8492676615715027,-0.8122615547806024,-1.1092863530248402,-0.4789408697962761,-0.0421340651810169,-0.0149529492482543,-0.0853849300851114,-0.0047874064184725,-0.0788088030978105,-0.0619093117191689,214
1719919226566957000,-0.7957783297523856,-0.6982447149783373,1.6949129890829324,-2.3334433862023056,9.489752626550198,0.8185497682046144,2.282177209854126,-1.3462204933166504,-0.5697504878044128,-0.6866023335381395,-0.5549958723057455,-0.3876147018527607,-0.2651635156165552,0.9428053498268129,0.6256641149520874,0.4994442462921142,0.8035209067031741,-1.0961755270391702,0.5621937380224467,-0.0828924477100372,0.0546648390591144,-0.1016523934707976,0.0169614646583795,-0.1151632424915675,-0.1457839514057617,215
1719919226606720800,-0.1861874652609229,-0.5538660546600819,-0.0923719942271709,-2.4815514423072336,9.48738005219996,0.0435902039001463,2.272540807723999,-1.3134325742721558,-0.352822482585907,-0.6724610126407297,-0.5913458353008703,-0.3848215447222985,-0.2236484491475313,1.1302406787872314,0.508323073387146,0.3212184309959411,0.1276142802610993,0.0313502470314502,-0.0534960278660058,-0.1240763142704963,0.019968032836914,-0.0125432643639389,0.0017336322925984,-0.0350554194090305,-0.1573296560997143,216
1719919226646483200,1.6733718961432575,1.177675414118171,-1.54911160248518,-2.5843656278327107,9.443301841020585,-0.5616761438891291,1.3555399179458618,-0.4155599176883697,-0.3165064454078674,-0.6577280434934635,-0.6168055208139741,-0.3849525453012793,-0.1968661214034213,0.7314704656600952,0.4948039650917053,0.3109365701675415,0.803435274246335,1.0290139619141816,-0.881379514670372,-0.1150425896048545,0.0379732251167297,-0.1518172310874797,0.0580237433314323,-0.16585207658289,0.0368161865704343,217
1719919226686247000,-1.1525938720926645,-0.6076420685112476,-2.5219009883522987,-2.667354584425688,9.396605556297304,-0.871430513716489,0.4580464959144592,-0.0921915546059608,0.2039930820465088,-0.6488953433374564,-0.6269510822974902,-0.3890538951425726,-0.1857529803299916,0.6678107976913452,0.828077495098114,0.0439655967056751,1.634068059758842,0.4936936177700757,-0.4661690665066242,-0.0719583258032798,0.0331823118031024,-0.0219176346344873,0.0523707196116447,-0.0136769126029452,0.0298616501582204,218
1719919226726010600,0.5705629224389791,1.388610659405589,-1.8581541707813736,-2.6087767232507466,9.39502267102003,-1.0479582432936876,0.4648943245410919,0.3943173587322235,-0.0109994662925601,-0.6414708370887895,-0.6322849457181403,-0.3919779957853432,-0.1873077231108735,0.2458545267581939,0.4518088400363922,-0.3319210112094879,-0.5906140690818429,0.2419511457979679,0.3484913661092519,-0.0341246463358402,-0.000694470363669,0.0362310596092604,0.0873597040772438,0.0335043882914585,0.0910793423344381,219
1719919226765774300,0.2013902950897812,-0.5412485651493072,1.1775284068629146,-2.5400772810339927,9.375855029213428,-1.346020494826883,0.8742520213127136,0.9136539101600648,0.1204976737499237,-0.6274276442003216,-0.6370011308174838,-0.4035560775380037,-0.1941822936458185,1.0073914527893066,0.4181006848812103,-0.3948864638805389,0.1396592305809259,-0.2449053194284439,-0.0765697372004389,-0.0241896621882915,-0.003606243757531,-0.0093544434398383,0.1102123335003852,-0.0017523344056651,0.050686934395181,220
1719919226805537000,-0.3344362450107931,-1.01474987424016,1.3417303964175282,-2.442837388509512,9.317989700222014,-1.8379283982239665,1.2306708097457886,0.6448882818222046,0.1456438601016998,-0.6063350450016132,-0.648733387140367,-0.4157562521734856,-0.196594692164617,0.8508432507514954,0.4343143701553345,-0.1423984169960022,-0.7544587696313858,0.6706546972632408,-0.3172191527500748,-0.0159889422357082,-0.0029109311290085,-0.0202471966546378,0.0972209572792053,0.0608508978405734,0.0037953685575717,221
1719919226845300700,-0.731375123424828,-0.8483645492970943,0.8977509498871863,-2.3022280175969003,9.237048031547666,-2.3552216488987208,1.2674057483673096,0.8788090348243713,0.3939992189407348,-0.5835175343125423,-0.6620017924681142,-0.4264229247771561,-0.1985557929834676,0.6503527164459229,0.4164958000183105,-0.0375116169452667,-0.7315595400810241,0.6775163997262715,-0.4265989804014563,-0.0329405516386032,-0.0246840864419937,0.0042278399782371,0.0809505432844162,0.0791910621473565,0.0578013877765741,222
1719919226885064200,-1.36897013939023,-0.2106207725107669,-0.790691820268333,-2.0171787576980886,9.137999043774604,-2.9322920535355803,1.4829646348953247,0.3412264883518219,0.6455441117286682,-0.5555706487840797,-0.6784945303210466,-0.4349143102469117,-0.2045383244333344,0.5908007025718689,0.2788068950176239,-0.2148078382015228,-0.7927183576598763,-0.4672188678205013,0.1357923260197043,-0.0573586486279964,-0.0084218867123126,-0.0112523774533183,0.0625899285078048,0.0627278021949343,0.0941830896365922,223
1719919226924828000,-1.2861167918756604,-0.5709288331419229,0.4082634055048227,-1.7266864299625158,9.002557138627767,-3.4846623166799544,1.468953251838684,-0.0856897458434104,1.0714702606201172,-0.5314868359588397,-0.7023168887179579,-0.429440712653125,-0.199632928945747,0.6573166251182556,-0.0471302941441535,-0.2902462780475616,-0.7353840668052435,-0.0444534742325544,0.4805214169859886,-0.0604350119829177,-0.0006228470010682,0.0275840628983452,0.080445185303688,0.1182681588375009,0.1358406221408397,224
1719919226964579600,-0.181602037166804,-0.222890471497178,0.6452069522738456,-1.3382671042211354,8.83378637985289,-4.042728161117434,1.6956323385238647,-0.3234177231788635,1.28144633769989,-0.5059202051716615,-0.7301588636390904,-0.4159204350520011,-0.194738328726429,0.1457281857728958,-0.0156864561140537,-0.1906405836343765,-0.3085182521611452,0.8110100934147835,-0.7622060227572918,-0.0655528828501701,0.0438002496957778,-0.0811770209333393,0.0584505572915077,0.0235131053986959,0.1323964456368703,225
1719919227004343300,-0.5602411426499485,-0.8094710472792387,-0.4810743746936321,-0.8465022625565528,8.63552006200254,-4.569645126314461,1.3562090396881104,-0.1813167482614517,1.7271904945373535,-0.4783416988030164,-0.757164577399566,-0.3996108860962248,-0.1954541321342245,0.3453890979290008,0.065050683915615,-0.1997212320566177,0.401546956731379,0.3508025656610727,-0.3319102336645126,-0.061955839395523,0.0768724530935287,-0.0995543343461584,0.0031773713417351,-0.0206196809455519,0.0894807662976905,226
1719919227044120600,0.7183936959724873,-1.080886772492528,-1.973185156062245,-0.2697804338953458,8.496927583870292,-4.888746731810271,0.5928630828857422,-0.3870673775672912,1.456539511680603,-0.4571774723110018,-0.7786836539868862,-0.3780323877259385,-0.2042843931646711,-0.0793936103582382,0.0145543236285448,-0.1586167961359024,-0.3262172827199101,0.8096329598426818,0.5309697477191686,-0.0610374175012111,0.0579224601387977,0.1156179913885891,-0.0054788296110928,0.0483500615459866,0.1315759321673773,227
1719919227083885000,3.3597108258873223,0.4139718462795019,-1.304334877872467,-0.0528695482644252,8.466271748843788,-4.948721892562508,-0.2820760011672973,0.2464638799428939,-0.1518936455249786,-0.4521837985973991,-0.7857916356661259,-0.3672139692490281,-0.2078828577636771,0.2800258100032806,-0.1301586478948593,0.0313494056463241,-0.8487088326901197,0.4215010727405547,0.7397361245349049,-0.0656841993331909,0.0137531086802482,0.1543185281176119,0.0012628815602511,0.0895082205601967,0.0406216775173321,228
1719919227123648300,1.9905135997429488,-0.1923059481412172,-1.2577820932731032,-0.2925755272177979,8.563781105959414,-4.769321310962736,-0.6698655486106873,-0.1292088776826858,-1.2062499523162842,-0.4628251196009957,-0.774841010016094,-0.3778744848945365,-0.20645861741207,0.2192234396934509,-0.508030354976654,0.3242595195770263,-0.776291831254959,0.601141600576043,0.1596576241232454,-0.0761651471257209,0.0295049641281366,-0.0343729809696669,0.0004816688597202,-0.0517228441810235,0.13843325984939,229
1719919227163412200,0.765116941767931,-0.2672738031029701,0.640748803821206,-0.8266180699784308,8.632615572732686,-4.578762791010737,-0.572052001953125,0.5238791108131409,-1.57032573223114,-0.4780863547651268,-0.7586306593320704,-0.3974059012327712,-0.1948887054951291,0.5236603021621704,-0.142005518078804,0.2895144522190094,0.9645815294921396,0.3414917164802551,0.0163163440287113,-0.0501066111028194,-0.0205496717244386,0.0826517787941731,0.0039748176932334,0.1060250190644525,0.1184386109004262,230
1719919227203176400,0.8429439124878495,1.5930594652831551,-0.1713850329264998,-1.224819004217535,8.6563676197201,-4.442690479005873,-0.3484048545360565,0.0500022806227207,-1.52071213722229,-0.4855011946429973,-0.7391229312179189,-0.4245132082711548,-0.1943564129696234,1.186306357383728,0.0092216618359088,0.1581180691719055,1.209342472013831,-0.6499018320918083,-0.2042261030375957,-0.0280828978866338,-0.0484448783099651,0.0149647695895517,-0.0238435566425323,0.0253364712012233,0.1085855354685336,231
1719919227242939600,-1.949070267111808,0.5363543633669614,-0.4365066264316439,-1.5901587754055857,8.71334681352675,-4.209442279623449,-1.0250754356384275,0.1825794130563736,-0.3956546187400818,-0.4996108093609741,-0.7240298535419265,-0.4363514652382878,-0.1891225525992675,-0.0580393262207508,0.3389647305011749,0.1401541829109192,1.472429637081921,1.0140659836292267,-0.6111243576690554,-0.0346392318606376,-0.0347429849207401,-0.0097739366479218,-0.0941971838474273,0.0418663027169881,-0.0709247809828724,232
1719919227322468400,-1.786086421175301,-0.6709773533463478,1.2250661108464005,-1.2759480106912553,8.972723725900053,-3.746011405909061,-0.2235264331102371,0.3536313772201538,1.1236156225204468,-0.5143010483028999,-0.7170060741988399,-0.4205897293766127,-0.2109528764102663,-0.326255053281784,0.2219788879156112,-0.3452003300189972,-0.1746226996734738,-1.3740478810459376,0.2246107194185256,-0.0794829279184341,-0.0486624613404274,0.0789755653663072,-0.0759745314717292,0.1220986951773986,0.0586041600933996,233
1719919227362232300,0.0775043146368116,-1.4028624721199274,0.2350432661056518,-0.7595524395085871,8.974973550653457,-3.878568695530295,0.7721097469329834,0.6501685976982117,1.0201328992843628,-0.4998094938503941,-0.7273592420055808,-0.4107316751407034,-0.2289943996825625,-0.1803508549928665,0.0281601473689079,-0.3274930417537689,-1.1317521595939992,-0.3003215017020702,1.3847086835309863,-0.0416158139705657,-0.0548383109271526,0.0118202496023033,-0.0297919753938913,0.1598057273570448,0.1832224049102515,234
