time_imu,phone_acc_x,phone_acc_y,phone_acc_z,phone_gravity_x,phone_gravity_y,phone_gravity_z,phone_gyro_x,phone_gyro_y,phone_gyro_z,phone_ori_w,phone_ori_x,phone_ori_y,phone_ori_z,watch_gyro_x,watch_gyro_y,watch_gyro_z,watch_acc_x,watch_acc_y,watch_acc_z,headphone_gyro_x,headphone_gyro_y,headphone_gyro_z,headphone_acc_x,headphone_acc_y,headphone_acc_z,frame_imu
1726741128993578200,-1.322483113503456,21.22764190728664,-4.750820024110377,0.0499648306657094,9.597705051746964,-2.012949157304317,-0.2842559814453125,-0.0451355651021003,0.2653795778751373,0.3338067059773822,0.414500850947431,0.6563694746013299,0.5347348001270167,-0.1715105324983596,0.17208993434906,-0.0005008794832974,15.197286223256588,-11.19926638791561,8.85271612125039,0.166472926735878,0.1710356473922729,16.18479620839357,0.4827483296394348,2.884227403068542,0.0088050453791714,0
1726741129033353500,1.441313783328235,17.630410027003286,-4.802071780180931,0.1999115643067285,9.647178984490036,-1.7499597535222768,-1.0160865783691406,0.2439591884613037,0.2704747319221496,0.3332351940837519,0.4126044800276208,0.6472871515216845,0.5474771205346028,1.2749906778335571,0.46249920129776,-0.2663177847862243,13.768392068779468,-15.052357527840137,7.531202145040035,0.1307692974805832,-0.1462247371673584,16.210546735721827,0.356021523475647,3.159820121705532,-1.0101084051098674,1
1726741129073129200,0.7280804657936095,11.731887409973144,-2.7717338273108005,0.2571333712302148,9.690380997356772,-1.4835112953275442,-0.3874696791172027,-0.4180136322975158,-0.0044756131246685,0.3375933403231228,0.410261547538689,0.6382189945990397,0.5571290733793544,0.68799889087677,0.1498836427927017,-0.4133324027061462,9.743470197987556,-10.668568442875149,2.188346202351153,0.0359658673405647,-0.4701492488384247,9.566579261121154,-0.352470189332962,2.0171222052052618,-0.7341323862437158,2
1726741129112904700,0.5285687509920448,-0.6914040553033352,-2.5081425121128555,0.0990113774427212,9.723380765160918,-1.2714045220427217,-0.886017382144928,8.30549397505e-05,-0.5450153946876526,0.3509801819951832,0.4063171819269159,0.6322419957348335,0.5585601502208907,0.2626329362392425,0.3976502418518066,-0.6271765232086182,3.881892871516943,-3.635072073855996,-0.487732663539052,-0.2150598168373108,-0.9519004821777344,-4.084760545682907,-0.1062463596463203,-0.6525173483524471,1.0674097435429692,3
1726741129152680200,-0.853882582066208,-11.72063185646534,-0.911930135756731,0.082650372288376,9.781926477631924,-0.6909875103916973,-2.004150629043579,0.3774186074733734,0.3487762212753296,0.3601047219115916,0.3916733671810789,0.6179179002120965,0.5788730323776294,1.901562452316284,1.2692816257476809,-0.6166248917579651,-4.164627278602123,1.3893728759497403,0.1395920105636119,-0.3165495693683624,-0.4285056293010711,-11.81880464592576,0.1187412589788436,-3.239353969408572,0.7756292026277631,4
1726741129192455700,0.3111391021840274,-13.954209239423276,4.236652065849304,0.2615238978067413,9.803113058045506,-0.0310875409746542,-0.9460001587867736,-0.1309821605682373,0.473352700471878,0.3658530637931934,0.3830373267957443,0.5957075035291429,0.6037934350985156,1.148640751838684,0.6987714767456055,-0.3921418786048889,-10.696671086287498,9.060875472083689,-5.932595567023753,-0.1362426280975341,-0.2336810231208801,-6.496213200369477,-0.0224581640213727,-0.6367175755437463,1.2887902488686145,5
1726741129232231400,0.1180329070432111,-13.77204416154623,0.9713502929747104,0.3965708488192409,9.798567815831303,0.0345135653340024,0.2130356729030609,-0.04332010820508,0.1249429285526275,0.3650564119594881,0.3879381449595849,0.5896984768720436,0.6070367107813086,-0.1142847910523414,0.1657184213399887,0.1501572728157043,-10.190788433551788,7.628430931648611,-9.7935350823611,-0.0914871469140052,-0.2704253494739532,-9.545229014578462,0.2769055068492889,-2.200080479286611,1.0990647456746547,6
1726741129272007000,0.8455235537175089,-11.977115385484694,0.3049859863817691,0.3846472963893786,9.798839618510009,-0.0718508052200311,0.4066017866134643,0.0447724163532257,-0.1233320459723472,0.3625985623630814,0.3888509669249415,0.5936819830697372,0.6040354991606329,-0.32180255651474,-0.0500140339136123,0.3480173647403717,-9.24425401740372,7.114373155763745,-7.019587670654058,0.085823155939579,0.0323733277618885,-9.880826996845006,0.0726450309157371,-2.558257957629859,0.1942111241754144,7
1726741129311782400,-0.1234048824051395,-11.01564000531435,-0.6385118385493755,0.3305032529434189,9.79684113816917,-0.2881942799262702,0.6297668814659119,-0.0792021006345748,-0.1238364875316619,0.3603974004744728,0.3916383847489004,0.601093332930834,0.5961710107590066,-0.6368553042411804,-0.2277379631996154,0.4412910640239715,-7.76728293749988,6.20905337805748,-5.913426756173372,0.1802629381418228,0.0049548163078725,-9.310657457637786,-0.1358266919851303,-2.532792384722829,-0.2171832362988963,8
1726741129351550000,-0.5161236954387277,-10.42488009802103,-0.8943244095046072,0.2837364602671936,9.788621591356396,-0.522294493028149,0.6197202205657959,0.11027442663908,-0.1026971414685249,0.3569896764252556,0.3943534268900142,0.6091920740152877,0.588157219963598,-0.5360341668128967,-0.215779036283493,0.416454404592514,-6.593078414362669,5.488652945372462,-5.805265072140097,0.0894473567605018,-0.1517562270164489,-9.208777630352971,-0.2558628618717193,-2.5566370784297585,-0.0888291705211624,9
1726741129391324400,0.0814301645773463,-10.3796147228837,-0.964517159019038,0.2742586022227071,9.776723648291826,-0.714716103438288,0.3259818851947784,0.3783688247203827,-0.0054471874609589,0.350336998813371,0.3943342868298269,0.6172040586918187,0.5838009091974995,-0.1197887510061264,-0.2825201153755188,0.3868277370929718,-6.754761260703206,5.219454896208644,-5.391304916298389,-0.0492374487221241,-0.436977356672287,-9.327113502398133,-0.1763260066509246,-2.763138725183904,0.488356531058438,10
1726741129431100200,1.1843792956709862,-6.120838503509759,0.7789012100357562,0.2533389108506962,9.76615958417952,-0.8534211750995367,0.5575026869773865,0.3063258826732635,-0.2542587518692016,0.3434995928122546,0.3911511235524596,0.6249105282223917,0.5818037792755183,-0.1650140136480331,-0.3282979130744934,0.3071335852146148,-6.223672855040431,5.270325836268067,-3.819060275506973,0.0442877858877182,-0.1442092508077621,-9.353756594651935,-0.07401804625988,-3.859971254827082,0.2428623788913712,11
1726741129470875400,0.4496033508267253,7.714277323499322,1.0373967364646497,0.0367189390243263,9.756211021617055,-0.9926548737447708,0.2482513487339019,0.467098593711853,-0.6476877927780151,0.342566831707917,0.3815878400679389,0.6363977009998198,0.5762261422292252,-0.3995988070964813,-1.0645523071289062,0.2083900272846222,-1.932922119256854,1.9516162983328105,0.2486708094418048,0.2931587100028991,-0.4391626417636871,0.0213566214845515,-0.3167780637741089,-0.7963941235631704,-0.094159644828923,12
1726741129510651100,-0.7974183520443737,15.468011043596269,-2.3439666799128056,0.0104740420330723,9.742633162641525,-1.1186472518924624,-0.0309419017285108,0.3674303293228149,0.1882208734750747,0.3369103994654091,0.3784996867649497,0.6432519910865618,0.5739828074074681,0.8560786843299866,0.074949525296688,0.1547790616750717,16.751548632633686,-13.564938703680038,8.829977050697803,0.2129012942314148,-0.339160144329071,13.266652507197856,-0.1339349895715713,4.592410208091139,-0.3187001850880682,13
1726741129550426600,1.61798581674695,16.069907261931895,-0.2632745043337345,-0.0068377690315945,9.75036054202318,-1.0491964798517524,-0.0473198629915714,-0.3108974695205688,-0.3671451508998871,0.3402984648559671,0.3784319550438211,0.6405336739110783,0.575067707232124,-0.0801582485437393,-0.0728359371423721,-0.0807946547865867,9.763647893619536,-5.921732812225819,6.2977130737632505,0.6534667015075684,0.045758944004774,24.881390040040014,0.0661095976829528,7.772450111004709,-1.08699546463117,14
1726741129590202000,-1.206074263998121,10.01580829874277,0.3256955969333648,-0.0257425632175058,9.710468092095851,-1.3698665037080644,1.0853824615478516,-0.3670036196708679,0.3878760933876037,0.3370992485610279,0.3862738100930334,0.6485647971302427,0.5626014362418037,-0.6831735372543335,-0.0950003564357757,0.5187790393829346,8.510666186365485,-12.50285307776928,4.788079202924669,0.1376843154430389,-0.3640609085559845,4.978727739247679,0.0703637078404426,0.8791224564585834,-0.2214773350299335,15
1726741129629977600,1.0037454459492117,-0.3326847251683473,-2.4211551335334778,0.1477158053843304,9.705684949472548,-1.3958008631706238,-0.6757805943489075,0.0269727185368537,0.4610974192619324,0.3324863560410764,0.3935802380781393,0.6451826372499307,0.5641691648921514,0.0110078826546669,0.4470292925834656,0.3888203799724579,4.722441194105148,-3.14663856857121,6.049659519436955,0.0900891572237014,-0.3340025246143341,-2.560194478650391,-0.0229645427316427,-0.9558338671520352,-0.1454576694603078,16
1726741129669753300,0.4043967201393097,-7.442784441396594,0.4128944263063371,0.3000970452964305,9.73717898888886,-1.125918265808746,-0.638888955116272,-0.2913503646850586,0.312967300415039,0.3357535532434128,0.3964698971033081,0.6326274397881564,0.5743376815928424,0.9419139623641968,1.011874079704285,0.0847573578357696,-1.0988999835669997,2.4771815566599367,-1.340746792207658,-0.0120244389399886,-0.1985235959291458,-6.350265683299303,0.0111477533355355,-2.401257862278074,-0.0173179553943744,17
1726741129709528800,0.0686403689732775,-10.3502623716712,2.069606133419275,0.3600712562005966,9.753207748147844,-0.9569012771878392,-0.0873527079820633,-0.0956896468997001,0.0879368707537651,0.3390670396840874,0.397275119301371,0.6252686347520496,0.5798664422112652,0.3943472802639007,0.4456787407398224,-0.0673494189977645,-6.846357009860873,7.181663315704465,-5.930150511959194,-0.0495799891650676,-0.2681708931922912,-7.094476615160703,0.0970557928085327,-2.0879829171091315,-0.0207917244606534,18
1726741129749304300,0.3027734614314511,-10.802180794507263,1.0125696806568651,0.3453071100499481,9.741848149743676,-1.0712280597221109,0.4902012050151825,-0.1796630620956421,-0.2076549977064132,0.3393983803802468,0.4012157852986254,0.6274100126648177,0.5746227201727409,-0.3647955656051636,-0.0924345701932907,-0.0155160473659634,-7.297119832921028,7.297547702944279,-7.032515541288256,-0.0802993029356002,-0.2683247327804565,-8.063588189297914,0.0324367210268974,-2.774145856888592,-0.4965925906145945,19
1726741129789079800,0.1395804297236725,-5.5334682386547325,1.047347490984201,0.2090750043734908,9.712846511664988,-1.3368964003898205,0.9206067323684692,-0.177482858300209,-0.3675523400306701,0.3396305337571261,0.4033646151941034,0.6367572040656676,0.5625730144136372,-0.909151017665863,-0.3373670279979706,0.1005267351865768,-6.187063664567471,6.0585834151268,-5.271984709390997,0.0006840395508334,0.2894109189510345,-4.950523389026523,-0.2677280604839325,-2.149989437558502,-0.855874997992441,20
1726741129828855600,-1.6730623918026686,7.729162173420191,-1.5997801518402992,0.0813671640774235,9.660372812584042,-1.6855128541834652,0.6843544244766235,-0.3588468730449676,-0.0431504100561142,0.3390993509396946,0.4088496694922549,0.6471315072556695,0.5468769120245914,-1.3309526443481443,-1.0986372232437134,0.2183333337306976,-2.084410903841257,1.5338894834339618,-0.7694117163524031,0.3164449334144592,1.2867810726165771,5.103480492597818,-0.3124759793281555,1.080070341543108,-1.3278382107958198,21
1726741129868631000,-0.805629423289746,20.464962421798703,-4.4438989780128,0.1719139887040481,9.647810852652787,-1.749452096261084,-0.2867566347122192,-0.3877061605453491,0.511975109577179,0.3396006521015911,0.4182410333324557,0.6436393936022756,0.5435753869456462,-0.1968819350004196,-0.1763686090707779,-0.3783664107322693,14.840641361308096,-13.296166186451911,8.50425982645452,0.1361260116100311,0.8863257765769958,15.087987644147873,-0.034885961562395,4.681263672803342,0.1435473788595758,22
1726741129908406500,3.0979882271707058,25.0353227106452,-3.292826324138045,0.2652666462653316,9.680603699707984,-1.544658568599075,-0.7967658638954163,0.1712578386068344,-0.0634866803884506,0.3415704069959476,0.4179382554884784,0.6356754548852301,0.551882378428792,0.3963713049888611,-0.1504159420728683,-0.6314128041267395,14.285864621543883,-16.268282300853727,7.37792706156075,0.0309707783162593,-0.1503559947013855,22.7519931625247,1.1428707838058472,7.165474397447705,-0.4677740540178492,23
1726741129948182000,1.2369688762165605,17.79471211593151,-1.216262772796303,0.1646864851359278,9.713768887206912,-1.3364056942634284,-0.3785436153411865,-0.5199940204620361,-0.2714166939258575,0.3515414186704721,0.4139467573289437,0.6299093647982412,0.5552305989373109,-0.2201158851385116,0.327985554933548,-0.2376347929239273,13.661553157782556,-14.416539166158437,8.691963249236345,-0.0710108652710914,-0.7950390577316284,12.974274657976627,0.7480093240737915,4.672851526027918,-1.5007812868192791,24
1726741129987957800,-2.931211564822495,3.2917607407331464,-3.597236556458473,0.1602223453339189,9.750203890156746,-1.0383868434805423,-1.3259047269821167,0.2771413922309875,0.2372989803552627,0.359847780306485,0.4104437698215055,0.6200636299715726,0.5635305093356809,0.6012016534805298,0.6703396439552307,-0.1257203221321106,8.55461229559779,-9.461220359548928,4.668011392520368,-0.305945873260498,-0.9130613207817078,-2.32735018389374,0.3922528922557831,0.1122565155988559,1.5158951231904327,25
1726741130027549700,1.104809280676022,-12.58882572634816,-1.262754328727722,0.1888078586260788,9.79898224185109,-0.3386671971114352,-2.099914789199829,0.162744864821434,-0.1367579698562622,0.3700518303210512,0.3947153377307001,0.6012212770420277,0.5880429099479508,1.9129652976989744,1.873819828033448,-0.5877273082733154,0.49456221729815,1.9079472524762155,-3.0914684700131416,-0.3115861713886261,0.213614821434021,-10.980194597923756,0.7332301735877991,-4.120347991892695,1.5404830364800988,26
1726741130067317500,0.949197351747006,-15.59605407066345,4.1963557112962,0.1799678235610947,9.797297649765014,0.3885402852399274,-1.1575913429260254,-0.3342586755752563,0.1346710175275802,0.3850792525821884,0.3808100616049215,0.5789418416980417,0.6095277430789543,0.9608898162841796,0.5968111753463745,-0.8509454131126404,-13.41532564983964,13.345710261821749,-7.032936397048831,-0.2713957726955414,0.0905198454856872,-5.393983195596933,0.3098006248474121,-0.8905780625831335,0.65470799026452,27
1726741130107085000,-0.1448664438351988,-13.371796304714678,3.151388393446803,0.2563463490383699,9.794110251900554,0.4243520051922649,0.6003115177154541,-0.5060293078422546,0.0939185917377471,0.3897748678518146,0.3883653542910439,0.5723079773781022,0.6080390290498584,-0.4560785889625549,-0.202469989657402,0.3706246614456177,-10.56149221599102,8.143778747344017,-8.67272604932487,-0.3647601306438446,0.0814912617206573,-9.621090603509543,0.3549151122570038,-3.51275736130774,0.0643921826100442,28
1726741130146852600,0.3136578070066869,-11.16993040331602,-0.2008651021718978,0.2331181797945871,9.801345463851094,0.2228613732668571,0.5355596542358398,0.2283559739589691,-0.1268414855003357,0.3876909732481233,0.3928376462888788,0.5782004978441219,0.6008813948047421,-0.776227593421936,-0.2260238379240036,0.5358231067657471,-7.555520009216666,7.827835313618182,-5.913619648396969,-0.1221980080008506,0.1672100275754928,-9.098754244101046,-0.0722982808947563,-2.430500907897204,-0.5092866890255362,29
1726741130186620400,0.966698813907057,-10.527519803762436,-2.420893267726898,0.1775798872449435,9.804770762124656,-0.0729672876951051,0.7694963812828064,0.4227052927017212,-0.2500740885734558,0.3796058374900168,0.3932049477008367,0.5908554521672257,0.5934468392118359,-0.349785178899765,-0.1575289219617843,0.511819064617157,-6.804038209569454,4.933786773759127,-6.399169122678041,-0.0430601388216018,-0.1472769230604171,-9.49379459541738,-0.1554533541202545,-2.41880973945111,-0.3393226653454825,30
1726741130226388200,-0.3676903529021889,-11.060236687409876,-3.187811705958843,0.0847257811897899,9.802531458765268,-0.2712109964214265,0.3100256323814392,0.3211133182048797,-0.1147350817918777,0.3735992817239643,0.3892951232401252,0.6018946910810649,0.5887236272105713,-0.1514119207859039,-0.2457898706197738,0.3250874578952789,-6.816538794702291,6.2748372250884765,-6.215728033515811,-0.030890692025423,-0.1718811243772506,-9.773965289494395,-0.1849115490913391,-2.7634564128309487,-0.7304539169266819,31
1726741130266156000,-0.4846510276040062,-9.79514134851396,-1.067533369922638,0.0674612878570798,9.80127765931189,-0.3175119616841897,0.0464068837463855,0.3615525066852569,-0.0104210553690791,0.3696513390356936,0.3859995904886495,0.6059644546770583,0.5892108334854177,0.0757975280284881,-0.2584817707538605,0.2024738788604736,-6.37988808362484,5.89522708261609,-5.36150014514327,-0.1244499534368515,-0.2093691229820251,-9.725287475565075,-0.1934162974357605,-3.0422789071694014,0.1573278842677362,32
1726741130305923600,1.6934858788892626,-2.9600428147703406,0.2464905427932739,0.0479967454631347,9.800127320232988,-0.3543795108323916,0.0430672205984592,0.1586610227823257,-0.3192340135574341,0.365176446787703,0.3816134165528169,0.6102782374253192,0.5904047955028279,0.1053921729326248,-0.443508505821228,0.1608509272336959,-4.910951257094741,4.798357143571972,-3.560281329026818,-0.0592892207205295,1.5433897972106934,0.9678112321283668,-0.4055486619472503,-0.1005281386812217,0.8301564732376485,33
1726741130345683500,-2.083000744782388,9.70681307671964,2.100106485623121,-0.0042940796084949,9.798446819800136,-0.4009721525181084,0.3246075212955475,-0.0055372021161019,0.3250459730625152,0.3643916193478703,0.3793393958314942,0.6136330440663464,0.5888758297633786,-1.8229881525039675,-1.31289541721344,0.0932491794228553,1.9228905545860528,1.042392498925328,2.7189889100730418,0.2302067428827285,1.3882907629013062,8.346597321671247,-0.5024241805076599,1.763111496040225,1.1073677329871805,34
1726741130385451000,-0.1020676232081837,14.813274046432973,-2.349694994431734,0.1185275952249765,9.800165314155816,-0.3362998103929683,-0.4372187256813049,-0.0019190912134945,0.1548884063959121,0.3610464554414009,0.3810510129924265,0.6098742852408296,0.5937162396957272,1.3608808517456057,-0.4843553900718689,-0.2694024443626404,9.99232688539028,-13.469713073587418,6.690272129657864,-0.0190728157758712,0.1489293128252029,10.637530330532789,-0.3937196731567383,2.413065496710688,0.5158250047530979,35
1726741130425218800,1.02109559000507,13.98401985579729,2.1842998495697974,0.1534099436390213,9.80401848245263,-0.167484445291385,-0.1070222929120063,0.5679399371147156,-0.0367695838212966,0.3603621775833061,0.3760956684404625,0.6058806632012472,0.6013315880727471,-0.0588769279420375,-0.1692641079425811,-0.1527665257453918,9.790921100470424,-7.410904617533087,2.823428358712792,0.0984756350517273,0.0848797112703323,17.872080602294204,-0.4935467839241028,5.190244583815336,-0.5590842276997864,36
1726741130464986600,0.8658597278468311,6.563388209497928,0.7905752081513404,0.1232446594752837,9.801280581921338,-0.3002133834187872,0.4285395443439483,0.1982950717210769,-0.1477233469486236,0.3533378532197885,0.3720735039986027,0.6138956996333963,0.5998715718374423,0.1914141327142715,-0.3052040040493011,0.2645268440246582,5.938018176594376,-9.78982746001482,4.290518388332426,0.102567121386528,-0.2721330821514129,4.540591758048534,-0.232001319527626,1.2045134444221854,0.5611611435716971,37
1726741130504754400,-0.4373734723940491,-1.881004300493002,0.9532113366287202,0.0704617117820773,9.801025730377436,-0.3245843112232163,-0.0989559665322303,0.0835033506155014,-0.0137020032852888,0.3531305388692224,0.369459958442683,0.6164807653474788,0.5989572814425799,-0.0098569188266992,0.2468865662813186,0.2926400601863861,3.3605554600179195,-0.3393728246301412,2.99659998279512,0.100943699479103,-0.5316888689994812,-2.5581512823849915,0.1571211665868759,-0.2652270631736144,0.6821884101253003,38
1726741130544522000,-0.671664678023383,-5.990699380946159,2.017374426400661,0.1552654535789042,9.800023859858513,-0.3252722569547593,0.1152009144425392,-0.0987615585327148,0.3109336793422699,0.3511572926602386,0.3727857946783847,0.614503881761486,0.6000868525630243,0.3126300573348999,0.3422695398330688,0.3560399115085602,-1.3109119181752205,2.9129928943037986,-0.1884288144469261,0.0772958472371101,-0.1700861454010009,-6.25000731973648,0.1967829316854477,-1.8310856927223504,-0.0695751473390497,39
1726741130584289800,0.2972333994936197,-8.48294348218143,2.08735338703394,0.2140782377545721,9.793620422556996,-0.4578001378184184,0.6424370408058167,-0.1823676973581314,0.0173381175845861,0.3482498710893441,0.3784686103824024,0.616524794034425,0.5961382954622632,0.0242890659719705,0.3076895177364349,0.3481377065181732,-3.737182202765345,6.505975884971022,-3.1635546320587395,0.0226149503141641,0.0343716889619827,-6.939051660171151,0.1796687096357345,-1.9324464645691213,0.2720202487113885,40
1726741130624057600,0.6064459540618583,-9.544552722752094,0.3386720559496432,0.1941152260528877,9.771851658341289,-0.8022497177235781,1.0246556997299194,0.0073267463594675,-0.1534560322761535,0.3430342587085265,0.3848679227317111,0.6267216552318523,0.5843150535136848,-0.7871023416519165,-0.0905718430876731,0.2432725727558136,-5.897454111015796,7.227135611590743,-5.496809948343039,0.114672303199768,-0.0333025716245174,-7.606630018728971,0.2071430683135986,-2.231049179654568,-0.0967347103481646,41
1726741130663825200,1.0518183527879417,-6.296620017829537,-1.2207659294344484,0.1187964387616142,9.72855962910354,-1.2294004867888986,1.0486220121383667,0.1199800595641136,-0.2628035545349121,0.3357903118297681,0.3887532988746917,0.6415238544689233,0.5697043049826217,-0.9339706301689148,-0.4703520238399505,0.3866732120513916,-6.338307534480094,5.149418652430176,-4.578597955837846,0.1526594161987304,0.0103915054351091,-5.975959492453932,-0.0660448968410492,-2.015983264303207,-1.080297574427724,42
1726741130703593000,0.336972412424907,7.691039071252941,-1.1406406917095184,-0.0320110284781432,9.689967155858874,-1.507944894838333,0.511799156665802,0.5620813965797424,-0.5578420758247375,0.332159612704769,0.3856882231326393,0.6543152025379775,0.5592729128198209,-1.120455265045166,-0.9439196586608888,0.3725573420524597,-3.767886553108692,2.422273323908448,-1.0565621863141654,0.0654058679938316,0.5160096287727356,1.551435076996684,-0.2391165792942047,0.0033362568667973,-0.911414806645736,43
1726741130743360500,0.3929150297254323,24.976339775800703,-6.674020667558908,-0.1540935419890098,9.642319269499184,-1.781103079804778,0.2429938167333603,-0.6088442206382751,0.1486104279756546,0.3287822161979599,0.3844808194880619,0.6655715487033365,0.5487178915700447,-1.6723408699035645,-0.0569572634994983,-0.3779943287372589,14.055902019703389,-14.81667128765583,6.044121759054065,0.1650864034891128,0.0364259779453277,18.82788728917837,-0.0838212817907333,6.611739275690913,-1.359498546689749,44
1726741130783128300,-2.073277953799814,27.84467519773245,-6.086860246062279,-0.0298784254797967,9.723640877401827,-1.2729153649970888,-2.10933518409729,-0.779809832572937,0.5371754765510559,0.3467673240690382,0.3931543818101921,0.640570259403672,0.5611166227299458,0.1142695546150207,0.02461988478899,-0.486831784248352,16.312486184239386,-17.25160360212922,12.118469145023822,0.002754517365247,-0.0691841095685958,27.0925778965354,0.4285019040107727,6.616403760370612,-2.146532428972423,45
1726741130822896000,-1.0750926992610097,12.884976079845428,-1.9232173023223875,0.1687378246196545,9.767314014911651,-0.8610892255093902,-0.5341539978981018,-0.4737711250782013,0.4385237395763397,0.3565499356297255,0.4001221115893173,0.6195204815338177,0.5735579621935254,0.7263311147689819,1.2084230184555054,-0.1890677213668823,15.041127693295476,-21.706344292151925,3.4908293148770926,-0.4583538472652435,-0.9195645451545716,13.01223935471177,0.25987508893013,3.961716934338212,-0.8434373220279813,46
1726741130862663700,0.9502204842496664,-8.469725104168058,-2.6696318817079066,0.3404037020478397,9.793868259838224,-0.3669636095302179,-2.1097729206085205,-0.3014525473117828,0.6250171661376953,0.3652493972414533,0.4002230052347535,0.5987749847315157,0.5898160715028782,1.2875546216964722,2.133143424987793,-0.3739162683486938,4.3528298830777405,-3.174898448371887,0.3373649919390678,-0.6064216494560242,-1.0919348001480105,-8.946514933410286,0.4408322870731354,-3.0321438821241258,1.2495526095882057,47
1726741130902431500,2.2743165128424763,-15.997636975491046,3.459560608649254,0.5592208962241187,9.773611069229243,0.5781109266657382,-2.1447174549102783,0.1573814898729324,0.1214373111724853,0.3794435084018692,0.3905476405343825,0.5639123041066606,0.6208850566786659,3.4626924991607666,1.1321223974227903,-1.005350112915039,-8.279458552899957,10.77544242518544,-4.204778671726584,-0.6422950029373169,0.518897533416748,-6.564173222395778,0.1532159000635147,-1.397342539654672,1.0871017745498568,48
1726741130942199300,1.4361755436569452,-14.3124276342988,6.413769894960522,0.3641142845137045,9.77361983705759,0.7170605476725846,1.4683892726898191,-0.1290933787822723,-0.8575486540794373,0.3862113541695393,0.3802188107266766,0.5646890674448392,0.6224152660293,-0.1303537786006927,-0.4346556067466736,-0.1276391893625259,-13.985053290498255,9.778643802699444,-12.929551719152927,-0.5110806226730347,-0.2416982203722,-9.574180968296528,0.1668538004159927,-2.786644980716705,1.214579861210659,49
1726741130981966800,-1.5024424980297684,-12.246660640650989,-2.544341368219256,0.0645748000347986,9.805172328662872,0.1574721333103254,0.7539255023002625,-0.358483225107193,-0.4377180635929107,0.3897519189637067,0.3874019957217046,0.5847143312609516,0.5967597838056358,-1.704654097557068,-0.4194642901420593,0.2806355059146881,-8.50750333842039,9.868122998094558,-5.13801755297184,-0.2864535748958587,0.1495331823825836,-10.011423215526342,-0.1977775394916534,-2.8837144851103425,-0.0691324176733847,50
1726741131021734700,-2.14766187139377,-9.256741743054986,-0.9126888451695442,0.0753305873269215,9.806360077142717,-0.0024947927970541,0.3671647012233734,-0.1184409856796264,0.2402446120977401,0.3881778176358736,0.3928055231598319,0.5880739919468617,0.5909236407704659,-0.2732949256896972,-0.3912771940231323,0.2832429409027099,-4.748607316496968,4.894830143377185,-2.7761852537617084,-0.1273306310176849,0.2504950761795044,-10.023522818642856,-0.5605669021606445,-3.110020610269904,0.0149017097241245,51
1726741131061502500,-0.7945788908347488,-9.34149741705954,-1.4433973116040228,0.1346770765204913,9.804925075903537,-0.1252542639983352,0.1071227416396141,0.1011183783411979,0.0573116950690746,0.3842497506256031,0.3973348094245739,0.5903484052871575,0.5881887059676086,0.0631930530071258,0.2933133840560913,0.1170698925852775,-2.864450104930997,6.556288022103906,-5.604755943799018,-0.1328029036521911,0.2792280912399292,-9.546640634942056,-0.5328264832496643,-2.549410634307564,0.0227738267721375,52
1726741131101280500,0.4650490495007485,-10.256680417132378,-0.7266144848942756,0.1165921610498335,9.805523626318571,-0.0922025924770161,-0.1302732527256012,-0.1508007794618606,-0.1619514375925064,0.3854687621966792,0.3961496591187179,0.5897172810585193,0.5888232659460955,0.0913256257772445,0.1076820641756057,-0.1710315346717834,-5.583436092394591,7.33010732576549,-4.821602410081029,-0.1483713537454605,0.2951473593711853,-9.534940260276198,-0.4375621974468231,-2.2767186055481434,0.3528230021053924,53
1726741131141048300,0.5637036311287432,-9.859717573320864,0.2871720790053718,0.0471168984552612,9.80510043247044,-0.1679115663959644,0.4749501347541809,-0.2687597274780273,-0.1455964297056198,0.3896818588838804,0.3992561544870834,0.5908939249707916,0.5827410143504652,-0.7627402544021606,0.1059919148683548,-0.3412224650382995,-6.516024400776624,7.244601710176467,-5.801036056268215,-0.160583034157753,-0.0547427833080291,-9.07520911786258,-0.3312751352787018,-1.8070996908485888,0.423142848598212,54
1726741131180816600,0.4444795415395871,-5.245451507252454,-1.510682795369625,-0.029534441197582,9.79952234007716,-0.3726557932898402,0.3846193850040436,-0.3599929213523865,-0.2441498339176178,0.3905359045110481,0.4038732815244485,0.596562260463615,0.5731330969230523,-0.6055434346199036,-0.2131931483745575,-0.0233014002442359,-6.700707014432549,4.131903989651799,-4.082537901197374,0.0215592887252569,0.6831110119819641,-8.661168298000097,-0.4125955700874328,-4.278001436586678,-0.8868592612557112,55
1726741131220585000,1.4206952120609582,11.474883656471969,3.5916871056377886,-0.1246837889003101,9.790115629306436,-0.5553902320200577,1.1826456785202026,-0.0912222266197204,-0.1627049893140792,0.3905231914328445,0.4056557909597603,0.6031255257744044,0.5649553300661677,-1.2692985534667969,-1.4562538862228394,0.3031226396560669,-1.4715034621477123,0.5980214227288961,1.1388146453261374,-0.2159394472837448,-0.0121888779103755,8.177325043115019,0.1170298159122467,3.275084915742278,-0.7660896592576056,56
1726741131260353000,0.613793138486892,12.905512671917675,-7.115801142740249,-0.1837346470150165,9.752912564593553,-1.0086227696619927,0.2257365882396698,-0.2562787234783172,-0.2434322983026504,0.3826817880296834,0.4127368482938564,0.6173117081231732,0.5496627914716352,0.1180294081568718,-0.0539622716605663,-0.1159170195460319,14.954197597861288,-15.276827962005138,5.230937828731537,-0.1835401952266693,0.5159242749214172,3.91131799570471,0.3401647806167602,-1.3126567160159348,-1.440584884531796,57
1726741131300121000,-0.2768912888138555,14.727100322324036,0.7953682876467705,-0.2641984690445475,9.770221426790952,-0.8021024182073772,-0.4715081751346588,0.6212030649185181,-0.1222182065248489,0.3891383051666647,0.405952659760258,0.6132685223299706,0.5546851215489016,-0.6012256741523743,-0.1832609325647354,-0.191361516714096,8.009886409726738,-5.268749380731582,6.478878034687042,-0.0257742721587419,-0.6710376739501953,21.007005936717984,-0.0589380338788032,7.173915478056669,-1.3576906204849482,58
1726741131339877400,2.042582371284813,8.216610759320854,-0.3735713006995618,-0.3142678286638111,9.750225517466664,-1.0023460274800655,0.9308802485466005,-0.200373113155365,-0.3550206124782562,0.3813696131862107,0.4026805193406272,0.623661624823423,0.5508644749411423,0.3595690727233886,-0.4841110408306122,0.1951877325773239,6.503377100649476,-14.151656057584283,1.795991436856985,0.1458138674497604,-0.3360336124897003,5.265995698109269,0.3359797596931457,1.6027629670433698,-0.06925640024608,59
1726741131379645400,-0.3663336775962263,2.119189371755719,-0.7658077735763043,-0.4705896228952333,9.73614847679734,-1.0753332300186156,-0.3097500801086426,0.2742001712322235,-0.2260721921920776,0.3855532936087414,0.4005753266818693,0.6279857823434459,0.5445382638740623,-0.6376065611839294,0.1725067645311355,0.158022254705429,4.077475649371743,-1.5655822602927685,4.288173286511004,-0.0779802799224853,-0.262582391500473,0.5858741810783743,0.292898565530777,0.3659573916297405,-0.42205669732932,60
1726741131419413500,0.4230443566597998,-1.466482419115305,-0.1430732768081128,-0.4324713430335745,9.75071826941967,-0.9522742749743164,-0.3407894670963287,0.1450050473213195,0.1407506465911865,0.3838410243143208,0.3957629261674098,0.6260384826606391,0.5514648693302691,0.7429497241973877,-0.0697885826230049,-0.0392320305109024,0.4737088143616914,-3.4712492928773164,1.583248265364766,-0.2222893089056015,0.0923454910516738,-2.514816583049297,0.1858582347631454,-0.8047000334851443,-0.2241398322374559,61
1726741131459181800,-0.2826665294807404,-3.415331006300449,0.910204627138376,-0.4314041521934792,9.762958157789706,-0.8178783717490732,-0.2963292300701141,0.1403029859066009,-0.0271357856690883,0.3859152552285177,0.3924588667529066,0.6226365144430238,0.5562097277525387,0.5717132687568665,0.3637704849243164,-0.1696884483098983,-1.010059086075425,2.7662971892148254,-0.6431406673938036,-0.1660992205142974,0.372410237789154,-2.4724840464934705,0.1520445793867111,-0.9214894067406654,0.1342864149687811,62
1726741131498950000,-0.0030503274813294,-2.8637270513534543,0.2578185770153999,-0.3952849006619304,9.770849203300475,-0.7380053552195429,-0.1528050899505615,0.1875665932893753,0.1361991316080093,0.3846862847030223,0.3900333162308537,0.6208879246532847,0.5607037626242717,-0.0042512309737503,-0.1085551008582115,-0.0562311895191669,-3.0182208629727363,2.645638427180052,-1.6101479627281423,-0.0407306179404258,0.5079346895217896,-1.78902568949759,0.0405274555087089,-0.6528097554277629,0.0525762415733886,63
1726741131538718000,0.4414855838879942,-1.5546657294809818,0.6218786105912179,-0.3252172753645106,9.775906486690044,-0.704479444649443,-0.0115462811663746,0.5815126299858093,0.1643647849559784,0.3788687537864023,0.38668347203051,0.6216062651925564,0.5661626101791664,0.1986068040132522,-0.0806834250688552,-0.1038652807474136,-0.7321189275294542,1.6368050835072994,-1.731224073392153,0.0240431725978851,0.5334820747375488,-1.0724372163161635,-0.0252741239964962,-0.3869191868441179,0.1198301291909068,64
1726741131578486300,-0.0577445156233385,-0.8331424302458763,0.5869524047691375,-0.3203897821428254,9.76905062944591,-0.7958466457482427,0.4760740995407104,0.1994444727897644,-0.088984191417694,0.3723388661758016,0.3835324131975525,0.6272796616230688,0.5663804630295851,0.1083597317337989,-0.3758891820907593,-0.0033231643028557,-1.532542160478234,0.5458890844315291,-1.4418722939938309,0.0964936912059784,0.4618639349937439,-0.0994377770280931,-0.0926047638058662,0.3295300970623269,-0.0141969213139906,65
1726741131618254300,-0.8228172163907438,-0.4828548283696174,0.6416086355209351,-0.357524421261996,9.740484460175036,-1.0795974633343517,0.9279767274856568,0.0172771550714969,-0.058926947414875,0.3669498420941404,0.3867411397700999,0.636769535267276,0.5570491127696214,-0.6523000597953796,-0.2451548725366592,0.1151454895734787,0.2159258931815624,0.900745309397578,-1.2356789825364949,0.0736123025417327,0.3802700638771057,-0.1056514730443246,-0.2491293400526046,0.3178096659891307,-0.2944034184983931,66
1726741131658022400,1.0487556772816926,-0.7467208688557148,-1.7305610794387756,-0.3266046015370637,9.696096452394126,-1.4315798864297569,0.6410893201828003,-0.1688694506883621,0.1423889994621276,0.3608371498710301,0.3965075043238557,0.6448038917348942,0.544799266122734,-0.5949592590332031,0.0227142348885536,0.2167250365018844,0.5191512996315956,-0.3986433442443609,-0.3382993501797318,0.0029379818588495,0.4264708459377289,-0.1821257322473451,-0.3714311420917511,0.1193671330553479,-0.2755697213538922,67
1726741131697790700,0.7197440876681357,1.0944149471074345,0.2534020757474005,-0.2742728682100773,9.69236077299714,-1.467411955050379,-0.2728165984153747,1.2373249530792236,-0.0416804477572441,0.351564214793128,0.3905471262908496,0.6498385430866264,0.5491679195659678,-0.1813264042139053,0.1035909727215766,0.0289897676557302,-0.9804407774031162,-0.4585749581158161,1.6256261023670433,-0.0605150647461414,0.3615419268608093,-0.0702082393445074,-0.4484346508979797,0.0187861419505265,0.0492134369096718,68
1726741131737558800,1.7534021490611136,0.3608966741740703,1.100302836102247,-0.1913353130107745,9.696097036916017,-1.4558419287659228,0.3754626214504242,0.337648332118988,0.0328241400420665,0.3383206353349818,0.3800390937401361,0.6555894828857142,0.5579532934369211,0.5621240735054016,-0.329553484916687,0.1399278044700622,0.4172995293974876,-1.9959394241839643,0.889881970077753,-0.094792790710926,0.1523531079292297,0.4866758844951167,-0.2854150831699371,0.5215111971633508,0.614491861340776,69
1726741131777327000,0.1329799172137863,0.3255769389897585,0.6991057157218455,-0.1859517933415249,9.659291447088124,-1.6834220193840563,0.6227318644523621,0.1104743480682373,0.0083292741328477,0.333253307468631,0.3836668805791685,0.662291750460814,0.5505557655831772,-0.7157940864562988,-0.0567795820534229,0.0080109164118766,0.1582417659759521,2.1297090122044087,0.101879535023868,-0.088042251765728,-0.0982704982161521,0.2024534125429578,-0.0775727108120918,0.091692240935238,0.6973620138596743,70
1726741131817095200,-1.0649043365933,-0.9721797295361756,-1.131099833165109,-0.1574852667865343,9.630060091906785,-1.845940001374483,0.0060269627720117,0.8962583541870117,0.0324109941720962,0.323484457526356,0.3804609446681123,0.6703478314086642,0.5488542079904941,-0.7121835947036743,-0.3272698521614074,0.0138947702944278,-0.4098766859203577,-1.5565139876961709,0.1021637587927281,-0.0206944476813077,-0.0210698973387479,0.0151642924833344,0.0774225667119026,-0.1282765709615778,0.7601402493339031,71
1726741131856863200,0.6451489384762943,0.0315974997907876,0.0832932002365589,-0.0525839408226544,9.670455815181136,-1.6278531307667492,-0.6725565791130066,0.8973432779312134,0.1136728227138519,0.3132097178643948,0.3667025549914287,0.669721323096526,0.5647143414593496,0.1139315962791442,-0.2645454406738281,0.0700430646538734,0.2290495786488056,0.5355599981188773,1.2715303403794764,0.0771091356873512,0.0199572406709194,-0.037945017070428,0.1442925781011581,0.0886291087712626,0.6239386118609458,72
1726741131896631600,-0.0299984031642321,0.0140180039584636,1.284582714176178,0.0849154128772206,9.681151981240513,-1.561561918735504,0.3148633241653442,0.3865762054920196,0.30445596575737,0.3028712132385324,0.3615270695494088,0.6700116978366698,0.5732813787092436,-0.2704387009143829,-0.0377608835697174,0.0164885576814413,0.1698521242707967,-0.1333066466838121,0.017023615515232,0.0867564529180526,-0.004304529633373,-0.0313318597081,0.170225441455841,0.0539632709184195,0.4900616910085081,73
1726741131936399400,1.5160793937161563,0.2437508886963129,0.1149450605630874,0.1881433303027413,9.646396894201636,-1.7555713097937404,0.5057781338691711,0.1956895440816879,0.0486164987087249,0.2931074541898402,0.364500101763511,0.6757580200724139,0.5697182305221703,-0.5693135261535645,-0.0025160745717585,0.1011883988976478,0.3986059348434209,0.8051333103358745,-0.029368133303523,0.0549786463379859,0.04892273619771,-0.2227403772356919,0.160942792892456,0.041318765536556,0.2516416419461369,74
1726741131976167700,-3.677201781316101,-0.2328138996183872,-2.4241494930438696,0.1704444093418307,9.629159928196668,-1.849501347117871,0.0060859159566462,-0.1244255676865577,0.0783119946718216,0.2902468204019314,0.3633800655953957,0.6798920884218371,0.566973212697324,-0.3066134750843048,0.0105687277391552,-0.0065547106787562,0.0956517465502023,0.462709865963459,0.6681114425212145,0.0277196168899536,0.1732618063688278,-0.3196413383956998,0.1136863380670547,0.0601077650228049,0.1584111129271797,75
1726741132015936000,-0.260598124731332,0.38001346257627,-0.6262156899474561,0.2595506980376318,9.638522799825669,-1.7893832707636057,-0.1578577905893325,-0.3679304718971252,0.425371378660202,0.2926741043959052,0.3702610625889698,0.673899031915176,0.5684264965976845,-0.6973268985748291,-0.0492441654205322,-0.2728029787540436,0.6656155340522527,0.0286456642478704,0.5252350034594535,0.0044041480869054,0.2499839067459106,-0.2003833100043237,0.0983767285943031,-0.0117537944866809,0.2068873216034844,76
1726741132055703800,-0.1841539866719394,0.320143223503232,0.0554899781621992,0.3304994535511359,9.658439798694848,-1.6660395074285566,-0.4476588368415832,0.5907552242279053,0.1064328774809837,0.2908385370611244,0.3684046701436369,0.6702405320051431,0.5748639338467719,0.0453096665441989,-0.1507466584444046,-0.2266190350055694,-0.828008574488759,-0.934517230618,0.1671826128005981,0.0187886301428079,0.3191160261631012,-0.0928052710779011,0.0785635933279991,-0.040903312036884,0.0882156325995456,77
1726741132095472000,0.0992823216049,0.3151426387369632,0.7830841217435895,0.4076899529984221,9.668976974800229,-1.5858892813928425,0.0278382450342178,-0.0199002493172884,0.1127168089151382,0.2856737088553124,0.3648118484030261,0.6691563087758724,0.5809755594560123,0.0405543260276317,-0.0217130444943904,-0.1124019846320152,0.7451952667236328,-0.4493061945110559,-0.2164860112823546,0.0202421955764293,0.2772146761417389,0.1664260588122531,-0.0631180107593536,0.0409134909376036,-0.2030989256385713,78
1726741132135243300,1.2731380678370594,-0.0777238756716251,-0.5843956329584121,0.347586818484962,9.672636666351556,-1.577867741370201,-0.1738043278455734,-0.654955267906189,-0.265725314617157,0.2915086976049871,0.3670907865133142,0.6676025888962642,0.5784235540334224,-0.6569459438323975,-0.0155654046684503,0.0017954311333596,-0.1317839671611785,1.845651832082868,0.0865302824616432,0.025102125480771,0.1360581666231155,0.2355915111055597,-0.25464928150177,0.1007405393228866,-0.3583537116929888,79
1726741132175011300,-0.45591465286538,-0.4164864594489336,-0.1803834551572799,0.2211331247021444,9.685338327014446,-1.521743995349109,-0.138011023402214,-0.3105456233024597,-0.1255560368299484,0.3031064555123547,0.3696871787604618,0.6640171217188867,0.5749253414646726,-0.8300298452377319,0.0884206518530845,-0.0859703719615936,0.1041670614391565,-0.4831359833985567,-0.4848896951980888,0.0262860804796218,0.0510068051517009,0.101304566413816,-0.3301003873348236,0.028522581290896,0.0106349465245846,80
1726741132214779600,-0.6656766896549612,-0.2525742466211318,-0.2567407186508179,0.2157164882145822,9.693210667824744,-1.4715733125135302,-0.1569571048021316,0.2163068503141403,0.0347349122166633,0.3045969748982566,0.3691451126482693,0.6623905527832264,0.576360438398541,-0.2206897884607315,0.1048174127936363,-0.1960147768259048,-0.6247673908352851,-0.8017553583353757,-0.3295795987598597,0.018579326570034,-0.0356583334505558,0.0342770257649244,-0.2553309798240661,0.0169774177363491,0.1281457019903697,81
1726741132254548000,1.1354407849788666,0.241171393597126,-0.1484498552799224,0.1948374576465226,9.706586866748331,-1.383690008007735,-0.2374537736177444,0.1050514131784439,-0.2309689968824386,0.3048837645011732,0.3647651952411895,0.6614339812740452,0.5800839306897482,-0.2449011206626892,0.2124646753072738,-0.1008644998073577,0.6185241125315427,0.4824643677473068,-0.2697141819924116,0.0287670250982046,-0.0123540889471769,-0.0575172781721455,-0.1906879842281341,-0.0185414727322757,0.0629312340788543,82
1726741132294316300,0.2342993889357894,0.2675420986503362,0.8734547130204736,0.107472843252588,9.715529467138648,-1.3294009300678968,-0.0198578014969825,0.2750962376594543,-0.2292239367961883,0.3071281648961654,0.359360159649783,0.6622996776371533,0.5812844553814955,-0.3591520488262176,0.1472119987010955,-0.1274222135543823,-0.3470844219207763,-0.326122297912836,0.2254640483122318,0.0345189571380615,-0.0400875732302665,0.0754832251719432,-0.1483137160539627,0.1699272901325486,-0.0019079793418146,83
1726741132334073600,0.5327315697599202,0.24914602573812,0.5268576362252235,0.0258656690073665,9.713725632587074,-1.3465718450993298,0.0911636874079704,0.5407270193099976,-0.3175788223743438,0.3040890820628285,0.3509299619255134,0.6674610266172974,0.5821286728929104,-0.1728370487689972,0.0715963914990425,-0.1303766518831253,-0.1331067401975393,-0.0797545047163963,0.0644850393921136,0.0523326694965362,-0.0675879791378974,-0.010193429285183,-0.1849348098039627,0.0854849381271749,-0.1925364872277714,84
1726741132373841700,0.0329401191719342,-0.1796107172191142,-0.1116238071858882,-0.0588274565884144,9.70763549901843,-1.3887928841046988,0.0822402313351631,0.7770131230354309,-0.2358219474554062,0.2981089417785972,0.3397081170501357,0.6748385912757432,0.5833715559393532,-0.3227903246879577,0.0358998104929924,-0.1373376995325088,-0.1807593027323484,0.1501274331033229,-0.2556340725831687,0.0610996931791305,-0.0818379297852516,-0.0145128702367423,-0.2383026629686355,0.1596840189398266,-0.1002962113551795,85
1726741132413610000,0.286612454094924,0.2257300788372755,-0.3993360026836395,-0.0992661833208519,9.708111884358525,-1.383147279433161,-0.0955195426940918,0.7206710577011108,-0.2281453609466552,0.2914649451224603,0.3289971694838266,0.6799130466775164,0.5869644787640279,0.2105889022350311,-0.0458609350025653,-0.1493138670921325,0.0300590381771326,-0.6678256113171577,0.5061578164152801,0.0384313650429248,-0.0957106500864029,-0.0997899605997838,-0.2090158015489578,0.0547538641736842,-0.0328086359960841,86
1726741132453378600,-1.909109574253857,0.1033914008915424,0.285626475264877,-0.0209163235212792,9.715679104742406,-1.3324911511681974,0.0439113229513168,1.88448965549469,0.4678734838962555,0.2754484240663198,0.3143303188410464,0.6849340075767859,0.5968166163217179,-0.2108121365308761,-0.0992757454514503,-0.1098871603608131,-0.3344645943224429,-0.0547609332352876,0.7854406948070972,0.0121455369517207,-0.0645215883851051,-0.0430517998742405,-0.1699108332395553,0.1170385348441544,-0.0762769328329013,87
1726741132493146600,0.2184275738041848,0.1976005474179983,0.8053836318351328,0.4033166332850232,9.688056938323378,-1.4660335063040255,0.5119473934173584,2.651278018951416,0.837470531463623,0.2322075235861805,0.2991876663900225,0.6965871404904063,0.6093707071364947,-0.5545596480369568,-0.1058997735381126,-0.105924904346466,-0.0708785398215055,0.1052414126724004,0.2170913567643612,-0.0041971784085035,-0.091922603547573,-0.016622723688808,-0.1173879653215408,0.1519056765559129,-0.0593372692740755,88
1726741132532915000,-0.2271037052780389,-0.3652589610368013,-0.4936055010952055,0.830591942045465,9.64279156318605,-1.5802224878028035,0.3071983158588409,1.5969483852386477,0.706251323223114,0.1893825682538928,0.2845200400970453,0.706836096951711,0.6193266290581361,-0.5992336273193359,-0.1330748796463012,-0.1284466534852981,0.2368821719706058,0.3623597324639558,0.2394768646389246,0.0060238172300159,-0.1019791737198829,0.0057623806144896,-0.1105933710932731,0.1393366658293642,-0.1008766872574109,89
1726741132572683000,-0.2263383469287306,-0.4492003960490226,-0.9443781148970126,1.1971871201220898,9.614353988730906,-1.5170114138692616,-0.2058640867471695,1.8056433200836184,0.7207901477813721,0.1588972451704637,0.2753319603979364,0.708193737214438,0.630401164440517,-0.7090229988098145,-0.1127496883273124,-0.0672223195433616,0.0612263298571109,-0.3878887259960174,-0.303749722585082,0.0004268388729542,-0.126404657959938,-0.0269962622061837,-0.093411237001419,0.0811345243653282,0.0050604914100957,90
1726741132612451600,0.3933928763702511,-0.0202279645144939,-1.7842716268382963,1.6380870861418544,9.585063012316825,-1.2702799019269644,-0.5831437706947327,2.424527645111084,0.7155216336250305,0.1179542501233577,0.2570025023390266,0.7061982490711446,0.6490920668949521,-0.8182849884033203,-0.0039740484207868,-0.1200728788971901,0.1690934148579835,0.0805079534322023,0.29205986931324,-0.0020644036121666,-0.1030891165137291,0.018801164848078,-0.0781733840703964,0.1886497089223004,0.0479901102263713,91
1726741132652220700,-0.1225042437709867,0.1070516769647598,-0.4812637597858905,1.9854924105800689,9.56552303006649,-0.8538024295020848,-0.6902470588684082,1.5611129999160769,0.6757983565330505,0.0861232889103143,0.2406293386135786,0.6968710992889519,0.6701126697259999,-0.3148008286952972,-0.0093810651451349,-0.1510142236948013,0.6889765358954668,0.3475450251698493,0.0680243285673204,0.0111775295808911,-0.1750352829694748,1.24793140159e-05,-0.095100350677967,0.2517699445009231,0.0231819874479202,92
1726741132691989000,0.6929169440843165,-0.0091296473950147,-0.4281669238379225,2.266465945472568,9.53056979010701,-0.4491575067553669,-0.7709035277366638,2.0426597595214844,0.5369789600372314,0.0580568205087444,0.2258379516023285,0.6869482357170528,0.6882795064824482,-0.1920014321804046,-0.1215322092175483,0.0025002369657158,-0.2820797425687313,0.1669336064755916,-0.3298620689630508,0.0320105329155921,-0.1558295339345932,-0.0979636950206942,-0.1631389856338501,0.120533035029564,-0.0627675085842376,93
1726741132731757000,0.2825011828511953,-0.2639180629342794,0.2856634462743997,2.455717328348756,9.494164013251662,0.0261809888841002,-0.6902770400047302,1.7499864101409912,0.391092300415039,0.0267206460925587,0.2025075389913758,0.6765026516858029,0.7075456408559947,-0.0923613831400871,-0.0869535729289054,-0.0025201546959578,-0.1587239965349435,-0.1628343544632196,0.0795873314559459,0.0514597371220588,-0.1655162423849105,-0.0569332449062261,-0.2482791095972061,0.3053623819461092,-0.0524242247828748,94
1726741132771525600,0.4691539275363087,-0.3142635178148746,1.558195657172799,2.5560695076748727,9.46041313481927,0.3707827294269576,-0.2599420845508575,1.3961087465286257,0.2448021918535232,0.002916637423688,0.1836261896425824,0.6688622904560491,0.7203444722764504,-0.0220288969576358,-0.0383897572755813,0.0219014324247837,0.275625451862812,0.2189735903143882,-0.0013444003462791,0.0541725419461727,-0.1706218719482422,-0.1863373220603913,-0.3143755197525024,0.1674448439333588,-0.0539325424200156,95
1726741132811294000,0.0717155751675367,-0.2651157482862472,1.763939179036021,2.605450501437485,9.43819896492362,0.5499069417707622,0.0025214336346834,0.9094225764274596,0.2219232320785522,-0.0155186028710665,0.1686257448746131,0.6659789091106945,0.7264960771728496,0.149700254201889,0.0147474408149719,0.0825825557112693,0.1931108347833156,0.070864511296153,-0.0431119964957237,0.0579244159162044,-0.1136798709630966,-0.1545977834504097,-0.3738524615764618,0.1566281750331632,-0.1461588947985321,96
1726741132851062000,0.3563464635238051,-0.7360095052272081,2.075463627275824,2.7073338358536363,9.409154656746985,0.5554646489631384,0.5794501304626465,1.2806133031845093,0.3707502782344818,-0.0349115633413348,0.1579875047237114,0.6683705056755839,0.7260179108819934,0.0993979275226593,0.1260862052440643,-0.0027694932650774,0.3921855464071035,-0.151665894716978,-0.2288847069432958,0.0339846648275852,-0.0808308646082878,-0.1830089265563525,-0.4059986770153045,0.0647305111863184,-0.1292470964941661,97
1726741132890830300,0.0333209625825285,-0.3524865732252598,-0.6791092218756676,2.7818115692108867,9.394787693220376,0.412155517572537,0.4039068520069122,0.1681402027606964,0.1323125660419464,-0.0497726388981207,0.1502685514335794,0.6755777370912835,0.720094947177377,-0.1320193111896515,0.2031633704900741,0.0914624631404876,0.1040782141119241,0.3386918566286563,-0.677860683119297,0.0072644832544028,-0.013449365273118,-0.1477689146779011,-0.3637626469135284,0.0697196384102338,-0.0212420277947094,98
1726741132930598700,-0.0113490770101547,-0.1252180327743292,-0.0522329491276293,2.791316187398136,9.394068731296064,0.3610847806246951,0.1360515803098678,0.2333804219961166,0.0442373417317867,-0.0528441633919646,0.1483049597359695,0.6779346862650519,0.7180651342095988,0.2136222422122955,0.0995389223098754,0.0716401636600494,-0.2302431723475456,-0.4451081582993269,0.6072130659768358,0.0077021541073918,0.0073478007689118,-0.1138116634858306,-0.3409380614757538,0.0405599465258885,-0.0250304306094883,99
1726741132970367000,0.0862491274327039,-0.0134077631056308,-0.1665653576850891,2.830487045052648,9.382068496900796,0.3681274656778201,0.0588870272040367,0.766482412815094,0.1864823698997497,-0.0612104591285133,0.1431992409733782,0.6787670439432281,0.7176507020772429,0.1585491299629211,0.1586909741163253,0.1436568945646286,-0.0479290413886308,-0.1006786348015069,-0.4765186110854149,0.0203541461378335,0.0325530096888542,-0.128824404969532,-0.3198572695255279,-0.0021492396101384,-0.0003264914371859,100
1726741133010135300,0.5297673861920833,0.1863753890484571,-0.4578460593193769,2.878677952247858,9.364543946126105,0.4346523403344676,-0.0653994008898735,0.5023873448371887,0.044543158262968,-0.0725351297574874,0.1357628444700081,0.6777959487356752,0.7189574278100125,-0.1794704496860504,0.2009039968252182,0.1915054470300674,-0.0928162308633327,0.1763485005527734,-0.3646341071367263,0.0196867827326059,0.0492242127656936,-0.0158915849862212,-0.2823885083198547,0.0907897665370255,0.0544892675539012,101
1726741133049903400,0.5211980030283332,0.0026280104160308,0.4302397480566054,2.848192213091254,9.36947555730939,0.5207074064997956,-0.0708074867725372,0.3096421360969543,-0.13633394241333,-0.0752726273615419,0.1307534891551394,0.6755404021875656,0.7217221352293466,-0.0510088801383972,0.1627139002084732,0.1793899238109588,0.0233183317452669,-0.1441705705255269,-0.0219201553851366,0.0076274103485047,-0.0073428144678473,0.0053747056043095,-0.2210883647203445,0.0989576836272608,0.0369830721365171,102
1726741133089671700,0.2216337494343519,0.3427034303575754,0.0222264083227142,2.78129339055568,9.386134431165456,0.5790173009209334,-0.0995267927646637,0.308236688375473,-0.1801531016826629,-0.0765864701503372,0.124576192565674,0.6745065650060363,0.723640869313619,-0.2459107339382171,0.1386520266532898,0.1093609705567359,-0.2902583728492259,-0.3301747881740331,-0.0526847114831209,0.0245049092918634,-0.0090602375566959,-0.0703360121763311,-0.1794013828039169,0.0680383388263639,0.0563209216941613,103
1726741133129440000,0.3111287269204855,0.359742827963829,0.1913642103116959,2.707211378517747,9.404109648317098,0.635682241146639,-0.051013745367527,0.0760430470108985,-0.1811053156852722,-0.0766505742233117,0.1190918822344292,0.6733545498738632,0.7256275573554767,-0.4127566814422607,0.1436144560575485,0.0068314685486257,0.0390980846792459,0.1021282490879297,-0.2169686802327632,0.0545892640948295,-0.0018290220759809,-0.0803218745418824,-0.1735309213399887,0.0376461711211712,-0.0171410678824409,104
1726741133169220000,-0.0588061169728636,-0.1515963366121053,-0.1911439186245203,2.632872176848352,9.42389045358598,0.6547214342679828,-0.0580043345689773,-0.1124307140707969,-0.2002081125974655,-0.0741816885568723,0.1160306550429577,0.6731681697894452,0.7265525287029293,-0.620905876159668,0.1709176003932953,0.0207192543894052,0.0302852481484413,0.1880003599017858,-0.2792763755857944,0.0830143541097641,0.0087328590452671,-0.0047669809355487,-0.1905520856380462,0.0773141623595729,-0.0325863350149127,105
1726741133208989200,0.3332417745292186,-0.0541992076992988,-0.4716670794010162,2.5824469347298145,9.433334573757648,0.7166239098209888,-0.1878715753555297,0.3584888577461242,-0.088050827383995,-0.074863862357899,0.1117036404015367,0.6715539042929849,0.728651542614597,-0.2693947255611419,0.0996316522359848,-0.0774776190519332,-0.1344108085334301,-0.4091284979015588,-0.1998643824304453,0.0903178825974464,0.0025059829931706,-0.0547560743970796,-0.1748233586549759,-0.0052541468229173,0.0096168349736253,106
1726741133248757800,-0.2363216154783964,-0.4501689488202333,-0.0714666419077664,2.5507661405697464,9.431118066751957,0.8473373251412063,-0.3255660533905029,0.4210639595985412,0.0345221236348152,-0.0771688362526535,0.1071758813521582,0.6673163797272851,0.7329714041014945,-0.7082514762878418,0.1646718531847,-0.4162215292453766,-0.389381594902277,0.1323562140911817,0.0632978389015421,0.0933478474617004,-0.0017383461818099,-0.047327614029916,-0.1643288880586624,0.0204747651826823,-0.0007888396895956,107
1726741133288526800,0.6031435880482197,-0.1436304722994565,0.3725912036210298,2.5881775873363018,9.412183649179338,0.9394313061445952,-0.1376234292984008,0.4564448893070221,0.1051463484764099,-0.0833102267323609,0.1041745177148726,0.6642665157824951,0.7354979004618732,-0.6693996787071228,0.0359749644994735,-0.2418969869613647,0.4463298090487718,0.0858382085442543,0.2776058485576883,0.1078269034624099,0.0127503741532564,-0.1222311624506488,-0.1641035228967666,-0.0136842305430094,0.0023009749853285,108
1726741133328295400,0.355619318293035,-0.0532341620594263,0.689480539894849,2.5943364022269844,9.395859121844172,1.0759438361976297,-0.2812451422214508,0.3328039050102234,0.0101268598809838,-0.0885057021123096,0.0999038482128149,0.659667608897499,0.7396111954812477,0.1088106036186218,0.2665865123271942,0.3784661889076233,0.120175362432003,-0.8282856378644704,-0.8159644278865307,0.1295751482248306,0.0170782785862684,-0.0664840448893373,-0.1977119743824005,0.0200851790599175,-0.0242415886366041,109
1726741133368055300,0.0428594830393791,0.1658130780130624,0.7295384095169604,2.546768887627125,9.405158865109083,1.1078623115710913,0.1019499152898788,-0.1645876467227935,-0.1953712850809097,-0.086470325402335,0.0983794225579548,0.6586624574751421,0.7409509015077709,0.2093910127878189,0.2149534970521927,0.3723095059394836,-0.6075713413625955,-1.389380474734306,-0.8326104422610252,0.1162011325359344,0.0067155146971344,-0.0331220356270787,-0.212581530213356,0.0664235971061047,-0.0092447382709564,110
1726741133407824100,-0.5842369352653622,-0.2760971610277891,-0.1416645790539681,2.4743098006159068,9.423295994824173,1.117900305982679,-0.0999940186738967,0.4286971688270569,-0.0989679023623466,-0.0833213400377386,0.096107077332451,0.6586094264688759,0.7416567736467765,0.6011638641357422,0.1617965996265411,-0.3003846108913421,-0.8778145156651734,-1.0051128618448972,-0.0534779442200437,0.143300250172615,-0.0138584440574049,-0.0792030631124041,-0.2585330903530121,0.0169092410210985,-0.0411742835985263,111
1726741133447592700,-0.2548804777368903,-0.0612777677834033,-0.1637725120961666,2.4744550543054937,9.413628002768757,1.196272270299494,-0.0852626413106918,0.1973294019699096,0.1282964944839477,-0.0904824221617952,0.0897954208255822,0.6564631513733551,0.743509152779853,0.0947302058339119,0.1869418919086456,-0.0519716590642929,0.1453039584696293,1.4020605080872772,-0.8069803995072841,0.1691981256008148,-0.0124097680673003,-0.128824404969532,-0.3228567540645599,-0.0021492396101384,-0.0003264914371859,112
1726741133487361800,-0.2775073200866579,-0.4959025259912014,0.6870343157865106,2.510699210858345,9.398144017910957,1.2416447590731083,0.1376280784606933,0.3543086051940918,0.1973276436328888,-0.0963911289157495,0.0871510510064673,0.6550560512213364,0.7443219157942396,0.5775315165519714,0.114132136106491,-0.0460232235491275,-0.2194353626072406,-1.035587495085597,0.049791930917371,0.1882774233818054,-0.0112587455660104,-0.0257496756615932,-0.3700653314590454,0.0111454053809284,-0.0260802136570564,113
1726741133527130400,0.039806525209546,-0.5672118584454059,0.076095982208848,2.563588505002856,9.38146527031064,1.2595688305594026,0.062849648296833,0.8625664710998535,0.2762558162212372,-0.1072285081418005,0.0813237752380149,0.6551078563478109,0.7434529007378726,0.0742150768637657,-0.0861427932977676,-0.1891199946403503,-0.689198069691658,0.4719423892110586,1.0539549264252186,0.2105049043893814,-0.0141110308468341,-0.0821200830702669,-0.3790903985500335,0.0123705564118456,0.0160327024984522,114
1726741133566899200,-0.21507249122262,-0.3484522031426429,0.3440302950471639,2.660449919603765,9.348106606066226,1.3058739240080115,0.1541571319103241,0.6558523178100586,0.4219608008861542,-0.1234320071629833,0.0739345126918818,0.6541808968786973,0.7425265479380692,0.1658720225095749,0.0799349695444107,0.0123457433655858,-0.2099965031325817,0.6120037708520889,-0.7972399267375468,0.2098196148872375,-0.0516686029732227,0.0150489224753575,-0.3410117924213409,0.1468471236578654,0.1182302379799075,115
1726741133606668000,0.3344201706588268,-0.1422340495049953,-0.2519431091107428,2.7729540167555213,9.315168213060495,1.3071873446941376,0.1296055614948272,1.025315761566162,0.3986033797264099,-0.1382599643967479,0.0687381075066052,0.6546961621595386,0.7399541381943253,0.5097849369049072,-0.1543285101652145,-0.110935240983963,-0.6557260082006454,-0.5229354943454265,0.4785813888341188,0.2092817723751068,-0.0945068001747131,-0.1040894661583006,-0.3283751010894775,0.1058220986371859,-0.0770727365528233,116
1726741133646436600,0.1013280386209487,-0.1002601171284914,-0.9350948843754828,2.9259900307819247,9.25613500933349,1.3902927672736345,0.1248824447393417,1.1519036293029783,0.6994777321815491,-0.1622484380543588,0.0587144117027074,0.6524319242768275,0.7379434470959836,-0.0540912225842475,-0.0721835196018219,0.0481673255562782,-0.6786445269733667,1.5940829631119966,-0.7578221085846424,0.1951848417520523,-0.0662601217627525,-0.2470477748172357,-0.3754023611545563,-0.0725352712196996,-0.0824806143451947,117
1726741133686205700,0.9027677551358938,0.0725485188603401,-1.7327784632273018,3.0763951117828485,9.179992849895358,1.560096960749477,-0.3592840731143951,1.0077145099639893,0.379569947719574,-0.1844131982747466,0.0509664949180852,0.6464206101947192,0.7386030970540962,-0.3553807437419891,0.0024164193309843,0.1077192649245262,0.3566951308310032,0.1396639067560434,-1.0774106208145615,0.1806791275739669,0.0665911808609962,-0.1764480884697288,-0.2658681273460388,-0.1754435876023024,-0.0132972428027074,118
1726741133725974300,0.2050482330754399,0.8344307164907455,-1.7337398556053638,3.0875776000544426,9.131583331513404,1.8031721421413125,-0.321299135684967,0.7130147218704224,0.0808015763759613,-0.198516073347298,0.0415422536575553,0.6374465057332405,0.7433219382801434,-0.5096747279167175,-0.0855950340628624,-0.145225778222084,0.1618862599581479,-0.8912544274747372,1.2986100704848766,0.152826189994812,0.1028014570474624,-0.0199436768135521,-0.2119210809469223,-0.0202807746972539,-0.1437090813604649,119
1726741133765743400,-1.27036772634089,0.56108723808527,-1.9602175379395483,3.090409900870919,9.089041828382015,2.0022654123350976,-0.4498336017131805,0.6977720856666565,0.2628973424434662,-0.209213562354856,0.0345181569580561,0.6298582160003624,0.7472059823974787,0.0347315892577171,-0.0497542135417461,-0.0586502663791179,0.1242243455618619,-0.1942296096801757,0.490688590735197,0.1396723389625549,0.0671867728233337,-0.0160274829006404,-0.1578248739242553,0.0764075643420917,-0.0781225196003913,120
1726741133805512000,-2.634481365610659,-0.0932709888935089,0.7659690285526216,3.2304876491248606,8.979200228437781,2.260152086150646,-0.142060250043869,1.042996883392334,1.026254653930664,-0.2274195032147528,0.0317406169784529,0.6194811127372248,0.7506770171193657,-0.2843758165836334,-0.1217273697257042,-0.0756037533283233,-0.3876408887147903,-0.0958995838314294,0.0376771119654178,0.1130417585372924,-0.0055595245212316,-0.1016960134168155,-0.1344837695360183,0.055599603415979,-0.1290317641098983,121
1726741133845280800,-2.2635125024944545,-0.9548340424597264,-0.2249241692818701,3.6907556748941537,8.782376510611176,2.327781707178801,0.3436266183853149,1.04384446144104,1.973417043685913,-0.2652127119176403,0.0332789430264154,0.6166106361198309,0.7405038869072332,0.3493848741054535,-0.1873762458562851,-0.022663040086627,-0.6468541349589825,-0.0060614919960498,0.6467758090257645,0.1058392897248268,-0.0010585982818156,-0.1374035058096982,-0.1473047435283661,0.0768563995215576,-0.2253590718341059,122
1726741133885049600,-0.6095356271728873,-1.392081550386548,-0.6608610330015421,4.319650082531571,8.481163028505444,2.362389933092892,0.2150055319070816,0.7634627819061279,2.113579750061035,-0.3059466522506465,0.0444238357741243,0.6144738879874833,0.7258409383631474,0.5614209771156311,-0.2165757417678833,0.0630649775266647,0.1842974137306213,-0.5546908150464296,-0.0366997730995528,0.0850102305412292,0.0279252994805574,-0.1962795644799247,-0.1477436423301696,-0.0337101673960918,-0.1441467238590587,123
1726741133924818200,-0.7859685911387204,-0.526235704934597,-0.1169105154171585,4.950981069666147,8.071711289998888,2.550615918444097,-0.4326356053352356,0.7724000215530396,2.253112554550171,-0.3463044191798909,0.0599524779104748,0.6052771913249768,0.7142257597325224,0.4894498288631439,-0.086194671690464,0.1130909994244575,0.4893617260456085,0.2233592580527067,-0.3402548681616782,0.0738373771309852,0.0292309336364269,-0.0515510952101554,-0.1570756137371063,0.1294192747232969,-0.1751275256567634,124
1726741133964587300,0.2994225070357322,-0.4837666825175285,1.0355176447197794,5.6043789271801705,7.529901583835482,2.839348104639351,-0.0669355690479278,1.0991177558898926,2.460659503936768,-0.391656202809164,0.077449039876237,0.5909612345055103,0.7009792084592784,0.1607009619474411,-0.0358655601739883,0.2775531113147735,-0.0064086979985237,0.4694336212605238,0.5580301886022091,0.0540024824440479,-0.0458403341472148,-0.1128723642085678,-0.1838913261890411,0.1762036669882945,-0.1649232530338689,125
1726741134004355800,0.2608241885721683,-0.1273912851601839,0.3682189798861742,6.125409464687109,6.973012381961941,3.166520496127009,-0.586725115776062,0.7257117629051208,1.9595048427581787,-0.4331784731993692,0.0921725500338689,0.5745055337362589,0.6883342606303885,0.2382032126188278,0.0077184536494314,0.3481504023075104,0.6510819817870855,0.5196557420223951,-0.2048369284123182,0.0327732525765895,-0.0377918034791946,-0.2285663799754343,-0.2006785869598388,0.0699773394983494,-0.166424615773838,126
1726741134044125000,0.0265507377952337,-0.4429904354929924,1.7936384439900517,6.501987692117691,6.477275860187411,3.4553491284340616,-0.1153375506401062,0.398699015378952,1.5755258798599243,-0.4643678393125077,0.1059111875449772,0.5591145157149379,0.6786282474944453,-0.3360235691070556,0.0642468705773353,0.3196180164813995,0.590457124954462,0.0944593218952417,0.1354296210539992,-0.0023931255564093,-0.0292329341173172,-0.2850165997382253,-0.2350452691316604,0.1378273937775753,-0.2504936774874106,127
1726741134083893500,0.2262058796554803,-0.355087695634365,0.5056456291094422,6.833396990522742,6.086657416966557,3.5252924332320688,-0.2275726348161697,0.312390923500061,1.2958402633666992,-0.4849883263462486,0.1203170369937438,0.5529773209916651,0.666728098659169,0.0303986240178346,0.0069280806928873,0.3262417614459991,0.6772931123644114,0.4430746066451072,0.4512357012689113,-0.0252261944115161,0.0362368151545524,-0.2414412235144525,-0.2688578367233276,0.0755500433304579,-0.179464714610856,128
1726741134123662300,0.4334539608627557,-0.295444835576415,1.2006035775020718,7.00114015981555,5.737464624589681,3.773051096265018,0.0691329985857009,0.8200247287750244,1.181959629058838,-0.5094460687593074,0.1239456186885255,0.5406157728965356,0.6579032781171619,-0.2616819441318512,-0.0224398206919431,0.2446756511926651,0.3528407934904098,-0.1754360618829727,0.5855225911617279,-0.0369335711002349,0.0516938455402851,-0.0986150350688956,-0.2395975589752197,0.1150240440834313,-0.0504120538434013,129
1726741134163431200,0.5869388877004384,-0.272203076198697,0.8152543068557977,7.1394491448313,5.473007632473111,3.904465645591914,0.1490295529365539,0.3086447715759277,0.8122201561927795,-0.528438232054861,0.1264509791283935,0.5337956590137534,0.6479394483753952,-0.1974798142910003,-0.1060306951403617,0.1387957632541656,0.3739174837887287,-0.0233376209676265,0.80918872320652,-0.0070040482096374,0.0350552536547184,-0.0889489518427755,-0.2295233458280563,0.0992790976013522,-0.1088841622220817,130
1726741134203190800,0.106911391711235,0.0086608608394861,0.5160246920436621,7.284139355316758,5.316193268951773,3.853543267606199,0.4072915613651275,-0.2478756755590438,0.6046724915504456,-0.5390257353816278,0.1299642446518131,0.5353814179729465,0.6371242866603681,-0.0195034220814704,-0.0602283738553524,0.138636827468872,0.4407411952614784,-0.4294534930497408,-0.0539116320627275,-0.0057896906509995,0.0428387261927127,-0.0271801377229741,-0.1816525757312774,0.0493796192228561,0.0057381777549948,131
1726741134242959000,0.5329331567466259,-0.2585147425860166,0.9274465615794062,7.427487503543496,5.239501074415445,3.6810917744919656,0.4305925965309143,0.07971853017807,0.3216479420661926,-0.5424669624443562,0.1346749050696541,0.5423829060389922,0.6272264539851576,0.2677286267280578,-0.0447506643831729,0.147962749004364,0.2728220848798752,0.0522509962409734,0.1262052902460098,-0.0022795994300395,0.0076472032815217,-0.0651533077422296,-0.1082057282328605,0.0716067170987371,-0.0457375957589596,132
1726741134282727400,-0.1542915670454502,-0.0464326653510332,0.1546165612161159,7.392411513987183,5.206386155799031,3.79686393352896,0.4425223171710968,0.9862029552459716,0.4933225810527801,-0.5560087723533443,0.12413997404362,0.539447015666936,0.6200325996517992,0.2996021509170532,0.0309581011533737,0.1274960935115814,0.1562123059749603,-0.1148632274985313,0.1393511875450611,0.0247845705598592,-0.0080607319250702,-0.1756085141067393,-0.1092867031693458,0.049955871041119,-0.1428676712334156,133
1726741134322496000,0.8899953673243522,0.5763286463588476,0.2086871740996837,7.356682613480091,5.123816593661904,3.974432039004564,0.2699269354343414,0.884739875793457,0.3389520943164825,-0.5710214281237065,0.1152787875262432,0.5329832670815484,0.6136563987735287,0.1169984936714172,0.0895184576511383,0.1341950744390487,0.3799439044713973,0.0441582906782627,0.0586725719873793,0.0314239114522933,-0.0016885494114831,-0.0604941750910831,-0.0991755947470665,0.0204139109740732,-0.1425481478223111,134
1726741134362257200,0.8406202187806368,0.1982195560991764,0.0025906010150909,7.217813656494021,5.126036023277044,4.218686201047897,0.4879007637500763,1.0771582126617432,0.0293332748115062,-0.586274012874758,0.0993429896348574,0.5244404901074935,0.6094062396744114,-0.0434529595077037,0.063795194029808,0.0945712402462959,0.0134890116482973,-0.3164028679311275,-0.0317968217551708,0.0276295859366655,-0.0068862098269164,-0.0267924604295054,-0.0798264443874359,0.0897586059915367,-0.1321215742182452,135
1726741134402025700,-0.5879892735362052,0.2441355040997266,-0.0456394691467285,7.086450545093417,5.185764223530888,4.365827019555867,0.4919963181018829,0.8133039474487305,0.229687213897705,-0.5968478368658783,0.0842617667020669,0.5199083881187603,0.6052832646777068,0.3310692608356476,0.0367103181779384,0.1422329097986221,-0.1446463713437318,-0.2006891610831022,-0.1111678801119327,0.0116584356874227,-0.016630133613944,-0.2048549024604261,-0.0522573478519916,-0.0792056934609077,-0.1129227335557807,136
1726741134441793800,0.2929723079830408,0.0940051483869552,-0.1166319907367229,6.995127183136344,5.188202264332771,4.507897402931749,0.6609687805175781,0.938544511795044,0.4426534473896026,-0.6124053794130528,0.069115827355125,0.515154545490904,0.5956496154879756,-0.0553711391985416,0.0824706703424453,0.1366438716650009,-0.0023602993905544,0.0985293478131294,-0.4825882863879203,0.003289034590125,0.0138273797929286,-0.0965893379275687,-0.0338878855109214,0.0012917168860381,-0.1010157030024565,137
1726741134481562400,-0.1920388216376304,0.2833557538539171,-0.2273731698691845,6.944136416089535,5.163901935812831,4.613400973671674,0.4441102147102356,0.7926080822944641,0.5431393980979919,-0.6263754291073116,0.0576707879348539,0.5113277733051625,0.5855525905926515,0.0862501710653305,-0.0700021162629127,0.1085807979106903,-0.4327005121469497,-0.3876157542735338,0.4061339557280763,0.0067925150506198,0.0017471918836236,-0.1904934918917715,-0.0070704440586268,-0.0420055102582788,-0.1252712242662906,138
1726741134521331000,0.225520235478878,-0.0123147071719169,0.170269472900033,6.877776230475306,5.091912804400921,4.789468611456454,0.4836979210376739,0.979778528213501,0.6084773540496826,-0.6436267232341992,0.0461307068567981,0.5036636028262226,0.5744037166874366,0.0753967240452766,-0.0279319528490304,0.0696265399456024,0.176806181192398,-0.0156704473406076,-0.0036532618105411,0.0123373782262206,0.029071731492877,-0.1910170591081492,-0.0041632791981101,-0.0967666855221614,-0.1200232588765211,139
1726741134561099300,-0.5732827027916908,0.6671838062822818,0.3699047410160302,6.888288856661319,4.9445256099164485,4.926817519268393,0.2379572242498397,0.5874828696250916,0.8757003545761108,-0.6596373608103391,0.0414734714669831,0.4970736022744639,0.5622066710707802,0.2126094400882721,-0.0385630279779434,0.0537441857159137,0.0873538738042116,0.046095396220684,0.1136766480624675,0.0111630670726299,0.0258778575807809,-0.0954424694473855,0.0057889255695044,0.0210583417908754,-0.1218340163592249,140
1726741134600867600,-0.4141460338026285,-0.1279705463528633,0.5774795699596404,6.9609408358961335,4.7629956150725485,5.0029555870532985,0.3344690501689911,0.275697112083435,0.9721648097038268,-0.6747188652116205,0.0403743614790677,0.4932445182261522,0.5475712758475472,0.4450091421604156,-0.1079702228307724,0.0757173970341682,-0.0138958388835191,-0.3739548931896686,-0.2355120526611804,-0.0011090944753959,0.0237131938338279,-0.1537750323580577,0.0193615555763244,-0.057877873379155,-0.1823740261862985,141
1726741134640636000,0.4763929388791322,0.1739364709749817,0.6238461843371391,7.089733220025897,4.548327028475701,5.021830967915058,0.35359987616539,0.4075490236282348,1.001060962677002,-0.6886921009841069,0.0425405248657995,0.4920855294401214,0.5307968757082957,0.299921452999115,0.0142525192350149,0.0015588093083351,0.0362625689923763,0.0465326185941696,-0.1987106640843674,-0.0168993547558784,0.0363895557820797,-0.1821300978952087,0.0326822511851787,-0.0687684386326232,-0.1590324231632985,142
1726741134680404500,1.270046239301562,0.3992296196997165,0.1562602367699146,7.113849424150586,4.337997640126943,5.17158664509654,0.2622056305408478,1.2425992488861084,0.871800422668457,-0.7062636630370821,0.0398848030043654,0.4844911325125629,0.5146544461002873,0.1693373322486877,0.0224416330456733,-0.048921875655651,-0.1501584127634763,0.3684317458540201,0.3627022622913122,-0.0429643839597702,0.0335267409682273,-0.1426703585630282,0.0463198497891426,-0.0482226449071895,-0.1329452477592043,143
1726741134720173800,0.2268172895520925,0.4319090695083141,0.2380290039181709,6.982123324656486,4.12380777695775,5.514938310229778,0.1539249718189239,1.2302513122558594,0.8747691512107849,-0.7278609968180093,0.0325865605855025,0.4666417498803983,0.50139999725643,0.1943036764860153,0.0677840784192085,0.007233805488795,0.0818961929202079,-0.0803361039966344,-0.4085235177457332,-0.0659644901752471,0.0215535685420036,-0.1730592497490346,0.0255813412368297,-0.0090152694759482,-0.1987192857822403,144
1726741134759942100,1.4689315658330917,0.1846837826997041,-0.4274865768909454,6.932471697258949,4.02626802470386,5.6480432968616485,0.2464770227670669,0.1306597739458084,0.2529188990592956,-0.7393416441283516,0.0277528887126224,0.4596299836323109,0.491267788771168,0.0682269632816314,0.1218651533126831,0.0113715594634413,-0.0355734176844358,0.0053624038159847,-0.0380273136425763,-0.0602102726697921,0.0135149247944355,-0.1416512629146687,-0.0134997311979532,0.020796176873485,-0.1466560763314832,145
1726741134799710500,-0.7979910373657941,-0.0645505058437585,-0.536877510458231,6.930439314648509,3.9793694954067456,5.683662891775369,-0.0179494842886924,0.1454350799322128,0.4070314168930053,-0.7430242681530084,0.0272519114613946,0.4576802120013351,0.4875461346767685,0.6814262270927429,0.0552330277860164,-0.0798726007342338,-0.1563169353932142,-0.1711164451181888,0.3960177449811249,-0.0329798310995101,0.0229881107807159,-0.0882458633410278,-0.0022636046633124,-0.0023403731306665,0.0017274711049336,146
1726741134839479000,-0.1981435682535171,-0.3061675973817706,-0.5394219342440366,6.962361224088072,3.860958220037818,5.726159971243143,0.0832229405641555,0.0735662430524826,0.4939207136631012,-0.7496233348899242,0.028642304436979,0.4552216158543567,0.4796016101347763,0.3709767162799835,0.1496461480855941,0.0177145432680845,-0.2722854937851429,1.4541495917648075,-0.4561095178503543,-0.0144757349044084,0.0425008870661258,-0.1674769743709825,0.0257302392274141,-0.0259346836895449,-0.0426617091446882,147
1726741134879247000,0.8478501700341701,-0.0632268560245633,-0.2064578076124191,7.055409510141611,3.6856539678409694,5.727786111140251,-0.3784606754779815,0.0624487362802028,0.3873308897018432,-0.753052559088271,0.0367437671963156,0.4545482189585099,0.4742863957817703,0.055180937051773,0.0173602681607007,0.0862541198730468,0.1376326931893825,-0.4217278672337531,-0.2713800693780183,-0.0129965925589203,0.0690117329359054,-0.0659885255905101,0.0374790802597999,0.0343428118769777,-0.0327044518191134,148
1726741134919015700,-0.414698991510272,0.1341492349877953,0.0768301417022943,7.035413600817322,3.5108728627353907,5.860640337881446,-0.1907541006803512,0.4028783440589905,0.4546753764152527,-0.7596635528246113,0.0412132008848346,0.4466452587184741,0.4708722520678443,-0.1021213382482528,-0.0141327297315001,-0.0332365222275257,-0.391565368682146,0.1770224542915821,0.5361517534669489,-0.0147153511643409,0.0460909828543663,-0.0277554556761868,0.0134385460987687,0.1017468942206818,-0.1119809500604867,149
1726741134958784000,0.0969353566199541,0.305107566934824,0.197505854871869,7.028508059212565,3.347396703237295,5.963672842332721,-0.1590149998664856,0.2028110176324844,0.3386971056461334,-0.7659785814434238,0.0451882749664526,0.4403354778484722,0.4661967862819752,0.0410909503698349,-0.0056073651649057,-0.0597990229725837,0.0069213236957788,-0.1409124455124139,-0.0803630650687962,-0.04511509090662,-0.0095355100929737,-0.0376334714698023,0.0077151698060333,0.0452333725638687,-0.0560460502755362,150
1726741134998552600,-0.157689977312088,0.1659422573506832,0.0296650704234838,6.945400736936927,3.2064401263222098,6.136002170372009,-0.3801235258579254,0.6164801716804504,0.2686731517314911,-0.7725380542913971,0.0471117906597069,0.4300365367143638,0.4647944693693955,0.1564756035804748,0.0019127622945234,0.0226067043840885,-0.152046418467164,0.358459802415967,-0.3098423403717577,-0.0578648261725902,0.0239748246967792,-0.0737286320229992,0.0096822148188948,0.026111179617478,-0.0145136008891044,151
1726741135038321000,-0.2063409032344818,-0.3340042833343148,1.553435895425081,6.872396291002631,3.0695290254056453,6.28637685623467,-0.011718263849616,0.3188868165016174,0.2828664183616638,-0.7785704960015358,0.0492069411651283,0.4207881400182258,0.4629728672339683,-0.0627033561468124,0.0213179383426904,0.0012261138763278,-0.0225099379718303,-0.2273579723000526,0.2268582060843706,-0.0397152751684188,-0.0332642681896686,0.0147572026699199,0.0183691345155239,0.1412135747503023,-0.0104889633242797,152
1726741135078089200,0.7141361115932464,-0.1942375007256865,0.9860790755510328,6.879523366403579,3.019545097313821,6.30276860358715,0.2972589433193207,0.0724891647696495,0.3060963153839111,-0.7829590505560737,0.0481600124084945,0.4199152957244965,0.4564284190490823,-0.1137468367815017,-0.0182132255285978,0.0987791717052459,-0.327677710661292,-0.1566869377493858,0.2287846441023051,-0.0209903847426176,-0.0478033646941185,-0.056498182523786,0.0208955947309732,0.0504773467651102,0.0492204055065754,153
1726741135117857800,1.174946281415224,-0.1022884080857038,-0.4290805680841207,6.846826380938291,3.074838822251558,6.311633462566137,0.3566688001155853,0.0707073211669921,-0.0526298508048057,-0.7855626377357452,0.0423275243126993,0.4200055204323461,0.4524323267169953,-0.0822312533855438,0.0213178861886262,0.1172058507800102,-0.0011444938600063,-0.5206862541139126,0.3753320998270064,0.0160250421613454,-0.0406891107559204,-0.0793788124049548,0.0290795508772134,0.0487887223913101,0.0992226821058429,154
1726741135157626000,0.5813935285329819,0.0133192080393433,-1.2558195610284804,6.857839357861876,3.186381673155725,6.243989082360267,0.1764516830444336,-0.1070852950215339,-0.1247081533074379,-0.7838958162095302,0.0372944088512541,0.4245636537002884,0.4515110443237706,0.3521947860717773,0.0378916971385479,0.2642765045166015,-0.467974654623866,-0.8841513174712657,-0.4455364667139947,0.0308373868465423,-0.0606668926775455,-0.0275198339891387,0.0232661310583353,0.0263733445348683,0.0103084556582209,155
1726741135197394400,0.2744932329624891,0.077824705697596,-0.9768681796133518,6.813091869118809,3.215549315451085,6.277929345884918,-0.171787142753601,0.3153249621391296,-0.1388373523950576,-0.7837274420542427,0.0355049470035905,0.4226749032947152,0.4537141683106923,0.4124581217765808,0.0754826962947845,0.3223139941692352,-0.313393749243021,-0.0091425068765878,0.1868459291696548,0.0404243245720863,-0.0874130800366401,-0.0099297619638731,0.0096810897812247,0.050614942304627,-0.0670321939911227,156
1726741135237067500,-1.2209499076992272,-0.2848120901420712,-0.5146691857814788,6.8034805756866925,3.20334391387254,6.294570684084296,-0.2337151616811752,-0.3331749439239502,-0.0509108677506446,-0.7822009878145637,0.0375974570187842,0.4214885883594158,0.4572694502324366,0.3037513494491577,0.0504062101244926,0.0839881002902984,0.1359983699858188,0.1642038892507553,-0.1856101037643849,0.0402743220329284,-0.0868602469563484,-0.105971827572491,-0.0162237100303173,-0.0409641662454931,-0.0535436664000153,157
1726741135276831700,-0.1947802293002605,-0.2984352495640516,0.3304366539806127,6.854401784628629,3.114015817385912,6.2841433980941765,-0.1839559078216552,0.2612383663654327,0.2798350155353546,-0.7821253845054438,0.0432332661851497,0.4215788504790839,0.45681718009773,0.1012805178761482,0.2354887574911117,0.151001289486885,1.2319190454810858,1.961117117127776,-0.3154500972509384,0.0442275404930114,-0.0856319218873977,-0.0458410515668569,-0.0444939844310283,0.0632476613505743,-0.0261774338037008,158
1726741135316595700,0.4397580294430255,-0.0002174421429634,-0.1318529407441616,6.82829002277255,3.0077839323714373,6.36381022452712,-0.1406247019767761,0.0588499158620834,0.1469263285398483,-0.7857990307746063,0.0459510686303133,0.4164426470003854,0.4549548472944254,0.1343812197446823,0.0375779755413532,0.195164680480957,-0.1119014550834894,-0.3879951089799404,0.7739828236602246,0.07658551633358,-0.0717365369200706,-0.1298154527003411,-0.0714803412556648,-0.0306645023901481,0.0165992389235878,159
1726741135356345900,0.1762438711345195,0.16300152772367,-0.3791372642636298,6.850138866487145,2.9517051945358515,6.366586703503131,-0.0646523758769035,-0.1284129321575164,0.0922734066843986,-0.7864620452641619,0.0487417058524535,0.4159551164941215,0.4539638622182689,0.1654134392738342,0.1763194650411605,0.1797067672014236,0.0523573792248964,0.5437696080595255,-0.3932197117604315,0.1019178479909896,-0.003080787602812,-0.1665420316084288,-0.1208186894655227,-0.0784265257819555,-0.0660172356617636,160
1726741135396110000,0.1301210023850202,0.1302232937157154,-0.8776005806535482,6.900751447871327,2.914303392380476,6.3290481232255695,-0.1816920042037964,-0.1719636619091034,0.035798966884613,-0.7854790245794281,0.0521057667158051,0.4178436674800727,0.4535574400502,0.2208892107009887,0.1249916106462478,0.2802110016345978,-0.649775575363636,-0.0502998621731996,0.5522065970152616,0.0822198763489723,0.0285795368254184,-0.0610376708506373,-0.1459464281797409,-0.0112164362069685,-0.0007958060032106,161
1726741135435874300,-0.1389110425621271,-0.2697676657453179,-0.5474842446684837,6.966575626912713,2.849968575114012,6.286086348855495,-0.2277023196220398,-0.2179489731788635,0.079185739159584,-0.7835548353486879,0.0579760401035379,0.419687463486038,0.4544700178636355,0.3820501565933227,0.040374506264925,0.4127644598484039,-0.4150654867351055,-0.148338796120882,-0.1678098047882318,0.0387468859553337,0.0137463901191949,0.0058141250722808,-0.1401209235191345,0.0322082087177899,0.0220904065186623,162
1726741135475638300,-0.3953974941909313,-0.2165384721219539,-0.3825643161028623,7.040204926747084,2.752297597695887,6.247460557863116,-0.3126892447471618,-0.2053016722202301,0.2133943736553192,-0.7826321309286789,0.0648720967921655,0.4210222749113879,0.4538931206838033,0.2537283897399902,-0.1113236770033836,0.5700811743736267,-0.7863730802863835,0.2523842770069837,0.5418745880931616,0.0205516871064901,-0.0102885635569691,0.0183773156961076,-0.1511311084032058,0.0441327863442478,0.0429156884723342,163
1726741135515402200,-0.3104354839593172,-0.390291695484519,0.7073568267166614,7.090215450584888,2.6317133622020483,6.242860370591282,-0.2087416350841522,-0.1919402331113815,0.1425389796495437,-0.7826691592813991,0.0720366041457483,0.4201350014879617,0.4535705440703859,0.0411830954253673,-0.0656980276107788,0.584945023059845,0.045455637012422,0.7318705057263374,-0.0350432563304901,0.0430187880992889,-0.0167309492826461,0.026281373668788,-0.1478644907474517,0.107250167812081,0.1605515224893577,164
1726741135555166500,-0.2733399712741375,-0.0151247961565852,0.8540729900717735,7.144998011130094,2.5486390654131768,6.214807996061444,0.075670376420021,-0.0528687313199043,0.266779750585556,-0.7835027389043451,0.0762899158475083,0.4210853013236776,0.450544785814924,-0.1310805529356002,-0.1885318607091903,0.5498460531234741,-0.3422098016217351,-0.2238034946888685,0.0038017303705215,0.0456079132854938,-0.0377002879977226,-0.0958500638675875,-0.1171082258224487,0.0038101933798345,0.1525301194640342,165
1726741135594930700,-0.3478279337644577,0.3547220771923661,-0.6100929687947034,7.224722705230117,2.506049339225888,6.139501702925562,-0.0175092052668333,-0.4867773950099945,0.1530937403440475,-0.7834866924600814,0.0790708269853667,0.4251121552628573,0.446291392319098,-0.0686395466327667,-0.2317997068166732,0.5486734509468079,-0.1165820141151547,0.0687830288469791,-0.2546231419749558,0.063770443201065,0.0108955213800072,-0.1281450078706257,-0.1426828056573867,0.0438633034867933,-0.0094670426770608,166
1726741135634695000,-0.10568974096179,0.112811409535259,-0.2927186254829168,7.335729257300495,2.438509588438272,6.034163259619474,-0.0945120081305503,-0.3038708567619324,0.1540603935718536,-0.7813179093827031,0.0853701606188441,0.4301804591285103,0.444070895087167,0.2299000173807144,-0.2415120899677276,0.5523731708526611,-0.1885910192713141,0.6129968735426664,-0.0072381345599889,0.0569868236780166,0.0057318368926644,-0.1154259942141361,-0.1704382896423339,0.0470392438089009,0.0074656511432171,167
1726741135674459000,-0.192809806010127,0.6559311753839254,-1.0500777927309275,7.4566674207985395,2.379766599829495,5.908062014269828,-0.2494185268878936,-0.5549640655517578,0.0808449536561966,-0.7780703434440643,0.0921544960382068,0.4362112128787733,0.442531065926009,-0.1141455098986625,-0.1839177757501602,0.6031169891357422,0.213934719364345,0.6664899787992239,-0.4625314406566321,0.0431377775967121,0.0357718728482723,-0.057828924237471,-0.1455666422843933,-0.0010441918445314,0.0707164080623537,168
1726741135714223000,-0.5568903709173202,-0.3563840190552175,0.4396311881929636,7.578933618029952,2.2400223213136194,5.806242392739653,-0.2329889684915542,-0.1574644297361374,0.3875886499881744,-0.7757222836475078,0.1026742114846548,0.4397977066897202,0.4407845280041634,0.336006224155426,-0.1113430112600326,0.5969710350036621,0.4912111533045768,-0.2644271815001964,-0.2317128065086901,0.0546976998448371,0.0255954973399639,0.0266409961948404,-0.1493849456310272,0.1071256007174961,0.0194768744358443,169
1726741135753987300,-0.5706850875139237,0.0336861426331102,-0.0700011724650859,7.6211600638628,2.05375842981562,5.819826096934079,-0.1573744416236877,-0.0028100351337343,0.5820164680480957,-0.7800096140551457,0.1091263240380612,0.4374504308720908,0.4339511635420744,0.5237585306167603,-0.1096880659461021,0.4887357354164123,0.1836272593840956,-0.2985240968912839,0.0174538236260414,0.0809844136238098,-0.0293605513870716,0.0559391147357644,-0.1501209437847137,0.1291587149578146,0.1124990191178396,170
1726741135793751600,0.4099515047222375,-0.0356457522682845,0.6708136872172356,7.681701334065198,1.863768211270869,5.804154480549693,-0.2137553691864013,-0.1288207769393921,0.3181445002555847,-0.7822513813546879,0.1176913891809428,0.4361412727664583,0.4289664845083474,0.9002288579940796,-0.1079596206545829,0.4367749392986297,0.3203516055569052,-0.4661790033787488,0.341246655678004,0.1174431890249252,-0.0955462753772735,0.0250266608999576,-0.1670594215393066,0.1136048980005085,0.0519729556177277,171
1726741135833515500,-0.2923100446820258,0.2792627854518592,0.1046890394866466,7.755186256992816,1.7178006743259726,5.751228946048021,-0.1698949038982391,-0.3556132018566131,0.3808190822601318,-0.782973524230639,0.1251411833735726,0.4371597083950366,0.4244803146976281,0.5665097236633301,-0.0782546699047088,0.4491254687309265,0.274206232714653,0.3729045073539018,-0.0480418541133403,0.1614645570516586,-0.1498871594667434,0.025833828547399,-0.2126515209674835,0.1103652493590023,0.0357249138851417,172
1726741135873279700,0.2954763997584581,0.0625999562978744,-0.05484978056252,7.87144473824203,1.58161803381443,5.631095084670186,-0.1621994823217392,-0.3969205915927887,0.2572726607322693,-0.7814231798999962,0.1341439077232126,0.441474191588488,0.420099844163141,0.2465623468160629,-0.0570240058004856,0.3386817276477813,0.7194754267945885,-0.6978934173226357,0.3907867855250835,0.1734442114830017,-0.1934951543807983,0.0032449207549565,-0.1930353641510009,0.1143101967256516,0.2144463952135294,173
1726741135913044000,0.2849275332152843,0.2252341120138764,-0.0517804561197757,7.913566554656624,1.4103048970803618,5.617551127964258,-0.3202760815620422,0.3424285054206848,0.5546075701713562,-0.7831967102807518,0.1417991606092692,0.4398608922427555,0.4159546236283494,-0.1005442142486572,0.0386700294911861,0.212348073720932,0.49196986271739,0.1910515641659498,-0.4835524552449584,0.1717647463083267,-0.1269975453615188,-0.1569874550659209,-0.1285799443721771,0.0823495079119689,0.1620567028879188,174
1726741135952808000,1.7640601750671865,0.4900430593732744,-0.1337105513095855,7.825914574688673,1.1800621631242334,5.790760161447524,-0.3039750158786773,0.4384794235229492,0.3670385479927063,-0.7909828692150503,0.1467827777869626,0.4280282746775538,0.4118164632652483,-0.4732719659805298,-0.0042366362176835,0.0406478866934776,0.4384978002488613,0.0816226366758346,0.4411566441945731,0.1635126769542694,-0.072532020509243,-0.2023411112749017,-0.1208904236555099,0.0962204041504766,-0.012302878595161,175
1726741135992572200,1.699324375784397,0.2648580471981316,0.2132709947586059,7.775728694283962,1.075745391016081,5.878026941490173,-0.341863751411438,0.2076376974582672,0.0554752200841903,-0.7934864438031177,0.1500276401658028,0.4216583238860649,0.4124017963028514,-0.0723615810275077,-0.1681233644485473,0.070174291729927,-0.1846340983390808,-0.6659867054522037,0.2476926120594143,0.1354338526725769,-0.0117254927754402,-0.1296833233538083,-0.1441695392131805,0.1082188667137641,-0.1070455394849181,176
1726741136032336100,0.4914993225961923,-0.0555979685813188,0.8103735490769147,7.753232784837484,1.035873764681071,5.914788692176342,-0.0491022206842899,0.0022796562407165,-0.0484048128128051,-0.7934455159758281,0.1522579940244297,0.4186253698415705,0.4147462140716326,-0.2113761901855468,-0.1757716983556747,0.0606574155390262,-0.0276180747658014,0.0327899244457483,-0.0489440636500716,0.0933732762932777,0.0056120939552783,-0.0781559195464942,-0.0799404010176658,0.1264316098151728,-0.0516702143780654,177
1726741136072101400,-0.1514414383113384,0.0623608137797564,0.322530410900712,7.776524228575825,1.0635124438434838,5.879200076922774,0.0781444013118743,-0.1611152291297912,-0.0271769762039184,-0.7922951822647817,0.1519050175123257,0.4209145762565015,0.4147579301057927,-0.3662081062793731,-0.1728330552577972,0.0782704278826713,-0.1131862341970205,0.265246681189537,0.0196770526334643,0.0634821429848671,-0.0016545164398849,-0.1102432943466119,-0.0451694317162036,0.0506076220812741,-0.094592866880726,178
1726741136111865600,-0.4329997873544692,0.1485841491840779,-0.1611123529762029,7.817166620087623,1.0627324724469334,5.825194930490851,-0.0143123967573046,-0.183185189962387,0.0618256218731403,-0.7910679325652221,0.1531421291904307,0.4237277371022147,0.413780098450705,-0.2263269126415252,-0.1791382431983947,0.0667101815342903,0.1466948283061385,-0.2673176422446966,-0.2802544268377125,0.0382304117083549,0.0060977661050856,-0.071279078879836,-0.0383784025907516,0.0568957852729363,-0.0600428237275453,179
1726741136151629600,-0.4173837005496025,0.1742315814640372,-0.1298123748272657,7.83147746951282,1.0137412817195055,5.814693994742632,-0.0171296596527099,0.1881031244993209,0.2612335681915283,-0.7919679757588023,0.1548556667359324,0.4237367535393309,0.411404362724613,-0.1059746667742729,-0.202833354473114,0.0961907729506492,-0.1521609847575426,0.0259516028583049,0.1974259215034544,0.0218655839562416,0.0283359251916408,-0.0882458633410278,-0.0442884191870689,-0.0023403731306665,0.0017274711049336,180
1726741136191393800,0.2233691949248313,0.2057201409876346,-0.3274047389388084,7.786582096731662,0.9087807318150996,5.891828672349453,-0.1395493745803833,0.2024693787097931,0.2323792874813079,-0.7959306447975104,0.1565566407328958,0.418437981371305,0.4085268462812785,-0.0991124957799911,-0.2211991995573043,0.155356228351593,-0.2236009578540921,0.2013812350004911,0.0848088654965162,0.0359501838684082,0.0225449334830045,-0.0639266428909497,-0.0521509982645511,0.024748433047044,0.0596260778865078,181
1726741136231158000,0.2620341488838195,-0.0541488657515496,0.0009434183299541,7.765275104808807,0.8521660604719072,5.928296408525109,-0.0404022745788097,0.0295802745968103,0.0774101018905639,-0.7976136439719473,0.1579156850495833,0.4156965669838354,0.4075186014160756,0.0385598838329315,-0.1862369030714035,0.2640058696269989,-0.1539513753056526,0.2671837867319583,0.2437251697331666,0.0422431305050849,0.0335775017738342,-0.0990588150473311,-0.0654997527599334,-0.0063620498409582,0.0810179031151812,182
1726741136270983400,-0.1333078157275915,0.158557115535438,-0.200782684585452,7.760486116966605,0.8003207224223762,5.94177840591073,-0.1756103634834289,0.0957343801856041,0.1633991599082946,-0.798473487464768,0.1598241500018658,0.4141374849911567,0.4066773770651249,0.1996795237064361,-0.2576428055763244,0.3823862373828888,-0.2344035068973898,0.3942290349334478,0.2130658275753259,0.0629874095320701,0.0320535115897655,-0.132840316946851,-0.0815562978386879,-0.0090818336186028,-0.055590666624275,183
1726741136310750500,0.1045236197918653,-0.1361097214058041,0.2471609894007444,7.755640430501103,0.7104189177010208,5.959507539346814,-0.1420405954122543,0.0374863371253013,0.1504507809877395,-0.7994501019450062,0.1636310092566569,0.4115514068273066,0.4058693712466757,0.7321903109550476,-0.4362496733665466,0.4473253786563873,-0.2238683766186237,-0.0890443111091852,0.2489103172861039,0.0730584040284156,0.0225497763603925,-0.2052943167909979,-0.1006664931774139,-0.0124562276845914,-0.0980300747877918,184
1726741136350508300,0.6108768126487731,-0.1131187949839979,0.289096343332529,7.748329230704903,0.6537594573680311,5.975481938070058,-0.0445647947490215,0.0464842766523361,0.0907966494560241,-0.8005961098837235,0.1654825797549652,0.4098179240354241,0.4046117901742205,4.271970748901367,-0.543009877204895,0.5292011499404907,-0.3462798275396228,-2.2872090199023485,1.0355322577670216,0.0626304596662521,0.0116355875506997,-0.1888511132459156,-0.0831680372357368,-0.0079812491114484,-0.1545524099387228,185
1726741136390275300,0.16055822622478,0.0217545895598828,0.1934492729574441,7.750332387220859,0.6363512995146214,5.974761807101965,0.0225649923086166,-0.022087363526225,0.0391815081238746,-0.8009150686401069,0.1660791224827175,0.4096213429645183,0.4039344176427414,5.13630485534668,-0.3549018502235412,0.8671785593032837,0.7381409642979502,-1.7580127115964888,-2.352412728957832,0.051678542047739,0.0399511083960533,-0.2146288391083478,-0.0489254333078861,-0.0373394021603628,-0.1838475145386532,186
1726741136430042000,-0.0547954200267791,0.0736614485383033,0.0308773688226938,7.754697596693038,0.635919995425269,5.969141629132628,0.0500143989920616,-0.0073269419372081,0.0285091083496809,-0.8011854405790432,0.1658227140921109,0.4100747419435867,0.4030427218747457,3.604169130325317,-0.1419841200113296,0.3762741684913635,0.3614263971365988,1.3421972832769156,-0.3380594039440154,0.0347123146057128,0.020938791334629,-0.210904630953446,-0.0386303402483463,-0.0360403593427501,-0.257302553784661,187
1726741136469809200,-0.0082230539441108,0.0460504611004143,-0.046927170869708,7.749874706581235,0.6229792653094977,5.9767661326617,0.0015111442189663,0.0733204409480094,0.0769081488251686,-0.8019589231665232,0.1657266239501899,0.409639377321745,0.4019853994237352,1.1395918130874634,-0.0133363381028175,0.2312183082103729,0.6297840499535202,0.0714548784047365,-1.139903025084734,0.028834156692028,0.0280807539820671,-0.1718126472214236,-0.0354987159371376,-0.0790043896019924,-0.2298599817162379,188
1726741136509576000,-0.1409130300343036,-0.0323296865228563,-0.0384106869369745,7.734871198716759,0.6018502237694338,5.998326222562789,-0.061365969479084,0.0561243072152137,0.075930967926979,-0.8029790358621538,0.1658243850025461,0.4082557286618202,0.4013154380717904,-0.9352049827575684,-0.0297772567719221,-0.0720477625727653,0.3839052093178033,0.8774801691442727,-0.1830009441792965,0.0208135582506656,-0.0024560671299695,-0.1202291567121632,-0.0113645680248737,0.0202154566593701,-0.1680548655904829,189
1726741136549343000,0.3129851684421301,-0.1062486534861847,0.0569558129310607,7.712977931338548,0.5651871842173859,6.030002632808685,-0.0155035257339477,0.1192919239401817,0.101804181933403,-0.8044568708190165,0.1662822133290621,0.4060857675582552,0.4003671370893172,-1.528189778327942,0.1565963476896286,-0.1177685856819152,0.0964700771957635,1.799426672002673,0.7204723288774489,0.0302848126739263,-0.0247154738754034,-0.1406602243170142,-0.0012918543070554,0.0493114402243168,-0.1635818118296563,190
1726741136589109800,0.8387725450873375,-0.0970591656627133,-0.1349608436316251,7.704636219450831,0.5630306637706235,6.040857788822055,0.0381828360259532,-0.010433105751872,-0.057024385780096,-0.8051169377539829,0.1657342743306514,0.4056280706300663,0.3997308329227135,-1.0793116092681885,-0.0437095314264297,0.1055636405944824,-0.9454084808580576,-0.2944727756738662,0.7411375157654285,0.0395066700875759,-0.0162012949585914,-0.1638805390479043,-0.0070538828149437,0.0246165457291062,-0.1090092499064747,191
1726741136628876800,-0.1368500183790922,-0.1434985530154779,-0.0280377614825963,7.732604422828555,0.5834330715365708,6.003067279610037,-0.0260184779763221,-0.2108726799488067,-0.0942390412092208,-0.803321382280471,0.1664520461447751,0.4077038874410733,0.4009314147163113,-2.417647123336792,-0.0633828341960907,0.1471219956874847,-0.1118158226266503,1.1622966432005166,0.4859487027317285,0.0457099974155426,-0.0021314676851034,-0.1315095797997433,-0.0067895352840423,0.0424397004244616,-0.0770866737466305,192
1726741136668643600,-0.6563900250673294,-0.1228279593000188,0.333438758406043,7.7692638821840285,0.5926903273666277,5.954632626786828,-0.063538059592247,0.154821366071701,0.048296820372343,-0.8015466904674399,0.1677237127418109,0.4102035912484734,0.4014035623492082,-2.579707145690918,-0.4087607562541961,-0.3775352537631988,-0.3371720997154712,0.0823971281796693,-1.209741700464487,0.0428935885429382,-2.77084764093e-05,-0.0972045015506912,0.0050523355603218,0.0999206743073649,0.0542739306030562,193
1726741136708410400,-0.2173077029287815,0.0702303050458431,0.4718646477997302,7.7193889674246305,0.5521127447193488,6.023006490311026,-0.0256477240473032,0.3507883250713348,0.1390451043844223,-0.8039513687584556,0.1674776656370236,0.4060337111638655,0.4009366961538454,1.6157386302947998,-0.2357069849967956,0.3481420576572418,0.6306207930386066,-2.5058710600495337,-1.125919215656817,0.0491286963224411,0.0132482526823878,-0.1518608601666521,0.0035324566997587,0.0049107778869889,0.0535683807161636,194
1726741136748177400,0.4636977079570293,0.1499268690299242,0.1647299589514732,7.671051929756999,0.5200009752634912,6.0872781792134045,0.0768551602959632,0.0421187207102775,0.0771892145276069,-0.8069742702966447,0.1661454333687962,0.4025305802832928,0.3989454955749392,1.4229447841644287,0.0371031872928142,0.2984856069087982,0.5321022588804364,-0.2074684459596872,-1.3781822043716907,0.0572935715317726,0.04257657751441,-0.0777925295941997,-0.0029573193751275,0.00180587067421,0.0635117008479312,195
1726741136787896800,0.6351338865488767,0.2001272894166409,-0.0665524933159351,7.682023405626416,0.5616777513243257,6.069713296428322,0.1440495997667312,-0.1387365907430648,-0.1080960482358932,-0.8067053597972491,0.1642158877581379,0.4044303090121995,0.3983663660609389,1.0659056901931765,0.234383076429367,0.0453096181154251,0.638210517515242,-1.1800725383877753,-1.1788602399885657,0.0668764412403106,0.0436695329844951,-0.0547560743970796,-0.011824982240796,-0.0052541468229173,0.0096168349736253,196
1726741136827658800,-0.1196592296034097,0.1095746926363557,-0.4427443517774343,7.718406970649958,0.6172150757595897,6.017942192658782,0.0602046586573123,-0.2436291128396988,-0.0869118049740791,-0.8048997058170853,0.1630737643244124,0.4081388009988654,0.3987056291566843,0.1873347163200378,0.5043297410011292,0.1589092910289764,0.5604093388237059,1.7556687788188456,0.0512765982508659,0.0640265941619873,0.0180723574012517,0.008575325993236,-0.0111766885966062,0.0454955351979704,-0.0312239925865666,197
1726741136867420200,-0.2036842512458562,-0.3684167674805969,-0.4180588233321904,7.760832153925299,0.6310306159485131,5.961683129820227,-0.0196786001324653,0.0401903875172138,0.0592335127294063,-0.8031954883945798,0.1640123198875941,0.4112647550871628,0.3985451286391112,-0.456330269575119,0.0264628995209932,0.1512436419725418,-1.8057465226739644,-0.718838590195775,2.9461154117047785,0.0413264855742454,0.0049935071729123,-0.0073723599654855,0.0198944024741649,0.0552781940084649,0.0168354748152778,198
1726741136907182000,0.1734948646873235,0.0922100816637277,-0.3513233746647834,7.724078586545586,0.5938782950421795,6.013011750519276,-0.1755637675523758,0.2362654209136963,0.0395301468670368,-0.804941342111313,0.1642583029487426,0.4079717291489726,0.3983061900679353,-0.8320394158363342,-0.1764273643493652,-0.0654544457793235,-0.5543995770148933,1.498409004729986,-0.0677712214559316,0.0359144583344459,-0.0248508434742689,-0.0730492394906701,0.0181107576936483,0.0721237221435876,-0.0236541532706236,199
1726741137304799700,0.3803302734404802,-0.0178531982071697,-0.0034814123749732,7.655358686062693,0.5824357310622931,6.101363403189182,0.1181618347764015,-0.2133549302816391,-0.1364665925502777,-0.8062054120686976,0.163643282655584,0.4026635356082707,0.4013923360800029,-0.7504287362098694,0.3480681478977203,-0.2046475559473037,0.6547840511754155,-1.276848320531845,-0.8036492092579602,0.0115111200138926,0.049712274223566,-0.0510599324260372,0.0422265976667404,-0.0444586618643254,-0.0670530952152563,200
1726741137344556500,0.0118172790437936,-0.1212460604034364,-0.2320984448254108,7.692424972653389,0.6365981138825416,6.049110068860649,0.049693539738655,-0.0915135592222213,-0.0789909958839416,-0.8042247908427446,0.162763800283923,0.4063116550005955,0.4020464429966963,-0.2150729298591613,0.6628313660621643,-0.0662093833088874,0.4625178505226969,0.6537415563851594,0.3109749976634979,-0.01735570281744,0.0461923815310001,-0.0441269913577008,0.0411405637860298,-0.032987383246608,-0.0689959044126793,201
1726741137463841800,0.0930132147401571,0.4464985166791826,0.5887035592854023,7.661656324902176,0.6138336166277527,6.090370884531736,-0.1687785685062408,0.3491617441177368,-0.0404601842164993,-0.8035883464502379,0.1646046760436163,0.4029674991326347,0.4059166129275717,0.1305105686187744,-0.2001254558563232,0.1025968119502067,1.7935851063676178,2.824161933684349,1.0723457386404276,-0.0394365042448043,-0.00849777366966,-0.0866034664288628,0.0501148328185081,0.0316838811662979,-0.0275537088592769,202
1726741137503603200,-0.2004845784217119,0.0862048498995602,0.9779992294698951,7.641214425376057,0.6239752906095236,6.114972826346754,0.0233034435659647,-0.0658961310982704,-0.1475415974855423,-0.8028794892977882,0.164754746302238,0.4013465251308634,0.4088539031366898,-1.3023964166641235,-0.0636027529835701,-0.2659915387630462,-0.5069667947106063,-0.922251038762927,0.377055781814456,-0.0479330196976661,0.0251352079212665,-0.087778391959751,0.0756211951375007,-0.0285862941768718,-0.009950292153604,203
1726741137543365000,0.2091816796183586,-0.024472470216453,0.1132633910864591,7.6723817170560356,0.6923051688615233,6.068415657833218,0.2076204866170883,-0.2145127803087234,-0.1093142554163932,-0.8014104503615942,0.1626388585253383,0.4051487414909716,0.4088331151370472,1.2448599338531494,0.1058216392993927,0.0037609108258038,0.7074968197092414,-1.5006401247829195,-1.2061276016205549,-0.0291185118257999,0.0075588515028357,-0.0213940628515323,0.0645345523953437,0.0410842717940919,0.0246136824851622,204
1726741137583126500,0.2757984703421592,-0.0913607713580131,-0.4047621193856001,7.714700517347454,0.7686206390399485,6.005248715302348,0.0873800814151763,-0.1142994612455368,-0.1240249797701835,-0.7992385507988814,0.1607729676060856,0.4098409163878158,0.4091458246707602,-0.8677894473075867,0.5451012253761292,-0.2292387187480926,0.6156710611879825,-0.3926999256700277,-1.1824614793509245,-0.0023575162049382,-0.0029712540563195,-0.0710154047086602,0.054730337113142,0.0220257940169656,0.0654614786422578,205
1726741137622888400,-0.0913788915365934,-0.0704251700308173,-0.3415425698846578,7.714068064662814,0.8017043588005006,6.001734569701552,-0.0294782854616642,0.0724336504936218,-0.0481661707162857,-0.7985901989451971,0.1596628766764228,0.4104929531260224,0.410191583504582,-0.2416494041681289,0.6974159479141235,-0.4012326002120971,0.4964131058618426,0.5703846432626247,-0.592678308135271,0.0047341100871562,0.0214372519403696,-0.1297874047827907,0.0611005164682865,0.0098390491898288,0.0198141367163276,206
1726741137662650000,0.4510211817353963,-0.1952543496180325,-0.3486053478777408,7.738046321621537,0.8138562035609036,5.969143382698297,0.0372871793806552,-0.1087878122925758,-0.0518095791339874,-0.7975915413862233,0.1600121050612678,0.4123766797622383,0.4101090775161194,1.1410685777664185,0.0655531510710716,0.3763299584388733,-1.4413034080646931,-0.3655488838940858,2.450428574290872,-0.018619630485773,0.0460357628762722,-0.0816526116889901,0.06470587849617,-0.0138753646343597,0.004354937527448,207
1726741137702411800,-0.0809977827757597,-0.0197901576191186,0.1554185252487659,7.733764114257693,0.7998509129535406,5.976580839222669,-0.1669441312551498,0.2967919111251831,0.0290190689265728,-0.7972144244162663,0.1611372325825311,0.4114777980542556,0.411302810368863,-0.419126957654953,-0.8439553380012512,-0.0320541448891162,-1.405790926787257,-0.5194581736236811,-0.5284405215024948,-0.0322853811085224,0.0421621426939964,-0.0099017094797454,0.0576339364051818,0.091118487034738,-0.0638172916318057,208
1726741137742173400,-0.0499725299149751,-0.041490167447552,0.340441915166378,7.679096120002865,0.7708239943031221,6.050430503809452,-0.0361024253070354,-0.1296362429857254,-0.103494718670845,-0.7986647850571705,0.1612098567759996,0.4068479738937069,0.4130627003433053,2.908285856246948,-0.1639483273029327,0.4604067504405975,1.3469187588408589,-1.6848177115261551,-1.027127709776163,-0.0161357671022415,-0.0064302454702556,-0.1162331641448661,0.0282298028469085,0.0502788924504071,0.0237136923049809,209
1726741137781935000,-0.5056231250166893,0.0601388999465852,0.6503729567348957,7.684936078202724,0.8137448521409183,6.037380468100309,0.1396367996931076,-0.0081402109935879,-0.0461297295987606,-0.7977805028178182,0.1598144321466308,0.4082139281816139,0.4139649982744844,-1.5512309074401855,-0.4265658855438232,-0.2958492338657379,-0.291170226997137,2.62533213673234,0.4529050957858562,-0.0083424542099237,0.0052409945055842,-0.0860001028413884,0.0466937869787216,0.0198201600317377,0.0933803127531893,210
1726741137821696800,-0.0876022956073284,0.150312872672826,-0.1548936245918273,7.707597991865873,0.8682703691851347,6.000785890674591,0.1063457578420639,-0.1913844645023346,-0.0802844017744064,-0.7967692718989114,0.1579323924926957,0.4112206447944294,0.4136590622536247,0.511284589767456,-0.0838435739278793,0.0070216180756688,1.0684952006921171,-3.022470921632648,-1.128474453097582,0.0020888044964522,0.0731447860598564,-0.0806615730913355,0.0551509335637092,0.014639898716472,-0.0125707894083927,211
1726741137861458400,0.3180126412153244,-0.0389316420711576,-0.0518529368340969,7.739373186311125,0.9126656104244292,5.953111116307974,0.1088796854019165,-0.0865912213921547,-0.0669474974274635,-0.7953493918697021,0.1569808870408713,0.4145271920121882,0.4134533330508012,-0.6253688335418701,0.208537146449089,0.1243687495589256,0.5543528152637184,-0.5499117640763521,-1.52231127384305,0.0239275619387626,0.0506684407591819,-0.0001277728318236,0.0462983399629592,0.0492521934509044,0.0071074876386002,212
1726741137901220000,0.0864677386194467,-0.0316621625248342,-0.3359387585282326,7.7346408970922225,0.9449003852054476,5.954232229292392,0.0284347459673881,0.0170941017568111,-0.0383429415524005,-0.7951876513304103,0.1554150655163044,0.4150479606228408,0.4138332676847001,0.521901547908783,0.6436813473701477,-0.5414443016052246,0.3577063537001609,0.0316004224002361,-0.1418763221085071,0.0337712727487087,0.022299125790596,-0.0354157680208678,0.0697862654924392,0.0268903518630075,0.0323918970049126,213
1726741137940981800,0.0532248097091913,-0.0326484701484441,-0.29584581759274,7.75396694433093,0.9621970455083996,5.926259349739551,-0.0080154556781053,-0.0234525650739669,-0.0116059584543108,-0.7942662226758543,0.1554046472926758,0.4167664350364711,0.4138794421054421,-0.7773072123527527,-0.064204104244709,-0.0162622649222612,-0.7137558801040053,1.264410863763094,1.4068331293165683,0.022514522075653,0.0272976718842983,-0.0342969497415237,0.0823278278112411,0.006153422333757,0.0083586778638942,214
1726741137980743700,0.6383212844133377,0.1614447998009622,-0.1066822591304779,7.735399021983146,0.9301613004308192,5.955567277288437,-0.122105561196804,0.3059903681278229,0.0521721020340919,-0.7951995269082064,0.1561937795325822,0.4146734644579581,0.4138925281031371,0.985077977180481,-0.3344521522521972,-0.1402112990617752,-0.7281792499929666,-0.1591121190696954,0.6127800159215927,0.0146315935999155,0.0186636876314878,0.0028453538067609,0.0774769484996795,0.1347979903532657,-0.0436696943105664,215
1726741138020505000,0.0318698869913816,0.1503248553715646,0.2520113520413637,7.670874819624424,0.898484890184924,6.043242053610086,-0.1261548846960067,0.1367552280426025,-0.077105663716793,-0.7967519239076927,0.1563113213907614,0.409203092115961,0.4163001925435978,2.389098882675171,-0.0636990591883659,-0.0175642855465412,-0.2071323458731174,-0.9810358206868172,-0.9746090025097132,-0.0079007213935256,-0.0018009900813922,-0.0971047857695724,0.0648009777069091,0.0101649247099063,0.0439515434592496,216
1726741138060267000,-0.7089759523510932,-0.0082625822369009,0.890195273810625,7.664281412708759,0.9032451633892952,6.050894029667973,0.0878488719463348,0.0024360651150345,0.0273028593510389,-0.7965421721702788,0.1562556363915024,0.4087473868559234,0.4171693680869537,4.412256717681885,-0.171849176287651,0.0206484142690897,0.037033261103928,-1.7679747181624172,-0.7630594247162341,-0.0218133274465799,0.0298267845064401,-0.0912906561307143,0.0932410806417465,0.0423731334276963,0.0660419454113347,217
1726741138100029700,-0.4075555494964122,0.0593326250649988,0.2266875256925821,7.678147440975904,0.9320166459739208,6.028912499484419,0.1761311143636703,-0.0976606681942939,0.0269844383001327,-0.7968678650994039,0.1544162935237955,0.4108121454679974,0.4151995246947608,5.443925380706787,-0.0879980027675628,-0.084908902645111,0.4171060526520013,-1.352110774526,-0.1807329992473125,-0.0240878351032733,0.0469296053051948,-0.0748755005031824,0.0877289101481437,0.0063445558542851,0.0063047153217747,218
1726741138139791400,0.0619072978585958,0.2390944411925971,-0.2072100872844457,7.701441222801804,0.9635429802246392,5.994144552963972,0.101143792271614,-0.1105949282646179,-0.013329024426639,-0.7967410740440247,0.1528619096791834,0.4135419068761732,0.4133036569345553,3.924839496612549,0.0272171068936586,-0.1136856228113174,0.2520063836053013,0.3251981688052415,-2.850108275845647,-0.0151911498978734,0.034231998026371,-0.0217057112001464,0.0785709172487258,0.0585815509693697,0.0323988610352389,219
1726741138179553000,0.0561292989790439,-0.1277592416897416,-0.3876256911456585,7.727718988874554,0.9842848125454038,5.9568374433547255,0.0109350699931383,-0.1441849768161773,-0.0117762386798858,-0.7956071323622659,0.1528778606637533,0.4158294862811908,0.4131868495000331,2.4422287940979004,-0.037237249314785,-0.0072106472216546,-0.3870705414809286,1.1647399446994064,-1.1865174767434596,-0.0041886349208652,0.0355843864381313,-0.0108129562728805,0.0803031623363494,-0.0040216767102916,0.0792904217354487,220
1726741138219314700,0.2546674195080995,0.0004374415691941,-0.4190595248073339,7.741666850206255,0.9713088649857788,5.940836156624555,-0.0711715891957283,-0.1427319347858429,-0.0086350422352552,-0.7951245555069084,0.1540558205020018,0.4163753924554691,0.4131284840305063,1.8359214067459104,-0.0671234503388404,0.0354106500744819,-0.3596175941489636,-0.451883351522684,0.6518231555432081,-0.0062699229456484,0.0526518188416957,-0.0045313632442557,0.1154324188828468,0.0019406115321151,0.089703067278862,221
1726741138259076400,0.0875999575197696,-0.1501960413601249,0.2528746908724308,7.756852144378423,0.982031480660662,5.919226966884732,0.2379447817802429,-0.0114515796303749,0.0017573093064129,-0.7943961999225801,0.1542032589789274,0.4176419020935586,0.4131964561479131,1.5592613220214844,-0.1089043542742729,0.0601037442684173,-0.1233826340407133,-0.2090882291812449,0.2114414412438869,-0.0105336969718337,0.0274508651345968,0.0106091567794908,0.1137412264943122,-0.0046023969244066,0.0578916416096035,222
1726741138298838000,1.649256568801403,1.087173232350871,-0.994715970993042,7.858417498886585,1.154847277042642,5.751694809994101,0.3430802226066589,-1.2297316789627075,-0.7266791462898254,-0.7885903341105154,0.1505644505450808,0.4290402183518112,0.413980987761026,0.4767380356788635,-0.0802392587065696,0.1372250914573669,-0.0118954588465392,0.1387789040824398,-0.0849982505887746,-0.0149938650429248,0.0063574560917913,0.1182233698477037,0.1144949644804,0.0703860344636719,0.0821541223371867,223
1726741138338591000,0.1858405515193939,0.311239493818581,0.1259159519106149,8.147178326654434,1.4996744946211575,5.248318002599477,0.3886229395866394,-1.582504153251648,-0.9658355116844176,-0.7686601794695157,0.1509455127929612,0.4578489851373842,0.4204179405940608,0.0054477350786328,-0.1060485392808914,0.2271041870117187,-0.2344913313113152,-0.0741281892672181,0.1113058272778987,-0.0198688190430402,-0.032910481095314,-0.0188927635381114,0.1254658252000808,-0.035259579662024,0.1020515579893719,224
1726741138378483700,-0.2303536469846963,-0.1120228895060718,-0.0480249029785394,8.383208850231766,1.889418346964568,4.72464864102155,0.5265920162200928,-1.348744511604309,-0.7343633770942688,-0.7488945215326916,0.1474186624398091,0.4872142159265926,0.4243196244734306,-0.0715096294879913,-0.0857820957899093,0.2632986009120941,-0.1626810635976493,0.1405216560965403,0.2147130102604627,-0.0156327616423368,-0.0347548052668571,0.0173862748151645,0.1242238655686378,0.015617522993416,0.0598414148373529,225
1726741138418251300,0.7784305968493223,-0.2205817561633885,-0.0536713844329118,8.48368816306889,2.1455200370594856,4.426531079104542,0.1144259572029113,-0.22983418405056,-0.5354627966880798,-0.7368534234171147,0.1437244110122965,0.5036397688958634,0.4274779624741354,-0.0430273860692977,-0.0365343354642391,0.3461616635322571,-0.243835498239845,0.4984266741739586,-0.0727092623800039,-0.0052952016703784,-0.0730651542544364,-0.0272281141837011,0.1457296907901764,0.0320069071421632,0.1390276546791195,226
1726741138458018800,0.8130752092510461,-0.0249073545023798,0.2692231836050748,8.388589958748222,2.3582065099284053,4.498978767938912,-0.0972660258412361,0.5195412039756775,-0.7883292436599731,-0.7336048925771257,0.1354791783734818,0.5022562282856562,0.437273342480104,0.0184495542198419,0.0510811060667037,0.268310397863388,-0.0667854252889752,0.0727149249358102,0.1330149702608585,0.0184440910816192,-0.0739674642682075,-0.0683021819608984,0.1850382089614868,0.0179404015665873,0.1454365536070428,227
1726741138497786000,2.0582365981429813,-1.0578934349179268,0.0186731362879276,8.016414350190757,2.8150878158688544,4.897221422427893,0.0748539194464683,1.9594250917434688,-2.2811665534973145,-0.7325779965755718,0.111373193232342,0.4877573295236664,0.4615391205461264,-0.599891185760498,0.0948895737528801,0.3591338694095611,0.1423394095756113,0.3717741150844842,-0.1567664327263832,0.050155933946371,-0.0692730396986007,-0.0241552666265983,0.2155845016241073,0.0277969475972,0.0779280838736798,228
1726741138537553700,1.546082610052824,-0.6432923508241772,-1.0570452936559915,7.164321720281243,3.749170162200928,5.548567608109116,0.0252822022885084,2.117903232574463,-3.470360040664673,-0.724379995445501,0.0602017972117405,0.4620362940567528,0.5081060836785702,-0.4604190289974212,0.0208813399076461,0.4109512567520141,-0.1519960034541785,0.5721273952767253,-0.1723445256084203,0.0315664187073707,-0.052525945007801,0.0251263812476536,0.2655283212661743,0.0238491552529158,0.0416505639073438,229
1726741138577321000,-0.2012245831340551,-1.6825810385152695,-0.7260217796981334,6.051307286643982,4.644358129732311,6.162953890183568,-0.0663472041487693,2.654541492462158,-3.214310884475708,-0.707961257804697,0.0061077909820775,0.4309750350842573,0.5594765851660447,-0.8081085681915283,0.0807481333613395,0.33724445104599,0.203037477774918,0.706913101537153,-0.9347697440743444,-0.0413380414247512,-0.0274389162659645,0.1171525348789524,0.3236221075057983,0.1084956743611488,-0.0271021360167418,230
1726741138617088300,-4.44432743255794,1.2140128019124268,-1.447204887193441,5.323148494917154,4.992805364438891,6.550296088212728,-0.8694025874137878,-0.3447263836860657,-0.5801858305931091,-0.6956443372676789,-0.0197939793382732,0.4069840815737436,0.5916512743674852,-1.2415841817855835,-0.0205114800482988,0.2776180207729339,-0.0096853815816342,-0.0013869243137538,-1.0984235982269048,-0.1344448775053024,0.0141711626201868,-0.0365626319344737,0.3804183900356293,0.0071237286706367,0.0532102103616809,231
1726741138656855800,-2.9983325056761503,0.4646081008002162,-0.2881394809991121,5.504911421734095,4.70596936725378,6.612123891094327,-0.3150900900363922,-0.2133851647377014,1.2194188833236694,-0.699319907141304,-0.0026306345786304,0.4035698084280284,0.589979731010448,-1.7008094787597656,-0.0811995416879654,0.437522143125534,0.0112643213361501,0.6605382307879626,-0.6224439163237809,-0.1951953917741775,0.0411818176507949,0.0198638804424554,0.3972505033016205,0.0869056825121399,0.017527094358229,232
1726741138696623400,-0.7180933247864246,-0.3161152831614017,-3.09548121278584,5.890766011554002,4.388801944690942,6.496743946245313,-0.2442050725221634,-1.286502480506897,0.8916411995887756,-0.7077808132118225,0.0171224626063093,0.4104449755428132,0.5747069566861222,-1.379324436187744,0.3452107906341553,0.9405201077461244,0.587414250127226,2.113573577700555,-1.3673767327189446,-0.2644205689430237,0.0671533271670341,-0.0208704910685773,0.3652197122573852,0.0958454607577063,0.0193657193786813,233
1726741138736390700,-3.0799650792241096,-1.5584285891458391,-4.429292945033311,6.45683688327074,3.995276966373622,6.206239489680528,-1.302904725074768,-1.8935383558273315,1.067083477973938,-0.7030108972777485,0.0534808125845034,0.4250995883437692,0.5676317774022108,-1.797223687171936,0.5328144431114197,1.3379013538360596,0.1508485869847238,2.6303756838575003,-2.505191845613718,-0.3067020773887634,0.0574810393154621,0.0205233489981852,0.385874330997467,0.1560490599709562,0.1448909206893295,234
1726741138776158200,-0.6125988141357899,0.1090831827923655,-0.861836025288701,6.995690077716112,3.436430200691521,5.951609479573369,-0.7288431525230408,-1.2012053728103638,0.6308897137641907,-0.697881333015236,0.0975281819477428,0.4324819349109974,0.5625027464068677,-1.2827342748641968,0.9701055884361268,1.9903863668441768,0.1647914068151265,1.5300482978358865,-1.7834546113669871,-0.3119338452816009,0.0588569268584251,0.0409344971930142,0.4642753899097442,0.1500839136220049,0.2769222502076998,235
1726741138815925500,-1.2845721927821636,-0.7810580227434635,-2.529498603874445,7.276959672945737,3.326094387489557,5.6703919067919255,-0.2356190532445907,-1.487849473953247,-0.2214079797267913,-0.6885102236099981,0.1159487152269649,0.4443493830717775,0.5613049095542276,-1.6374651193618774,1.2879811525344849,2.5529208183288574,0.7363317229188978,2.862184205825627,-3.666864219436049,-0.3145275413990021,0.0404365956783294,0.179964809620101,0.5964297652244568,0.318518179584667,0.4929672031916677,236
1726741138855693000,-5.076399593448639,-2.890705074650049,-2.7028818248808384,7.5922566254615775,3.2038965793192387,5.316302574545145,-0.4176381230354309,-0.9623218774795532,0.8477544784545898,-0.6768788853240558,0.1374205539320904,0.4583225889213093,0.5593665613106521,-3.2292473316192627,2.071089744567871,2.715739727020264,0.5392641863990575,2.17450384722054,-3.544503914180398,-0.29030242562294,0.0092427572235465,0.1610919677753001,0.7069510817527771,0.2601277490069158,0.4585143870349973,237
