time_imu,phone_acc_x,phone_acc_y,phone_acc_z,phone_gravity_x,phone_gravity_y,phone_gravity_z,phone_gyro_x,phone_gyro_y,phone_gyro_z,phone_ori_w,phone_ori_x,phone_ori_y,phone_ori_z,watch_gyro_x,watch_gyro_y,watch_gyro_z,watch_acc_x,watch_acc_y,watch_acc_z,headphone_gyro_x,headphone_gyro_y,headphone_gyro_z,headphone_acc_x,headphone_acc_y,headphone_acc_z,frame_imu
1733136757640821000,-2.310363100996613,19.559004930710792,-9.238366128408908,-0.1091275059912819,9.51408568829596,-2.3750084455169738,-1.226822018623352,-0.3325701951980591,0.1732346713542938,-0.0183372188258933,-0.014440638031922,-0.787961418373687,-0.6152821345438639,-0.2409170120954513,1.1122325658798218,-0.1673657298088073,-1.5559301376342771,0.9882983565330504,-1.134774923324585,0.2443654537200927,0.370327740907669,0.9464132739864288,-0.508915901184082,0.0391588566894643,-0.0736859071261249,0
1733136757680564700,0.8381754559770226,1.8176912274897097,-10.159539893329145,-0.0832537815416231,9.690188689655065,-1.5045608053579926,-3.124221086502075,0.0852151215076446,-0.0958571583032608,-0.0205147557100059,-0.0174237260241356,-0.7592151665964323,-0.6502829502144621,1.3129866123199463,0.8450595736503601,-2.1170454025268555,-1.3390324115753174,1.463927984237671,-0.7624024748802185,0.1305055171251297,0.1638312935829162,1.1973055588699877,-0.7718381285667419,0.3386417338766157,0.0879185493491124,1
1733136757720317400,0.7444651988834142,-11.575088244020938,-4.812154782778024,-0.1254143955966457,9.803229962423444,-0.2265913901080377,-3.3366000652313232,-0.1372142732143402,-0.0657281279563903,-0.0239032309882462,-0.0153161164214909,-0.7150652853996713,-0.6984809914610773,2.425820827484131,0.5445106029510498,-3.194254159927368,-0.2256261706352234,0.7717909812927246,0.3250433206558227,0.0707257986068725,0.0568630211055278,0.7797916560694574,-0.2271518856287002,0.0791541185372974,1.078513832816109,2
1733136757760071000,0.854033680974692,-16.819999653047322,0.5477332509934902,-0.1236526557542849,9.763090259736776,0.9149741796277464,-2.4393575191497803,0.0002137000992661,-0.0005756567697972,-0.0257846445235061,-0.0149576002260298,-0.6731460245233633,-0.7389086275009297,1.774215817451477,0.5965601205825806,-2.7045438289642334,0.9489774107933044,0.0176105499267578,0.8029453158378601,0.0025605438277125,0.0156800374388694,-0.0928849761174526,0.4185334742069244,0.0516200368270976,0.6342331383168697,3
1733136757799824000,0.4052656849935651,-17.486026105988024,2.782643343859911,-0.0675335219762288,9.662971012383698,1.6711701483152803,-1.26250159740448,0.1208904683589935,0.3124393224716186,-0.0231587492470035,-0.0149979447774943,-0.6438704047385405,-0.7646368899336952,1.8339099884033203,0.1896132677793502,-1.3854271173477173,1.485767841339111,-0.5377593636512756,0.8286609053611755,-0.0611093565821647,0.0329926311969757,-0.9671959497742354,0.2985197901725769,0.0277976440002326,-0.3132465958572924,4
1733136757839576600,1.2024066083360463,-14.952437017929553,1.8039710374340407,0.0027748016151002,9.621595630422236,1.896117552342265,-0.0943800806999206,0.0044965511187911,-0.0119786225259304,-0.0185724579905596,-0.015452710333951,-0.6348906389580614,-0.7722240931728149,0.5727053284645081,0.443670779466629,-0.3908358216285705,1.3671164512634275,-0.6576892733573914,0.9091758131980896,-0.0152930952608585,0.0597249343991279,-0.988274612833932,0.0372941866517066,-0.0731165508395293,-0.0401615354925626,5
1733136757879329300,0.2306870801901444,-9.366127415925265,3.258597891321778,-0.0636915691931731,9.658818568879363,1.6951549811452626,1.3233075141906738,0.1349503099918365,-0.2197631895542144,-0.0208389395408307,-0.0132608279278404,-0.6429582421865403,-0.7655028476436121,-0.0738657042384147,0.2569504380226135,0.7005869746208191,1.259500503540039,-0.7379065752029419,0.8172868490219116,0.1100329160690307,0.1859319657087326,-0.5281326245971024,-0.1833926886320114,-0.0492859313237247,-0.287354815161135,6
1733136757919083000,-0.0573562012923415,-1.6220207713514565,0.5871230120956897,-0.1406144032807555,9.757218737354874,0.973298212172091,2.2254557609558105,0.1705244481563568,-0.0815152451395988,-0.0207754157489895,-0.0091377409026071,-0.6710380801961782,-0.7410754788925583,-1.3239645957946775,-0.0051104179583489,1.6335406303405762,0.7765739560127258,-0.3578743636608124,0.6356233358383179,0.0496215596795082,0.2401935458183288,0.2024534125429578,-0.0952969714999198,0.091692240935238,0.6973620138596743,7
1733136757958835700,-0.7942994893714785,4.975450325012207,-1.0151391658186912,-0.0999350864252075,9.80575334342122,0.0873856754482723,2.128671407699585,0.1598819345235824,0.218534454703331,-0.0177361177293816,-0.0104061838691515,-0.7038723476366907,-0.7100289148301878,-1.7546148300170898,-0.4447291195392608,1.80144464969635,0.1216480731964111,0.1022765040397644,0.1033952832221984,0.1240750700235366,0.1347224414348602,0.6067242595465854,0.1924144625663757,0.0065044585529103,0.7400752933613955,8
1733136757998588400,-0.23057185631264,8.121927565541863,-1.2239433173615484,-0.0844155187973752,9.785804195848106,-0.6335081119779497,1.617976188659668,0.2466602176427841,-0.1625789403915405,-0.0129904623500591,-0.0075657728955243,-0.7295496447657093,-0.6837627400341365,-1.866936564445496,-0.856059730052948,1.37714421749115,-0.4767966270446777,0.3335931301116943,-0.1286332011222839,0.0453501529991626,0.1036462783813476,0.3465933870008215,0.1727689951658249,-0.2831161912106908,0.2260744352955371,9
1733136758038341000,-0.1865567186984233,5.9992743170678615,-1.6646094746254383,-0.0838383490970823,9.729283267202971,-1.2265377908341586,1.3338818550109863,-0.0561854913830757,0.1817133724689483,-0.0120432346759598,-0.0071945061440931,-0.7499895095434588,-0.6613009030311578,-1.223843336105347,-0.6040570735931396,0.9938380122184752,-0.7626156210899353,0.4085635542869568,-0.3239957988262176,-0.0191771555691957,0.1335933208465576,0.1976058629139326,0.0064962869510054,-0.1288023027355782,-0.433011477792263,10
1733136758078094800,0.7568056980837136,3.871108442652225,-2.575371881777048,-0.0241800562912714,9.694738608044386,-1.4771141416363418,0.3946706354618072,-0.0430193915963172,0.20918869972229,-0.0105923311779677,-0.0104368669516357,-0.758421340710925,-0.6515949880531976,-1.124123215675354,-0.3792939782142639,0.5724934339523315,-0.5070286989212036,0.4512365460395813,-0.4766722917556762,-0.0903331562876701,-0.0308728478848934,0.3097758144741878,-0.1332573145627975,0.1351486852207686,-0.0792942393940407,11
1733136758117847600,-0.2176985836762003,1.958955555179715,-0.0145031571269035,0.0538453847263706,9.683598205348847,-1.5477126954726874,0.1696954369544983,0.125003382563591,0.1829901337623596,-0.0073208233801339,-0.0128140787897222,-0.7607543531530674,-0.6488721460975401,-0.1740985661745071,-0.3204430639743805,0.2978641390800476,-0.2762361168861389,0.1971743702888488,-0.2734391689300537,-0.0882821083068847,0.0573771744966506,-0.4302449356883764,-0.2173847109079361,-0.2276952414304018,-0.0945127325829118,12
1733136758157600300,0.5605752699751406,0.3914484643042087,-0.1758076716743409,0.0922936043618712,9.67212813230753,-1.6161026333488524,0.1252653896808624,0.0322507098317146,-0.0061850612983107,-0.0045760657914503,-0.0126854626356558,-0.7630448095603682,-0.6462048524191627,-0.0260550435632467,0.0340585000813007,0.1558209806680679,-0.1601442694664001,0.1539980769157409,-0.0434288680553436,-0.0511827878654003,0.0607985183596611,-0.1115098071510903,-0.231074258685112,0.1437275851315353,0.0730522123324684,13
1733136758197353000,0.4117148611329496,-0.3934790933489799,0.4475647576712072,0.0767022136068437,9.660985976046325,-1.682224187901616,0.2350436896085739,-0.0373108424246311,-0.0681290999054908,-0.005414825988932,-0.0125149648565843,-0.7652535147776713,-0.643584658558059,-0.1958938837051391,0.0734067037701606,0.140999436378479,-0.0026007294654846,-0.0733055472373962,-0.0013352632522583,-0.0333591476082801,0.0671763867139816,-0.2090185066795907,-0.195110335946083,-0.0137552613690495,-0.0245750446749385,14
1733136758237106700,0.2968892256984487,-0.6015963586062193,0.4323720108449458,0.0415909929069457,9.642251464959978,-1.787640080358088,0.2926885485649109,-0.0115592153742909,-0.080398641526699,-0.0068023897992355,-0.0114955432529435,-0.7687731346756943,-0.6393821309563877,-0.2582251727581024,-0.0109709165990352,0.160105213522911,0.0504316687583923,-0.0220975279808044,0.0354922115802764,-0.0366912670433521,0.1138933151960372,-0.1540586350724101,-0.1069171130657196,0.0001229602302104,-0.1713739452769048,15
1733136758276859400,0.2093379478923045,-0.3691150519430637,0.4116284980237483,0.0203557875786675,9.618065702730416,-1.9138406944289803,0.3514251708984375,0.0468069687485694,-0.0585162863135337,-0.0072631976143719,-0.0104867729245787,-0.7729610271931522,-0.6343252685515868,-0.2976852357387543,-0.1420116573572158,0.184976264834404,0.0629499554634094,-0.0379509925842285,0.0157206356525421,-0.0910973474383354,0.1578374654054641,-0.2896882082784548,-0.0290899258106946,-0.0627497582984156,-0.176865108305402,16
1733136758316612000,0.3512851250136271,0.1387573133051395,0.4792658639669418,0.0018595129729706,9.587387655872108,-2.062133021059632,0.4168570041656494,0.2343959063291549,-0.0913038626313209,-0.0060717744860393,-0.0076674725715189,-0.7778693566998409,-0.6283499604245836,-0.2089787870645523,-0.2155380696058273,0.2542024850845337,0.0203393101692199,-0.0188691616058349,0.0112206935882568,-0.1100731715559959,0.235717087984085,-0.2790030202708207,0.0086130267009139,-0.0094758881372195,-0.2490480452563613,17
1733136758356364800,0.4370787272311747,2.033705383476615,0.1785550706863403,-0.0164474493202928,9.55123789960444,-2.22350212527588,0.4298722147941589,0.0755514875054359,-0.0639664232730865,-0.0042876086824633,-0.004051776776913,-0.7831670600559943,-0.6217833541765834,-0.1315812021493911,-0.166371539235115,0.2292843461036682,-0.0049813985824584,0.0267544984817504,-0.0376412570476532,-0.0938754975795745,0.2120648175477981,-0.2767853259550407,-0.0361630283296108,-0.0278189128338359,-0.1606101025424897,18
1733136758396118500,-0.0912116452109068,7.565981781998277,-0.6047894555591047,-0.0310422473780694,9.517544304317235,-2.363422344880551,0.2428893446922302,-0.2392500638961792,-0.0318354219198226,-0.005965764215887,-0.00505925925849,-0.7877026159804691,-0.6160059728179333,-0.2617376148700714,-0.1040156930685043,0.2122454494237899,-0.1413450241088867,0.122040569782257,-0.2576277554035187,-0.0822448879480362,0.2444181740283966,-0.3380910046586766,-0.1551136821508407,-0.1923009066399186,-0.1703729332745075,19
1733136758435871200,-1.7837826742775738,15.306469067031143,-2.160080769592524,-0.113472512925649,9.52469417607188,-2.3318897270195187,-0.4806339144706726,-0.2740794718265533,-0.1824203729629516,-0.0119415577811073,-0.0058465890228881,-0.786675985957661,-0.6172229194621193,-0.0601011626422405,0.303633838891983,-0.1103706806898117,-0.7241831421852112,0.3809792399406433,-0.4705221056938171,0.0032811718992888,0.288792073726654,0.0119592447977513,-0.3101667165756225,-0.2888484512523748,0.2726851058282889,20
1733136758475655000,-0.1357813845005817,13.681892181456089,-6.127149001830816,-0.130423821256496,9.600220833960176,-1.9972744721800089,-1.1798725128173828,-0.4972063899040222,0.2435393780469894,-0.0175935902958569,-0.0110938834700254,-0.775699417979589,-0.6307596155730666,0.9904458522796632,1.1782671213150024,-0.8467881083488464,-1.3984514474868774,0.9980157613754272,-0.9090139865875244,0.0828316658735275,-0.0060810893774032,1.7128873294517395,-0.6821209788322449,0.6018746275583282,-0.294569404448755,21
1733136758515408600,1.8807604087345304,0.5267500841975212,-11.422478930974004,-0.1521468009685631,9.71339946937263,-1.3405622294209896,-2.491750955581665,-0.2366955131292343,-0.3626138865947723,-0.0248295262851995,-0.0166889259077153,-0.7537049367073131,-0.6565316762931626,1.010480523109436,0.6996445059776306,-1.6997003555297852,-0.7791357636451721,0.96575129032135,-0.0746212303638458,0.1178749650716781,-0.1763941943645477,0.9650064038407056,-0.6506165266036987,0.0569473556299693,0.9002230390891433,22
1733136758555163600,0.7234577744290233,-11.028819804883003,-6.788431475114822,-0.3430788030086085,9.799994633764028,-0.1130041738946922,-3.496755838394165,0.1225415244698524,-0.303686261177063,-0.0327938986350996,-0.0082993589496752,-0.7111207562258466,-0.7022555494498909,2.454205274581909,0.5785360336303711,-2.6445794105529785,0.072450041770935,0.5422104597091675,0.5430991053581238,0.1305899322032928,0.0330414548516273,0.1355773132958449,-0.1043099239468574,-0.1167371133453212,0.9275174348585308,23
1733136758594917600,1.9278125211581587,-15.677779583191873,-0.0617272651165723,-0.3694865521365776,9.73402490877211,1.132533884556219,-2.749250888824463,-0.2082072347402572,-0.0277106910943985,-0.0353528206973361,-0.0062613313575578,-0.6649944656890296,-0.7459848657917965,2.242100477218628,0.4925398230552673,-2.7039406299591064,1.00390362739563,0.1175535917282104,0.7446098327636719,0.0874353945255279,0.0413973331451416,-0.5023784805396572,0.2183195054531097,0.1536026714658364,0.2943876181410625,24
1733136758634671400,1.469006092374027,-16.153054331696033,4.192935089197754,-0.417652142227441,9.595185177880523,1.9820099752917884,-1.580487608909607,0.0815534517168998,-0.2032267153263092,-0.0385699807801058,-0.0039606701061997,-0.6316090010103563,-0.7743169270956965,1.5959978103637695,0.2316334098577499,-1.5743411779403689,1.4585736989974976,-0.541441798210144,0.8164498805999756,0.0335275903344154,0.0537283681333065,-1.351491473583877,0.0622119531035423,0.0233701281478744,-0.6249789146941155,25
1733136758674423600,0.9629628422491252,-13.900497522979974,5.3702545294851065,-0.5329043325109407,9.513122396221757,2.3209689584240314,-0.2639687061309814,0.3090817332267761,-0.3137459456920624,-0.0401772585468706,0.0029921361473894,-0.6177819691271874,-0.785316646744358,0.3673652112483978,0.248002752661705,-0.4108512997627258,1.3092780113220217,-0.7160067558288574,0.7384342551231384,-0.0021078246645629,0.3226321041584015,-1.432485164706409,-0.2098666876554489,-0.2598970272572711,-0.7926657506898045,26
1733136758714178300,0.1335858289513737,-10.128557895088194,4.552585270442068,-0.6797633018702268,9.540034368544816,2.167040817863494,1.0617272853851318,0.49461629986763,-0.2047176212072372,-0.0403890563618033,0.0121183641527959,-0.6239910347570099,-0.7802929875663929,-0.0634506195783615,0.2112533003091812,0.81205153465271,1.0575530529022217,-0.6849066019058228,0.5472484827041626,-0.0520721897482872,0.3633749485015869,-0.4576445453979074,-0.3977875709533691,-0.0015717217083292,-0.6038248848432675,27
1733136758753932300,0.5508611006904394,-5.825818030825257,-0.1001934816330671,-0.7516747649360448,9.650405545321108,1.5732260530442,1.7828830480575562,0.7666184306144714,0.0470691286027431,-0.0334704414448869,0.0218813261504425,-0.6475407335150586,-0.7609809053453094,-1.0454832315444946,0.3230219781398773,1.8851747512817385,0.6619620323181152,-0.409996896982193,0.4359113574028015,-0.1255926489830017,0.3499723374843597,0.2106328465410508,-0.2969231903553009,0.0072759629443928,-0.0079210376485891,28
1733136758797411000,0.3330869492936879,2.0611773277699945,-2.77876562564373,-0.7016440750930458,9.764082777905465,0.5837317622222006,2.191511869430542,0.206681802868843,0.1007295846939086,-0.0224452372803291,0.0280345719415756,-0.6851656927406263,-0.72750128431101,-1.2599889039993286,0.3521780371665954,2.4026198387146,0.3373674154281616,0.0084962546825408,0.2616584897041321,-0.1395987123250961,0.260418951511383,0.6788466254167258,-0.1226322948932647,0.0246085268194321,0.2546047660680487,29
1733136758837164800,-1.4035945857867598,7.021180492803454,-3.616510581248999,-0.7052484562605619,9.777287711915374,-0.2787061927487142,2.032892227172852,0.0835798755288124,0.039025992155075,-0.0233271828055079,0.027623649757369,-0.7165521578033426,-0.6965959313603378,-2.169466733932495,-0.0776663199067115,2.120856761932373,-0.1678110361099243,0.2876830101013183,0.1071204543113708,-0.1967198997735977,0.1526833176612854,0.6006015754152089,0.097464807331562,-0.471242826106958,0.6826210293889046,30
1733136758876919800,-0.4690284014604985,7.77231917810142,-2.709728914296627,-0.628862770390138,9.742911979582903,-0.9222751502908766,1.2784637212753296,0.3410892784595489,0.177978515625,-0.0178216004714044,0.0280790018099264,-0.7390767984297285,-0.6727997337062813,-1.860656380653381,-0.1609503924846649,1.3460592031478882,-0.7521232962608337,0.544439971446991,-0.0699310898780822,-0.1929161548614502,0.2616209685802459,0.5559758864209056,0.3141757547855377,-0.0813499206816777,-0.0069624599945876,31
1733136758916673800,-0.1293731796924024,5.718046222892403,-1.8412357692062853,-0.510776562257111,9.719616444191336,-1.1994004122573882,0.1853525191545486,-0.0158508922904729,0.4234009981155395,-0.0118161583644615,0.0259623586336646,-0.748651025552784,-0.662350380469711,-0.7848770022392273,-0.1670404225587844,0.4728295803070068,-0.4856487512588501,0.512902557849884,-0.5132315158843994,-0.2107586413621902,-0.0493997521698474,0.3494674080671742,0.2298891395330429,0.2048220961693674,-0.1871742295422591,32
1733136758956427800,0.2835254843976348,4.455600521722436,0.7082033605434,-0.3537054109631106,9.725254742339253,-1.2102365713093428,0.061815645545721,-0.158892810344696,0.3539529740810394,-0.008206994946921,0.0179532463438095,-0.749254678854323,-0.6619876481000657,-0.2274597883224487,-0.3172694742679596,0.1654100865125656,-0.3911812901496887,0.2999646067619324,-0.4870831072330475,-0.147364467382431,-0.0195222031325101,-0.3143071742935105,0.2113105952739715,-0.1332080542807001,0.1689973158060572,33
1733136758996181800,0.3557891949672251,1.7736399043172597,0.3371346903145313,-0.2562802432659082,9.722269004526732,-1.257854866248369,0.0686731040477752,-0.1328065246343612,0.1806016564369201,-0.0064264941264881,0.0124823102488695,-0.7509839804889847,-0.6601711742567447,-0.3221266567707062,-0.1035409569740295,-0.0480081774294376,-0.2652472853660583,0.2031391263008117,-0.1957447528839111,-0.0885057002305984,0.0045053851790726,-0.4121070022556931,0.047731302678585,0.0163122729250811,-0.4301430096838623,34
1733136759035936500,0.403743188134022,0.1831196021229028,0.682104458168894,-0.231959182485193,9.724834471100568,-1.242646629592031,-0.0695555359125137,-0.1106499508023262,0.003406832460314,-0.0075937733918276,0.0092734511184902,-0.7505140565994698,-0.6607457812150984,0.0328258499503135,0.014598305337131,-0.1459153592586517,-0.1290555596351623,0.020378291606903,-0.1640549302101135,-0.0844075754284858,-0.0042747491970658,-0.2534091630753129,-0.0573277324438095,-0.0118726533596869,-0.2190752423242665,35
1733136759075690500,0.4544814417244866,-0.5249579400837421,0.7318424486756324,-0.251273612351343,9.723331080800294,-1.2506358747802675,0.106440894305706,0.0076670828275382,-0.0934121161699295,-0.0086679812012065,0.0095448109323753,-0.7507819812165906,-0.6604242652989377,-0.0824613273143768,-0.0249048955738544,-0.1151274889707565,0.0067145228385925,-0.0329928994178772,0.0137280225753784,-0.0834465622901916,-0.0139073310419917,0.0026334292307758,0.0431858263909816,0.0625395176477963,-0.0462069074708735,36
1733136759115444500,0.4364470782641321,-0.7195908698678016,0.3120633774220943,-0.2920468271685764,9.712361943018436,-1.3248102412767708,0.2505938708782196,-0.0042773215100169,-0.1108742654323577,-0.0101438362819915,0.0110247342111762,-0.7532761649859435,-0.6575337169305786,-0.1140951514244079,-0.1065998673439025,-0.0534067340195179,0.063136339187622,-0.0468991994857788,0.0480503737926483,-0.0741047114133834,-0.0526861101388931,-0.0328103872784646,0.1418507844209671,0.0489263179308269,-0.0170299151085666,37
1733136759155198200,0.0877827667407691,-0.473166962569952,-0.0496199170850217,-0.3324401392901316,9.69937152854204,-1.4078497590132055,0.1625830978155136,0.0289727840572595,-0.0724377930164337,-0.0113569337135181,0.0127822929568555,-0.7560535536951241,-0.6542863166024226,-0.275737851858139,-0.1411900073289871,0.0323919951915741,0.0735019445419311,-0.0412588119506835,0.0344774723052978,-0.0646781921386718,-0.0428960062563419,-0.0812848652219865,0.1932510137557983,0.0496344616336049,0.0029995602710725,38
1733136759194953200,0.1298544604033231,-0.1129582706600427,0.391172716102749,-0.3360549687864259,9.690511930260062,-1.4667682503193615,0.2019028514623642,0.0962365865707397,0.0209527034312486,-0.0106947174043069,0.0138455020248089,-0.758018911744187,-0.6519978421096843,-0.1397826671600341,-0.1296067088842392,0.1365062743425369,0.0363987684249877,-0.0104785561561584,-0.0265246033668518,-0.0367933437228202,-0.0188383907079696,-0.1370039302991703,0.2065617144107818,0.0563686013273661,0.0327570268231444,39
1733136759234707500,0.3690119203621521,-0.0267050515741109,-0.0806416628144681,-0.3176861857399344,9.679227735179662,-1.5433756891816854,0.1425776481628418,0.1209065318107605,0.0217359270900487,-0.008762526316468,0.0146880843526384,-0.7605751238741145,-0.6490246130156252,-0.0898675769567489,-0.0822575613856315,0.1907922923564911,0.0139349699020385,0.020809531211853,-0.0079585909843444,-0.0205670725554227,-0.0392123945057392,-0.0672151858752127,0.2030877768993377,0.0812010959286708,-0.1380681254645809,40
1733136759274461200,0.1369961488515138,1.1480857470184564,0.7459002001225948,-0.3006997238973155,9.671012280020117,-1.5973386039070785,0.2205922305583953,0.0577243939042091,0.0441593341529369,-0.0069004214989861,0.0155671803117708,-0.7623642593871948,-0.6469240951647747,0.0030261429492384,-0.0654092282056808,0.2205760926008224,0.005592942237854,-0.0121732354164123,-0.0129953920841217,0.0041370335966348,-0.0626193955540657,-0.1712809514975175,0.2053903639316558,0.0393911858743056,-0.0953886751672253,41
1733136759314215200,-0.0725556792534887,6.823322755753994,1.2312791401423513,-0.3045310091558844,9.649831544825432,-1.7199958462826908,0.464783638715744,-0.2261272221803665,-0.1260453313589096,-0.0082070511866373,0.01438538459826,-0.7664779471779183,-0.6420570144347445,-0.0809627622365951,-0.0719217211008071,0.1990423053503036,-0.0420646667480468,0.0430938005447387,-0.0912811756134033,0.0661132112145423,-0.141597032546997,-0.220866126062721,0.1839079111814499,0.1244706484731286,0.0883932998545467,42
1733136759353970200,-3.5243916850000616,17.015186709582803,-2.1102995244659484,-0.3733688369300216,9.62883727211356,-1.8211292391143736,-0.2978541254997253,-0.4854028224945068,0.0774021074175834,-0.0147646340501031,0.0120229850086322,-0.7698747962568051,-0.6379109735198717,-0.3327641189098358,0.2140695452690124,0.21295066177845,-0.3723491430282593,0.1889525055885315,-0.3497360944747925,0.1443939954042434,-0.0471449308097362,-0.3606649477774277,0.2031413614749908,-0.7122591387402266,0.3611753084523603,43
1733136759393724000,-2.420841975931078,16.50526734867692,-3.9370296523272974,-0.3016644224773161,9.67757120014429,-1.556915408103913,-1.3321468830108645,-0.8374236226081848,0.6574139595031738,-0.0188598877043085,0.0015811829153417,-0.7611688997635945,-0.6482774571400227,1.1855511665344238,1.038599133491516,-0.4791567623615265,-1.5204851627349854,0.9234068989753724,-1.2053951025009155,0.1889285296201706,-0.013736255466938,1.3046280156001449,0.0351329371333122,0.3820981964284554,-0.6887376125730573,44
1733136759433478000,1.420950063604861,4.41090622447133,-6.849432179522514,-0.0570032596688251,9.75648282429576,-0.9890343451600522,-1.556552529335022,-0.866946816444397,0.648077666759491,-0.0232279905439035,-0.0213692230490246,-0.7415996727173727,-0.6700998275085449,0.9761797785758972,0.0113739632070064,-1.5081526041030884,-0.9037325382232666,0.9855667352676392,-0.5746467113494873,-0.0023658021818846,-0.1454452723264694,1.1045757641810925,-0.0101586822420358,0.0429779628864722,0.4188534808412194,45
1733136759473232600,2.85914732234776,-9.274101458656787,-8.277757009679078,0.0088070837850973,9.804417126381397,-0.209089982746914,-2.5738365650177,-0.1320139169692993,-0.2553783655166626,-0.0285554335953495,-0.0298122682852185,-0.7139830888921176,-0.6989449042776041,1.8065265417099,-0.3873337805271148,-2.553120374679565,-0.177653968334198,0.6119341850280762,0.5336079001426697,-0.0658135935664177,-0.0999291539192199,0.4613214438123628,0.5136526226997375,0.3240332532117143,0.963064987449348,46
1733136759512986600,2.121320100174099,-15.905165612542628,-3.193737004354596,-0.174834186999686,9.76328958170116,0.9044312313687056,-2.937509775161743,0.2811961770057678,-0.5569654703140259,-0.0341056691002308,-0.0190381946910238,-0.6734421936271644,-0.7382072587039259,1.7593194246292114,-0.159232348203659,-2.617795944213867,0.94748055934906,0.0423929095268249,0.8086428642272949,-0.1633194684982299,-0.1617568135261535,-0.8375400076176971,0.5800475478172302,0.2176104122024029,0.089989683934208,47
1733136759552819200,1.5932557185076175,-17.77557486926317,2.0328161795519293,-0.4447870731187984,9.62481342342496,1.8263373291514813,-1.534834384918213,0.0921325013041496,-0.6339459419250488,-0.0410805733036417,-0.0045845269552038,-0.6378571095765502,-0.7690446257443064,1.899713516235352,-0.5068125128746033,-1.8419113159179688,1.4774709939956665,-0.4524032473564148,0.9610836505889891,-0.1145170703530311,0.0061042248271405,-1.1971329057168214,0.4142947793006897,0.0925151290249079,-0.1851664516501128,48
1733136759592576300,1.2141624395161867,-15.531962414503097,2.7437439966231585,-0.6563135988302529,9.544213115534186,2.1558399171523748,-0.3523313999176025,-0.1790637671947479,-0.560590922832489,-0.0508648616105069,0.0021742299668915,-0.6245622673687085,-0.7793138577535066,0.0605389699339866,-0.0259969495236873,-0.849456787109375,1.4633729457855225,-0.693188488483429,0.768118143081665,-0.0108743710443377,0.032766904681921,-0.7730380901560187,0.0985417887568473,0.1145962471254169,-0.5241167765518651,49
1733136759632334300,-0.8352553307466208,-10.274405458915233,4.251573156127334,-0.8423319911345839,9.541180615970491,2.103984934491664,0.7935693860054016,0.2120351940393448,-0.3003843426704407,-0.0589444457987422,0.007735131474541,-0.6266313006346649,-0.7770450683364093,-0.4087385237216949,0.1771982312202453,0.4439965188503265,1.1961956024169922,-0.6761337518692017,0.5762897729873657,0.0211458466947078,0.0628732144832611,-0.3892506619989871,-0.1195324808359146,-0.1470038120569195,-0.2271036322128027,50
1733136759672086000,0.2044859230175614,-2.546380180570483,2.2751420038811863,-0.8533144267894327,9.656260701090098,1.48285692307204,2.231480836868286,0.3847475051879883,0.2218652814626693,-0.0553522350864869,0.0098478105720092,-0.6513818849852828,-0.7566642536477698,-1.2694125175476074,0.347026377916336,1.6968446969985962,0.6946539282798767,-0.2851622998714447,0.4100985527038574,0.0009959849994629,0.1225919425487518,0.1613867860034108,0.0609247907996177,-0.1972750417906791,0.5440845192275942,51
1733136759711843000,-0.1411227272622287,5.490829120367765,0.2292079840809106,-0.8152112714316695,9.753202487450835,0.6171424489147961,2.137337684631348,0.33652263879776,0.0327879339456558,-0.0476912210710684,0.0122688123842003,-0.6843858323446157,-0.7274552348874636,-1.476112961769104,0.038098357617855,2.3670151233673096,-0.0082842707633972,-0.0149517059326171,0.0939884781837463,0.0417247861623764,0.1894193142652511,0.5382026215821504,0.3248239755630493,0.2011887629020027,0.3704614981159567,52
1733136759751600000,-1.376496881633252,7.369743755105137,-2.307674884825945,-0.8115040874768048,9.771094117972254,-0.1938167180303484,1.7829664945602417,0.3090581595897674,0.0493471436202526,-0.0441946603407017,0.014060163498812,-0.713921714457993,-0.6986879894369304,-1.805188059806824,-0.1859025657176971,1.7414766550064087,-0.6607765555381775,0.3786650896072387,-0.2742258012294769,-0.0127625577151775,0.1258277297019958,-0.2839227400869131,0.1105523183941841,-0.3864494504405185,-0.3208908635327592,53
1733136759791358000,0.3460992833409458,6.002707214125991,-3.026186727285385,-0.7540114642553031,9.751438984909653,-0.7150525688510387,0.9075981974601746,0.2181867808103561,0.1107121109962463,-0.0385577016760313,0.0150186854211894,-0.7322786183056808,-0.6797468772735463,-1.3382964134216309,-0.4091716110706329,1.093422293663025,-0.6267042756080627,0.4778335690498352,-0.324648380279541,-0.0490806065499782,0.2858729362487793,0.3872087078426033,-0.0083407554775476,0.1334673719371669,-0.0017312802011932,54
1733136759831115000,-0.3953304933693259,3.5602030030936,-1.8552374065518376,-0.7293457364890724,9.733601714923978,-0.946277080386132,0.3740547299385071,-0.0254459269344806,0.089798092842102,-0.036179406768495,0.0155011033734366,-0.7402745572056784,-0.6711515400934951,-0.9457537531852722,-0.3836656212806701,0.4578912854194641,-0.2993751168251037,0.3250959515571594,-0.2645316123962402,-0.043367076665163,0.144954115152359,-0.0959622738040983,-0.0160934887826442,-0.1582040277814492,0.1396705191599205,55
1733136759870871800,0.2376373742520809,1.4635031110435723,-1.6956255212664604,-0.667995195730403,9.72729472373426,-1.050673785862699,0.0801931619644165,-0.1351642310619354,0.1930161118507385,-0.0359923158590758,0.0109146201640108,-0.7439424205942783,-0.66718449289274,-0.5575096011161804,-0.0717803090810775,0.2591505050659179,-0.3302376866340637,0.2259278893470764,-0.1291626691818237,-0.0120376013219356,0.258970707654953,-0.1558007477656938,-0.0662656128406524,0.0558544503933051,-0.1317703770272433,56
1733136759910629600,0.4017072618596256,0.8250619996428489,-0.2294470535337925,-0.6137437463872134,9.736958624136449,-0.9926432563722132,-0.2558838725090027,0.0182602927088737,0.1033674180507659,-0.0342262580433482,0.0088082654473098,-0.7419792013520696,-0.6694907537673116,0.0037894048728048,-0.0203195177018642,0.0873756855726242,-0.0228760242462158,0.1206486821174621,-0.0562008023262023,-0.0116922473534941,0.0799250155687332,0.0426927618700778,-0.1554985046386718,0.1957227708473801,-0.1554422714505344,57
1733136759950386700,0.1916772583162412,0.8366437163650989,1.1684954978406428,-0.5593368872866035,9.743782332676648,-0.9572073474623264,0.1398393958806991,-0.0777616128325462,0.186255931854248,-0.033154565949065,0.0058991370789049,-0.7407895736908521,-0.6708925638275485,0.2588837444782257,0.0308330412954092,0.0090104378759861,-0.1010742783546447,0.0456955432891845,-0.0129395723342895,-0.025844469666481,0.1151428893208503,-0.1092802945333532,-0.1393500864505767,0.038619333852129,-0.114733500171639,58
1733136759990143700,0.8375683569293468,0.3192734549313783,-0.0813151781618595,-0.526022902434133,9.73682243053615,-1.0430612650323658,0.1657035648822784,0.0191734917461872,-0.108600229024887,-0.0323566856702466,0.0041254639270135,-0.7437501635861716,-0.6676613959976205,0.0940276905894279,-0.0385255254805088,-0.0442202240228652,0.0026241540908813,0.0431097745895385,-0.0033057034015655,-0.0426542125642299,0.1484951823949813,-0.0242712371394853,-0.1202809438109397,-0.0097160963803064,-0.1911880865598097,59
1733136760029900800,0.3698337946716696,0.4783826513916254,0.2561737324178219,-0.6007246903382242,9.72660264981687,-1.0966879335407167,0.1916505843400955,-0.040253896266222,-0.2130298167467117,-0.0345103185921685,0.0073611808436875,-0.7455610870971818,-0.6655025025784072,0.1152240559458732,0.0315237045288085,-0.0095103159546852,-0.0483534336090087,-0.0447958111763,-0.0096630454063415,-0.0296118501573801,0.0847287103533744,0.1389143396309111,-0.091676615178585,0.1309212219851557,-0.0530711946166353,60
1733136760069658600,-0.3717542413402349,0.3220154471158981,0.3765336576364934,-0.6682272509206086,9.709989953190089,-1.1999893911264836,0.3610034883022308,-0.0593616627156734,-0.0815441831946373,-0.0378594382746013,0.0086348925127351,-0.749071337533852,-0.6613503949701012,-0.0180024430155754,-0.0545164234936237,-0.0476197525858879,-0.0100286602973937,0.0174782276153564,-0.0323677062988281,-0.0170079097151756,0.0849938243627548,-0.0818364894890692,-0.0552238747477531,-0.0456302720601204,0.0050326261556358,61
1733136760109415400,0.574514144282788,-0.0158171623349189,-0.4816648879326879,-0.6942243003558367,9.689290864032506,-1.3439134395450354,0.3039278984069824,-0.0427028685808181,-0.1214719861745834,-0.0388069561724977,0.0093595569470523,-0.7539449015185518,-0.6557237159665704,0.0307784117758274,-0.0924557670950889,-0.1067633628845214,-0.0084776282310485,0.0696753859519958,-0.0207100510597229,-0.0324632190167903,0.0916984900832176,-0.0341130765080219,-0.0349641628563404,0.0379083337552729,0.0076809892357065,62
1733136760149172500,0.5909109331365674,-0.045685061854124,-1.1289255578659474,-0.72573434105888,9.680700145819785,-1.3884284347064793,-0.1120432391762733,0.1897840052843094,-0.1187605336308479,-0.0380303333197683,0.0126506964028437,-0.7554006266659324,-0.6540363204240858,-0.0366022288799285,-0.051592219620943,-0.0467377789318561,0.0089046359062194,-0.0247029066085815,-0.0084596574306488,-0.0521081835031509,0.0966927707195282,-0.0051627804575022,-0.0418122261762619,-0.0266992154883686,-0.0344458566929213,63
1733136760188930600,0.0289930163808166,-0.3988432507306337,-0.4348246646940708,-0.7613194491811096,9.692385907438396,-1.283912559829652,-0.4898918271064758,0.6235083937644958,-0.1376523822546005,-0.0343540305337614,0.0197358935943707,-0.7517125877467126,-0.6582997048774382,0.4062643945217132,-0.1333964318037033,-0.0906662866473198,0.0285468697547912,0.0297707915306091,-0.0420658886432647,-0.0853553488850593,0.0962257012724876,-0.0314360279020504,-0.0593006797134876,-0.070314996787766,-0.0552781072434969,64
1733136760228687600,0.1056358188174664,-0.124822895976901,-0.2113490137200802,-0.7617967113040387,9.718388363701104,-1.069100911500305,-0.5766432881355286,0.5359725952148438,-0.0668205320835113,-0.0253198024700654,0.0299887773909256,-0.7440494940646316,-0.6669707253065436,0.615676760673523,-0.1391637623310089,-0.123627096414566,0.0455940961837768,0.0523298382759094,0.0042801797389984,-0.1090383157134056,0.1274515688419342,-0.0304929611985455,-0.054373912513256,-0.0591724478009156,0.061085642744787,65
1733136760268444400,0.6433574519496411,0.4769949964255094,0.9804325940966604,-0.8003272982936352,9.722304075840116,-1.0033268552109598,0.2797061800956726,0.0539056956768035,-0.2124005556106567,-0.0220945938647741,0.036473063174432,-0.7415019545541077,-0.6695942154971414,0.2429085075855255,-0.1183436065912246,-0.0681195706129074,0.0372151136398315,-0.0343571901321411,0.0428875088691711,-0.1081631183624267,0.1079841330647468,-0.0662484232022892,-0.0777667388319969,-0.05528836377603,0.098047811373882,66
1733136760308201200,0.1640108508966863,-0.2214367655575275,0.0327015155099332,-0.9072609749019146,9.689009124481675,-1.212593290503323,0.5599327087402344,-0.0604042336344718,-0.2729808986186981,-0.0276173285882851,0.0386839421201537,-0.7485510040550166,-0.6613715349139608,-0.2164486944675445,0.0100401984527707,-0.1119076609611511,-0.013554036617279,0.0539188981056213,0.0717133283615112,-0.0818047001957893,0.1328526139259338,-0.0734930149025283,-0.0862241387367248,-0.0492623677850468,0.1077757991213817,67
1733136760347959300,0.050883288084343,-0.3862970728904009,-0.4230275516554713,-0.9934502619061618,9.664874215656518,-1.331771896982938,0.0347521528601646,0.313116043806076,-0.218405619263649,-0.0292884315115404,0.0435780977676983,-0.7523313219733915,-0.6566891211188488,-0.3436481952667236,0.0282381102442741,-0.0824269279837608,0.0110712051391601,0.0032404661178588,-0.0370937585830688,-0.043505772948265,0.0857565030455589,0.1263031793962232,-0.0945193991065025,0.1016239345612935,0.0593929997829953,68
1733136760387716400,-0.4055619645263999,-0.9226455910384654,-0.6391654801525175,-1.017940779235959,9.664325934123992,-1.3171959668807685,-0.1127346977591514,0.2452941834926605,0.0860959067940712,-0.0251206289831252,0.0502326877934072,-0.7514219747925776,-0.6574273672750593,-0.09573345631361,-0.0228716246783733,-0.0474216118454933,0.0489640831947326,-0.0029470324516296,-0.0385733842849731,-0.0588805042207241,0.0317786447703838,0.045293779247906,-0.1220888197422027,0.0296231675105169,-0.0883267922232858,69
1733136760427473400,-0.1946644209008664,0.159940971109271,0.0170132402516901,-0.881828354416415,9.680077630007268,-1.2995569959461688,-0.1922923624515533,0.448283702135086,0.2576288282871246,-0.0190712896699249,0.0465386264202768,-0.7510613303122233,-0.6583139498797871,-0.0186583790928125,0.0828558132052421,-0.0097252996638417,0.0218293666839599,-0.0018047094345092,-0.0022140741348266,-0.1345429122447967,0.0479260794818401,-0.1145272278766613,-0.1584151983261108,-0.1095905386594589,-0.1588240593759343,70
1733136760467231200,0.1609459834333509,0.4538508522033691,0.3544530509926378,-0.8145628174602985,9.701004682701823,-1.1820981989964845,-0.3189325928688049,1.01596200466156,-0.0521991923451423,-0.0047452833675611,0.0572906410571058,-0.7463162989040167,-0.663104182370155,-0.3859783411026001,-0.0006310876924544,0.0928408876061439,0.1203194856643676,0.023202359676361,0.0490771532058715,-0.1762784570455551,0.0254136994481086,0.041753462592815,-0.1598320454359054,0.0600790412518195,-0.0155494547343754,71
1733136760506988000,0.0359882090304046,-0.244615981093049,0.5193849622569978,-0.8368488835483789,9.706352473470568,-1.1210784245621412,-0.1972145140171051,0.7514311075210571,-0.1490192264318466,0.004777310672335,0.0694540045341008,-0.7431925957332982,-0.6654458691162558,-0.9476786851882936,-0.0435299798846244,0.0014418002683669,-0.0306953787803649,0.0166487693786621,-0.0609582662582397,-0.1644007414579391,0.0072986450977623,-0.013837829652545,-0.1814926117658615,0.0175609920612536,0.0071005213249853,72
1733136760546631000,-0.291156709928438,-0.1396183140486478,1.7810710772313176,-0.8896334021441638,9.70205857566893,-1.117577649899572,0.4498117566108703,0.8589841723442078,-0.3629530668258667,0.0164151583805382,0.0864555077630129,-0.7412867502858765,-0.6653945012035212,-1.3397854566574097,-0.0338207855820655,0.1153074502944946,-0.0303682684898376,-0.0934455394744873,0.0091089606285095,-0.092556431889534,0.0070979176089167,-0.0077120573732943,-0.1972277611494064,0.0322719193204771,0.0214057510060374,73
1733136760586384100,-0.7710590451680124,-0.0149701901167631,-0.8152735960781574,-0.9689270113505424,9.661358316490054,-1.3746728810764848,0.5546320676803589,-0.1307702362537384,0.0485282838344574,0.0152047069885777,0.0927456931570041,-0.7493243950256969,-0.65549984087454,-1.9914686679840088,-0.0623238533735275,0.2003675401210785,0.0028461813926696,0.0809053182601928,-0.0740897953510284,-0.0544799678027629,-0.0344411171972751,-0.1053684639850165,-0.1930334419012069,-0.0528278919466305,0.0673903552124509,74
1733136760626136300,0.1214248510364442,0.4182587298184633,-0.1102140865184366,-0.8283130373280495,9.661929978898169,-1.4599329974718391,0.1337945610284805,-0.2505895793437958,0.607881486415863,0.0153523211483042,0.0824917922910721,-0.7534128817522495,-0.6521721559770736,-1.446141481399536,-0.1259977966547012,0.1815716177225113,-0.0919510126113891,-0.0112083554267883,-0.1511079519987106,-0.0098243998363614,-0.0110306283459067,0.0397713808309286,-0.1492039561271667,0.0030485145501559,0.0183020037038833,75
1733136760665884700,0.4540111573316157,0.0844721808880567,-0.6141138948738575,-0.6289375161267816,9.680877840474247,-1.4336774432308972,-0.2153776288032531,0.1433316469192505,0.4458684623241424,0.0210765849057498,0.0734219426478469,-0.7534629555271717,-0.6530379702493467,-0.3425307273864746,-0.1274001598358154,-0.0016091170255094,0.0145415067672729,0.2092212438583374,-0.0084517300128936,0.0052627748809754,-0.0544315613806247,0.0813490895646158,-0.0547941401600837,0.0950070371721871,0.1431495203820988,76
1733136760705636900,0.9057929481759668,0.3747334763467311,-0.2906792286098003,-0.5523488915627822,9.69857073355317,-1.342764415640384,-0.2495049834251403,0.1102306842803955,-0.0541272610425949,0.0259116694146314,0.0725282021268886,-0.7504675843745806,-0.6564043022029694,-0.3813782632350921,-0.1676037311553955,-0.043188851326704,-0.0243698954582214,-0.0227922201156616,-0.005858302116394,0.021104522049427,-0.0612070076167583,-0.0740683305724523,0.0062289955094456,0.0031049072127789,-0.0099433258399891,77
1733136760745390000,0.6288777487635612,-0.044245384439826,0.5782137294530868,-0.5509165572047233,9.711283500131964,-1.2481406969636677,-0.1538593918085098,0.3132653832435608,-0.098537266254425,0.0303943410181109,0.0769649969381773,-0.7468024193532777,-0.6598778289757478,0.0528759881854057,-0.0195191316306591,0.0556053705513477,-0.0104860067367553,-0.0151922106742858,0.0681886672973632,0.0198397077620029,-0.0375966317951679,-0.0477751568680163,-0.008574672974646,0.0235898467296035,-0.1256154528603889,78
1733136760785142500,-0.5754131754817441,-0.2726408830940723,0.1918985363841056,-0.532204367548041,9.711780928260088,-1.252380088099092,0.051122635602951,1.1166294813156128,0.0518055334687233,0.0391305423902214,0.0854409386134072,-0.7460251073671863,-0.6592534943252502,0.307351678609848,0.0386036150157451,0.0562435947358608,0.0192217230796813,-0.0614984035491943,0.0783355683088302,-0.0349446944892406,-0.04925999045372,-0.0508480067084077,-0.0214650928974151,0.0277998017079895,-0.0645158820549491,79
1733136760824894700,0.2734420799417421,-0.1880290014743804,0.2174002035178244,-0.3585857303505763,9.712012983450292,-1.3109512272723018,0.0688254237174987,1.0820541381835938,0.3504833579063415,0.0631710723725335,0.0998660167469324,-0.7462350091653893,-0.6551102453382076,-0.6067528128623962,-0.0955748036503791,-0.0262520797550678,0.0320100784301757,-0.0581547617912292,0.0284111052751541,-0.0873355939984321,-0.0255233515053987,-0.0362030094084213,-0.0265454854816198,0.0069991615760518,-0.0878644445416983,80
1733136760864648200,1.2371141299061477,-0.2868874351114034,0.198661308517307,-0.2726999380712397,9.709418875303864,-1.3502725993134082,0.1185242831707,0.1582671701908111,-0.0649928301572799,0.0730401237495106,0.1049062717328422,-0.7468864819205225,-0.6525492460722234,0.2466973960399627,-0.0053714606910943,0.0738315805792808,-0.0081965327262878,0.0678747296333313,0.0798802375793457,-0.1057964712381362,-0.0445186831057071,0.0343811049106181,-0.0398027077317237,0.1153572398268617,0.0012860229350131,81
1733136760904400400,-1.987244514944404,-0.1494032104820013,0.4375764476202428,-0.3032583771378733,9.7012215403229,-1.40169196703583,0.1178858578205108,0.2684623003005981,0.1789322644472122,0.0719126501874492,0.1064799308513306,-0.7484172787769208,-0.6506629292642414,-0.6052337288856506,0.0759511962532997,0.1587806195020675,0.0209745168685913,-0.1383261084556579,0.0073909759521484,-0.1046759337186813,-0.0669205635786056,-0.0180575434065423,-0.042643416672945,0.0020043227056245,0.0890184094829484,82
1733136760944152600,0.3012133177089505,-0.3769640118777752,0.1692411527656018,-0.1093780558194033,9.698938982343671,-1.4453504914984106,0.1160277351737022,0.3214918971061706,0.4405871927738189,0.0859357475601528,0.1081505785280945,-0.7496638033223242,-0.6472424755779967,-0.520483136177063,-0.1663320213556289,-0.1617964506149292,0.0481138229370117,0.2157319784164428,0.0201812982559204,-0.0795365571975708,-0.0131964553147554,-0.0845976886975578,0.0001789238303899,-0.0589176053901668,0.0583470252608647,83
1733136760983905800,-0.0300687375872395,-0.0411199458956718,0.1253017655350267,0.011513820851501,9.684663788753747,-1.541920668067783,0.2970121800899505,0.2159885466098785,0.2735545933246612,0.0908235814808844,0.1055322488922671,-0.7533120329147274,-0.6427557074129827,0.0581453181803226,0.1275585293769836,0.0011680271709337,-0.0807707905769348,-0.0436035394668579,0.1042242050170898,-0.0925927907228469,-0.0314978957176208,0.0608020491635892,-0.0325328819453716,0.0865899858927819,-0.1214935962905641,84
1733136761023658200,-0.6425263348877429,0.3012561522036791,-1.4806579517230392,0.2181541271576657,9.66610288066864,-1.6398850754745304,0.1968344748020172,1.228136420249939,0.6400243639945984,0.1060723567653591,0.1085436536267431,-0.7561938556902233,-0.6365042710538062,-1.1977508068084717,0.0995281115174293,0.1700246334075927,0.0710722208023071,-0.090798020362854,0.0096459984779357,-0.1039221286773681,-0.0825568735599517,0.1025873362333513,-0.050638910382986,0.0626714049657341,0.122428420322109,85
1733136761063410400,0.2182778631351888,0.0511316368222236,-0.0315102598987519,0.6363025650020688,9.630420157390832,-1.7379545506909488,0.343273401260376,1.1692038774490356,0.9025940895080566,0.1363176618476578,0.1132771258334407,-0.7588012340886445,-0.6267426665013804,-0.5808242559432983,-0.0434091798961162,0.0667810589075088,-0.0083442330360412,0.0927104353904724,0.0213869214057922,-0.0738337114453315,-0.1031648069620132,-0.0769853596634697,-0.0494858361780643,-0.0014337785381183,0.0472636591153452,86
1733136761103163000,2.406202040681988,0.2822761419236659,-0.4932394442617893,0.9269755830667912,9.595152444654705,-1.8011534957952795,0.0503279194235801,0.6564450263977051,0.230248674750328,0.1563057709710939,0.1156143102133084,-0.7605699187358269,-0.6194636640367245,-0.886207103729248,-0.1290942579507827,0.2124971747398376,0.0701469182968139,-0.1347412467002868,-0.177463412284851,-0.0632191523909568,-0.0691746771335601,-0.037341749381076,-0.0729722753167152,0.0508669306045863,0.072673154453584,87
1733136761142915800,0.9197480429660528,-0.2828817066013813,0.0632896921277046,0.967032502840832,9.594380875760317,-1.7841218431040644,0.0127767026424407,0.1125718131661415,-0.141056552529335,0.1642288867979236,0.1218990898995345,-0.7590161485546649,-0.6181132328739675,-1.2554486989974976,-0.0350969731807708,0.2391309291124344,-0.043964684009552,0.0095239281654357,0.1508352160453796,-0.0295629277825355,-0.0511887297034263,-0.1414355743373744,-0.0739613771438598,-0.0314465310297557,0.1121377115247771,88
1733136761182668300,0.8102950770132243,0.2125309900462627,-0.956510305108875,0.8795623822458087,9.602797406449913,-1.7841024077512322,-0.0976862832903862,-0.0945001989603042,-0.2421740889549255,0.1606238863012045,0.124391458383054,-0.758611013956266,-0.6190605777438343,-0.7912166714668274,0.1257764995098114,0.0003369211917743,-0.0821843743324279,0.0749136209487915,0.0480986833572387,-0.0225675273686647,-0.000631631235592,-0.0722420695599401,-0.1006074994802475,0.0688840780686587,-0.0399021950032096,89
1733136761222420500,0.2331831713221967,0.2186117712646722,-0.023779665646702,0.8231086005527526,9.624850248304009,-1.689720535006374,-0.257036417722702,0.335687518119812,-0.1570080071687698,0.1617171654518965,0.1286191782257162,-0.7547243730315603,-0.6226523109484363,0.0294473636895418,0.1539348363876342,-0.0529956109821796,-0.0186424255371093,0.0588866472244262,0.0203626174479722,-0.0271662548184394,-0.0198608823120594,-0.0758384911832865,-0.109237715601921,0.0183328452250745,0.0264453434752882,90
1733136761262174000,-0.0055325727511197,0.2386041734576225,-0.0475916261278092,0.7670382652193307,9.643761869522928,-1.6062039012774825,-0.1913129985332489,-0.0454491786658763,-0.1554419100284576,0.1618615726571392,0.1317939782915376,-0.7513480905630954,-0.6260249345358572,0.177131101489067,0.2459477484226226,-0.1858160942792892,-0.0167344808578491,0.0637072324752807,-0.0028368234634399,-0.0102464249357581,0.0027061351574957,-0.0341130765080219,-0.0911830812692642,0.0379083337552729,0.0076809892357065,91
1733136761301926100,-0.4654562420621514,-1.097914479660988,-0.8561082952916622,0.7677242016568779,9.655090488266945,-1.5362971290975809,-0.3514329195022583,0.5953251123428345,0.2000340968370437,0.1645407709965333,0.1337784646593743,-0.7486205174253159,-0.6281695432053396,0.3221697509288788,0.2467418015003204,-0.1026535108685493,0.0251621007919311,0.0280500650405883,0.035233199596405,0.0143134053796529,-0.0194923654198646,-0.084725470662536,-0.1065248623490333,-0.0096654096559737,0.0654545100453542,92
1733136761341678300,0.2785379052434116,0.1484855111151933,0.2549029818296432,0.8516748428888619,9.654124273583292,-1.4976440117068588,0.1227532997727394,0.0745728313922882,0.0530826747417449,0.1736656085623353,0.137483288889736,-0.7466303877045661,-0.6272812395665716,0.4574905633926391,-0.0279734954237937,-0.4029468894004822,-0.0577207803726196,0.3449613451957702,0.1458957195281982,0.0643703043460846,-0.0523775964975357,0.0013307411428628,-0.1081055626273155,0.0515215357555309,-0.0214960048390668,93
1733136761381431600,-0.2099235840268433,0.3970966993242502,-0.1865690119244158,0.8642888252682983,9.647178984490036,-1.5347120518632231,0.0873756632208824,0.0209674667567014,0.0326318219304084,0.174134947328359,0.1377156118635966,-0.747852224992563,-0.6256425019798025,-0.0009707293938845,0.2347520291805267,-0.0326701626181602,0.0735448598861694,-0.1535803079605102,0.0907714441418647,0.0817082151770591,-0.0917369872331619,0.0336736576108727,-0.0795942693948745,0.0288411365876207,0.0072116740988596,94
1733136761421184000,-0.2253325308870524,-0.1156646070092916,-0.3556466446913778,0.9296767317842692,9.649975337210297,-1.4778639370903373,-0.2159595787525177,0.7857345938682556,0.2056931108236313,0.1816982143781299,0.1406668139099492,-0.7453609443493863,-0.6258080905291427,0.7228844165802002,0.288880705833435,-0.0170779544860124,0.0261827707290649,0.0016618967056274,0.0633629485964775,0.0866949036717414,-0.1051454693078994,-0.1090446774128824,-0.0457453690469265,-0.0367542158336844,0.0075559078303573,95
1733136761460936200,-0.2749892728511244,-0.0967448024839162,0.868170635137707,1.1386973756220191,9.644221888250112,-1.3648181342773138,-0.0668562278151512,1.3448805809020996,0.5288609266281128,0.2035939823553969,0.1484672211972374,-0.7399620566843059,-0.6236690749644538,0.0434609167277812,0.2365022599697113,-0.1178812608122825,0.012054443359375,-0.0410614013671875,0.0042033195495605,0.0900875404477119,-0.0883162319660186,-0.000467470382338,-0.0253787208348512,0.0262459210462053,0.011677764400182,96
1733136761500689400,0.6694555506065487,-0.0268009131640195,0.0514252129413187,1.3921015702612698,9.619916883555057,-1.2998517411090431,2.03284434974e-05,1.1764954328536987,0.3580831587314605,0.2282034422541657,0.1569673265156782,-0.7359587296780392,-0.6177775370243113,0.739039957523346,0.1523294448852539,-0.2275504320859909,0.0042133331298828,0.0645709037780761,-0.0270792767405509,0.0993827357888221,-0.1085732728242874,-0.0272081879238132,-0.0311661548912525,0.0088760625054797,0.0025232793914328,97
1733136761540441900,-0.0346175782643258,-0.1362824476242065,-0.0165888773597776,1.5722937406301498,9.599814591246842,-1.2417141710475086,0.0575307570397853,1.313048005104065,0.3334228098392486,0.2499340359411525,0.1678341238204604,-0.7315336715788511,-0.611737883238342,0.2885838449001312,0.0514298751950264,-0.1373786628246307,0.0313607454299926,-0.0093180537223815,-0.0043011903762817,0.0950659662485122,-0.1071081832051277,-0.0286667001860332,-0.0511370226740837,0.0066067196300311,0.0311267724399222,98
1733136761580194000,-0.1810615005493163,0.0824362911462783,-0.2024048789598047,1.7842787872314452,9.57053705883622,-1.1796487600177523,0.0135317612439394,1.2484766244888306,0.4508350789546966,0.2733324482205104,0.178248403529938,-0.726892603193984,-0.6042715297448722,0.4918836951255798,0.0127447452396154,-0.1257863193750381,0.0062190890312194,0.020569622516632,-0.0284231305122375,0.1116695180535316,-0.1091694459319114,-0.049437468623626,-0.0713042914867401,0.0126964319319231,0.0401701023915084,99
1733136761620168000,-0.3971406845964491,-0.0662204848825931,0.1242576633095741,2.085651405421644,9.521072478443385,-1.081490218278393,0.1183196529746055,1.870377540588379,0.7419270873069763,0.3032231835528137,0.1888783930372836,-0.7207396262745885,-0.5940665428611521,0.2195528596639633,-0.0146870389580726,-0.1797307729721069,0.0182966589927673,0.023186445236206,0.0469209104776382,0.122628815472126,-0.1083344966173172,-0.0893927226880565,-0.0843086615204811,-0.0221069968938594,0.0225457878866349,100
1733136761659924000,-0.2053875480324029,-0.091230422976613,-0.6579353548131883,2.4607249273777008,9.445224918037653,-0.9502207765106112,0.0973871424794197,1.9413849115371704,0.813392162322998,0.3392716682613701,0.2006652630391198,-0.712868311153649,-0.5800404014375372,0.3754138052463531,0.086258165538311,-0.2316637635231018,-0.018946349620819,0.0087203383445739,0.0020990967750549,0.1185793653130531,-0.0834142342209816,-0.080689621008886,-0.0890546888113021,-0.0258636551467934,-0.0157856906260654,101
1733136761699685000,-0.1023658572360873,0.0741740742355585,-1.0704980649471283,2.8500118297338486,9.355838077101112,-0.7184196341313421,-0.1679033041000366,2.3444440364837646,0.8594747185707092,0.3793391073722646,0.2132597457406243,-0.700820581649993,-0.5652191729374371,-0.1698281913995742,0.0458926856517791,-0.2143314331769943,0.015336275100708,-0.0112996101379394,0.0216386169195175,0.0887403488159179,-0.093579888343811,-0.0244469864320359,-0.0743730142712593,0.0221633895564824,-0.0507911162888631,102
1733136761739446300,-0.0460384053364396,-0.3052490212321281,-0.8848480675637721,3.201446555818617,9.263602860996128,-0.3267676831442863,-0.4136278629302978,2.5100526809692383,0.8138087391853333,0.4215015888612798,0.2251725153119266,-0.6826110558264774,-0.5528796199434445,-0.0545689761638641,0.035234659910202,-0.2037341296672821,0.0548638105392456,0.0072628259658813,-0.0516132861375808,0.0490747801959514,-0.0734092593193054,-0.0782681203498505,-0.0583980046212673,-0.035582601071312,-0.0645298101156018,103
1733136761779208400,-0.0229708334818482,-0.0509954432219266,-1.0657768816441298,3.5277827887430786,9.148362616878748,0.1805208543339744,-0.3878167867660522,2.6454689502716064,0.8382110595703125,0.4690681875635909,0.2397203264119001,-0.65827818060494,-0.5377536839666066,-0.0974762290716171,0.0385289937257766,-0.1524400413036346,-0.0008913874626159,0.0112497806549072,0.033391073346138,0.0363307669758796,-0.0392432697117328,-0.0547560743970796,-0.0481705330312252,-0.0052541468229173,0.0096168349736253,104
1733136761821456100,-0.1709121547177433,-0.030022797819972,-0.9821043267011642,3.735130238671601,9.043443860289454,0.6597852935288101,-0.5124233365058899,1.6702048778533936,0.4942606687545776,0.5065302492194957,0.2498187679656985,-0.6355713149499765,-0.5263713970765902,-0.0285112764686346,0.1165646687150001,-0.2116104811429977,0.017298936843872,0.0385896563529968,0.0375368148088455,0.0357138626277446,-0.0539659112691879,0.04642072375149,-0.043768897652626,0.0725206262064166,0.0273592685659881,105
1733136761861217300,0.0821679955989122,-0.8454746730744839,-0.0253534908346831,3.803920866303146,8.973940115952491,1.081196642159298,-0.6110770106315613,1.3287698030471802,0.1711873710155487,0.5306716903168601,0.2546712731758858,-0.6164550708212493,-0.522985052326195,-0.0021292043384164,0.2225555926561355,-0.2437528371810913,0.0233559012413024,0.0518845915794372,0.0652219653129577,0.0292162559926509,-0.0662743970751762,-0.0320032196310232,-0.087582416832447,0.0456866692893207,-0.033277954557864,106
1733136761900979500,-0.7814522827580571,-0.8937760549068451,0.1245743280433118,3.801438109576702,8.90926335338056,1.5311653191670775,-0.5730264782905579,1.9013712406158447,0.4248335063457489,0.5552084790795881,0.2621232107467152,-0.5943262746201186,-0.5194335184918593,-0.0086110718548297,0.2555383443832397,-0.2480503916740417,0.0515159964561462,0.0325580239295959,0.0070496201515197,0.0028715643566101,-0.0701367184519767,0.017150651986472,-0.1440594941377639,0.0909910703959409,-0.0624479851731332,107
1733136761940740600,-1.5253800137639044,-1.627113126054406,0.6805617587715387,3.937687531714141,8.731906552568077,2.1020986823536454,-0.7472599744796753,2.7793996334075928,1.2846871614456177,0.5934275496711977,0.2681420806242858,-0.566500325077176,-0.5049960910063725,0.1866532266139984,0.3433930873870849,-0.1811882704496383,0.0018954277038574,0.0124688744544982,0.0239613056182861,-0.0106003368273377,-0.0828456953167915,-0.0276195566201233,-0.2049231380224228,0.1161290918490383,0.0206308439436717,108
1733136761980501800,-1.2568453969448805,-0.8328069146811962,1.271904434388876,4.210691695162653,8.39608995911479,2.818888084934652,-0.1462048292160034,3.4951934814453125,2.231813907623291,0.6493117855551428,0.2746187062547701,-0.529963457913557,-0.4712933987372235,0.0373020879924297,0.3267505168914795,-0.1036030575633049,0.0428124070167541,-0.0039288401603698,0.0149470567703247,0.0008347562979906,-0.0701517686247825,-0.1227983587461989,-0.2830598950386047,0.1023174332507886,0.0243011276709614,109
1733136762020264000,-1.515507731308043,-1.674866226354241,0.628629911482334,4.604626423324644,7.953510442510247,3.421910384690761,-0.1338103860616684,3.123414993286133,2.7016937732696533,0.705716040640609,0.2780946275402832,-0.4981912272770881,-0.4200401988615751,-0.0144567098468542,0.3773089945316314,0.0239574294537305,0.0069229006767272,-0.0321184396743774,0.0254338383674621,0.0092228557914495,0.0058812787756323,-0.1624700146628543,-0.32743039727211,0.0095131736697512,-0.0043232631767285,110
1733136762060025000,-1.014839306089282,-1.8007728259146212,0.1463505449131131,5.081240603739023,7.371630591765045,4.001304263839125,-0.1096790507435798,2.3309664726257324,2.955845832824707,0.7555373401145893,0.2690660344646476,-0.4728569789931025,-0.3649287833967395,-0.2141996473073959,0.4522993564605713,0.0403790771961212,-0.022669494152069,-0.050711452960968,0.0736262202262878,-0.005897494032979,0.0066142524592578,0.0137661583640438,-0.3002316653728485,0.1126983045496046,0.0064367676073161,111
1733136762099786000,0.0210749367326498,-1.4879992543965577,-0.2027741506636142,5.454164984837174,6.793699770906567,4.502011852024495,-0.1519441902637481,2.36986780166626,2.474415302276612,0.795254663519723,0.2587998646414819,-0.4510919078008107,-0.3116227223662964,-0.2018337845802307,0.4448629319667816,0.0689008682966232,-0.0142503976821899,-0.0572836995124816,-0.0028020739555358,-0.0082452278584241,-0.0235404949635267,-0.0210263141012401,-0.2419582903385162,0.1045941003453452,0.0232583109370083,112
1733136762139548400,-0.472090857771039,0.0477852490037679,-0.9151701405912636,5.759535586622357,6.116236562672257,5.058635388699174,-1.076187014579773,1.0704984664916992,2.514970302581787,0.8285687683781023,0.2373859758930198,-0.4309631949457887,-0.2671937727521404,-0.2660317122936249,0.4202113151550293,0.0684813559055328,-0.0140796899795532,-0.0546774864196777,0.0200677514076232,0.0027077170088887,-0.0145612489432096,-0.0548557947447756,-0.1687899529933929,0.0845015987787861,0.0199392221174319,113
1733136762179309300,-0.3325800957500934,-0.7986749279767275,1.4279162493556736,6.134179046598076,5.288700281870365,5.52918427772522,-0.9281099438667296,1.2461140155792236,2.714099168777466,0.8538246058026812,0.2024571166053604,-0.4208339000727664,-0.229985784494642,-0.2294837981462478,0.3021485209465027,0.0689019337296485,0.0231624245643615,-0.0413830280303955,-0.05429008603096,0.0164077915251255,-0.006753681693226,-0.0461526976321823,-0.1121554672718048,0.0807449405258521,-0.0183922552536241,114
1733136762219070500,-0.3974678707242012,-0.5740700537770986,1.4763082320809364,6.378033980190754,4.312765583714842,6.0738067032217975,-0.603995680809021,1.662550687789917,3.4823155403137207,0.8825844729144844,0.1692926526309437,-0.4020721777669625,-0.1752789235124672,-0.337971419095993,0.2919903099536896,0.056018091738224,-0.030200183391571,-0.0159273743629455,0.0103209912776947,0.0049660899676382,0.0036637233570218,-0.0166507750312914,-0.0806481316685676,0.1114021181260701,-0.0625521716333925,115
1733136762258832600,0.110805476540327,-0.6754331637114286,1.0385106890559197,6.515895805960893,3.331051717635989,6.528214020264149,-0.2446378469467163,1.368361234664917,3.402399778366089,0.9057026966545544,0.1400084012326033,-0.3841241408049696,-0.1120220922855898,-0.1214590594172477,0.1433656513690948,0.1433349549770355,0.017159104347229,-0.0276515483856201,-0.0781745314598083,0.0108711961656808,-0.0286947544664144,-0.0383845387155655,-0.0554554276168346,0.1294801197987515,-0.0333682083908934,116
1733136762298593800,1.5658604927122592,0.3220122322455048,1.0314514181941747,6.563651244348288,2.4700758163079617,6.854749575152993,0.0102165434509515,0.8787177205085754,2.841264009475708,0.9201775343538378,0.1156907121857277,-0.3702981196647789,-0.0526138813297478,-0.3456482291221618,0.067254327237606,0.1840636134147644,0.0045891404151916,-0.0193262100219726,0.0002668797969818,0.003324877237901,-0.0148056335747241,-0.0676028608853928,-0.0403894893825054,0.0408221091599902,-0.0002083694955857,117
1733136762338355000,2.312597143658996,1.4487756436415016,0.4391951348632574,6.603559476366638,1.8646498164109884,7.006173477807641,0.1220187321305275,0.461481511592865,1.917713642120361,0.9258396922909758,0.1003146281627532,-0.3643096751978039,-0.0060262482571228,-0.4143559336662292,0.046486996114254,0.2308257222175598,-0.0115745663642883,-0.0091103911399841,-0.0534800142049789,0.0091777462512254,0.0317637249827384,-0.184835192135442,-0.0588676296174526,-0.0010486528196954,-0.0992882307558786,118
1733136762378117000,0.1668003354847431,0.3528735267162323,-0.4994967510908842,6.607742315009236,1.446967425175756,7.100310143619775,-0.3150081932544708,0.2274418026208877,1.226904034614563,0.9282046847103046,0.0877402914492376,-0.3609522982413018,0.0212386639341444,-0.085035003721714,-8.135795360431075e-05,0.2746420502662658,-0.0199409127235412,0.0118752121925354,-0.0117912888526916,0.0004846944939345,0.0084424912929534,-0.1150944241722114,-0.0999582931399345,0.0064111217094061,-0.1368238975571468,119
1733136762417878300,1.0413900438845156,0.1932196289200335,1.1531903766810894,6.64818655360043,1.0287211164474486,7.135386133176088,-0.1252287775278091,0.1453591436147689,1.2481107711791992,0.9284213105329264,0.073194581827861,-0.3617168821484038,0.0428656469651225,-0.0513934232294559,0.0933027043938636,0.2661410868167877,-0.006226360797882,-0.0272819995880126,0.0085015296936035,-0.0225544292479753,0.0291744880378246,-0.0807176689264364,-0.071108840405941,-0.0663672044434817,-0.0190005918437382,120
1733136762457639200,0.506507506635785,-0.0048858723454177,0.5684159735381603,6.545314792668819,0.6864852305363863,7.270349314895272,-0.137882575392723,0.6526656746864319,1.2371728420257568,0.9308000744370986,0.0625392443735717,-0.3541245227852989,0.0655434036055194,-0.1420005559921264,0.0607226565480232,0.2053719609975814,-0.0351859927177429,0.0050674080848693,-0.0009494870901107,-0.0048220693133771,0.0100948084145784,0.0,-0.0345096066594123,0.0,0.0,121
1733136762497401600,0.7960007403314113,-0.18482790387813,1.2584814737141132,6.409049880701303,0.3423963737023994,7.414663677805661,-0.048836026340723,0.4297925531864166,0.9955990314483644,0.933014095078848,0.0508390645266768,-0.3455036249107631,0.0867609026979947,-0.1445923447608947,0.0276040658354759,0.1933388710021972,-0.0041592121124267,-0.0384969115257263,0.0027990788221359,0.0179351065307855,-0.0313315279781818,-0.0334897843773709,-0.0520184002816677,0.0029137736922508,-0.0078893621562252,122
1733136762537162500,0.3478741109937429,0.1725467153833247,0.4098176492094993,6.252192262560129,0.1678787966375239,7.553297072470188,0.0940948650240898,0.7245206236839294,0.7316911816596985,0.9351741272055942,0.0460537551223569,-0.3358096003369845,0.1027631233637104,-0.2178005129098892,0.0408399254083633,0.1054209321737289,-0.0169950723648071,0.0230263471603393,-0.0133883953094482,-0.0002885579597204,0.0024169937241822,-0.048007006562245,-0.0352887474000453,-0.0255377796267159,0.0083517115502792,123
1733136762576924000,0.4115957647979259,0.5210904510006308,-1.048732223340869,6.097340723544359,-0.0111254631380201,7.680670237451792,-0.1365424990653991,0.4304741024971008,0.7011666893959045,0.9370618831128424,0.0399461855203297,-0.32680130727715,0.1162764277070447,-0.1163431257009506,-0.0162553209811449,0.1220451071858406,0.0054425597190856,-0.0258309841156005,-0.0203451216220855,-0.020812040194869,-0.0301108881831169,0.0024495554264518,-0.044699590653181,0.0307846056554582,-0.0455292228384409,124
1733136762616685800,0.956813233578205,0.8443577978737652,-1.0798919162362812,5.952553482425213,-0.2743881468865089,7.788594605597853,-0.5062230825424194,0.4515366554260254,0.6342830657958984,0.9385239081333908,0.0285305411928557,-0.3194967989725917,0.1275959494991156,-0.0969547778367996,-0.1139080598950386,0.0836690291762352,0.0190643668174743,0.0145218968391418,-0.0084335356950759,-0.0256902892142534,0.0107221147045493,-0.1153262692998629,-0.0544025152921676,-0.042716503505269,-0.0028567371422337,125
1733136762656473300,0.0437374349176883,0.1299979970598593,-0.2217383788526058,5.774471874469518,-0.5799582715654745,7.905030781501531,-0.588370144367218,0.5698098540306091,0.5309650301933289,0.9407081113914258,0.0130747284273228,-0.3111023363554606,0.1345831932575319,-0.051284234970808,-0.086141251027584,0.1284913569688797,0.0107780694961547,0.0010914802551269,1.1220574378967283e-05,-0.0282149668782949,0.0063367285765707,-0.0210824167862068,-0.0503582544624805,0.0235869926188141,0.0168285085016628,126
1733136762696235800,0.2690548413008451,-0.4604748003877699,0.2912099744856357,5.568607356575131,-0.8548396635953337,8.026845143312215,-0.4136926531791687,0.5403770804405212,0.4282683432102203,0.9431395048928533,-0.0013338458146277,-0.3012357875842359,0.1405101718012726,-0.0580321513116359,-0.1353504955768585,0.1419979780912399,0.0074617862701416,0.0020020008087158,-0.0122226476669311,-0.0222503673285245,0.0002296613529324,0.008966771283769,-0.0240166261792182,-0.0386266495089046,0.0871728181488812,127
1733136762735999200,0.9931167191028596,0.0382580536585301,-0.122778822928667,5.41062394927442,-1.0239209496241062,8.11462338000834,-0.2600646018981933,0.4821357131004333,0.2330387681722641,0.9448350613775472,-0.0102135766851494,-0.2935388038955844,0.1449733117207901,-0.1485729664564132,-0.1740941107273101,0.1469202935695648,0.0061995983123779,0.0046389102935791,-0.0064963102340698,0.0002860122767742,-0.0071448031812906,0.0696927915025036,-0.0160580351948738,-0.0099129364099469,0.0957538004188798,128
1733136762775761700,0.4478893134504556,0.3648024494409561,-0.3830541454464197,5.272905915889144,-1.202473682222888,8.180520039764046,-0.5495980381965637,0.2909254431724548,0.2054896205663681,0.946372095520994,-0.0203122698544031,-0.2872228564325917,0.1465277928592766,-0.0871487557888031,-0.1537226885557174,0.1727917790412902,0.0093092918395996,0.0001914501190185,0.0029046535491943,0.0032336036674678,-0.0402631796896457,0.0663843245416413,-0.0397541858255863,0.0696705659709638,0.0345639757804106,129
1733136762815523800,0.114345341104269,-0.1059115670189261,0.272740251815319,5.141225993624329,-1.4506187872901557,8.223982164871693,-0.5751574039459229,0.350136786699295,0.3231894671916961,0.947342620553716,-0.0340696545994235,-0.2820157027587024,0.1478121181092014,-0.0460332818329334,-0.2187955826520919,0.2038839906454086,0.0207936167716979,-0.0009889006614685,0.0135859102010726,0.0007756591076031,-0.0503084510564804,-0.0194680792080354,-0.0823647379875183,0.0171076941941573,-0.0156675726802204,130
1733136762855287300,0.4203577479243278,-0.2961523993238806,0.5488093557924032,5.038422037231922,-1.6437494958177208,8.251228483715654,-0.2808755934238434,0.2914400100708008,0.2263420224189758,0.9476133527052452,-0.0441976476097876,-0.2781204592994797,0.1507462535537581,-0.17836894094944,-0.1714209467172622,0.1314326226711273,-0.0363161563873291,0.0087541937828063,0.0056831240653991,0.0116298319771885,-0.0199084188789129,-0.0779763982611242,-0.093559481203556,-0.0299490430305944,0.0641893900469411,131
1733136762895049500,0.2109814225167036,-0.0197948337942361,0.5204606286644935,4.95809996176064,-1.7531113494209944,8.277332646787166,-0.1883117854595184,0.0094857057556509,0.0318966694176197,0.9481239378389144,-0.050254520064023,-0.2746779432658878,0.1519462625465232,-0.3583261966705322,-0.1397309750318527,0.1082291677594184,-0.0160321593284606,-0.0320755839347839,-0.0211176872253417,-0.0012217332841828,-0.0369339324533939,0.0338294829268241,-0.0691090077161789,0.0200924969999818,0.0033190853946434,132
1733136762934812000,-0.0050403322547674,0.1277997198306024,0.8732564139693975,5.00862252677381,-1.7741126363955435,8.242367131868004,0.02866149879992,-0.1480809301137924,0.017238738015294,0.947250329443838,-0.0510601294336389,-0.2777572815118654,0.1515274155075182,-0.0754809156060218,-0.1357224881649017,0.1533451825380325,0.0006850361824035,-0.0252739191055297,0.0175144672393798,-0.0133667793124914,-0.0422740653157234,0.0366187346194405,-0.0626732781529426,0.0738833796267164,-0.0467804147762013,133
1733136762974575400,-1.094872043225169,-0.5757024772845208,0.2738695481061935,5.037523042565584,-1.764779283121973,8.226742861756682,0.0567118600010871,-0.065614566206932,0.1564641445875167,0.9465098479227954,-0.0497441220615092,-0.2794250484851182,0.1535130771194414,0.0623981207609176,-0.0797504633665084,0.2287990599870681,0.0152130126953125,-0.0080422163009643,-0.0004059672355651,-0.0185489729046821,-0.0485250242054462,-0.0362229356683092,-0.0557082779705524,0.0301300027878023,0.0486399341709213,134
1733136763014337500,-0.8459335227578878,-0.2129486309364437,0.378612948128581,5.077085822147131,-1.7739393256552516,8.200409566104412,0.2027696669101715,-0.1185335218906402,0.3754476606845855,0.9448279361126892,-0.0481389247213666,-0.2820959122630712,0.1593881185011798,0.01753238029778,-0.0751544833183288,0.257316917181015,-0.0242522954940795,-0.0047197341918945,-0.0159384608268737,-0.0149192633107304,-0.0400136895477771,-0.0204030219705891,-0.0743967145681381,0.0695995374282123,0.0076879578326101,135
1733136763054099700,1.138103282186389,0.8090015300713479,-0.4642524192303419,5.079639013761281,-1.752167200438678,8.203509285685419,0.2920595109462738,-0.0089452182874083,0.2458557039499282,0.9435429972238636,-0.044609392146344,-0.2823958692499643,0.1672998520578156,-0.0640977621078491,-0.1197777688503265,0.1481186598539352,-0.0224612951278686,0.0205277204513549,-0.0052995830774307,0.0025783129967749,-0.0310806203633546,-0.1159215226461179,-0.0801977217197418,0.032781608708552,0.0159285183214815,136
1733136763093863200,0.6413450161486863,0.4462574744649231,-1.5709762282907962,5.038599147364497,-1.7618712867207824,8.22670720592141,-0.2396853268146515,0.2186437249183654,0.0655598416924476,0.9436571395685742,-0.0446507307366238,-0.2802872925915869,0.170166307530175,-0.1363804787397384,-0.1287908107042312,0.1128057390451431,-0.0185591578483581,0.011856734752655,-0.0027753710746765,0.0076219481416046,-0.0229655019938945,-0.0303608341353014,-0.0965466722846031,0.0797109213029965,-0.0625591356637189,137
1733136763133625600,-0.0336573549300432,0.3273174990467727,-0.591630260387063,4.92575953464806,-1.9203594286732373,8.259509989848732,-0.5098825693130493,0.4586371183395386,0.1390816122293472,0.9447449881236768,-0.0543333172997502,-0.2755541451622294,0.1690410109252295,-0.0451128929853439,-0.0546863861382007,0.1381688117980957,-0.0161288380622863,-0.026037573814392,-0.0019776672124862,0.0190026387572288,-0.0270673632621765,-0.0746916227031033,-0.0731387883424758,0.0380994655633345,0.0056270266935869,138
1733136763173388000,-0.382253350457549,-0.1886230218447744,-0.4929635499298572,4.775314121636748,-2.123427593847364,8.298060962039232,-0.5214210152626038,0.2958044707775116,0.1771243512630462,0.9458014076170947,-0.0663675685209705,-0.2692804935566441,0.1689470144101655,0.2237308323383331,-0.064065508544445,0.156337708234787,0.0095951557159423,0.0445853471755981,0.0101175159215927,0.0153150912374258,-0.0333353132009506,0.0026614822857256,-0.0426214598119258,0.1030430715110618,-0.0429920096781337,139
1733136763213151200,0.0754340111687779,-0.2141974619537592,0.4566553882300853,4.660895423035323,-2.32754687550962,8.308367251998186,-0.4489368200302124,0.3506832420825958,0.2285882979631424,0.9459610407722177,-0.0779047332063996,-0.2651829732310944,0.1696074957370867,0.2265734821557998,-0.0485638864338398,0.2286292761564254,0.0160723328590393,0.0038524270057678,0.0173776149749755,0.0138490470126271,-0.0300400406122207,-0.0883455791221465,-0.0248716510832309,0.087415376466792,0.0120498593903845,140
1733136763252913400,0.5907181139782071,0.1125172488942742,0.3184603849828243,4.533322351567447,-2.4901091350331903,8.331790213161707,-0.3244340121746063,0.3091757893562317,0.2256789058446884,0.9461938263883792,-0.0869554071781773,-0.2600686060848524,0.1718145040283461,0.2620302736759186,-0.0010732256341725,0.3021008968353271,0.00539231300354,-0.0064199566841125,0.0012270882725715,0.0137104894965887,-0.0281758867204189,-0.0665837698036106,-0.0342555977404117,0.1098409240907989,-0.0139192014927975,141
1733136763292676000,0.8459072192728518,-0.2544897248536348,0.4998258369147777,4.45141359142661,-2.610920749542117,8.338968141967058,-0.1259485930204391,-0.0428348369896411,0.0258516110479831,0.9461807625247036,-0.0937163022506227,-0.2569984359394692,0.1729479541876394,0.0330807156860828,0.0133592430502176,0.4082080125808716,0.0045108199119567,-0.0358120203018188,0.0451583117246627,0.0321639850735664,-0.0383310168981552,-0.0601463480341015,-0.0422366075217723,0.1070545813078992,-0.0073991475077113,142
1733136763332439300,0.4488961524054408,-0.2043006295785308,0.139103350263834,4.479867240233719,-2.611130592900514,8.32365133036971,-0.0727024897933006,0.0507220402359962,-0.1178062483668327,0.9460972888829986,-0.0939702965675025,-0.2584211126868693,0.1711376048679536,0.0916548147797584,-0.021178601309657,0.3075186312198639,-0.030879259109497,0.0480562448501586,-0.0178871750831604,0.049338050186634,-0.022114934399724,-0.060641871899506,-0.038455780595541,0.0927969507741276,0.0010637151039758,143
1733136763372201700,-0.5802700774610042,0.027314707905054,-0.361249725395441,4.471595963233709,-2.66677240062356,8.31044756540358,-0.2814168334007263,-0.1476511359214782,0.1364229321479797,0.945924808166405,-0.0972480558251644,-0.2585109289066495,0.1701212466906077,-0.0607238076627254,-0.0680445879697799,0.0932221859693527,-0.0394879579544067,0.0149394869804382,0.0241913273930549,0.0556049384176731,-0.0096328416839241,-0.096844883591216,-0.0417598858475685,0.0997960980796255,-0.086800724300323,144
1733136763411965000,0.2519672206386923,-0.521075253431499,0.7061550497114658,4.49004844250828,-2.794594770677388,8.258334516328572,-0.1268993914127349,-0.1003373488783836,0.1871579885482788,0.9440271879283026,-0.1030808328330494,-0.2613741731712048,0.1728310428114338,0.1384702622890472,0.0042887828312814,0.1198747754096984,0.0087900459766387,0.0034313201904296,0.0066835284233093,0.0290028359740972,-0.0030720690265297,-0.1550216348856687,-0.0408768020570278,0.0121112444636004,-0.1512333119859918,145
1733136763451727400,-0.0146475340336561,-0.0884293940812349,0.3710568336606025,4.539539034125209,-2.796134985856712,8.230710596343874,0.2081609815359115,-0.1705527752637863,0.1179137155413627,0.942667570213526,-0.1018000971497008,-0.2645510852471192,0.1761457642680949,0.0127916885539889,0.0951725617051124,0.2043042331933975,-0.0060130655765533,-0.0829360485076904,0.0466104745864868,-0.0161194931715726,0.0193037204444408,-0.0236398187845945,0.0146421045064926,0.0189237397733319,-0.0670391580214491,146
1733136763491489500,0.1803258797511458,0.3140317548856139,-0.330876214441657,4.551364788736403,-2.753274333773553,8.238625022730231,0.139121413230896,-0.0797803327441215,0.0959677025675773,0.9422462711610664,-0.098487464871834,-0.2650419654354748,0.1795130100011925,-0.0088872415944933,0.0154235120862722,0.0972788482904434,-0.0131269991397857,0.0472078323364257,0.0100160241127014,-0.0251979585736989,0.0333480350673198,-0.1457151604858692,-0.0003204714739695,-0.0035091309281386,-0.0686307745944475,147
1733136763531252700,-0.1234276422262191,-0.0797206024467945,0.2373550501793623,4.581880046248436,-2.755163800781965,8.221060139945148,-0.0211238991469144,-0.1076935678720474,-0.0233619511127471,0.9415882470687562,-0.0980348588735455,-0.2668927632264876,0.1804687162895431,-0.0008245215285569,0.0047611743211746,-0.0171876773238182,-0.0139065980911254,0.0300701856613159,0.0067864656448364,-0.0052638030610978,0.0171367935836315,-0.1287963570519816,-0.0526167973875999,0.0383543125406606,0.0028884114929533,148
1733136763571015400,0.2611591196149587,0.2674205180972814,-0.0682978756785392,4.5763256269916885,-2.723721783813834,8.234619878742098,0.1441216319799423,0.1905890554189682,0.0804303139448165,0.9418939785149812,-0.0963407569802798,-0.2662135888989134,0.1807886048321824,0.0921312570571899,0.0570042990148067,-0.0600883364677429,-0.0314115285873413,0.0268872380256652,-0.0117171332240104,0.0432683266699314,0.0135572245344519,-0.1478250196461565,-0.0629877746105194,-0.0112874670330085,-0.0276718256634776,149
1733136763610777600,0.7679369676247239,0.2854348982155323,-1.0288017804682257,4.54734035552591,-2.697443725480139,8.25929020961821,-0.0004022661596536,-0.0405652299523353,-0.164356455206871,0.942484241427582,-0.0951161168933304,-0.2642845122944495,0.1811907402041103,-0.0642628818750381,0.0076040453277528,-0.0198437143117189,0.0298763215541839,-0.0221287608146667,-0.0003110766410827,0.0342225320637226,0.0030406811274588,-0.0576251224607927,-0.0413656011223793,0.0075798817901668,-0.0664656552826985,150
1733136763650539800,-0.3277545752897858,0.057251873268187,-1.0048755459576844,4.597064755898714,-2.710027312721312,8.227583404234052,-0.3380859792232513,-0.0318366549909114,-0.1672549247741699,0.9425817501292674,-0.0967403440594761,-0.2667419865274074,0.1761524558079276,0.0468066446483135,0.0373676419258117,0.0281609632074832,0.0356610417366027,0.0165219902992248,-0.0007231160998344,0.0129265645518898,0.0167490970343351,-0.0777726010510232,-0.0114980712532997,-0.0213249705375405,-0.0729926732981111,151
1733136763690302500,-0.1317170394048094,0.1378311383709311,-0.3768453539341688,4.58717669135183,-2.8474685749918223,8.186581531760096,-0.477800190448761,0.0679842159152031,0.0701067522168159,0.9420415478841084,-0.104954842287671,-0.2675536987228913,0.173081805921186,0.1497319638729095,-0.0273002497851848,0.0865281969308853,0.0348788201808929,0.0381672978401184,0.0065389275550842,0.0039214417338371,0.0020221911836415,-0.0272081879238132,-0.026486050337553,0.0088760625054797,0.0025232793914328,152
1733136763729892900,0.7271057755425572,0.333091844664514,-0.3025286563575267,4.583083869080245,-2.980779605589807,8.141294529312848,-0.3618252575397491,-0.0490507371723651,-0.0972597748041153,0.9411944241093264,-0.1126452756827897,-0.2687387714703976,0.1710075610039915,0.1815825700759887,-0.0808922126889228,0.1633809059858322,0.0571303069591522,0.0262306332588195,-0.000853881239891,0.0056865960359573,0.0213882327079772,-0.0698965932791819,-0.0307952426373958,0.0012888616336043,0.0414282629261724,153
1733136763769649200,0.1458425953909754,-0.4555129401966929,0.1544248380362987,4.6451045641854405,-3.0606717652112243,8.07624133464396,-0.335343062877655,-0.2078877836465835,-0.3064669370651245,0.940443661560668,-0.1180087198764642,-0.2725806660697291,0.1653465511158125,0.2050604671239853,-0.0702508091926574,0.297095239162445,0.0415757298469543,-0.0135743021965026,-0.0012132376432418,-0.014017866924405,0.0001311067026108,-0.0207427182367537,-0.0387922301888465,0.0465932673068018,0.0122582311692589,154
1733136763809405000,-0.2894830045625567,-0.2436167409226298,0.6424246280789375,4.792527122244239,-3.062027271473408,7.989120685073733,-0.0623717531561851,-0.4170427620410919,-0.3260135054588318,0.9391929817966458,-0.1188100585728071,-0.2802719428256186,0.1588969709888746,0.1722561866044998,-0.1072567626833915,0.4030372500419616,0.0366031229496002,-0.0622695088386535,-0.0143005400896072,-0.0063387108966708,-0.016277827322483,0.0562227128835394,-0.052734650671482,0.0711578819192713,0.1014989473416004,155
1733136763849160200,-0.2643406722605228,-0.1167611700743436,0.1335802029281854,4.956975341644883,-3.013657208319008,7.906746937769651,-0.0050933281891047,-0.361269861459732,-0.1924761831760406,0.9376567802192004,-0.1162363068647953,-0.2887164904898863,0.1546984297323934,0.4049040675163269,-0.2326738536357879,0.3731791377067566,0.0248679220676422,0.0558685064315795,0.0078192502260208,0.0187369622290134,-0.0220277421176433,-0.0294458176326355,-0.0753858238458633,0.0503499209931585,0.0505897119652479,156
1733136763888916700,-0.1227507658779621,0.1358069390669465,-0.2802718163639306,5.046126620259881,-3.0070529877483843,7.85268217010498,-0.0937142819166183,-0.1537651568651199,-0.0370098762214183,0.9364787193288724,-0.1157695649105811,-0.2936358753495864,0.1529148923528729,0.6526792645454407,-0.2406495362520218,0.4299923479557037,0.0243937671184539,-0.0051488280296325,-0.0126055479049682,0.0222281143069267,-0.0116522526368498,-0.0338014304426964,-0.1034582108259201,0.0204110545799951,-0.0001041847477928,157
1733136763928672300,0.3046621612548827,0.2522068746134638,-0.4470177913129329,5.067028538513183,-3.061353609995544,7.818166152518987,-0.2428012788295745,0.0568732433021068,0.0851366966962814,0.9355796268633416,-0.1186160992629093,-0.2954905813674252,0.1526640698611155,0.7558727264404297,-0.2715304791927337,0.4045997262001037,0.0037250816822052,0.0368342399597168,0.0083070397377014,0.0036792797036468,0.0008844780968502,-0.0618167882972396,-0.090124525129795,0.0325267640145146,0.0186671335221151,158
1733136763968428500,-0.0715834732204675,-0.0669683806404471,-0.0001180734217166,4.986430568709969,-3.194083918096125,7.816886634102463,-0.4224395453929901,0.3068132102489471,0.1566792279481887,0.9355835939681056,-0.1264372455513982,-0.2923410852374661,0.1524258641817384,1.0467376708984375,-0.2933187782764435,0.3341110348701477,-0.0069063305854797,0.0246680378913879,0.0224906951189041,0.0085754618048667,0.014280242845416,-0.0281711808872059,-0.0810315012931823,0.020864351305447,0.0226639069741242,159
1733136764008184300,-0.1075306926533579,-0.3081105481430888,0.7392407422333955,4.850743164369463,-3.3657918993666764,7.830205549880862,-0.3248233199119568,0.330492228269577,0.3145900070667267,0.9357122091226562,-0.1362539288752657,-0.2867149965161873,0.1538571969319706,1.2982527017593384,-0.2464358359575271,0.256169706583023,-0.0229780375957489,-0.0025057792663574,0.0978431850671768,0.0094083277508616,-0.0294716358184814,0.0657329799268627,-0.0807919725775718,0.0641615750248311,0.0469194305212469,160
1733136764047939600,0.6352297481387853,-0.1612064610004425,0.8091945684254169,4.755315289703011,-3.453589133024216,7.850483198755979,-0.0899849534034729,0.1968657225370407,0.1693629026412964,0.9358843022373023,-0.1409970058479021,-0.2825891122670761,0.156153046269877,0.1212092414498329,-0.3773304224014282,0.3279514014720917,0.0187601149082183,-0.0991182923316955,-0.0014296472072601,0.0405790321528911,0.0124855171889066,-0.0271003390685888,-0.0582828111946582,-0.0172452920169627,0.1319201607614755,161
1733136764087696100,0.2309083582580089,-0.0518923920616507,0.015154899033904,4.77207499358505,-3.442893843747675,7.845009151259064,0.0749238356947898,-0.2937276661396026,-0.1940797567367553,0.9357924606232976,-0.1404002976411728,-0.2833789102320582,0.1558097390840666,0.4296906292438507,-0.4673961400985718,0.3541459143161773,0.0153354406356811,0.022483468055725,-0.0098722577095031,0.0639270544052124,-0.0127686522901058,0.0496014178805286,-0.0701486021280288,0.0421893195596989,0.0956565871221013,162
1733136764127451400,-0.3040665334492922,0.1002782373070716,-0.2437877135753631,4.927419576814771,-3.375696038265526,7.777891425275802,0.0787666141986846,-0.4245356321334839,-0.185847982764244,0.9343728227772016,-0.1364066374206221,-0.2912578425546038,0.1533278581073478,0.1613984704017639,-0.479617714881897,0.3688036501407623,0.0053384900093078,0.0016815662384033,0.0120624899864196,0.0669137984514236,-0.0175304375588893,0.0038600912279449,-0.0743907466530799,0.0156812358793918,0.0591567661745939,163
1733136764167207000,-0.5709598128020763,0.3086535689786076,-0.5000350957512856,5.062182852047681,-3.3468954757168885,7.703439118620753,-0.0452929474413394,-0.3025053739547729,0.0351735092699527,0.9323859841314408,-0.1339719842993242,-0.2988066343689666,0.153044072851765,-0.0764401853084564,-0.4357655048370361,0.3470052778720855,-0.0348406732082366,-0.0002700090408325,0.0291475355625152,0.0584416836500167,-0.0138417826965451,-0.0342969497415237,-0.0719068348407745,0.006153422333757,0.0083586778638942,164
1733136764206963500,-0.6996826388269662,0.3429012910172343,-0.375669880414009,5.068502118197083,-3.4384543999955057,7.658831330609321,-0.3069508373737335,0.026012223213911,0.3546695113182068,0.9307321830126264,-0.1380626219962414,-0.3007440532681598,0.1556574635651948,-0.0614196918904781,-0.3372679054737091,0.2482587695121765,-0.0735406875610351,0.034101128578186,-0.0242488086223602,0.0599753521382808,-0.0465639382600784,0.0210107443560613,-0.097942478954792,0.1066723131251987,-0.0032912224234722,165
1733136764246719000,0.2811345706731081,0.1822360972866415,0.4848702598452568,4.996134216600656,-3.6328792399868366,7.616509023186564,-0.2844647467136383,0.0099374037235975,0.4702360332012176,0.928479994257987,-0.1471292504873002,-0.30003182893357,0.162045215812898,-0.131979614496231,-0.3161635100841522,0.1164886876940727,-0.0766044855117797,0.0308182835578918,-0.0252652466297149,0.1090657711029052,-0.0854392647743225,-0.0232919962941901,-0.0754950419068336,0.1055644066822249,0.0681098422931507,166
1733136764286474500,0.5059913738071918,0.1576411697342991,0.1937695909529924,4.9881023013144725,-3.7404140242934223,7.569578345185517,-0.0102533735334873,-0.3494103848934173,0.1395197808742523,0.9262122866814224,-0.1512802132357374,-0.3019490170839017,0.1675463272865618,-0.2890877425670624,-0.2467667162418365,0.1039386838674545,-0.0475404858589172,-0.0173409581184387,-0.0184184312820434,0.1372375190258026,-0.0922934412956237,-0.0229323737681377,-0.0398734211921691,0.1054398304544854,-0.0729648080436512,167
1733136764326230800,-0.0626759441435337,-0.2160696855664253,-0.1871183163702487,5.144368967825174,-3.730472475993633,7.469232303339242,0.0257991924881935,-0.590792715549469,-0.1176013201475143,0.9232002679955792,-0.14905782384268,-0.3113790534513469,0.1688968651409312,0.3009606301784515,-0.1075175330042839,0.2142031341791153,0.0014260113239288,0.0022005438804626,0.0146099030971527,0.1034338399767875,-0.1049987375736236,-0.081053020094335,-0.013442326337099,0.0987620879899244,-0.1309676001438405,168
1733136764365986300,-0.7687427310496568,-0.0676332742899656,-0.4154325664818287,5.349299419739842,-3.7041321660786863,7.337219788119197,0.0312058478593826,-0.6587395071983337,0.0491509996354579,0.9194001613715652,-0.1456971028676693,-0.3235402085692088,0.1696983409475608,0.0661332085728645,0.0500475391745567,0.3855448067188263,0.0262672901153564,-0.036594808101654,0.0603376626968383,0.076209120452404,-0.1138162687420845,8.41523149836e-05,-0.0164180286228656,0.1215106570232193,0.0096447002280852,169
1733136764405742600,-0.0822182644814252,0.1437538064181804,-0.6915232977688313,5.431313686081767,-3.76079367223829,7.247595631295442,-0.1661667227745056,-0.1435344964265823,0.2935061752796173,0.916115570195056,-0.1466246927771387,-0.3301161188550729,0.1739447047039048,-0.1757971346378326,0.0006298125954344,0.415043443441391,0.016725867986679,-0.0064687132835388,0.0331296473741531,0.1182853430509567,-0.096619926393032,-0.0680902608098462,0.0001982561079785,0.090198860572325,0.1479737713339272,170
1733136764445498000,0.4387678493618965,0.2552534027025103,-0.5520744950681924,5.418646512210369,-3.912845059141517,7.176231938305497,-0.3715934753417969,-0.0768136531114578,0.3622986078262329,0.9132005900207004,-0.1533686533790572,-0.3325538440995675,0.1787477020005882,0.0088315680623054,-0.0137770902365446,0.3799927830696106,0.001280277967453,0.0173363089561462,-0.0237124413251876,0.1481072008609771,-0.0884212404489517,-0.0349202464387519,-0.0392646864056587,0.0411479846800677,0.023929029255826,171
1733136764485254000,0.2653969033151865,0.0998790088564157,-0.2365431492745876,5.365915038976073,-4.114805555334687,7.102514375665783,-0.5037636160850525,0.0105248317122459,0.3618700504302978,0.910396348238241,-0.1636289205461757,-0.3333138297703129,0.1824992386096909,0.0570299886167049,-0.1155655086040496,0.3914006948471069,0.0381972789764404,-0.0136412382125854,-0.0059494078159332,0.1209101900458335,-0.0701934918761253,-0.0277037095059291,-0.0393072366714477,-0.0053815691699361,0.0109861437155865,172
1733136764525010200,0.4719166702479124,-0.2906578935608268,1.057413542446494,5.225833783590793,-4.350502024652063,7.066411381149291,-0.4857032299041748,0.5599532127380371,0.4267259538173675,0.9088983484201572,-0.1770795410851685,-0.3291749118100647,0.1849064684395243,-0.202439934015274,-0.1705981343984604,0.3492500483989715,-0.0202301442623138,-0.007656991481781,0.0239502191543579,0.0926717147231102,-0.0576794296503067,-0.0389642109001986,-0.0282740592956542,-0.0062881637624843,-0.0345500431531807,173
1733136764564765700,0.1067488946259021,-0.1472466169700026,0.6914157457411289,5.01205483931005,-4.520698432315886,7.114280216783285,-0.1351830810308456,0.2728489935398102,0.3792552351951599,0.9093646173807076,-0.1869198083990383,-0.3198962931907494,0.1891651009817757,-0.5116678476333618,-0.1419811397790908,0.2582325339317322,-0.0429928600788116,-0.0246715545654296,0.0404711961746215,0.0806439965963363,-0.039011538028717,-0.0457132787350332,-0.0325182825326919,0.0139954678996698,-0.0332849208714789,174
1733136764604521000,0.5720446854293346,-0.4328542414039373,0.7256243048131465,4.932074709144234,-4.587337727132439,7.1275073626250025,0.030184281989932,0.0418600924313068,0.1229332536458969,0.909007155308252,-0.1901386688226873,-0.3169314721557832,0.192633834997679,-0.7320728898048401,-0.1808033585548401,0.2283355295658111,-0.0296259224414825,0.0024102926254272,-0.024215817451477,0.0867732092738151,-0.0484322868287563,-0.117903599841427,-0.0068373591639101,-0.0242489157098229,0.049779975618096,175
1733136764644269600,0.3121153998702764,-0.0986377766236662,0.0328027839273214,4.924602181306481,-4.563172130908072,7.14815618290007,0.1764112710952758,-0.0441384464502334,0.0527540482580661,0.909083423116526,-0.1880319996030725,-0.3165271438521421,0.1949920011821886,-0.524208664894104,-0.128275066614151,0.1926939189434051,-0.0185877680778503,-0.0393604040145874,0.0240961164236068,0.0974424332380294,-0.0126133961603045,-0.1204329539222642,0.0009336803341284,0.0115913841663161,-0.0308727953955647,176
1733136764684025000,0.3966752590417862,-0.0431780474692583,-0.2309574580967426,4.932817051944136,-4.533637408865988,7.161272854104638,0.0949352234601974,-0.0409009791910648,0.0119329104200005,0.9091160074176896,-0.1857661320704385,-0.316808542537169,0.1965483960977591,-0.6176206469535828,-0.1230564936995506,0.3183130323886871,0.0314773321151733,-0.0162415504455566,-0.007811352610588,0.0873224958777427,-0.0042827636934816,-0.1681002573684789,-0.0029531684704124,0.009059875802655,-0.0270913566111121,177
1733136764723780400,0.1643967814743518,0.0113265729174017,-0.2361591183930635,4.939142747834325,-4.506140622392296,7.174255669796467,0.0719803720712661,0.0287409480661153,0.0118447598069906,0.909320426837648,-0.183918600241097,-0.3168417597513783,0.1972855437011837,0.4088082611560821,-0.0960237607359886,0.3828522562980652,0.0318802893161773,0.0727024674415588,-0.0214497298002243,0.0693098455667495,0.022597374394536,-0.1162412926523946,-0.0152339451014995,-0.013355503195431,-0.1160055842003785,178
1733136764763666000,0.035090018081665,-0.082675652860105,-0.3050555444866418,4.90354887188375,-4.5203263841331,7.189731471347808,-0.0716422647237777,0.1461278349161148,0.0871053710579872,0.90964592627334,-0.1848660470254401,-0.315040104805955,0.1977838750005104,1.8848648071289065,-0.2676001489162445,0.3988972008228302,0.0553822219371795,0.1061712503433227,-0.0763357877731323,0.0700954273343086,0.0061671938747167,-0.0856404757487587,-0.025013668462634,0.0196955929371528,-0.0476943375836126,179
1733136764803426800,0.1701692273959517,0.0480175964549183,0.0317249255627393,4.848974985653162,-4.561536346399784,7.200708792436123,-0.0757889747619628,0.2044490873813629,0.0896721854805946,0.9098864541073134,-0.1875620220660308,-0.3125483948233384,0.1980924899015967,1.7959625720977783,-0.4765916764736175,0.5420106649398804,0.0292572677135467,-0.0421609878540039,-0.0290510356426239,0.0785300433635711,0.0026167491450905,-0.0862918249301146,-0.0339737758040428,0.0141866019910201,-0.0353388851260649,180
1733136764843188500,0.046162616237998,-0.0030500352203845,-0.050271220600605,4.798653788430989,-4.593368239468336,7.214171500599384,-0.0726882070302963,0.144724041223526,0.0361314304172992,0.9103048420460792,-0.1898673819392396,-0.3100483666382809,0.197902710475573,1.7448421716690063,-0.3756083548069,0.6087046265602112,-0.030380293726921,-0.0097877979278564,0.0628256797790527,0.083749733865261,0.0087294988334178,-0.0938761151798069,-0.0344625823199749,-0.0027936698561185,-0.0210406211878056,181
1733136764882949000,0.0939388051524758,0.0896957607552409,0.0578968931734561,4.767038752983511,-4.627306457166373,7.213442601802945,-0.110794261097908,0.0837355926632881,0.060502789914608,0.9103650673981653,-0.1921786768639417,-0.3086812770954404,0.1975313283128797,1.5965828895568848,0.1373686045408249,0.5144784450531006,-0.0601125508546829,-0.1308072805404663,0.1268204748630523,0.0861905217170715,0.0168078038841485,-0.0728217417445732,-0.0166333150118589,-0.0668842140549095,-0.0410840297654969,182
1733136764922710000,0.393993764872849,0.1267865972653031,0.2210007122278213,4.7451600986525415,-4.6590103399410845,7.207459435740112,-0.0712021440267562,0.0512057095766067,0.0035291912499815,0.9102564357103028,-0.1942425578041009,-0.307882576467413,0.1972598817318658,-0.2074424028396606,-0.0026845978572964,0.3068166971206665,-0.0181048512458801,0.1298267245292663,0.0626598000526428,0.0624741092324256,0.0203327350318431,-0.0565343589488649,-0.0229001268744468,-0.0536606027439935,-0.093713773358101,183
1733136764962471400,-0.0272109552696347,0.0056295303195714,0.1729179415822029,4.740196923287213,-4.664446685776114,7.207208675849437,-0.0316060222685337,0.0431036762893199,-0.0268175862729549,0.9104742565489348,-0.1949434769862184,-0.3074600357700849,0.1962192597095826,-1.0910850763320925,0.2228472679853439,0.0196693390607833,-0.0566475540399551,-0.0908382534980773,0.0329435467720031,0.0541649535298347,-0.007787091191858,-0.0378453971874318,-0.0340547263622283,-0.0270250955750234,-0.0585832588692661,184
1733136765002232300,-0.1807443974241614,0.0102396544635295,0.2124479879379272,4.729877481585741,-4.6675601416215295,7.211971360206603,-0.0109893009066581,0.0502223446965217,0.0413177907466888,0.9106872220189758,-0.1953355903519263,-0.3068155847574659,0.1958496157127893,-2.076555252075196,-0.0682231783866882,-0.0048881340771913,0.0087102800607681,-0.0220070481300354,-0.0802980065345764,0.060048833489418,-0.0142733957618474,-0.079259158947505,-0.0289259199053049,-0.0640978621388552,-0.0476040837505832,185
1733136765041993200,0.1243400808960199,-0.0427615756228566,0.0914338365942239,4.709404017877579,-4.670972872674465,7.223151510390639,0.0200127903372049,0.0505465567111969,0.0606824904680252,0.9108379402860778,-0.1954583367858749,-0.3058067989557941,0.1966028104358607,-1.55264151096344,-0.1744439452886581,0.0187016800045967,0.0079960972070693,0.0322259664535522,-0.0742586553096771,0.062244277447462,-0.0032606553286314,-0.1125931180089246,-0.0316487736999988,-0.0699327331716427,-0.0593860311860917,186
1733136765081754600,0.5269391770288347,0.0258688930109143,-0.0732294868618249,4.686733920907974,-4.676306050395965,7.234435705471038,-0.0013707368634641,0.0037181286606937,0.0043001719750463,0.9109580965512534,-0.1956600187327609,-0.3047352551373646,0.1975064464398741,-0.250824511051178,-0.1872658878564834,0.1737503111362457,0.0424524545669555,-0.0116875171661376,-0.0667268484830856,0.051284983754158,-0.0040955985896289,-0.0865037506477441,-0.0186444018036127,-0.0580718615812947,-0.0378760982863721,187
1733136765121515500,0.0437801050156354,-0.1452978209897875,0.0185234986841678,4.701378240071237,-4.669740700531006,7.229173839420079,-0.0184993669390678,-0.0473792366683483,-0.0768704041838646,0.9110243102175596,-0.195489870969625,-0.3052841505266314,0.1965201678672279,0.209448292851448,-0.1576045751571655,0.2590906023979187,0.0528854429721832,0.0341370701789855,-0.0231600105762481,0.03428291156888,0.0055250991135835,-0.0579928734943736,-0.0018477004487067,-0.0559299450486199,-0.065110281451256,188
1733136765161277200,-0.0896887464925646,-0.1198310790389776,0.1107388410449028,4.734590189321339,-4.654506306520104,7.217313890278339,0.018975980579853,-0.0251086000353097,-0.0336972177028656,0.9108986436598157,-0.1946595851214357,-0.3068013078875353,0.1955618250896312,-0.8867633938789368,-0.2796885669231415,0.3223780691623688,0.0508121997117996,-0.1464792490005493,-0.0410233736038208,0.0011107517639175,0.0047816089354455,-0.0850452406688127,-0.0063837529160082,-0.0558025192766683,-0.0664795879099285,189
1733136765201037800,0.3409048565030098,0.1480529649168253,-0.0199064774751663,4.746923016671836,-4.652594043157994,7.210442250943183,-0.0066482755355536,-0.019663019105792,-0.0268960073590278,0.9107443004515748,-0.1945013936659782,-0.3074718979557676,0.1953844823606427,-0.6714252829551697,-0.2377038747072219,0.2701627314090729,-0.0223273932933807,0.1611542701721191,0.0613701343536376,-0.0243096612393856,0.0436867140233516,-0.1003976807019673,0.0057853581383824,-0.1215179726799949,-0.0372053731176885,190
1733136765240798700,0.1060065518260002,0.0299254749253392,0.3493213871926069,4.751978254234791,-4.656121632762253,7.204832594367861,-0.0231158845126628,0.0342530198395252,-0.0483317002654075,0.9107315289112268,-0.1948810887832421,-0.3076964830027978,0.1947106538966396,2.596548557281494,-0.1500864624977111,0.5163664817810059,0.0264252573251724,0.2449598908424377,0.1556416302919387,-0.0287437699735164,0.0211437828838825,-0.0059699486757657,-0.0035055598709732,-0.023459569130151,-0.018197817243624,191
1733136765280560400,-0.2282499527037143,0.0829477477997541,0.3401636827468872,4.765711011511087,-4.638066043850779,7.207406828770041,0.0789320692420005,-0.0689240172505378,-0.0277668870985507,0.9109581633073692,-0.193992731000053,-0.3080443574484202,0.1939860249353969,-0.1817887127399444,-0.0368952453136444,0.0276592224836349,-0.125645637512207,-0.4100405573844909,-0.0791124105453491,-0.0072603062726557,0.0067443181760609,-0.0838185758175328,-0.0009920942829921,-0.1026608033283613,0.0388840857355389,192
1733136765320321000,0.4926958389043808,0.122417003878951,-0.1672223602890968,4.791007949852943,-4.610348015841842,7.208419805204868,0.0985668748617172,-0.0969526767730712,-0.0271885972470045,0.9108267254434582,-0.1919622640249308,-0.309230279073518,0.1947350555328298,-0.0084044104442,-0.1714957803487777,-0.0837704986333847,-0.0194505527615547,0.3099585175514221,0.0333508998155593,-0.0125753367319703,0.003013168927282,-0.0016423872081883,0.0048493882641196,-0.0340242542969645,0.0292811811058549,193
1733136765360082000,0.0849824684977531,0.0295689165726304,-0.3211544463723897,4.810561083845794,-4.583190836586058,7.212714287528395,-0.0197544954717159,0.0023317672312259,-0.0780789107084274,0.9110904913861771,-0.1904978597160059,-0.309781335003667,0.1940623841022302,0.9112727046012878,0.4397332966327667,-0.3549928069114685,-0.1008208468556404,-0.0047490000724792,0.1196473389863967,0.0037364880554378,0.0074410503730177,-0.0484744779435219,-0.0075202682055532,0.0007081419903115,0.0200294782337499,194
1733136765399843600,-0.3720303548678755,-0.0299997092053294,0.0036836569488048,4.811029870401322,-4.59933883831054,7.202115152102708,-0.090192049741745,0.014116832986474,0.0447517856955528,0.910983760078478,-0.1916999432080096,-0.309911993446025,0.1931692806990721,0.5203694105148315,0.3765677213668823,-0.1724154204130172,0.0211125463247299,-0.0204494595527648,-0.0448169410228729,-0.026948494836688,0.0112211555242538,-0.1006251784480642,-0.0225767828524112,0.0174899612352135,-0.0197754989061038,195
1733136765439604200,0.2511030050247907,0.0168844993054866,-0.0917827961623668,4.825352702525258,-4.616594801276922,7.181462824696302,-0.0183478090912103,-0.0654973536729812,-0.0141322743147611,0.9103224113245544,-0.1924045233772603,-0.3111716490491252,0.1935609605434614,0.3087197244167328,0.2657167017459869,-0.2055416107177734,0.0454593896865844,-0.0328246355056762,0.0440485477447509,-0.0590603612363338,0.0466531254351139,-0.0341130765080219,-0.0004294791724532,0.0379083337552729,0.0076809892357065,196
1733136765479366100,0.2792728684544563,-0.165478146970272,-0.0004196867167949,4.829205578561127,-4.625020099794864,7.173447860544919,-0.0599945932626724,0.0741961002349853,-0.0040142717771232,0.9101818340172037,-0.192977129922953,-0.311473572603685,0.193166061145497,-0.6821050643920898,-0.0371739715337753,-0.1783888936042785,0.1128620356321334,-0.1187688708305358,-0.1587275862693786,-0.0670443475246429,0.0397450849413871,-0.0319751694301841,-0.0081881079822778,0.0861902277191635,-0.0300630544818355,197
1733136765519126800,0.3140896225526928,0.0283551568686962,0.0633311931818723,4.828356268255412,-4.632404949349165,7.169252746942639,-0.0253064297139644,-0.0602483376860618,-0.1020963117480278,0.9102851239472012,-0.1937553907211767,-0.3113337273756586,0.1921226730321532,0.519815981388092,0.0517246350646019,0.0876320078969001,0.0087501406669616,-0.0167255401611328,0.0219954848289489,-0.048738308250904,0.0348706059157848,-0.0495932939395774,0.0092728640884161,0.021445071519562,0.0440626939498353,198
1733136765558887400,-0.0966448492407798,-0.0138800567924976,-0.138987614929676,4.882504330289364,-4.608874436157942,7.147713699829578,0.0037928875535726,-0.1051844805479049,-0.1513090878725052,0.9101439221578512,-0.1927202965352545,-0.3137306524839794,0.1899208659739285,0.7589268684387207,0.0527722127735614,0.0598415955901145,0.0774357765913009,-0.0098312497138977,-0.0230646133422851,-0.0483381412923336,0.0558059737086296,-0.0470159633980132,0.0256212335079908,0.0029774848657601,-0.0085740159563836,199
1733136765598649300,-0.7973971631258726,-0.2137766061931848,0.1957815152972936,4.909288876840472,-4.601560898274183,7.134066282749176,-0.077915608882904,0.0800580084323883,0.0232660826295614,0.9101778372577948,-0.1927724854573815,-0.3148056571548102,0.187916177050558,2.278636693954468,-0.0924487859010696,0.0862254649400711,-0.0418928861618042,0.0522251725196838,-0.1225725412368774,-0.0497594475746154,0.0270517356693744,-0.0275198339891387,0.0020435128826647,0.0263733445348683,0.0103084556582209,200
1733136765638409700,0.4100859447568655,0.1532639775633812,0.0399053094089031,4.878106972113251,-4.629373326568305,7.137462354928255,0.0024960760492831,-0.0042243623174726,0.064002588391304,0.9099939275295034,-0.1941356204091691,-0.3136910366618771,0.1892630428758979,1.9846590757369995,-0.2027330547571182,-0.0169474594295024,0.0230290442705154,0.0102368593215942,0.1054747104644775,-0.0377529598772525,0.0342560224235057,-0.1082375074821524,-0.0137761617079377,-0.0399938644751906,-0.0086921356146951,201
1733136765678163700,0.0397369671046733,-0.0119990653514862,0.1430874514639377,4.886482878531515,-4.627814114427566,7.132741756147146,-0.0301504544913768,0.0105816219002008,-0.0641892626881599,0.9099774897277249,-0.1941689436195899,-0.314053822616018,0.1887048725629743,2.8403913974761963,0.0347267426550388,-0.0601971969008445,-0.0332055836915969,0.176720380783081,0.0297330617904663,-0.0251458417624235,0.0304489880800247,-0.0584322923915227,-0.0204097758978605,0.0108195298608508,-0.0502176181166898,202
1733136765717924400,-0.1182742049857974,0.0470189408063888,0.268415374353528,4.885877606114745,-4.627425699631869,7.133408111101389,0.0312565192580223,-0.0163128580898046,0.0432105585932731,0.9099967449453884,-0.1941531798243033,-0.3140094537805565,0.188702261413131,1.697052001953125,0.069939374923706,0.0027785075362771,-0.0080364048480987,-0.158790111541748,0.0208585262298584,-0.0035686963237822,-0.0148268807679414,-0.0605421469852328,-0.0362267941236496,0.0030411960392695,-0.0092586708981863,203
1733136765757685200,-0.034142508098483,-0.0441515686765313,-0.014254150801897,4.8952697038382285,-4.618406234613061,7.132814236861467,0.0341200232505798,-0.0607195012271404,-0.0135371200740337,0.9098488969746557,-0.1933480050145997,-0.3145539995589292,0.1893338509796959,-1.2009892463684082,-0.1943228989839553,-0.1223850026726722,-0.0016236901283264,-0.0832743048667907,-0.0175751447677612,-0.0116136968135833,-0.0154193751513957,-0.0201474763069418,0.0109298136085271,-0.0289048494735965,-0.006527019727879,204
1733136765797588200,0.1340250240862369,0.0468427074566483,-0.1585743589311838,4.91175497469306,-4.607946507658064,7.128245029249787,0.0302792377769947,-0.0865935385227203,0.0071773915551602,0.9095754850034394,-0.1923773166107982,-0.3155180241245315,0.1900309694413257,-0.8427048921585083,0.1732034981250763,-0.2636708915233612,-0.1236332356929779,0.1037662029266357,0.1135315299034118,-0.0193360727280378,0.0004721097648143,-0.045089982037805,0.010135605931282,-0.0209990950174629,-0.0488552756883436,205
1733136765839838700,0.1843032589495181,-0.0271072026342153,-0.3324059082269668,4.930310037559271,-4.607169385805726,7.115927399468421,-0.0210845936089754,-0.086038626730442,0.0046105491928756,0.9091600503624307,-0.1920562792437053,-0.3167065829402697,0.1903666389672135,-0.6763630509376526,0.2635504901409149,-0.3182356059551239,0.0599826276302337,-0.0210814476013183,0.0771050453186035,-0.0286532659083604,-0.0056604677811264,-0.0080517553519253,0.0212503131479024,0.0092656486282445,0.0259760294800857,206
1733136765879605200,-0.4454512726485728,-0.2223252388298511,0.0288449862122535,4.962112704533339,-4.613662839478254,7.089565462243557,-0.0800265669822692,-0.0080624846741557,-0.0012119793100282,0.9086116680459736,-0.1924658458858004,-0.318574395110111,0.1894522108547636,-1.4309207201004028,0.0560749620199203,-0.2198933809995651,-0.0413331687450408,-0.1029725074768066,-0.0998521447181701,-0.0267397686839103,-0.0153420679271221,0.0130587122059427,0.0298681166023015,0.0261822104435181,0.0123624187711626,207
1733136765919372800,0.3780225810199976,0.0891197144329547,0.2316349189668893,4.920943658798933,-4.654861988089978,7.09132954930663,-0.0238890964537858,0.1072189584374427,0.1232977882027626,0.908342536926673,-0.1946053489055038,-0.3171301998429312,0.1909739242855094,0.3948532938957214,-0.246597558259964,0.0705316513776779,0.1338911652565002,0.1941268444061279,-0.0077320337295532,-0.032305859029293,-0.0167944338172674,-0.0070607127585157,0.0068970508873462,0.0377809125498984,0.0090502991193119,208
1733136765959139600,0.255022808817029,0.0131391752973198,-0.0798573805689811,4.92917255796194,-4.6501092406049365,7.088733103072643,-0.0076742745004594,-0.1029655933380127,-0.1387334465980529,0.90838982713143,-0.1944666132955857,-0.3174239043119147,0.1904018240987798,0.5001541376113892,-0.1115813627839088,-0.0008292103884741,0.0289198011159896,-0.0597899556159973,0.0357163548469543,-0.0276175141334533,-0.0006024397443979,-0.0642663414404029,0.0019141605589538,0.0017421595007006,0.0641963540772674,209
1733136765998907100,-0.3797533503353595,-0.1990747116237878,0.0425683911383152,4.973927060967683,-4.627037284836173,7.07255003003478,0.0341773778200149,-0.056252434849739,-0.0442512966692447,0.908244927756832,-0.1933033895470105,-0.3194277785239514,0.1889204050426094,1.5396195650100708,0.0093731302767992,-0.0183076690882444,-0.0270611196756362,0.0550735592842102,0.0368968844413757,-0.0269851069897413,-0.0124076278880238,0.0030809737813426,0.0093159945681691,0.0594244406674522,0.0786197011333424,210
1733136766038673700,0.0465945779144763,-0.0034600773259997,-0.2617991710841655,4.978236156338453,-4.620790791662037,7.073602169436216,-0.0216707065701484,0.0029488366562873,0.0123555231839418,0.9082522937607111,-0.1928776168933822,-0.3196011486967937,0.1890269367473596,1.3085335493087769,-0.0346174985170364,-0.091088593006134,0.0225155651569366,-0.0196715593338012,0.0581404566764831,-0.0248907208442688,0.0003310582833364,-0.0623123075960669,0.0036853933706879,0.018269133480743,0.0271299967046244,211
1733136766078440200,0.1262117199867963,0.0625014643594622,-0.0718558604210615,4.984660636427998,-4.63497772244662,7.059782318398356,-0.0635136365890502,-0.052113838493824,-0.0520060397684574,0.9079903959064712,-0.1938349259934718,-0.3201238878960862,0.1884203206828775,3.534008026123047,-0.0880320370197296,-0.3152536153793335,-0.0122966915369033,0.2842306494712829,0.0358604788780212,-0.0287552122026681,0.019832469522953,-0.1070625910844188,-0.0200264118611812,0.0202763131512678,-0.0262955528911901,212
1733136766118208000,-0.3835942436724901,-0.019384791688621,0.0867816268742084,5.014578220307826,-4.638235262937844,7.036416640380025,-0.0660327970981597,-0.0487305261194705,-0.0649940371513366,0.9076637445314936,-0.194329469450783,-0.3216809670374475,0.1868260274446883,5.018996238708496,0.0987206399440765,-0.4370061159133911,-0.0692301541566848,0.133273959159851,-0.0869649648666381,-0.0173599068075418,0.0129697686061263,-0.0608537930505583,-0.0231840200722217,0.0205384757853695,-0.0014734946313983,213
1733136766157974500,-0.0168839147835969,-0.0067287237331271,0.2202519396871328,5.015378430774808,-4.65253705227375,7.026397935190796,0.0058733508922159,-0.0100846029818058,0.0707088112831115,0.9073561809412424,-0.1950844732960281,-0.3220177722192177,0.1869532541555226,4.767924308776856,-0.0052858139388263,-0.2168337553739547,0.0721381604671478,0.0682575404644012,0.2081906199455261,0.00140820548404,-0.0010518803028389,-0.0856404757487587,-0.0059209358878433,0.0196955929371528,-0.0476943375836126,214
1733136766197742000,0.4726420619130134,-0.1316696931317448,0.1000993736088275,5.031926829993725,-4.645061894087493,7.0195081756770605,0.0289490595459938,-0.0681290701031684,-0.0767168328166008,0.9071255639282126,-0.1944601232960443,-0.3229395313083733,0.1871325635511297,1.5720999240875244,0.1364575773477554,0.1083637923002243,0.0084748566150665,-0.2056594789028167,0.104733407497406,-0.0022532825823873,-0.0087693510577082,-0.0898122176086064,0.0145517317578196,0.0215116385163273,-0.0990659206415526,215
1733136766237508600,-0.1234673897147178,-0.2123623554810881,0.1599251890182495,5.067194542729855,-4.609709425677359,7.017442475318909,0.0777827724814415,-0.0850190594792366,-0.0817186683416366,0.9072436363306228,-0.1924758041575968,-0.3242885543556279,0.1862764653762468,-0.6949702501296997,0.0087534133344888,0.2070247232913971,0.0286733359098434,-0.1399611532688141,0.0446483492851257,-0.0046133445575833,-0.0164684150367975,-0.0965612808768637,0.0179352890700101,0.0417952696076594,-0.0978008052097167,216
1733136766277275100,-0.1436485924780368,0.0223234754890203,0.2896393641680478,5.105781170755624,-4.576543945917487,7.011179323270916,0.0913491025567054,-0.1209019348025322,-0.0705625563859939,0.9071660073959004,-0.1904553444460726,-0.3259694844248587,0.1857971084570736,-2.152709007263184,-0.0004923370433971,0.2475762069225311,0.0067939013242721,-0.1069565713405609,0.0203537940979003,-0.0058569335378706,-0.0187302120029926,-0.1054482603561133,0.0231955200433731,0.0137970158682554,-0.0587916317897848,217
1733136766317043000,0.0876467192709445,0.1124903608873486,0.0746159727841615,5.150715706503391,-4.532635538347066,7.006833987542986,0.1302891671657562,-0.1139531657099723,-0.0607420392334461,0.9069757529234794,-0.1874860319849121,-0.3280242079159234,0.1861289664763419,-3.204209327697754,0.1480276733636856,0.0921944007277488,-0.0454776585102081,-0.0180035233497619,0.1130132675170898,-0.0096715968102216,-0.0218226909637451,-0.0421928814899642,0.0608497448265552,0.0066704308035405,0.0304421169272973,218
1733136766356809500,-0.1151134028673172,0.0659480976819992,-0.0769628281712532,5.175258611607552,-4.493874430537224,7.013713225662708,0.100132405757904,-0.0548920035362243,0.0152514092624187,0.9070629203394592,-0.1849119292428479,-0.3289494276151588,0.1866459336508726,-3.9395501613616943,-0.0250647906213998,-0.2273043692111969,-0.0466116070747375,0.0637603402137756,-0.0189568996429443,-0.0205771159380674,0.0029381215572357,-0.111650055871997,0.0667426213622093,-0.0587901796182151,0.0569777142356149,219
1733136766396576800,0.4532657457917928,-0.0226999075859785,-0.2545686353087425,5.176998733273148,-4.476902837470173,7.02327658829987,0.0319401770830154,0.0146619975566864,-0.0159681439399719,0.9071285622868056,-0.1835874144218423,-0.3289501826546429,0.1876306324742621,-1.7930426597595217,0.0634088218212127,-0.2729775011539459,-0.1047126650810241,0.1816297769546508,-0.1189608573913574,0.0052351984195411,-0.0204150807112455,0.0133984096137515,0.0113146696239709,0.0491884851315058,0.0077921414387586,220
1733136766436343600,0.1471335119843483,0.0981236896216869,-0.215219790738821,5.2115387162566185,-4.45317680170685,7.012806632211804,0.0546777658164501,-0.1892564445734024,-0.1267323791980743,0.906938711916884,-0.1821431912829019,-0.3305604534752062,0.187124966542135,-2.008130073547364,0.2743545174598694,-0.1265565156936645,0.0233524292707443,-0.223299503326416,0.0085842609405517,0.0239698756486177,-0.0621376633644104,-0.0017421086975286,0.0173841752111911,0.0557314907339168,0.0396035682496614,221
1733136766476110300,-0.0434486811041831,-0.0308542802080512,-0.4050865290343761,5.304706829297542,-4.417273129154742,6.9654983530700205,0.0015211387071758,-0.1877216845750808,-0.0976602360606193,0.9057836901485884,-0.1796413517061739,-0.3355404458214976,0.1862727585773123,-1.1289554834365845,-0.297273188829422,0.2128069698810577,0.2092722654342651,0.1915295124053955,-0.2327898740768432,-0.0131652932614088,-0.0369259901344776,-0.0202471966546378,0.0375753529369831,0.0608508978405734,0.0037953685575717,222
1733136766515877600,-0.4578507354944944,-0.0346142172634601,0.4629927745580673,5.302218519613146,-4.437006295889616,6.9548425190210335,-0.0769908353686332,0.1321526765823364,0.1420485377311706,0.9056511460405589,-0.1810726168951539,-0.3355807253929366,0.1854568311795487,-0.8081106543540955,-0.1623083055019378,-0.2455745786428451,-0.0942258089780807,-0.1232790350914001,-0.0401784181594848,-0.009236472658813,-0.0057533401995897,-0.0503724113861797,0.0323275327682495,0.0651882740243338,0.0635256334751611,223
1733136766555644200,1.0272592272013426,0.0204997671931982,0.0745452456355094,5.273232663625478,-4.444086609539389,6.972338428223133,0.0580190308392047,-0.0026367921382188,-0.1507456749677658,0.9060036037876128,-0.1814651560456266,-0.334036036345898,0.1861394037755694,0.8993784785270691,0.3011603057384491,-0.0905704125761985,-0.0588497072458267,0.0776257514953613,0.1707903146743774,0.0016274843364953,-0.0025367964990437,-0.1070825196275953,0.0246758386492729,0.0434071526505518,0.1102088258214294,224
1733136766595412000,-0.4661503618061542,-0.1592038890063762,0.1121235734015703,5.3200943680435415,-4.380052528785169,6.977256595402956,0.0726278722286224,-0.0233602058142423,-0.2097678333520889,0.9068619164364848,-0.1787819410776163,-0.3351058414445111,0.1825990236386758,0.4253771007061004,0.0723133757710456,-0.0081970449537038,0.0022814571857452,0.0066509246826171,-0.0659939646720886,0.0109781138598918,0.0312967151403427,-0.1171961548249702,0.0247547104954719,0.0622671761129749,0.0438543210293166,225
1733136766635178500,-0.6936082873493432,-0.0133484341338276,0.0875163708895444,5.334318708229064,-4.331828011581301,6.99647684417963,0.0972090512514114,0.0401761978864669,-0.0074378014542162,0.9076884901181244,-0.1764870102900673,-0.334860125129339,0.1811697899986462,2.160620927810669,-0.3101427853107452,-0.1123032718896865,-0.0304020494222641,0.0959507226943969,-0.0954962968826294,0.0172074995934963,0.0439170189201831,-0.2154559193159453,0.0149744022637605,-0.0109689094529952,-0.0310950986600248,226
1733136766674945000,0.1546761824488639,-0.0609974895372986,-0.2245207030475139,5.321910477554797,-4.316500970850885,7.015373852351307,0.0624764338135719,-0.0054693557322025,0.0392848625779151,0.9079890685864848,-0.1753087371474764,-0.3340393899656746,0.1823194785803978,2.7368338108062744,-0.4065913259983063,-0.1397514045238495,-0.0124281644821167,-0.012526512145996,0.0843842029571533,-0.0228639543056488,0.0424966216087341,-0.019887576411874,0.0063406229019165,0.0607263261794112,-0.1372792857749853,227
1733136766714712600,0.468795323356986,-0.085042381991446,-0.0632265637636184,5.328164861774444,-4.301434334622323,7.019879347077012,0.0335663966834545,-0.023992845788598,-0.0625721961259841,0.9081105749753646,-0.174404245547188,-0.3341690186507629,0.1823442000331036,2.751031875610352,-0.141878068447113,-0.0365571118891239,-0.0239716172218322,0.0074983239173889,0.0407665967941284,-0.0268709491938352,0.0156725458800792,0.0006513446147786,0.041722398251295,0.0055089915169548,-0.0123554524575476,228
1733136766754479400,0.1810977409064769,-0.0979766823664307,0.0156722009062767,5.335891072112322,-4.281616412213444,7.026123794424533,0.0313732586801052,-0.0002160490548703,-0.0544526614248752,0.9084312866099172,-0.1734981879042623,-0.3341642608288274,0.1816187862719482,1.8048783540725708,-0.0628238841891288,0.1652143448591232,0.0872550308704376,-0.0449917018413543,0.1286405324935913,-0.0242452137172222,0.0183319859206676,-0.0457132787350332,0.04058588296175,0.0139954678996698,-0.0332849208714789,229
1733136766794247000,-0.1796387742698192,-0.1551458457872271,0.200184134170413,5.360691166847944,-4.256469403736293,7.0225237241059535,0.0321408584713935,-0.0468552075326442,-0.08552747964859,0.9085764244072534,-0.1723408454322439,-0.3350366751346924,0.1803823845617623,1.1933937072753906,-0.0924542695283889,0.217323288321495,-0.0090785473585128,-0.040120393037796,-0.086305022239685,-0.0131693556904792,-0.0090868454426527,-0.001274638457896,0.042292732745409,0.0294855674044229,0.0279258049911237,230
1733136766833875500,-0.0233931505471467,-0.0005777998879551,0.3286100230753421,5.3862552316933865,-4.221895810744166,7.023833637660742,0.151975616812706,-0.0763397738337516,-0.0338606014847755,0.9086420784250104,-0.17024985889398,-0.3360046667930552,0.1802373794917899,1.3412673473358154,-0.01029793638736,0.2302449643611908,0.0256161987781524,-0.0211980640888214,0.0910841822624206,0.0074372519738972,-0.0325136743485927,0.0059699486757657,0.0552212186157703,0.023459569130151,0.018197817243624,231
1733136766874880800,0.3080424513429403,-0.0904217369422316,-0.0038502456873655,5.434599283623695,-4.159286209835112,7.02394820395112,0.1838545352220535,-0.1686287075281143,-0.1142347976565361,0.9085774395196234,-0.1662247259937461,-0.3380053851035443,0.1805785959771467,0.2127479463815689,0.0265383217483758,0.2182002663612365,0.0349120944738388,-0.0307071506977081,-0.0410817265510559,-0.0016142649110406,-0.0436858721077442,0.0388364380683749,0.0685829669237136,0.0555403566425666,0.0416575325042475,232
1733136766914642700,0.0745820705145597,-0.0254001064553856,-0.2098743380576372,5.490888741600513,-4.080356173244119,7.02646515520811,0.1498570740222931,-0.068648025393486,-0.1350496709346771,0.90878110017263,-0.1616039463526152,-0.3400502138204178,0.179907723788156,-1.371000051498413,-0.0430694110691547,0.1056058257818222,0.0239215642213821,-0.0393147468566894,-0.0376842617988586,0.0047536795027554,-0.0329297259449958,0.0043556122392386,0.0681866109371185,0.0299388686964521,0.0506938984255073,233
1733136766954403300,-0.4701163428276777,0.0965431424319744,-0.1217190847426652,5.514848293858766,-4.035453786200285,7.033629640009999,0.052868016064167,-0.0111576011404395,-0.0446254834532737,0.9091677187492292,-0.1592565984308392,-0.3406200761885699,0.178967498981292,-1.6549681425094604,0.0496278218924999,-0.0230540223419666,-0.0083793997764587,-0.0016687512397766,0.0078197121620178,0.0068619125522673,-0.0752136707305908,0.1056882339912932,0.0613816790282726,0.0989650084171909,0.064543747309409,234
1733136766994164200,-0.6227940449357032,0.0646568888276815,0.0380295786648988,5.517140788710117,-4.021224477578699,7.039978716775774,0.0892139673233032,0.0179726127535104,0.098844975233078,0.9092135121774176,-0.1581956096859503,-0.3406392999549403,0.1796381212335631,-2.329393148422241,0.1398190706968307,-0.0177900847047567,-0.0286720991134643,-0.0653739273548126,0.0725027322769165,0.0111151337623596,-0.0750910267233848,0.0880981619660276,0.0849210023880004,0.074723406080855,0.1418843958171084,235
