time_imu,phone_acc_x,phone_acc_y,phone_acc_z,phone_gravity_x,phone_gravity_y,phone_gravity_z,phone_gyro_x,phone_gyro_y,phone_gyro_z,phone_ori_w,phone_ori_x,phone_ori_y,phone_ori_z,watch_gyro_x,watch_gyro_y,watch_gyro_z,watch_acc_x,watch_acc_y,watch_acc_z,headphone_gyro_x,headphone_gyro_y,headphone_gyro_z,headphone_acc_x,headphone_acc_y,headphone_acc_z,frame_imu
1733405444125167900,0.2662069593227468,15.209556506764889,-2.3985709612816573,0.1232998876607045,9.80536112923324,0.1002871056001167,-1.661928653717041,-0.1817404925823211,0.3820033073425293,-0.3150537884473176,-0.3038947839616303,0.6344562560714611,0.6370668823059171,1.5349247455596924,1.4547964334487915,-1.2431422472000122,-1.3549437522888184,0.8114490509033203,-0.908350944519043,0.0887768790125846,-0.2859870493412018,1.0780097557514905,-0.3017107248306274,0.3676772742249071,-0.1540752939462661,0
1733405444165167900,0.7917449095178395,9.726082425335049,-3.956757266104221,0.3040512810812331,9.747605105835198,1.0305939976472407,-2.934267044067383,-0.2555812299251556,0.409614086151123,-0.3330839526830961,-0.280949644239208,0.6070598220924227,0.6645304157956073,2.910573720932007,1.0995298624038696,-1.5129791498184204,-0.9871543049812316,1.019190549850464,-0.5526182055473328,0.0226977989077568,-0.2100152224302292,0.5629319891691208,-0.1498737335205078,-0.0544964736128225,0.4510691125303506,1
1733405444205167900,0.7809286972753703,-2.5096891570329665,-4.01504052824676,0.4250006052941084,9.544452184987067,2.2120571866758167,-2.958932638168335,-1.0245485305786133,-0.0900713950395584,-0.3443886729484322,-0.2486319268361259,0.5704372319591245,0.7029793919900509,2.5823347568511963,0.4334801137447357,-2.037583827972412,-0.2067266702651977,0.3636078536510467,0.3143293857574463,-0.0314034968614578,-0.0959988459944725,-0.0520282934010028,0.1954055726528167,-0.0301414557635784,0.4446218360871076,2
1733405444245167600,-0.1397648463798687,-12.563760258674622,-2.569413557894528,0.3832250815665349,9.298818551284077,3.0911998822048306,-1.8174229860305784,-0.6238358616828918,-0.5768645405769348,-0.3400830727909099,-0.2233124182717784,0.5408550875205566,0.7361732012917387,1.2973263263702393,0.0738141238689422,-1.5775824785232544,0.8425033688545227,-0.1752580404281616,1.1149952411651611,-0.0473364628851413,-0.0750653073191642,-0.2569359489619732,0.1517817676067352,-0.0060725248467177,0.1969087657615542,3
1733405444285167600,0.1866535118700936,-16.562627650755644,-1.364947459745407,0.1982144050000235,9.135514825743437,3.559981177036464,-0.6116852164268494,0.0078487824648618,-0.6132996082305908,-0.3326993673608998,-0.2161818999366878,0.5213030409248292,0.7555261087430825,0.058629747480154,-0.0469629429280757,-0.5823670029640198,1.3810017108917236,-0.3976942002773285,1.0615785121917725,-0.0632694289088249,-0.054131768643856,-0.4607610699832439,0.1081579476594924,0.0182032172212377,-0.0512488334611058,4
1733405444325167600,0.2356578360737301,-16.447283946263788,-1.934111621302366,-0.000876400098273,9.14257409660518,3.547354627436399,0.5113721489906311,0.3806881308555603,-0.1880848258733749,-0.3288994337812393,-0.2252246196152286,0.5180821502872841,0.7567627826074192,-0.5700643062591553,0.2386976182460785,0.505264937877655,1.479299545288086,-0.4196723699569702,0.7405211329460144,-0.0430217683315277,-0.0943380743265152,-0.3370581179469823,-0.0009834095835685,0.0646039165314286,-0.105893154579401,5
1733405444365167900,0.3474628633117303,-11.545315037047862,-1.781077068580687,-0.0390600085580255,9.251821237787604,3.251565800727904,1.0164432525634766,0.4797143638134002,0.1219183579087257,-0.3299885607691927,-0.2360309576732867,0.5277363608186763,0.7462515516628264,-0.697493314743042,0.5703446269035339,1.4167792797088623,1.0675218105316162,-0.4127721190452575,0.677034318447113,-0.0138175189495086,-0.0668904185295105,-0.1912345195174217,-0.0074092815630137,-0.1099046917757019,0.2401905658662319,6
1733405444405167900,-0.7414171364244073,-4.168760432884097,-0.1885848817914724,-0.0395415175978094,9.398145771476626,2.800658893021941,1.5145283937454224,0.4932145178318023,0.2358767837285995,-0.3307773700601798,-0.24886926579791,0.5433877240017178,0.7303289060345463,-1.351329326629639,0.2017060965299606,1.4973938465118408,0.5768205523490906,-0.2619021832942962,0.4306615591049194,0.0287894569337368,-0.0645170286297798,0.0590250204205513,0.1142077893018722,-0.1011403340291231,0.5620867705166339,7
1733405444445167900,1.0155330605071038,2.5097522853970524,-0.5005728558897972,0.0124773104301712,9.584557400882243,2.0752092141233383,2.0629196166992188,0.5888331532478333,0.1840894371271133,-0.3318246390026042,-0.2669285498441613,0.5682806774183298,0.7040586889023125,-1.4980201721191406,-0.4282472729682922,1.447630524635315,0.0119315981864929,0.2460637688636779,0.1561942100524902,0.0783432573080062,-0.0612655356526374,0.2171504665404558,0.2236655354499817,-0.1451757289800792,0.5182558120965958,8
1733405444485167600,1.1966611965518443,5.652694922059774,-0.2902233015358448,-0.0187140642366488,9.709999305540324,1.3733002775490284,1.6907120943069458,0.2246961295604705,-0.1274391114711761,-0.3265288864116758,-0.2847359995803072,0.5906831475444915,0.6807332491150456,-1.4307245016098022,-0.7385157346725464,1.2518740892410278,-0.4644399881362915,0.1845903396606445,-0.2112193703651428,0.0779708251357078,-0.0723070353269577,0.2715671163827181,0.1930032074451446,-0.1210655527373775,0.4039019954249263,9
1733405444525167600,0.69253488596417,5.513745885574817,-0.8267174386996775,-0.1141855291663669,9.77846786161065,0.7340917619723826,1.511716604232788,-0.0361149869859218,-0.3680182695388794,-0.3147632075555687,-0.2991727508735154,0.6107924364430903,0.6620817831074706,-1.4338099956512451,-0.8374513387680054,0.8281222581863403,-0.354790449142456,0.3360650539398193,-0.1386710405349731,0.0775983855128288,-0.0833485424518585,0.3266571354418993,0.1623408943414688,-0.0972762059468776,0.2893465187013149,10
1733405444565167600,0.0323931436805054,4.581562650862336,-0.6318208164781332,-0.2724117687796242,9.79950831155181,0.2565293043898418,0.8974769711494446,0.0634313970804214,-0.3393991589546203,-0.3018122706589974,-0.311489290789757,0.6244157803813547,0.6496065377427601,-0.7426339387893677,-0.6517884731292725,0.6045455932617188,-0.3636015653610229,0.3609876036643982,-0.3971412181854248,0.0605614855885505,-0.0609147474169731,0.2186503497093916,0.0928500369191169,-0.0457038396198302,0.1330547177493572,11
1733405444605167900,-1.1834323702096938,3.39893633633852,0.0091623806208372,-0.3313493118461221,9.801045604121684,0.0104397869953769,0.4243777990341186,0.0560072176158428,0.0123956399038434,-0.296508072131073,-0.3177042732058219,0.6312936826765745,0.6423514034983756,-0.4209211468696594,-0.3307500183582306,0.4554193019866943,-0.3597362041473388,0.2224121689796447,-0.2753926515579223,0.0435245856642723,-0.0384809523820877,0.1107692361831665,0.0233591794967651,0.0057710211494937,-0.0232601718172431,12
1733405444645167900,0.2610840816173702,2.336122396153212,0.5283855764448643,-0.2781427684459835,9.801881470423936,-0.1270576601584907,0.2379945665597915,0.5409935116767883,0.212098479270935,-0.2992238874805098,-0.3212681186012234,0.6350314430750265,0.6355996744376193,0.3759528398513794,-0.07666577398777,0.4390064477920532,-0.1887304186820984,0.2573363184928894,-0.2033521831035614,0.0592619143426418,-0.0794107019901275,0.0073825114667415,-0.0428878292441368,0.021960523928143,-0.055966801893711,13
1733405444799734800,-1.2496997629739344,13.31688865648508,-1.7158417953431606,-0.1103563719328027,9.798530406430364,-0.3834237459437921,-0.8231516480445862,-0.2747113406658172,0.208491250872612,-0.3073726284927623,-0.3268902306685923,0.6424110424319402,0.6212672048343046,0.4930309951305389,0.5810396075248718,-1.2016946077346802,-0.7628323435783386,0.5630806088447571,-0.6491556167602539,0.0289880819618701,-0.0613729879260063,0.1771430667302571,-0.0833532586693763,0.0101897394907544,-0.0158103969507035,14
1733405444839510300,-0.7138155013367533,12.505225067597626,-3.407196799683571,0.0914725885688792,9.802299988096951,0.2773768438410945,-2.397805690765381,-0.102426566183567,0.7842189073562622,-0.3221962983536,-0.3073841261938114,0.6255978864505647,0.6405715276957997,2.2215588092803955,0.9885661005973816,-1.2940374612808228,-1.1863319873809814,1.1248929500579834,-0.9980236887931824,-0.0128593230620026,0.0448198392987251,1.2889913243986666,-0.1933500319719314,0.0617468237669905,-0.2756695284665562,15
1733405444879510300,0.9690908236101268,2.05208450525403,-4.982247145545482,0.3671728683667257,9.708235218477247,1.3363266376778482,-2.979912519454956,-0.0520915575325489,0.425786942243576,-0.3466582944869671,-0.2799692318190176,0.5945448112258521,0.6692995622279748,2.711488008499145,0.3816739916801452,-1.6227022409439087,-0.5643724799156189,0.7028120160102844,-0.0217609405517578,-0.0283811204135417,0.0009398870170116,0.5078665200293064,-0.0235941112041473,0.0843112729716114,-0.0653004474282264,16
1733405444919510300,1.3593803271375595,-8.274759581428766,-4.01192736466229,0.362050629982166,9.48547684892714,2.462728960676491,-2.5891849994659424,-0.1607314944267273,-0.4891422986984253,-0.3604333220435137,-0.2578768529349281,0.5549191758251135,0.7040256407716221,3.201343059539795,0.3734854161739349,-1.686314821243286,0.2619892954826355,0.1778200566768646,0.8294090628623962,-0.0439029149711132,-0.0429400652647018,-0.2732137145459651,0.1461617797613144,0.1068757541422732,0.1449552911624312,17
1733405444959510300,0.3846457254868,-14.182832117092609,-3.919333544377982,0.1506080105613451,9.264542187672854,3.2118466615408656,-1.5631457567214966,-0.8354998826980591,-0.8396726250648499,-0.3552728296845687,-0.2443460842117902,0.5258672674113937,0.7331710729237778,0.1470589488744735,-0.3856149315834045,-1.2701359987258911,1.1823220252990725,-0.530458927154541,1.1204967498779297,-0.0215711072087287,-0.0037056691944599,-0.3587035480439662,0.0911222845315933,0.0735557414078153,0.0830932937502861,18
1733405444999510300,0.2417300321268849,-15.827618262481687,-1.1943465629339218,-0.0009632086628156,9.113827894592283,3.620570670294761,-0.5967354774475098,-0.7112067937850952,-0.5779441595077515,-0.3396895471805919,-0.2306209595537664,0.5120705414512616,0.7544592679740214,-0.6128125190734863,0.0342359282076358,-0.5828776955604553,1.22184157371521,-0.3927811086177826,0.8466635942459106,0.000760706141591,0.035528726875782,-0.4440548498541116,0.0360827855765819,0.040283385473676,0.0211734286710619,19
1733405445039510300,-0.4148588217144832,-13.05655195916891,-0.0422808063685894,-0.0750546381960623,9.089210755208134,3.6811683468595136,0.2224223464727401,0.1114460378885269,-0.118049643933773,-0.3327339394691633,-0.2284505542666005,0.5100225387072269,0.7595890090333078,-0.7493919730186462,0.3046203255653381,0.4072329401969909,1.2120712995529177,-0.3637407422065735,0.6822576522827148,0.0004499730130191,0.0247900076210498,-0.3478302718520164,-0.0366359837353229,0.0008373824059031,-0.1558931570231914,20
1733405445079510300,-0.0286794203869998,-8.43788561231494,1.6122265225678682,-0.145498814321449,9.16467603829801,3.48682417088896,0.9271441102027892,0.4652639329433441,-0.0536487326025962,-0.3325483417066556,-0.2375056657309248,0.5155700720955257,0.7531203395559093,-0.8733975291252136,0.4494098424911499,1.0655217170715332,0.7632395625114441,-0.4579652845859527,0.5461390018463135,-0.0169143974781036,0.0264070201665163,-0.0816156224131584,-0.0584056004881858,-0.0262196792099624,0.0110839963331818,21
1733405445119510300,-0.325179610235244,-3.1721278146147727,1.55291625546515,-0.2239903772967867,9.349467373025416,2.950876342496276,1.9058443307876587,0.7594954967498779,0.0839714184403419,-0.3312422343896551,-0.2556646596590813,0.5330879521702708,0.735344398216573,-1.270488977432251,0.2541413307189941,1.389718532562256,0.4005188941955566,-0.2317597866058349,0.3444728851318359,-0.0071799531579017,0.0171502251178026,-0.0182902744501829,0.010897658765316,-0.065195635346882,0.252139362335205,22
1733405445159510000,1.401347537512332,1.7640023074001072,-0.2380447860091924,-0.2554227131211198,9.564462122836709,2.150862128739804,2.207934617996216,0.4053550362586975,-0.0040885549969971,-0.3286466548773266,-0.2780041628731755,0.5595089208916421,0.7082759740856645,-1.665440320968628,-0.0825064480304718,1.3372321128845217,-0.0314290523529052,0.109975516796112,0.0111886858940124,0.0025544902309775,0.0078934310004115,0.0450450103849172,0.0802009031176567,-0.1041687054069712,0.4931906366840005,23
1733405445199510300,-1.0453402428150176,3.1521488564252853,-1.3983232212550938,-0.2057797074214555,9.71578665677011,1.3158731938444077,1.976462483406067,0.2097076475620269,0.3272476196289062,-0.3204332974242201,-0.292514228076218,0.5893594555675127,0.681478778108097,-1.4181573390960691,-0.3477711677551269,1.1800986528396606,-0.2216826677322387,0.2581825256347656,-0.152274489402771,-0.001774325966835,0.0367383100092411,-0.0037602293163537,0.0570049956440925,-0.1833007856423966,0.3811374981701373,24
1733405445239510300,2.096276844332367,5.15170588658452,-1.3504928179353477,-0.1135787132464814,9.784671392425894,0.6462981815766543,1.4989116191864014,0.0447763316333293,-0.030855119228363,-0.3152787234188898,-0.302276800363617,0.6129247100827918,0.6584462415962035,-1.2798359394073486,-0.4226422905921936,0.8824998140335083,-0.3294894099235534,0.2483067512512207,-0.1039166450500488,-0.0061031421646475,0.0655831843614578,-0.0524526562929153,0.0338090881705284,-0.2624610873253085,0.2690519186913967,25
1733405445279510300,-0.4572815573044121,4.625670088136196,-0.8363841886460781,-0.1424660042305011,9.802686941587924,0.2396294796510599,0.7180121541023254,0.3956698179244995,-0.0016233840724453,-0.3101035757652546,-0.3117315104725447,0.6249846097285559,0.6450220796682016,-0.6821370124816895,-0.2478920072317123,0.6914746761322021,-0.3414172530174255,0.3042812347412109,-0.2663789391517639,0.0034765750169754,0.0170551091432571,0.2180599826008081,0.00743018835783,0.0690951270034536,0.0532373769298195,26
1733405445319510300,2.161799848470092,4.25055258090794,0.2043593740284442,-0.188977753566578,9.804608265039324,-0.0657947154848836,0.7913597822189331,0.2895037233829498,-0.3632207810878753,-0.3084138377816086,-0.3227257358023983,0.6318248938366005,0.6336610378121673,-0.585850179195404,-0.3501276969909668,0.4634132981300354,-0.2202348709106445,0.2761976718902588,-0.1437984406948089,0.001154830912128,0.0237007085233926,0.1039379288583993,-0.0006882967427372,0.036763285056129,-0.011594576203823,27
1733405445359510300,-0.0079042337859049,3.3832997912675142,-0.3646060866186395,-0.3774126689607277,9.795285140898825,-0.2834745579279959,0.3385611176490783,-0.101822979748249,-0.480316549539566,-0.2994437683484733,-0.3329352356371253,0.6353009594953862,0.6291902530157597,-0.5549047589302063,-0.1127685904502868,0.2412761896848678,-0.2514432072639465,0.0937199592590332,-0.2811777591705322,-0.0011669131927192,0.0303463079035282,-0.0101765260994434,-0.0088067818433046,0.0044331418755464,-0.0764274061203002,28
1733405445399510300,-1.307594464190304,3.820357329580188,0.0600596606979146,-0.4922465972995385,9.78708722139597,-0.3754952179668471,0.103397324681282,0.084298625588417,-0.0555704161524772,-0.2939228693918321,-0.3377965293471704,0.6364262974910387,0.6280639904312724,-0.0335928574204444,-0.0128537118434906,-0.0087313875555992,-0.2250314354896545,0.3366843461990356,-0.2961664795875549,-0.0066910414025187,0.0247711315751075,-0.0321492884546518,0.0301801916211843,-0.0737031870544888,-0.0640215135335922,29
1733405445439510300,-1.3573561278335748,5.952868539723753,-0.2544564071059227,-0.4112108936661854,9.790952664652464,-0.3722259139725938,-0.1224108040332794,0.1660104095935821,0.4417835474014282,-0.2979732129626059,-0.3365310401461873,0.6369655401853997,0.6262857354240254,0.6676041483879089,0.2496765404939651,-0.3945031762123108,-0.3599041104316711,0.4401034712791443,-0.3388063907623291,-0.0043696290813386,0.0138485990464687,0.2990028203189372,-0.0019435416907072,0.1676971564603038,-0.076937109208107,30
1733405445479510300,-1.1735098919365554,11.20840480313897,-2.3908862519979475,-0.1884916140174493,9.803707516807318,-0.1489126504860818,-1.2147574424743652,-0.0298515856266021,0.6355820298194885,-0.3099360474089433,-0.3269077624482401,0.633027445841806,0.6295611364987466,1.44572114944458,0.5499938726425171,-1.2056957483291626,-0.6938232183456421,0.4908824563026428,-0.5950753688812256,-0.0020482169929891,0.002926068380475,0.6301666195303202,-0.0340672731399536,0.4091034365255385,-0.0898512435778975,31
1733405445519510300,3.066418199908733,11.95041676365137,-2.601330498898029,-0.0317674951959867,9.78908336364925,0.5858617599882185,-2.504905462265014,-0.1892492771148681,0.013112798333168,-0.3256135918428198,-0.3086972717511914,0.6122379904261708,0.6510349165783675,2.197232246398926,0.5303432941436768,-1.3685728311538696,-0.8728318810462952,0.7051971554756165,-0.6232834458351135,-0.0460456758737564,-0.0948408618569374,0.4818535423725843,-0.115870401263237,0.3231326876427978,0.0833387929439544,32
1733405445559510300,1.7557563109718262,3.620317572316527,-3.264723096203804,-0.1452069278359413,9.642962243577838,1.7783723396666349,-3.499056339263916,-0.6543709635734558,-0.5469153523445129,-0.3343439880267138,-0.2869697524587514,0.5718186847772325,0.692015903610209,2.8677539825439453,-0.1512357145547866,-1.8319791555404663,-0.4404692649841308,0.4129155874252319,-0.2107896208763122,-0.0591359287500381,-0.0348536297678947,0.1727022530049085,0.0485139042139053,0.2247250482468865,0.1326721481725573,33
1733405445599510300,0.1974771767666563,-6.227279939621687,-1.236350013665855,-0.2932452066402882,9.322233913663029,3.029905747808516,-2.8782262802124023,-0.3000287115573883,-0.4933647811412811,-0.3385011855877265,-0.2626139018553637,0.5258818648368032,0.7347782333193722,2.516223430633545,-0.8006515502929688,-1.6997126340866089,0.2901498079299927,0.3237653076648712,0.4076490998268127,-0.0722261816263198,0.0251335948705673,-0.1364011055678129,0.2128982096910476,0.1263852590559516,0.1819765695676207,34
1733405445639510300,-0.676579411137104,-12.764763308012483,-2.00629890563488,-0.4011108303364366,9.029061114671826,3.805990658314526,-1.3443739414215088,-0.1087565645575523,-0.182396113872528,-0.3432412829057261,-0.2500345299174193,0.493387493821687,0.7591028233888311,1.0783876180648804,-0.946820080280304,-1.1498008966445925,1.0076879262924194,-0.2462513148784637,0.8596916198730469,-0.0425227433443069,0.0619253367185592,-0.4765484217017888,0.2079409658908844,0.0624710692211985,-0.0884954450547695,35
1733405445679510300,0.1183423748511821,-15.461336972659826,-2.572915720796585,-0.4460487636176869,8.920826365402341,4.048492423732578,0.0526329316198825,-0.1434819251298904,-0.2566895484924316,-0.3415044405149613,-0.2446064420235058,0.4834790834753804,0.7679781870173875,-0.3632101714611053,-0.1219710856676101,-0.2564610838890075,1.1776940822601318,-0.4109116792678833,1.0456007719039917,0.0225929394364357,0.0719875246286392,-0.455589220303297,0.1201539039611816,0.0106789774625562,-0.0450759900450706,36
1733405445719510300,-0.4152526798702776,-14.48425368899107,-3.545481234779954,-0.4487548807712271,8.99973565146625,3.869596284523606,0.7999292612075806,-0.3861144185066223,0.0594902373850345,-0.3345340688654585,-0.2452471884290983,0.4925031081191921,0.7651023459809199,-1.231766939163208,0.692087709903717,0.8182915449142456,1.173469066619873,-0.4773272275924682,0.8049638867378235,0.0877086147665977,0.0820497125387191,-0.4344488171190023,0.0323668420314788,-0.0411277821422554,-0.0017190788775682,37
1733405445759510300,-0.2551698526049032,-10.328632723665237,-1.5139274763792752,-0.3336540085919201,9.134972973951696,3.551243743829429,0.9841094017028807,0.2390922755002975,0.4762381017208099,-0.3329437425134269,-0.2465494991489162,0.5080849408380569,0.7551235047468993,-1.3523542881011963,0.7843509912490845,1.2829999923706057,0.9444532990455629,-0.3192631900310516,0.6427746415138245,0.0947215631604194,0.146911472082138,-0.2790940047562122,0.0671998411417007,-0.1299314711622893,0.5102826412603259,38
1733405445799510300,-1.8534576835282144,-1.584604356148839,1.278623805771768,-0.0816559544235467,9.294383783707024,3.1270062318623064,1.3518837690353394,0.7961229085922241,1.2832462787628174,-0.3470150854152058,-0.2540070899777747,0.5254021732420178,0.7341754708313017,-1.2663779258728027,0.0966269746422767,1.2320719957351685,0.356905996799469,-0.0314671397209167,0.1195235848426818,0.1293078362941742,0.1444779187440872,-0.1613327177286148,0.0492746718227863,-0.1113728280995041,0.3443284012109041,39
1733405445839510300,3.2875176963359114,6.3409408055931324,2.8269904351085424,0.2407873261829838,9.49026875937879,2.459107555308938,2.209162950515747,0.1892689019441604,0.575751006603241,-0.3581674961135721,-0.2632807956402801,0.5525428729162869,0.7050501355611236,-2.110689878463745,-0.2238316237926483,1.2312027215957642,-0.4944969415664673,0.182425707578659,-0.1364455819129943,0.1638941168785095,0.1420443505048751,-0.0429588517606258,0.0313495025038719,-0.0930557387076318,0.1780059123709797,40
1733405445879510300,2.391243979394436,6.23031243918538,0.2675099499464035,0.3195906676543876,9.664493691906332,1.63273798019886,2.0318965911865234,-0.0128719545900821,-0.0557254664599895,-0.3504565319664794,-0.2771238030123412,0.5830573995406919,0.6785475751324395,-2.2039644718170166,-0.3960456252098083,1.0899615287780762,-0.4329105019569397,0.2909905910491943,-0.2273018360137939,0.1572233438491821,0.0635640919208526,-0.0134755676448345,-0.0688586756587028,-0.0783090186158195,0.0984846318885684,41
1733405445919510300,1.574864467900991,5.8446361285418265,-1.0105774839263408,0.2622364117239601,9.763315300664305,0.8827870433807372,1.676291823387146,-0.6651048064231873,-0.3909145593643188,-0.3328612640763384,-0.2878569209289307,0.6100235883871338,0.6589485016354972,-1.7762632369995115,-0.4589395821094513,0.5073396563529968,-0.4379053711891174,0.2253960371017456,-0.3920382857322693,0.0928976610302925,0.1196694746613502,0.0435860437482595,-0.0683968961238861,-0.0837440127439796,0.0573226004168391,42
1733405445959510300,-0.5891388454301283,3.1453163800567387,-2.066353853625059,0.0980282024911139,9.799084533181786,0.3724557041404768,0.856508731842041,-0.1597676426172256,-0.3778475522994995,-0.3136974948161956,-0.2957405606387196,0.6273336952619556,0.6485243712418483,-0.9017162322998048,-0.2890606820583343,0.2239708304405212,-0.2661925554275512,0.3513951301574707,-0.2150247991085052,0.0285719782114028,0.1757748574018478,0.1010866310805082,-0.0679351091384887,-0.0891605944326147,0.0159133161857724,43
1733405445999510300,-0.3063749017232097,1.6564222226470708,-1.4565578219503164,0.0296950020541553,9.804022574105858,0.2250404891379177,-0.0173126105219125,0.1844535917043686,0.0266625005751848,-0.3096630730986384,-0.3007270441015622,0.6309432411927207,0.64465701721759,-0.192618191242218,-0.0538856200873851,0.0320930741727352,-0.1949779391288757,0.1922905445098877,-0.1491357386112213,-0.02677808329463,0.1591964066028595,0.0502566075533628,-0.0983463078737258,-0.1560623030450195,-0.0925868060216307,44
1733405446039510300,-0.3369877195918932,0.7849561992257833,0.6763561237752437,0.0945749293652363,9.802053319859503,0.2849163725004531,-0.1291206330060959,0.5831826329231262,0.3139843046665191,-0.3174447361722792,-0.302309506779792,0.6277597228028694,0.6432382570064943,0.1774647831916809,-0.0170261934399604,0.0091853616759181,-0.0739893317222595,0.1851205825805664,-0.0700904726982116,-0.0229495055973529,0.1015326231718063,0.0090817166000604,-0.1342397034168243,-0.1194183335196226,-0.0351128144353628,45
1733405446079510300,0.7964329942688345,0.5390045856148005,0.7216121465623379,0.1928210945891216,9.800655728021264,0.2835032908321358,0.185927927494049,0.173972874879837,0.1086935102939605,-0.3260962290934434,-0.3045319799119203,0.6267420744060536,0.6388395958674256,-0.0904628038406372,-0.0287466049194335,0.0416043549776077,-0.0093796253204345,0.0297837853431701,-0.0243865847587585,-0.0191209279000759,0.0438688397407531,-0.0316337401479482,-0.1701331138610839,-0.0829277279250323,0.0222816821739077,46
1733405446119510300,-0.3629114480625838,-0.287296600434184,-0.2550894443124532,0.2104306932987645,9.8030510987252,0.162164565442875,0.3303420841693878,-0.0143938744440674,0.083184115588665,-0.3248236865617344,-0.3060260484996084,0.6309357855021721,0.6346319519647078,-0.2990927100181579,-0.055961288511753,0.0915419533848762,0.0021182298660278,-0.0499666929244995,0.0339734554290771,0.0101538524031639,0.017224496230483,-0.1066805055648088,-0.1609489470720291,-0.0562902616944164,0.062089668688178,47
1733405446271533600,0.1008836010553874,0.1201496434688568,0.4182335953772068,0.0508489474233239,9.806360077142717,0.0558182831013808,0.2230055779218673,0.6094772815704346,-0.3530665636062622,-0.3402120242008963,-0.3350686800059564,0.6203894255707565,0.6221750345280332,-0.3544307947158813,-0.0276069324463605,0.0400589220225811,0.0290935635566711,0.0417540073394775,0.0006023347377777,-0.0516168810427188,0.0820239335298538,-0.0764979597390163,-0.0951411202549934,-0.0508105379419634,-0.1009184805725235,48
1733405446311311600,0.3116249129395931,0.0044359366208314,-0.0862286600334104,-0.0216271569380653,9.806253694158793,-0.0854049316935241,0.4213044643402099,0.2579691112041473,-0.0688626691699028,-0.3405911411811,-0.3449402867665553,0.6207822791612541,0.6161519289123493,-0.3249717056751251,-0.0688338354229927,-0.0254929233342409,-0.0124837756156921,0.0497481226921081,-0.068555861711502,-0.0668846890330314,0.0880375504493713,-0.0060459759081539,-0.0425004139542579,-0.0813358373573981,0.1118767590336501,49
1733405446351311600,0.0803159836572129,-0.283822202321887,-0.1735094777345657,0.0079701740199408,9.804065828725696,-0.2249750592188909,0.3128114938735962,0.1897788494825363,0.1902594268321991,-0.3417342646355113,-0.349158756727897,0.624146375980497,0.6097107202578523,-0.2503693699836731,-0.0985876247286796,-0.007404267322272,0.0274571776390075,0.0587649941444397,-0.0673278868198394,-0.0504786446690559,0.0665421560406684,0.0314244813114404,-0.0380192101001739,-0.0349772784221917,0.1158314880087971,50
1733405446391311600,0.6358268372491002,-0.1069154833644628,0.0779483320772647,0.0653749465696979,9.799391407173871,-0.3715370914582163,0.4813842177391052,0.167015716433525,0.0802543088793754,-0.3433712263108643,-0.3524528602582726,0.6282675395856815,0.6026218675784506,-0.1638930737972259,-0.0658264383673667,0.0445321649312973,0.0320109724998474,0.0012343525886535,0.0454753041267395,-0.0361429937183856,0.0577169470489025,-0.0117693482488393,-0.0408292934298515,-0.0463779394891113,0.1216214695870876,51
1733405446431312000,0.2388224923834204,-0.1140016422331333,-0.4626689494311809,0.0818508924737572,9.788820913320778,-0.5853929369000718,0.4670740067958832,0.0366936586797237,0.0040934970602393,-0.3408137293799723,-0.3565093770159031,0.6346241387777108,0.5949784184276209,-0.131309300661087,0.0132741350680589,0.0573007576167583,-0.0023667216300964,-0.0227912664413452,0.0262969732284545,-0.0208009146153926,0.041963055729866,0.0088888243764638,-0.0532386228442192,-0.0073480977404862,0.109127021934092,52
1733405446471312000,-0.6739359839562327,0.0926958193540573,-0.1315091688077896,0.0711957890771329,9.78488182030618,-0.6491505753330886,-0.1205657571554184,0.4293874502182007,-0.0603570863604545,-0.341601380629254,-0.3604036971310784,0.6349855461272655,0.5917862828577605,0.0293605402112007,-0.0578230507671833,0.0134917590767145,0.0124943256378173,-0.0085058808326721,0.0061546266078948,-0.0090147331357002,0.0347678661346435,0.0017243395745754,-0.058505717664957,-0.0054217327877879,0.1055477021425962,53
1733405446511312000,-0.0575478788063861,-0.0361181920856237,0.1749614301085472,0.0585952872337773,9.789048292335869,-0.5843698774626478,-0.1626276671886444,0.3115642964839935,-0.0382493287324905,-0.34610964614068,-0.3636191912600135,0.6305360068979915,0.5919573859043347,-0.1469649523496627,-0.0749444589018821,0.0138870403170585,-0.0111843943595886,-0.0087570548057556,-0.0294302403926849,-0.011220664717257,0.0373235382139682,0.0054693713217973,-0.0585362650454044,-0.0061499739971011,0.0958665583446621,54
1733405446551311600,0.1930859195377677,0.3499164304763078,0.043372729791142,0.0554622499050572,9.787731364518404,-0.6063093220701441,0.2092981487512588,0.1308941394090652,-0.0055388170294463,-0.3485672586825567,-0.3672673158885089,0.629307469287809,0.5895656438869484,-0.1525437384843826,-0.0246571619063615,0.0295268520712852,-0.0162957310676574,0.0327516198158264,-0.0129718482494354,-0.010776337236166,0.0226050354540348,0.0450187068998813,-0.0546896532177925,0.0422129287641495,0.10342384185642,55
1733405446591311600,0.1773169071935117,-0.0657119508385658,0.9847300720948724,0.0671910515143768,9.78033424000442,-0.7147835426513105,0.4521653056144714,0.107425644993782,0.0445239804685115,-0.3478376606110938,-0.3698517603650232,0.6321815344067808,0.5852905918432791,-0.250597596168518,0.074035108089447,-0.0013815284473821,-0.0171199440956115,0.0184588432312011,0.0593445897102355,-0.0047946507111191,0.0270815789699554,-0.0215530756384134,-0.0568096563220024,-0.0006179127026349,0.0843289730250835,56
1733405446631311600,-0.1427513605105224,0.0667500617146492,0.0869615865509957,0.1207545048936735,9.762796245226264,-0.9184981159701944,0.429699182510376,0.4514515995979309,0.1892106384038925,-0.3486125024281277,-0.3750939224935176,0.6372871570582891,0.5758811095113263,-0.0041457545012235,0.0693451836705207,-0.0753795877099037,0.0174619555473327,0.0951107144355773,0.0256657004356384,0.0046621225774288,0.0196211021393537,0.0046136312752962,-0.0541247688233852,0.0081439973585307,0.0932934929862618,57
1733405446671312000,0.230070391330216,-0.0383802917987108,-0.7402608790613711,0.1887650606639683,9.753303609737753,-1.0039148842319845,0.0405611842870712,0.4929052889347076,0.0712567493319511,-0.3544334869889746,-0.3805162472785154,0.6374894501236161,0.5684994278463787,-0.1092162504792213,0.0945752188563346,0.0205635167658329,0.0079928040504455,-0.0948872566223144,0.001746118068695,0.0141188967972993,0.012160625308752,0.0308294380277395,-0.051439881324768,0.0169040807887911,0.1022393082469701,58
1733405446711312000,-1.5242776054799556,0.6241191560596228,-1.0173347761668263,0.3475274164479225,9.750855632063749,-0.9851154912158846,0.0102382693439722,2.186373472213745,0.6853258609771729,-0.3719914668023517,-0.3891957722695894,0.631469369414173,0.5580282883310472,-0.1500028222799301,-0.0442218631505966,0.0682590678334236,0.0345606803894043,-0.0048816204071044,0.0045846700668334,0.0208952538669109,0.0086679542437195,0.0034551088899374,-0.0413179360330104,-0.00335690921247,0.1357312434822321,59
1733405446751312000,-0.6827274854380637,0.2578589090257883,0.4872878423810005,0.8399966800548135,9.720575060090422,-0.9875259133584796,0.3015678524971008,2.0869288444519043,1.1729989051818848,-0.4110922749596842,-0.4026534362493738,0.6230730444763485,0.5297672481318081,-0.4221528470516205,-0.216138869524002,0.0058974898420274,0.0344790816307067,-0.0350905656814575,-0.0957965552806854,0.0255296230316162,0.0217606034129858,-0.0164975458145141,-0.0473980493843555,-0.0312805427961051,0.1435416249722242,60
1733405446791311600,0.1877490154892206,-0.026512743872404,0.3829905786909163,1.3256855628065765,9.6580855784297,-1.065039068888873,0.4150989055633545,1.694748044013977,0.901263952255249,-0.4409506964545301,-0.4111631612429681,0.6206824757558129,0.5012589632750865,-0.3274005055427551,-0.0992195978760719,-0.0613570474088192,0.0193533897399902,0.0586465001106262,0.0681429803371429,0.0289747454226017,0.0297030471265316,0.0070019877165555,-0.0821475535631179,-0.0320387407522648,0.1200292319595813,61
1733405446831311600,-0.9098318483032286,-0.0927852512031793,-0.3130359487812966,1.7506453976988792,9.583250409936904,-1.125580339091271,0.4465135037899017,1.3599470853805542,0.9732891321182252,-0.465854807186645,-0.4184864640994439,0.6182699292994439,0.4749638618897968,-0.0496133714914321,-0.1256552040576934,-0.1567060053348541,0.0304080843925476,0.1379978656768798,-0.0189058184623718,0.033586174249649,0.0160678438842296,0.0376566536992788,-0.1189267188310623,-0.0423087172888219,0.1440232710093259,62
1733405446871311600,0.7099594104304909,-0.2179752269268035,-1.3846563688218594,2.113402897308766,9.494459196805954,-1.2486670589253306,0.426698088645935,0.7037262916564941,0.664096474647522,-0.4808426100778661,-0.4216135877413903,0.6212135570079578,0.4529085199869606,0.017098281532526,-0.0787358954548835,-0.0463039316236972,0.0140252709388732,-0.0065903067588806,0.0177477896213531,0.0424631275236606,-0.0083416122943162,0.0832844324082136,-0.1419328153133392,0.0014002952519804,0.1090296990394592,63
1733405446911312000,0.8867837118014693,-0.6911410204529762,-1.5618798986434936,2.380104307351261,9.437757650896906,-1.197587444551289,-0.241469070315361,1.2778818607330322,0.5338143706321716,-0.4967848656215941,-0.4234180616683553,0.6178811468945133,0.4383432689118939,0.044352538883686,-0.2396152764558792,0.020667515695095,0.0473591685295105,0.000207781791687,-0.0738057792186737,0.0389742664992809,-0.0224011149257421,0.0255044436126947,-0.1346523761749267,0.0073225249078124,0.0882467309907078,64
1733405446951312000,0.9530997660130262,-0.6193821906656026,-0.680229165816307,2.665286838240921,9.395926926383376,-0.8849801695108414,-0.5793285369873047,1.6479158401489258,0.6234593391418457,-0.5235507175433605,-0.4243636477650934,0.604182857956857,0.4251743816769294,0.2123279720544815,-0.244588240981102,0.0656341910362243,0.0176854729652404,-0.0300129652023315,-0.0095934867858886,0.0354854054749012,-0.0364606156945228,-0.0320499197334051,-0.1273719221353531,0.0133414929363876,0.0673906977057457,65
1733405446991312000,1.0152212911441922,-0.5310264463424682,1.0551707319557666,2.957058246001601,9.341537749069929,-0.402302487806417,-0.6921674609184265,2.492276906967163,0.6639468669891357,-0.5585301122679807,-0.4260992867347814,0.5821950836650138,0.4093071129151848,0.0033377280924469,-0.2353636920452118,0.0281649120151996,0.0022873282432556,-0.0238375663757324,0.0180317163467407,0.0300859883427619,-0.0284526590257883,-0.0114823480010032,-0.1406647562980651,0.0504323294464498,0.0321904972478747,66
1733405447031312000,-0.0752791128680109,-0.4134019374370575,1.5581354514181611,3.2341283437147736,9.257432647928596,0.1035902935976628,-0.5332225561141968,1.6213911771774292,0.7127479910850525,-0.5947755223034082,-0.4285644320609866,0.5577193670800675,0.3892604070734481,-0.055756751447916,-0.1938543319702148,0.0399542599916458,-0.0039951801300048,0.0089461803436279,0.0383365303277969,0.0193378217518329,-0.0224979203194379,-0.0737175626397132,-0.1537270843982696,0.0011469050128012,0.0133311907380819,67
1733405447071311600,0.6012327859908342,0.1218611235618591,2.810139253550768,3.416386945094168,9.185446439126132,0.3552948721116408,0.1800241470336914,1.1006309986114502,0.400936484336853,-0.614682466292075,-0.4296972513246876,0.5452020494272679,0.3745401698492762,-0.0982232540845871,-0.1217948421835899,-0.0105693005025386,-0.0199440121650695,0.0179329514503479,0.0342280864715576,0.0111396601423621,-0.0011216066777706,-0.0491015922993421,-0.1557313948869705,0.000587809825316,0.0055891983091831,68
1733405447111311600,-0.2226335741266608,0.0247667769879102,1.2308598918169735,3.6140202257379888,9.11150734269023,0.2994838453015312,0.6520435810089111,0.7013791799545288,0.4836340248584747,-0.626472623979845,-0.4395000460765778,0.5399724831911573,0.3504305017680043,-0.0779779031872749,0.0039760279469192,-0.0505512729287147,-0.0258044004440307,0.019849419593811,0.0610164403915405,0.0082113668322563,0.0055515151470899,-0.0238882405877113,-0.1517360955476761,-0.0009415186338126,0.0179003983497619,69
1733405447151311600,0.7498457228779792,-0.2867833902150392,0.8174836733430624,3.7485596290871497,9.060933924272655,0.1348104936418123,0.8709842562675476,0.9430697560310364,0.3527013957500458,-0.6303173071438062,-0.4496742262069925,0.5393696949230249,0.331018988344841,0.0077969250269234,0.0736848041415214,-0.0915831923484802,-0.0038703083992004,0.0478062033653259,0.0389423668384552,0.0088016204535961,0.0138525012880563,-0.0137082073569297,-0.1475614458322525,-0.0210313898518681,0.0545785624057054,70
1733405447191312000,0.4965612821608781,0.023381460109353,-1.1307049886286258,3.840235457743704,9.023408203476668,-0.0327277756124851,0.5896584987640381,0.2656888961791992,0.0802888944745063,-0.6328327858602334,-0.4613317902288648,0.5374398863937274,0.3128161955641282,-0.057743202894926,0.1032796055078506,-0.1081894040107727,0.0145631432533264,0.0140276551246643,0.0469526797533035,0.0098338695243,0.0022618658840656,0.0161643683373928,-0.1513066589832306,-0.0056439972363412,0.0801236302897334,71
1733405447231312000,0.5820405942648649,-0.0928185689508915,-1.1895219192564486,3.8201486552655695,9.03127236098051,-0.1139715758884325,0.0996407717466354,0.5859056711196899,-0.0933495089411735,-0.6325223497269069,-0.4684559964559406,0.5351260717321797,0.3067648371325208,-0.1121353432536125,0.105727694928646,-0.0763835981488227,0.0406675338745117,-0.0164886713027954,0.0264009237289428,0.0145538141950964,-0.0003356400411576,0.0009048398852348,-0.1691523790359497,-0.015401640336588,0.0909258870720863,72
1733405447271312000,0.2587763161316513,0.0296469502449035,-1.2880050898402928,3.7625846473082896,9.055899437236786,0.0635205326083581,-0.3205351233482361,0.6958668828010559,-0.2803440988063812,-0.6420030956286806,-0.47399839927823,0.52161947015073,0.3017792714204142,-0.1057781130075454,0.075038805603981,-0.0274364985525608,0.0363862514495849,0.0156245827674865,0.0129739195108413,0.0129897147417068,-0.0167566761374473,0.0308574950784444,-0.1891656965017318,0.0123629302278161,0.0883157045736908,73
1733405447311311600,-0.2192512382119893,0.0926952348321676,0.0741068907508626,3.648197220627963,9.099843208381532,0.2322015764063224,-0.2221283763647079,0.3911027908325195,-0.2770984470844269,-0.6471256739668558,-0.4757304137505264,0.5117045903953382,0.3050696071025169,0.0531657375395298,0.0222529303282499,-0.0295194890350103,0.0454417467117309,0.0337617993354797,-0.0410550832748413,0.0181056056171655,-0.0085583161562681,-0.0206342072278261,-0.2169026583433151,-0.0247457341998815,0.0694403237119317,74
1733405447351311600,-0.4996110251203179,0.0380658190220594,0.0309059738626703,3.5918721068158743,9.11765943557918,0.3702718938279897,-0.1665327548980713,0.4910070896148681,-0.0152953807264566,-0.6528626291951588,-0.4774799563552744,0.5031245167859895,0.3043827959226121,0.0469214245676994,0.1171664446592331,0.0071529042907059,-0.0061604976654052,0.0257450938224792,0.0136803984642028,0.0192239098250865,-0.0116655593737959,1.69511348009e-05,-0.2486698627471923,9.29389804601e-05,0.0576823736399412,75
1733405447391311600,-0.2088075856089591,-0.037009003445506,0.3174614370733499,3.634909869031608,9.094872434231638,0.4910307917689904,-0.0729722380638122,0.65141361951828,0.2832643389701843,-0.6600349403342933,-0.4774051192129807,0.4970399883572848,0.2989807326560177,0.2258754670619964,0.1483670771121978,-0.0633478313684463,-0.0100950598716735,0.0664354562759399,0.0607344508171081,0.0288071818649768,-0.0143638830631971,-0.0050169513791799,-0.2671834230422973,-0.0027148849818855,0.045220659212768,76
1733405447431312000,0.0069821139723062,-0.2249754610776901,-0.2105256050406024,3.731413848496973,9.04835559772849,0.6117042033836245,-0.1562802046537399,0.3669783771038055,0.2795892059803009,-0.6684518458461035,-0.4765251471862927,0.4916660961767517,0.2904483738657811,0.2498614937067031,0.1588414013385772,-0.1524663865566253,0.0226985216140747,0.066447913646698,0.0555573105812072,0.0456173568964004,-0.0060363691300153,-0.0439817650675773,-0.2575305104255676,-0.0055428749494254,0.1057546228915452,77
1733405447471312000,0.3920128201887011,-0.1509223828732967,0.1688566104274243,3.826420575141906,9.001237872722744,0.7117605415683239,-0.0795949026942253,0.3836776614189148,0.3101275265216827,-0.6746607894523629,-0.4737351589632584,0.4891679796979459,0.2848201005923034,0.1565720289945602,0.127160757780075,-0.1361288130283355,0.0221136808395385,-0.0362526774406433,0.0525921285152435,0.0658423751592636,-0.0245671924203634,-0.0293143572896718,-0.2359523028135299,0.0219053231421858,0.0828767283901572,78
1733405447511312000,0.3630810324758291,-0.1382125389039516,-0.0395371336836367,3.9095211754158137,8.958600508001446,0.7934110891643911,-0.0839704722166061,0.331315129995346,0.1901313513517379,-0.6804199126330983,-0.4723912463050743,0.4862034601369983,0.2783548686980435,0.1719155609607696,0.1371535360813141,-0.1299903094768524,0.0490930676460266,0.0065401196479797,0.0452777445316314,0.0728185847401619,-0.0335072576999664,-0.0571568884611129,-0.2177429348230362,0.006428206416592,0.0174392105787992,79
1733405447551311600,-0.0561509262889623,-0.2314958027571439,0.3019868045657873,3.9537615914195774,8.932922461387514,0.8608468681208788,0.0419400557875633,0.3748040199279785,0.1754557341337204,-0.684945816304395,-0.472244050895633,0.4827986946902545,0.2733866350425611,0.0392355434596538,0.0888420790433883,-0.1390290111303329,0.0485599040985107,0.0107181668281555,-0.0278244912624359,0.064607635140419,-0.0223365314304828,-0.0517974072545766,-0.1964639574289322,0.0044335254680365,0.0032376667469739,80
1733405447591311600,-0.0691372491121292,-0.0435299296468496,0.2223579720556736,4.023460566067695,8.89923237323165,0.8864567448694258,0.1317848563194275,0.3990959823131561,0.3034439384937286,-0.6889895684731994,-0.4735060966020522,0.4802033543544766,0.2654996639769221,-0.1847501546144485,0.11443392932415,-0.2665719091892242,0.033537209033966,0.0722572803497314,0.0198130309581756,0.0503556504845619,-0.0193846151232719,-0.0830664057433605,-0.1790462881326675,-0.0250088421154767,-0.0054021513044834,81
1733405447631311600,0.3027449294567108,-0.049157706400752,-0.2425783377856016,4.126078936760127,8.849644458720087,0.9108601684376596,0.1154862344264984,0.4844156801700592,0.3359207808971405,-0.6938325914419251,-0.4747297345909343,0.4776931402591262,0.2550242319470075,-0.4649304151535034,0.2398753762245178,-0.345974862575531,-0.0248212814331054,0.0284062623977661,0.1317008733749389,0.0433442629873752,-0.0230564884841442,-0.0773234781771898,-0.2056477069854736,-0.0101629359655082,-0.0176753574222326,82
1733405447671312000,-0.0668260495603084,-0.0723877753406763,-0.4924585960824042,4.226152299144864,8.793116515812278,0.9955400007270276,-0.1983278542757034,0.4852537214756012,0.3951887190341949,-0.6998597288229256,-0.4731035647102748,0.4747784784794763,0.2468899881554594,-0.3149172067642212,0.1496998369693756,-0.3032759428024292,0.0100036859512329,0.0433497428894043,0.0217912793159484,0.0363328754901886,-0.0267283618450164,-0.0710574035197496,-0.2322491258382797,0.0048019203890115,-0.0302384863972663,83
1733405447711312000,0.0044818215891718,0.0924509046822786,-0.2115156755238771,4.354311938329041,8.703246859794854,1.2098976216785609,-0.2978396117687225,0.7930938601493835,0.4942550659179687,-0.7111651092946027,-0.468354901841138,0.4679274253385978,0.2364991506841881,-0.4641301333904266,0.0223103482276201,-0.2573894560337066,0.0772553086280822,-0.0526269674301147,-0.0460170209407806,0.0286807194352149,-0.0152884777635335,-0.0317214184314012,-0.2464240938425064,0.0020760756216943,-0.0132175012305378,84
1733405447751312000,0.1016749523624777,0.2527028414368629,-0.1046481229543685,4.4809766627803445,8.603898012292385,1.436722071623802,-0.1897413581609726,0.7740707397460938,0.4496257901191711,-0.7232148096952931,-0.4641276435463615,0.4597097890996484,0.2240821050621314,-0.5016836524009705,-0.0730654373764991,-0.2552852928638458,0.0375329256057739,0.0335005521774292,-0.0076529085636138,0.0172703601419925,-0.0026860125362873,-0.0483247627079486,-0.2310918271541595,-0.0102877313889563,-0.0082803370893001,85
1733405447791311600,-0.5416100919380784,0.002301262679696,0.195010530924797,4.584368940454721,8.515669693741202,1.6239841803789137,-0.1146399155259132,0.7068175077438354,0.468382179737091,-0.7332526994203211,-0.4610528501307513,0.4523606051386193,0.2124634154844235,-0.2896624505519867,-0.042357861995697,-0.2002319097518921,0.0437822937965393,-0.0186873078346252,-0.0712510645389556,-8.97124409675e-05,0.0183827076107263,-0.0622954203933477,-0.2014363557100296,-0.0193243667382746,-0.0247428115904331,86
1733405447831311600,-0.5971814647734165,0.0315068988978862,0.4161069586120545,4.717302954433858,8.410297932687401,1.7844632038876411,0.0722945481538772,1.0227067470550537,0.6859959959983826,-0.7432409373236714,-0.4593497348974851,0.4449893473216571,0.1964054284859765,-0.2248544245958328,0.0727733597159385,-0.1240036562085151,0.0092322826385498,-0.0074750781059265,0.0533788800239563,-0.0130506353452801,0.0257454384118318,-0.0493365700989961,-0.1938390433788299,-0.01772920650132,-0.0292044671744108,87
1733405447871311600,-1.0372387694239615,-0.0557639727979898,0.2947717586204409,4.893399233791232,8.269221236523986,1.960864895932376,0.2881729900836944,1.3757376670837402,1.0047560930252075,-0.755183514799209,-0.4590464854030983,0.4350862449707754,0.1722614864630008,-0.4080239832401275,0.0564985200762748,-0.077303722500801,0.0127622485160827,-0.0226935148239135,0.0390297174453735,-0.0260115582495927,0.0331081673502922,-0.0359264689058065,-0.1862417310476303,-0.0162137604370713,-0.0339314956963062,88
1733405447911312000,-1.4067992270469665,0.1824228520303964,-0.645070174151659,5.170035324001312,8.050488469228148,2.1519208440124986,0.407487690448761,1.7478502988815308,1.4943630695343018,-0.7690850885620812,-0.4593812541012282,0.4233809550421006,0.1350023169235422,-0.6074721217155457,0.1666420698165893,0.0301646124571561,0.0224301218986511,-0.0672823190689086,0.0636804848909378,-0.0280162915587425,0.0107162147760391,0.0209399121761322,-0.1811559200286865,0.0132057377275079,0.0215630125105381,89
1733405447951312000,-1.3095038049429657,0.0180067813336849,-1.340088912820816,5.543499803325534,7.713617982807755,2.4372319697178897,0.4090825915336609,2.0863211154937744,1.9746936559677124,-0.785335735591218,-0.4555181621642047,0.4101694278746883,0.086672450210874,-0.4065560400485992,0.1204353645443916,0.0999124646186828,0.0788038372993469,0.0412889122962951,-0.0179589092731475,-0.0123437494039535,0.0171347595751285,-0.0069885437130928,-0.1639645099639892,-0.0252558026138693,0.0917868878155946,90
1733405447991312000,-1.365833594930172,-0.280897839307785,-1.184657528090477,5.962102232015132,7.266280458021163,2.797301983809471,0.444753885269165,2.103505373001098,2.308778047561645,-0.8010582537561797,-0.4474030664611209,0.396494377758405,0.0304702159809806,-0.0608532391488552,0.1435694992542266,0.1409067809581756,0.0420429110527038,0.0704823732376098,0.0010001361370086,0.0024525336921215,0.0166908353567123,-0.0037543840974569,-0.1646964102983474,0.0240782102018594,0.0550683917492628,91
1733405448031312000,-1.6246856066465376,-1.4834312158286571,1.390744164302945,6.407103422808647,6.714911480873822,3.166917971011996,0.9463210105895996,2.1687326431274414,2.688299655914306,-0.8126357254406495,-0.4369199061922043,0.3842305550545781,-0.0330309710942384,-0.131984144449234,0.1641919612884521,0.1598697453737259,0.055236279964447,0.0621019601821899,0.0013875365257263,0.0107872812077403,0.0089967604726552,-0.0144563953757286,-0.1665312945842743,0.0124891869559884,0.0451888027697801,92
1733405448071311600,-0.3935813846796751,-1.9111060087680816,0.1715945840239524,6.850593039995432,6.194632053995132,3.2964062284514304,1.7138242721557615,1.6943206787109375,2.6213247776031494,-0.8105821462992503,-0.4381131432510178,0.3741482698724244,-0.1050074534907522,-0.2223161607980728,0.1497365981340408,0.2650937736034393,0.0234085917472839,-0.016450822353363,-0.0362440943717956,0.0154488524422049,0.0009689200669527,-0.0080307462424039,-0.1566082686185836,0.0309753493044525,0.0562491259664297,93
1733405448111311600,-1.0576572880744934,-1.536710970595479,-1.667291114924848,7.243825465106964,5.671795928370952,3.395305578620732,0.9281954169273376,1.306287407875061,2.46600079536438,-0.8027587426523854,-0.437819060455754,0.3676983233008726,-0.1693833559205346,-0.2590230405330658,0.1132110655307769,0.2974804639816284,-0.0067052245140075,0.0439275503158569,0.0297747254371643,0.028793029487133,-0.005875167902559,-0.050987259915471,-0.1457216739654541,0.0069995034985244,0.035793197914958,94
1733405448151311600,-1.0768547404974698,-0.9177630796939134,-0.985670494750142,7.600605351611971,4.9995776350528,3.661340195317566,0.1455105394124984,1.3277344703674316,2.565183401107788,-0.7977552183380933,-0.4226651523045123,0.3669846994914754,-0.224194158013735,-0.2830498218536377,0.1654283553361892,0.3509294986724853,-0.0501930117607116,-0.0112212300300598,0.029652714729309,0.0331633165478706,-0.0008815512992441,-0.0461509258002042,-0.1643911600112915,0.050329818920046,-0.0378653280138969,95
1733405448191312000,-1.5730565416961908,-1.2185247263789176,0.7243827803194522,7.945973032742739,4.109223955810069,4.018231725503504,0.1909542977809906,1.3674862384796145,3.3081986904144287,-0.7913745135597727,-0.3963601539986653,0.3715182730319004,-0.2803555581147992,-0.1515093743801117,0.1914640069007873,0.470828503370285,-0.0217992067337036,-0.0834754705429077,-0.0453027486801147,0.021689273416996,-0.0025850206147879,-0.0908341171354055,-0.1497737616300583,0.0150829297762364,-0.0050870940059423,96
1733405448231312000,1.228615912282467,-0.4356806970015168,1.6107523583620786,8.093357889139652,3.07034998639971,4.608785004308819,0.5798819661140442,2.4580256938934326,3.2928385734558105,-0.78098082656663,-0.3648803616416711,0.3631524294045804,-0.3536263762610769,-0.1571960151195526,0.1513099372386932,0.462358683347702,-0.0497503876686096,-0.020670473575592,-0.0173353552818298,0.0120254419744014,-0.0023229725193232,-0.0796159730285406,-0.1329412162303924,0.0545744707524776,-0.112222942122817,97
1733405448271312000,0.3607119652569294,-0.859072113533318,2.038942115086317,7.953302937239408,2.23199727415964,5.285220038539171,0.4038222134113312,1.6861040592193604,2.541012048721313,-0.7712060522038262,-0.3343323693267506,0.3446021403071003,-0.4179862442472756,-0.2148145735263824,0.0502536743879318,0.4317990243434906,-0.0198303461074829,-0.0635965466499328,-0.058622121810913,-0.0060235299170017,-0.011082399636507,-0.0491518611818551,-0.1084551662206649,0.1039065838720649,-0.037331659528613,98
1733405448311311600,-0.580831802996993,-0.302586962416023,2.671504105320573,7.970833917754888,1.6060799826368688,5.482398561152816,0.3993507325649261,-0.2170284390449524,2.0312116146087646,-0.7544671993967027,-0.3183370302600654,0.3451623000158281,-0.4585887712689118,-0.2491304576396942,-0.0155236907303333,0.3748961091041565,-0.0234084129333496,-0.0280973315238952,-0.0265196561813354,-0.0244959685951471,0.0143870078027248,-0.0856780495464801,-0.1058907881379127,0.07948409027718,-0.0832505301386117,99
1733405448351311600,0.7616372829586266,-0.071825538348034,3.2753438589394093,8.030769038757681,1.1315591943051666,5.513321522682904,1.1538876295089722,0.931643009185791,2.14113712310791,-0.7318029853564229,-0.3138185903402873,0.3470111456616324,-0.4955458048481904,-0.2958431243896484,-0.0672007873654365,0.2809048891067505,-0.0251898169517517,0.0569146871566772,0.0195945501327514,-0.0429684072732925,0.0398564115166664,-0.1220820728361606,-0.1033264100551605,0.0550363161105662,-0.1292559099882841,100
1733405448391311600,1.759349513158202,0.9253812996126712,0.5483107586205005,7.8943702712774275,0.6944455418910831,5.776421254971623,0.8727163076400757,0.6656230092048645,1.883278727531433,-0.7093343836180219,-0.305061902394753,0.3352934721110732,-0.5397779625563712,-0.1796451359987259,-0.0652505531907081,0.1446451842784881,-0.0129483342170715,0.0162182450294494,-0.0646266192197799,-0.0757133290171623,0.0641591399908065,-0.1062041202247142,-0.0924542173743248,-0.014515797412768,-0.0550794976651668,101
1733405448431312000,1.948047207674384,0.4283906495912,0.9162871619224549,7.843639031949639,0.3703749888762832,5.8745665719032285,0.5311189293861389,0.0691021904349327,1.2051098346710205,-0.6918160657148616,-0.2996941282710865,0.332661823101764,-0.566489242629407,-0.1657351851463318,-0.0420098938047885,-0.0013084912206977,-0.0321473479270935,0.0243566036224365,-0.0012467354536056,-0.0981073230504989,0.0881087407469749,-0.0575619621306657,-0.0918036624789238,-0.0374035557210445,-0.0636228696048259,102
1733405448471312000,2.152563818091154,0.106367969016917,0.7910089233934878,7.805369799309968,0.1896152477525174,5.933854627174139,0.7841165065765381,0.5020422339439392,1.0013089179992676,-0.6763340940677939,-0.2994580793823798,0.3283024131188588,-0.5874645264207485,-0.1118972525000572,0.0127442730590701,-0.0107497964054346,-0.0113312005996704,0.0110831260681152,0.0177713632583618,-0.1195010840892791,0.1109691113233566,-0.075099956908822,-0.105164922773838,-0.0820600051797926,-0.0452075074702501,103
1733405448511312000,2.8753239656448364,-0.1652965798582881,0.1727004994392394,7.634922047233581,0.0936201767905149,6.153827165398002,0.793373703956604,0.8650544881820679,0.7639849185943604,-0.6653734224457258,-0.295287647036747,0.3147178625090831,-0.6091273308277585,-0.2623344361782074,0.1319231837987899,0.0326732471585273,-0.0200709104537963,-0.0593475699424743,0.0465846806764602,-0.1365115791559219,0.1225546672940254,0.0536444964259862,-0.0964981839060783,-0.0591737081762403,0.0717401250869035,104
1733405448697628000,0.3028250089555979,0.1928836749639361,0.1383259361505508,7.343207630357146,-0.2513918501698411,6.49495881639421,-0.4052975177764892,0.3245474398136139,0.3985568284988403,-0.6638516700281081,-0.2712370223867486,0.3086741403674248,-0.6248614384160195,0.1548953056335449,-0.2642383277416229,0.0938350707292556,0.0239161252975463,0.0449792742729187,-0.0208210349082946,0.0277607664465904,-0.0379008240997791,0.0600267037098063,-0.0916807204484939,0.0058320117845985,0.1542259179307147,105
1733405448737627600,0.7304536246657372,0.0712874494159594,0.5551426504671574,7.244183192503452,-0.417848285854049,6.59678662123084,-0.2457587569952011,0.4449792802333832,0.1832013577222824,-0.6620152922832007,-0.2617733612160757,0.3084350908110374,-0.6309343793271793,0.0109961796551942,-0.2424206435680389,0.1992768198251724,0.015255331993103,-0.0222375988960266,0.0341944843530654,0.038213811814785,-0.0438656099140644,-0.0019639935493469,-0.1017415300011634,0.0130862760663032,0.1194809504270553,106
1733405448777627600,0.7173807926028967,-0.1243142158024013,0.1014250692546367,7.1183923282772295,-0.5466607994563877,6.723097125416993,-0.2520662844181061,0.3489026427268982,0.2406134307384491,-0.6602111303359334,-0.2528677918164658,0.3054100981615351,-0.6378900909182644,0.2855840623378753,-0.0920326858758926,0.2666134238243103,0.0090267062187194,0.0150029063224792,0.0229430198669433,0.0486668571829795,-0.0498303957283496,-0.0638099166095256,-0.1118023470044136,0.0204475986145436,0.0846644885897636,107
1733405448817628000,0.2697065832078457,-0.2513397363901138,0.5706435864597559,7.112664598280191,-0.6096751087088137,6.723740684017539,-0.1274950206279754,-0.3026587963104248,-0.1027263551950454,-0.6587917567185575,-0.2508142512911249,0.3070453535750031,-0.639381573490842,0.4897502660751343,-0.0183519665151834,0.2676042020320892,-0.0053141117095947,0.0032266974449157,-0.0080138444900512,0.0387058369815349,-0.0446430407464504,-0.0729056617349386,-0.1293513178825378,0.023513854317367,0.0457324081271886,108
1733405448857628000,-0.3583785538733005,-0.1194646568793803,0.7422305716991424,7.1728756136149165,-0.6402452382132411,6.656600746202469,0.1349701434373855,-0.0706087797880172,0.2907929718494415,-0.6537131685217605,-0.254252311443221,0.3097798683333159,-0.6419122976571421,0.5244637727737427,0.0062830708920955,0.1693314313888549,-0.0323923826217651,0.0377928018569946,0.0263348221778869,0.0146989598870277,-0.0270439125597476,-0.0629044922024011,-0.1537509113550186,0.0216956259142607,0.0106757077932357,109
1733405448897628000,0.4244125762730836,0.1370408647760748,-0.7362789698183536,7.177177694723009,-0.6887548559688031,6.647113955932856,0.0254953503608703,-0.0471320040524005,0.2345974147319793,-0.6473795931276715,-0.2555278309260359,0.3095109820705404,-0.647926046066861,0.7445175647735596,-0.0115435430780053,0.1834339350461959,0.004148781299591,0.0336158871650695,0.0211742669343948,0.0041527533903717,-0.0165889896452426,-0.0429337173193693,-0.1654811203479766,0.0231282160006463,0.0367336936354637,110
1733405449055593500,-0.3521510576605796,-0.2442731590047478,-0.2571989838123321,7.053821364167332,-1.313903062815219,6.684882837834954,-0.4505484998226166,0.1311609447002411,0.2487685233354568,-0.6423111022634032,-0.2287388734084216,0.3268705655206999,-0.6544239701845136,1.8592342138290403,-0.3481045067310333,0.5220012664794922,0.056982398033142,0.0410491824150085,-0.0055199563503265,0.0399244911968708,-0.0631606802344322,0.0066493434913834,-0.1293993294239044,0.0694721162228379,0.0090572665745712,111
1733405449095593500,-0.5927110413610935,0.1077894897200167,0.181668234270811,7.061245376688242,-1.5057038379132748,6.63641895891726,-0.396315336227417,-0.3547370433807373,0.2372514456510543,-0.6398768627215791,-0.2226524287157799,0.3347576477917969,-0.6549205751902886,0.828537106513977,-0.3387897610664367,0.3695778846740722,0.0081087350845336,0.0059194564819335,0.0119810104370117,0.0291491858661174,-0.0550004430115222,-0.0157400054454803,-0.1149456351995468,0.0688520024299621,0.0450251366406679,112
1733405449135593500,-0.8034791133880614,0.1877775109313428,0.2266214747190475,7.152303365707397,-1.6708356556639077,6.49794221611917,-0.3577436208724975,-0.4553518891334533,0.276464968919754,-0.6352800360266262,-0.2217897373849487,0.3456970630954931,-0.6540047058325367,0.1774613261222839,-0.2999127507209778,0.3921762108802795,0.0019949674606323,-0.0145192742347717,0.0377554893493652,0.0157765168696641,-0.0444002524018287,-0.0486123474776744,-0.1075537055730819,0.0867331846226006,0.0212374338179826,113
1733405449175593500,-0.5775502971082925,0.5569307029277086,0.4124322156220674,7.223704468098282,-1.8566829291850329,6.3671986979216335,-0.194499522447586,-0.2434059232473373,0.5883451700210571,-0.6270454608233723,-0.221385740288012,0.3554596727620339,-0.6568492105414955,0.0911173745989799,-0.0699593424797058,0.489944726228714,0.004948079586029,-0.0646859407424926,0.048805832862854,0.0092021198943257,-0.0253312364220619,-0.0401923096567392,-0.0883926674723625,0.093707699810341,0.0624006343334913,114
1733405449215593200,1.028183356308937,0.5927616025045513,-0.2285445517361164,7.22253483979702,-2.106345964534581,6.290363880044222,-0.3727535903453827,-0.2606044113636017,0.4984550476074219,-0.6187226095544829,-0.2159534800078218,0.3642043214112589,-0.6617413489765595,0.1569656431674957,0.1050091683864593,0.4517819583415985,-0.0377127826213836,0.0187379121780395,0.0628775358200073,0.0057117687538266,-0.0109071545302867,-0.0480921229958534,-0.0746048539876937,0.0701281598456203,0.0475064320623874,115
1733405449255593500,0.6869494139820337,0.3367686334811151,-0.1639174735248088,7.30998399066925,-2.2828055242463945,6.125629244917631,-0.3609638810157776,-0.6059040427207947,0.1617123484611511,-0.6123438511452023,-0.2156902731511104,0.3757093894339815,-0.6613284389594347,-0.0014642174355685,0.0273891016840934,0.3258618414402008,-0.0203268229961395,0.0018414258956909,0.023460179567337,0.0056417458690702,0.005729753524065,0.0045277065575122,-0.0622042268514633,0.0722979781653732,0.0832557908356189,116
1733405449295593500,0.0462859503567218,-0.0215419697225093,-0.3181283765494823,7.410155844992399,-2.4329634986184536,5.944801553124189,-0.4172990620136261,-0.3411344289779663,0.2680899202823639,-0.6075981271553782,-0.2160452949649951,0.387587270599062,-0.6587299265855362,-0.257207304239273,-0.0889797434210777,0.2233093678951263,-0.0341493785381317,-0.0037686228752136,0.0386931002140045,0.0110693871974945,0.0055707641877233,0.046839492586255,-0.0541142262518405,0.0689949180319905,0.0970060837686061,117
1733405449335593500,-0.7079495319128036,-0.3283560483142733,0.9491583349108696,7.400491360068321,-2.6465891520336267,5.865038865101337,-0.2508085072040558,0.0479692891240119,0.5597698092460632,-0.6027585163563196,-0.2099148620158229,0.3961085416573093,-0.6600879158957378,0.2046804279088974,-0.1017818301916122,0.2356429398059845,0.0193409621715545,-0.0002630352973937,-0.0324382483959198,0.0164970271289348,0.0054117748513817,0.0891834273189306,-0.0460242256522178,0.0656940498556941,0.1107265660852193,118
1733405449375593500,0.1974415574640035,-0.0746408149644732,0.5692261208772659,7.329030636444687,-2.839102605445683,5.864741343459487,-0.0468969084322452,-0.0568960346281528,0.5408837199211121,-0.5957092249841673,-0.2037545493396373,0.3993312962340655,-0.6664451661345555,0.1063075140118599,-0.2440680712461471,0.2660501897335052,0.004714161157608,-0.0323924422264099,-0.0315496921539306,0.0283934082835912,0.0005165343172848,0.0655973845481872,-0.0381590165197849,0.0532264902096241,0.1232709903597831,119
1733405449415593500,0.7596580918401479,0.1206710369944572,0.3776829738020896,7.326458155608177,-2.9790485440135,5.798159624049068,-0.0136524355039,-0.305340051651001,0.3280867636203766,-0.5885023984212014,-0.2023526764206829,0.4042641842913745,-0.6702900022045112,-0.0046477601863443,-0.1449533104896545,0.2426475882530212,-0.028627336025238,0.0142542719841003,0.0130414962768554,0.0402897894382476,-0.0043787057511508,0.0420212786495685,-0.0302938073873519,0.0407704018056392,0.1357990480214357,120
1733405449455593500,0.3855845407068729,0.1334399176746606,-0.1707435201525688,7.354270876163244,-3.0590047087818384,5.720801659080386,-0.0246451143175363,-0.1833152025938034,0.2576086223125458,-0.5826021943298862,-0.2037394270213659,0.4084244499231643,-0.6724985985518513,-0.2477408349514007,-0.1426922976970672,0.2220502197742462,-0.0037343800067901,-0.0181845426559448,-0.0020745992660522,0.0497182495892047,-0.0091378297656774,0.010772153905034,-0.0374794155359268,0.0343012788567692,0.1176946515321731,121
1733405449495593500,0.2114414412438869,0.0454182276114821,-0.2608189278751611,7.353486447787285,-3.1568329225882885,5.668422652545571,-0.1539450883865356,-0.0870489925146102,0.2889092564582824,-0.5781913232147399,-0.2024759610103306,0.412303735256031,-0.6743172601303878,-0.22300885617733,-0.0918207019567489,0.2030520290136337,0.0025822222232818,-0.0027663707733154,0.0270123183727264,0.0541433915495872,-0.0080891279503703,0.0039542905837297,-0.0369312018156051,0.0425313470635563,0.0836877525120973,122
1733405449535593500,0.4155582386881112,-0.2010077255129814,0.1807932050019502,7.280153500550985,-3.2771687362790107,5.694727306625246,-0.0523522719740867,0.1596459597349167,0.3273276686668396,-0.5752557056381539,-0.1967165051839609,0.4134638195567748,-0.6778135916117257,-0.1815618127584457,-0.143274039030075,0.2408434897661209,0.0209652185440063,-0.0243650674819946,-0.0169243216514587,0.0526761449873447,-0.0064282454550266,-0.0275374107450246,-0.0283650383353233,0.0091387805495411,0.0644926381766796,123
1733405449691974000,0.4604933589577674,0.2127203751385211,-0.1389741709262132,7.189129998323321,-3.468385427878797,5.697113324978948,0.039133995771408,0.0763919502496719,0.13504558801651,-0.5653415512069869,-0.1917152923374955,0.415660088955043,-0.6861930532546565,3.464160919189453,-0.2235793024301529,0.9685470461845398,0.0079582333564758,0.0135058760643005,-0.0260897874832153,0.0219374075531959,0.0321316570043563,-0.1407643057459965,0.0117503348737955,-0.049068379582907,-0.0367221242119674,124
1733405449731748400,0.031596915268898,0.0256961667925119,-0.0215682732075452,7.164325811934471,-3.4868139417558908,5.717074747511744,0.0654694512486457,0.0253576878458261,0.1094917580485344,-0.5641217364825644,-0.1907797272196197,0.4148655178112455,-0.6879362581406117,4.344862937927246,-0.0415140651166439,1.0531203746795654,-0.0602363646030426,-0.0065841674804687,0.1491732895374298,-0.0045490167103707,0.0342056490480899,-0.0201474763069418,-0.01102433539927,-0.0289048494735965,-0.006527019727879,125
1733405449771748400,0.0177636202275753,0.1928559832394123,-0.1649070690840482,7.13521311469674,-3.5195991900265216,5.733371217796206,0.0144377881661057,0.0224908106029033,0.2025216370820999,-0.5620105891707826,-0.1896477641239679,0.4143828458106228,-0.6902642746886286,2.030979871749878,0.1901199072599411,0.7151510119438171,-0.0714219808578491,0.0467603206634521,0.1043078899383544,-0.001997725572437,0.0256009846925735,-0.0112491237670183,-0.0049988604150712,-0.029849852405861,0.019664485412836,126
1733405449970336300,0.266841256904602,-0.101823713183403,0.1663952618151903,7.018265482139587,-3.78127181212157,5.711070538660883,-0.0190999619662761,-0.013333891518414,0.1020014137029647,-0.55261298764184,-0.1805753586544016,0.4197725490081865,-0.696995311297234,-2.6257593631744385,-0.2846566438674927,0.1321461051702499,0.081616997718811,-0.1888105869293213,-0.046741247177124,0.0157746169716119,-0.0472102873027324,-0.1556449178831651,-0.0941661298274993,0.0471058108056662,-0.135662964018993,127
1733405450010107600,0.2321171495258808,-0.0917816271185874,-0.1571077935099601,6.996725850504636,-3.813610193407536,5.715995135581493,-0.0419901274144649,0.0786028280854225,0.1029966101050376,-0.5514189403242709,-0.1792000594204412,0.4200627303709577,-0.6981202783511595,-0.6924439668655396,-0.4466097950935364,0.1613497287034988,0.0755331814289093,0.0899249911308288,-0.0950144231319427,0.0261170081794261,-0.0610979907214641,-0.1617426502363756,-0.1027688682079315,0.072898432843131,-0.1467532987614162,128
1733405450050107600,0.1938385645359754,-0.2026113613173365,-0.1447024854451417,6.95988577388525,-3.852717045915127,5.734713280054927,-0.1366307437419891,0.0936329737305641,0.0336304642260074,-0.5518905827644047,-0.1759640467929589,0.4202947080923644,-0.6984308749164411,0.236123040318489,-0.2615502178668976,0.2769771218299866,0.0271724164485931,0.0923117399215698,0.0241360068321228,0.0316503047943115,-0.0416636765003204,-0.198816937470436,-0.0478845462203025,0.0743850866377353,-0.222685304313898,129
1733405450090107600,0.2662584885805845,-0.1514431918770074,0.197845462089777,6.963781612280011,-3.8829362430900334,5.70954785913825,-0.0588043518364429,-0.0934664756059646,-0.0032630828209221,-0.5516544235393779,-0.1750803796380085,0.4221859117613249,-0.6976985861260038,-1.34773588180542,-0.3543442487716675,-0.0066713653504848,0.0092352777719497,-0.1177800297737121,-0.0603187680244445,0.038764551281929,-0.0355058312416076,-0.1987608233690261,-0.0221072752028703,0.0875544378776103,-0.2877233014136552,130
1733405450130107600,0.1930190648466348,-0.1950043934449553,-0.0512684149444103,6.976866719302534,-3.8766348048582673,5.697843392819165,0.0219987202435731,-0.0381889231503009,-0.0367753989994525,-0.5515718041869061,-0.1758831341298461,0.422558825592216,-0.6973361528617583,-1.5457555055618286,-0.5807804465293884,0.2299403697252273,0.0307077765464782,-0.0312081575393676,0.0228921771049499,0.0472710169851779,-0.0477874428033828,-0.149552848085761,-0.0099470382556319,0.0962356839179992,-0.2752180401057005,131
1733405450170107600,-0.1387473764330148,-0.0527183214917778,0.4546043009191751,6.969703403544425,-3.876016672959924,5.7070233090966935,0.0034018321894109,0.0951837450265884,0.034275833517313,-0.5521843421004435,-0.1752589791438202,0.4222642374812089,-0.6971869607155382,0.2665701508522033,-0.3750029802322387,0.157226026058197,-0.1438370048999786,0.1369476318359375,-0.0432147681713104,0.058236751705408,-0.0336929485201835,-0.1675415092408657,0.0078253960236907,0.0307858911469578,-0.1856377224236726,132
1733405450210107600,0.482784685742855,0.0576084316208958,0.4537924000144004,6.960189140745997,-3.8696266796618697,5.722948607981205,0.1416943371295929,-0.0440042614936828,-0.0021427320316433,-0.5515820259578605,-0.1755037487070742,0.4211998031726559,-0.6982452436439481,0.8107418417930603,0.3183618485927582,0.1907955706119537,-0.1069642901420593,0.1656131744384765,0.1612786650657653,0.0670015886425972,-0.038241684436798,-0.1164157176375389,0.019999299198389,0.0570053511612117,-0.1018663832813501,133
1733405450250107600,0.1923930419027805,0.0065673956915736,-0.2439338440477848,6.988415702798962,-3.803621883356571,5.732790203037857,0.0841801017522811,-0.0890312939882278,-0.1173719316720962,-0.5517786005011724,-0.1790474173441541,0.4191074561598703,-0.6984492103808047,0.9699429869651794,0.5037294626235962,-0.1194199547171592,-0.0170255452394485,0.0736225247383117,0.1863006055355072,0.0757664293050766,-0.0427904203534126,-0.0652899260342121,0.0321732014417648,0.0831863788612186,-0.0181155024051666,134
1733405450290107600,-0.1376227563172578,-0.077800448039174,-0.1077332294881343,7.038310491302609,-3.7563638730973,5.70283287166953,0.1001774668693542,-0.1500472277402877,-0.0660144537687301,-0.5515246002949483,-0.1829775707137685,0.4192322251444664,-0.6975558326000318,0.1855093985795974,0.5393248796463013,0.0007291596848517,-0.0318785905838012,-0.040785014629364,-0.0108735561370849,0.0684783905744552,-0.0538711138069629,-0.025669863307476,0.0353195928037166,0.101627898350358,0.011085457637906,135
1733405450330107600,-0.107879359960556,-0.0628787732392549,-0.2125742446660995,7.066327209997176,-3.721156950637698,5.691255831122398,0.0995524004101753,-0.0710874497890472,-0.0269472301006317,-0.5510247692529102,-0.1857354111594973,0.4187231496539588,-0.6975277405459638,0.2157932668924331,0.3215129375457763,-0.1473963856697082,0.0875491648912429,-0.0832948088645935,-0.0770768523216247,0.0556189492344856,-0.0585680976510047,0.0103401922285556,0.0308847576379776,0.1198046294234693,0.0417605818867683,136
1733405450370107600,-0.085322075715661,-0.2884127449825406,-0.3056242842853069,7.090905770936608,-3.7061630873844025,5.670431654280423,0.0370562337338924,-0.0063825235702097,0.0579729452729225,-0.5498408673970329,-0.1879896635580219,0.418984876156852,-0.6977009079153332,-0.4453822672367096,-0.4817608892917633,0.0256443638354539,0.2673821449279785,-0.2935022115707397,-0.2408155798912048,0.0468546859920024,-0.0560034848749637,-0.0379003993272781,0.0067059192806482,0.1005492362681776,0.0445440751254558,137
1733405450410107600,0.2959416791826486,0.0916363734290003,-0.3382593104302883,7.074608131608366,-3.718702250961959,5.682566328710317,-0.0166210103780031,0.0012255165493115,0.0058464645408093,-0.5491636965537731,-0.1872715312477943,0.4185679276546956,-0.6986769727637456,-0.4447492361068725,-0.4923437833786011,0.2516850233078003,0.0813888758420944,0.0240554213523864,0.0061015188694,0.0314603447914123,-0.0471795201301574,-0.0415863943636417,-0.0130462534725666,0.1124727521654218,0.0717681821376085,138
1733405450450107600,-0.1269417878270149,-0.0394832846045494,-0.0934071824938058,7.062046756199002,-3.7295886788964254,5.691050663939118,-0.0472790859639644,0.0134912068024277,0.0102955000475049,-0.5499068756001515,-0.1859127771316791,0.4186569129203379,-0.6984019782831022,0.1986409127712249,-0.2040105611085891,0.305670291185379,-0.0930944085121154,0.1839134097099304,0.087120234966278,0.0287873242050409,-0.0382220707833766,-0.0685702628791332,-0.0179841890931129,0.0692344258762896,0.0233650934964418,139
1733405450490107600,-0.0730050304561853,0.2201741982758045,-0.0700391663879156,7.065719307231903,-3.736807524234056,5.681748582586645,-0.0393584296107292,-0.0241201166063547,-0.0127539951354265,-0.5501520967618136,-0.1856315070488179,0.4193475580349951,-0.6978691394683862,-0.2841017544269562,-0.0418503172695636,0.0008541950955986,-0.1107064485549926,0.0800244808197021,0.1052067279815673,0.0288393609225749,-0.025641331449151,-0.0601309358358383,-0.0246016960591077,0.0728272627364844,-0.006283025792241,140
1733405450530107600,-0.112819738972187,-0.0290972074076533,-0.0976397054970264,7.058847083374857,-3.763916772694885,5.672388633567095,-0.0582334510982036,0.029117053374648,0.1198433190584182,-0.54946847203943,-0.1847263089192244,0.4203152010376623,-0.6980657087448163,0.0138412360101938,0.3544163703918457,-0.2016754746437072,-0.0895182341337204,0.0764039754867553,0.1058007180690765,0.028891397640109,-0.0130605921149253,-0.0516775802671909,-0.0312192030251026,0.0764373429924249,-0.035942250996828,141
1733405450570107600,0.3407937973439693,-0.0592222965583205,0.1716775861322879,7.0318515244215725,-3.801128605236113,5.681098009723424,-0.0009306112769991,0.0358872935175895,0.0729135051369667,-0.5486083623893093,-0.1827478030445111,0.4206517173602385,-0.6990595526544141,0.5762315988540649,0.5138341188430786,-0.1958475410938263,-0.0291945189237594,0.0935842990875244,0.0129179060459136,0.0279084052890539,-0.0153986606746912,-0.0643166970878839,-0.031803835183382,0.1231939065355807,-0.0658995823651552,142
1733405450610107600,0.2574801388412714,-0.0949409679323434,0.0254687877774238,7.015505954298376,-3.8158378063291294,5.691435863864421,0.0275803655385971,0.029889989644289,0.0722961649298667,-0.5477380165710162,-0.1820614715062256,0.4203226756124583,-0.7001182397170598,-0.137381836771965,0.3113111853599548,-0.2230248302221298,0.0758271515369415,-0.1566260457038879,-0.0376216769218444,0.0209863130003213,-0.0029955115169286,-0.0897176803261041,-0.0258946660906076,0.1160547753706574,-0.0516658898293971,143
1733405450650107600,0.3550269053578376,-0.0962269160896539,-0.2844254289120435,7.019263845527171,-3.82742069209516,5.679010682055353,-0.0252256281673908,-0.1027959138154983,0.0119054829701781,-0.5466289075110046,-0.1824296600005222,0.4209162033589847,-0.7005324907877435,-0.759432315826416,-0.3918129503726959,0.0187637526541948,0.1708438992500305,-0.0536177158355712,-0.1469603478908538,0.0061128428205847,0.0157899744808673,-0.0577355651319026,-0.026755129918456,0.140715607766062,-0.0690378803908824,144
1733405450690107600,0.2738713016718626,-0.1458534090459346,-0.2749684492588043,7.032932889917492,-3.8340579381525512,5.657583278623223,-0.0312508195638656,-0.0535530410706996,-0.0199494455009698,-0.5462947596882195,-0.1829137093802376,0.4220025107284084,-0.7000132603180264,-0.1828601062297821,-0.4547207057476043,0.2223037630319595,0.1569650620222091,0.0725234150886535,-0.0916162133216857,-0.006952472962439,0.0282752960920333,-0.0324438874870538,-0.022087212651968,0.1435066267240792,0.0053045361489057,145
1733405450730107600,0.1555330915391445,-0.0780082455709576,0.1388286249756813,7.015100880628824,-3.835164730350673,5.678931771600246,-0.0130222495645284,0.1929364800453186,-0.0081492261961102,-0.5474290413664928,-0.1814862697383207,0.4213286199862889,-0.6999045843742026,0.5490325093269348,-0.0490364283323287,0.454095184803009,-0.0802382081747055,0.1432439088821411,0.1481525599956512,-0.0076235551387071,0.0266373697668313,-0.0036252047598361,-0.014149990864098,0.1038929206728935,0.058518239942193,146
1733405450770107600,-0.0681628511220216,0.2808577995583415,0.2011164465844631,6.995785354784131,-3.823827343778312,5.710317089945078,0.0257165469229221,-0.0451791435480117,-0.0630748569965362,-0.5488337689980306,-0.1803211770439811,0.4199275312861265,-0.6999476447262706,-0.0045225918292999,-0.07178845256567,0.1409632414579391,-0.104554146528244,0.0857629179954528,-0.034192681312561,-0.0024276636540889,0.0471794866025447,-0.0115472299307584,-0.011848266236484,0.0423127358768135,0.0791769970893859,147
1733405450810107600,0.0778653299689292,0.1953019150868058,-0.290620191898942,7.027974975249171,-3.797677587999403,5.688197612595558,0.0560280606150627,-0.0637739077210426,-0.02024382725358,-0.5482950429381626,-0.1829169869633593,0.4201476165401735,-0.699563993957902,-0.004418462049216,0.1766273230314254,-0.1183592826128006,-0.129261165857315,0.074880301952362,0.1142427921295166,0.0139802787452936,0.0270537268370389,0.0320107567667961,-0.0154812335968017,0.0618697423271834,0.0664046092778444,148
1733405450850107600,0.0666921940475702,0.1825716128513216,-0.3866606455057859,7.021940371260047,-3.796319743649661,5.696551014921069,-0.0532326623797416,0.0890272334218025,0.0042713680304586,-0.5486712824920934,-0.182506303690955,0.4198192265299649,-0.6995735128732178,0.0046831569634377,0.4397827684879303,-0.3723479509353637,-0.1095803380012512,0.048092782497406,0.0968900322914123,0.0303882211446762,0.0069279670715332,0.0755938779056072,-0.0191142000257968,0.0814205382324755,0.0536152703315019,149
1733405450890107600,-0.0567944848895072,0.0512713375538587,0.1231143384933471,6.992198143947124,-3.8177994617909192,5.718737712287902,-0.0198252107948064,0.0877689644694328,0.0612621568143367,-0.549247150774485,-0.1801651604606211,0.4194830593229072,-0.6999300466690227,0.3610799014568329,0.6024805903434753,-0.1328046023845672,-0.0061423480510711,-0.0227776765823364,-0.0139868557453155,0.0199417173862457,0.0048642479814589,0.0130938748508691,-0.0094975838437676,0.0953708837822079,0.0334837519288063,150
1733405450930107600,0.3545189558357,-0.0587768908783793,-0.1165957503795623,6.977723628392815,-3.819829798574746,5.735038858747482,0.0721416473388671,0.0011713141575455,0.0149489026516675,-0.5486902321867841,-0.1798518040242123,0.4186260120188543,-0.7009598956895915,0.6259720325469971,0.5205903053283691,-0.2775934636592865,0.0882671624422073,0.0236930251121521,-0.0152586996555328,0.0117702167481184,0.0097494199872016,-0.0292202492654323,-0.0134308356791734,0.1184867517579346,-0.0011070844590663,151
1733405450970107600,0.3566349250763654,-0.0547775921091437,-0.409710097181797,6.984436277773976,-3.8118580890432,5.7321700253129,-0.0275674667209386,-0.0183507390320301,-0.0270486958324909,-0.5486391938017878,-0.1804528647256502,0.4185420392431956,-0.7008954060047642,0.1414615213871002,-0.1109420284628868,-0.0743627920746803,0.199315533041954,-0.1288307309150695,-0.1743711531162262,0.0058622062206268,0.0233909972012043,-0.0583773701667785,-0.026120813563466,0.1520693609513342,-0.043493689289689,152
1733405451010107600,0.7147182953953742,-0.0145382284402847,-0.4008358858525753,6.995957788741588,-3.817530873982608,5.714316973236203,-0.1778329759836197,0.0162237118929624,-0.1218312308192253,-0.5495975006479276,-0.1801127492195312,0.4197741109627375,-0.6994938857099824,0.7155434489250183,0.1977536380290985,-0.0422588512301445,0.0448255836963653,0.0546476244926452,0.0396949648857116,0.0064759086817502,0.0252304058521986,-0.0564466943651437,-0.0056419223546981,0.1593443934556096,-0.0056856444209814,153
1733405451050107600,0.5248930581539869,-0.0157061031758785,0.2514215694546699,7.015645655030012,-3.807534672886133,5.696822817599773,-0.1773546934127807,0.0529898926615715,-0.2802976369857788,-0.5535652592497586,-0.1788752472434541,0.4213627024678661,-0.6957173875578649,2.476836681365967,0.4457164108753204,0.2743767499923706,-0.008484661579132,-0.0071272850036621,0.1591644287109375,0.0284484215080738,0.0292838048189878,-0.0799357065021991,0.0213140435516834,0.1685300818867981,-0.0151712656468152,154
1733405451090107600,0.19332652336061,-0.0925949893280863,0.468746808040142,7.045542196121811,-3.731244629409909,5.710388401615619,0.0154041172936558,0.1360905617475509,-0.3584462106227875,-0.5594248681337505,-0.1794636910938119,0.4202903823522123,-0.691514698942003,5.532722473144531,0.5881263017654419,0.36296346783638,-0.0243834555149078,0.2338044643402099,0.0381322503089904,0.0285237617790699,0.0444126240909099,-0.0421603948593139,0.0517274998128414,0.1723241404075175,-0.0518178655207157,155
1733405451130107600,0.0900455971062183,0.0463242365404963,0.1441062731176614,7.043627886933088,-3.611290508513152,5.789323991164565,0.2099754214286804,0.2161701917648315,-0.299454003572464,-0.5651609101460142,-0.1806517922594214,0.4149596910356641,-0.6897583441966598,5.3153977394104,0.1142297834157943,0.5827010273933411,-0.0053988993167877,-0.0061206817626953,0.1440748572349548,0.0285991020500659,0.0595414415001869,-0.0042979894548654,0.0821409597992897,0.1761145456664264,-0.0885264247149229,156
1733405451170107600,1.237902796065807,0.3448535941287875,-0.8598661865204572,7.120104977414012,-3.410179614886641,5.817658689767122,0.2352708429098129,-0.3614096939563751,-0.8145880103111267,-0.5711000141308212,-0.1879217295215795,0.4099602065793466,-0.6859028641298712,4.260097026824951,0.0383837521076202,0.4465773403644562,-0.0142987221479415,0.0447527766227722,0.2185353636741638,0.0091219116002321,0.0671338737010955,0.0095803137719631,0.1445337086915969,0.1332497288648039,-0.0438958403497934,157
1733405451210107600,0.4104197067558765,0.360237041221559,-0.618786562860012,7.352329678967594,-3.1065356907635926,5.697635887548327,0.0753534212708473,-0.5070096254348755,-1.0141066312789917,-0.5794967668226506,-0.2036506016793511,0.4099119898019187,-0.6743011160200962,3.0700087547302246,-0.0859451815485954,0.4907280802726745,0.0034063458442687,0.0134145319461822,0.0180180072784423,-0.0017507737502455,0.0679271593689918,0.0273076936423778,0.1951233148574829,0.140613389500603,0.0461018259614706,158
1733405451250107600,0.1615472372621297,0.1661871720224619,-0.6789525700092315,7.593720268273353,-2.778260890991985,5.548609693685174,-0.0713642239570617,-0.4404805898666382,-1.082420825958252,-0.5896466306050171,-0.2195639124929389,0.4109639085812205,-0.6597100254746489,2.692171096801758,-0.248287484049797,0.5411796569824219,0.0064035356044769,0.1110220253467559,-0.0454952716827392,0.0053816894069314,0.071243368089199,0.0595545972526073,0.2156915664672851,0.1174419919453561,0.1213128420293331,159
1733405451290107600,-0.3584469429343939,-0.061487318880856,-0.4775584755271673,7.682458874434232,-2.525447282657027,5.547279906386136,-0.3009071946144104,0.6418363451957703,-0.8524917960166931,-0.6035257110122033,-0.2244546778803334,0.4083962833903514,-0.6469846914049785,1.5971662998199463,-0.1020975187420845,0.2912801206111908,-0.0257734507322311,-0.0333312600851058,0.0367189049720764,0.0119165312498807,0.0673890709877014,0.144884856274724,0.2238336652517318,0.1324181734114885,0.1661217055708169,160
1733405451330107600,-0.057365562775731,0.4795058102026581,-1.1906436167627572,7.55331110099554,-2.350274986276776,5.796040147677064,-0.4210973680019378,0.9066599011421204,-0.8682109713554382,-0.623717068873122,-0.2146964210631202,0.3979819780939483,-0.6375678121481957,0.7552152276039124,-0.0488048940896987,0.0843698605895042,-0.0053768754005432,-0.0205379873514175,0.0167913436889648,0.0008147619664669,0.0553158335387706,0.1468541105210781,0.2342094331979751,0.0793032538175582,0.2276794593393802,161
1733405451370107600,1.6188906566321848,0.2940453440420329,0.3488695517718791,7.37971628306508,-2.0217609709218145,6.133730718308687,0.4718826711177826,2.000786542892456,-1.6152982711791992,-0.6476160502328455,-0.2082083559447453,0.3793626739989141,-0.6271576342456148,0.536704421043396,0.0127240326255559,0.087588220834732,0.0143166184425354,0.0011286884546279,-0.0813647508621215,-0.0265268292278051,0.035399492830038,0.2102571998953819,0.235379472374916,0.0688368048608303,0.2147574339240789,162
1733405451410107600,1.7741811715871094,-1.022280854266882,-0.9343991571962832,6.420422923108935,-1.123672021251917,7.32706722741723,1.0281860828399658,4.320620059967041,-2.2792739868164062,-0.6954540392060693,-0.1883817815488417,0.3015557190515509,-0.624435849675234,0.0588784851133823,-0.033430092036724,0.0071191489696502,0.0065014213323593,0.0065056458115577,0.0413610935211181,-0.0196154378354549,-0.0038992613554,0.268191502469778,0.258609414100647,0.0847238175615668,0.3313870865732431,163
1733405451450107600,-1.012912721940875,1.1309720420669764,-0.6661421882748604,5.973100011369586,-0.9632282882522792,7.717814265453815,-0.9136179089546204,1.6311193704605105,-0.7456430196762085,-0.7267341459526426,-0.1660771507741981,0.2809259177448808,-0.6044473009870656,-0.2151402831077575,-0.0227588601410388,0.0702687576413154,0.00896517932415,0.0066024400293827,0.0519347786903381,-0.0127040473744273,-0.0431980155408382,0.3268587954938411,0.281839370727539,0.1007021618075668,0.4473749341875314,164
1733405451490107600,0.2166758347660303,0.2017803173206746,-0.5894271973848343,5.812672133526205,-1.254331222166866,7.798069120907783,-1.0363248586654663,0.103666640818119,-0.1893278658390045,-0.7364531851203646,-0.1443165933940305,0.2856253507745627,-0.5960098093134104,-0.5801904201507568,-0.0890853703022003,0.2387358546257019,0.0194664597511291,-0.0362823717296123,0.0143533945083618,-0.002491938881576,-0.0738554894924163,0.3954349035918712,0.3489235043525696,0.0928880539905279,0.4942886610537767,165
1733405451530107600,1.0170967296272515,0.5031767547778785,-0.1492617561846971,5.937310320585966,-1.3677826831713318,7.684263293507695,-0.2443742454051971,-0.8938707709312439,-0.7024388313293457,-0.7418112508536734,-0.1403603791770515,0.2975072813653112,-0.5843837426342995,-1.1032757759094238,0.0354080386459827,0.3850454688072204,0.002287670969963,-0.0378004759550094,0.1307316422462463,0.0077201686799526,-0.1045129597187042,0.4654483510166406,0.4160076081752777,0.0848803232975304,0.5400701690196991,166
1733405451570107600,-0.0115483989745378,0.3614177754387259,-1.4322136542886494,6.396285676196217,-1.173501051042974,7.340355163535476,-0.0833282768726348,-1.9823789596557613,-1.0982496738433838,-0.7439828026874014,-0.1603441716144056,0.3162843596704809,-0.566342285164333,-1.8863306045532229,0.2717486321926117,0.4603569805622101,-0.0125839710235595,-0.0410209149122238,0.1937103271484375,0.0124699268490076,-0.147406056523323,0.4633814816147089,0.5214016437530518,0.0381215677972882,0.5099351429969072,167
1733405451610107600,-0.8610293850809335,1.0418149182330816,-1.439174725472927,7.18381669434607,-0.8577605925433337,6.620227702572941,-0.0340058766305446,-3.1767075061798096,-1.3102097511291504,-0.740089537737893,-0.1967801988871728,0.351766799937426,-0.5383355886685638,-2.1086697578430176,0.2850269079208374,0.5177716016769409,0.0021900683641433,-0.0003426820039749,0.137724757194519,-0.0003079064190387,-0.1783608496189117,0.4380272601276636,0.6186273694038391,-0.0342699338704347,0.506427427136898,168
1733405451650107600,-1.9004443295001985,1.1215390278112145,-0.607126520204544,7.967500973939895,-0.4516113296482711,5.6995940358787776,0.1693264842033386,-2.758064031600952,-1.1916775703430176,-0.7308959297924937,-0.2388881282675627,0.3902999449006621,-0.506349369588328,-1.294894456863403,0.5628466606140137,1.081415772438049,0.0411992818117141,-0.0820909440517425,0.1212851405143737,-0.0336654596030712,-0.2127546072006225,0.2828068877995014,0.7195607423782349,-0.046423605261743,0.6712628922894597,169
1733405451690107600,-1.609049061575532,0.2242208067854866,-0.9053852441579104,8.417110535311698,-0.1957897534026764,5.028349556028843,-0.3531233966350555,-0.9563979506492616,-0.308591365814209,-0.7214711329778599,-0.2660259944085142,0.4157591858720816,-0.4856478980811454,-1.398768186569214,1.1867034435272217,1.971617221832276,0.0653289631009101,-0.3569504618644714,0.2555940151214599,0.0072639249265193,-0.2236988693475723,0.3361053472667932,0.8002665638923645,-0.084143387325108,0.8747261942610144,170
1733405451730107600,-1.698227812719345,0.0521527965635061,-0.3539852873504162,8.350815816149115,-0.351877063024789,5.129369551613927,-1.4094479084014893,1.4921998977661133,-0.0630447641015052,-0.7305994138948454,-0.2496105512641087,0.4197255081466535,-0.4772310868424606,-1.7892082929611206,1.8816407918930047,2.985469102859497,0.1659687161445617,-0.4353536963462829,0.4103726148605346,0.1034211665391922,-0.2842575311660766,0.3736977035582065,0.7471262812614441,-0.1114033693682402,0.9747253223657608,171
1733405451770107600,0.3761065182656049,1.2166275144554677,0.0299468099743127,7.828523295882344,-0.4425521536735817,5.889716210240126,-1.0927202701568604,2.2284364700317383,-0.8339875340461731,-0.7604087962080891,-0.2135920915751701,0.3925385046697792,-0.4712434165539989,-3.018120050430298,2.59626579284668,3.7015225887298575,0.2051817774772644,-0.5415074825286865,0.4835127592086792,0.2024511694908142,-0.2622834742069244,0.2609083597242832,0.6881262063980103,-0.1967487528942525,1.0968553259968756,172
1733405451810107600,-2.1722306415915487,1.3261170860916376,0.5902355911582708,7.601980147096514,-0.3841483338912949,6.18325959610939,-0.558190107345581,0.0070449775084853,-0.9093143343925476,-0.7809435353789909,-0.1966978432990228,0.3821667726787296,-0.4531948767117855,-4.030725955963135,2.6489713191986084,4.373780250549316,0.3294392228126526,-0.430641770362854,0.4450470209121704,0.2436652481555938,-0.2231713235378265,0.2723269948393106,0.6102330088615417,-0.2267385252274572,1.068696860744059,173
1733405451850107600,-2.972713495773077,1.2993642498530449,1.5710259126514194,7.775331803920864,-0.2092542333979159,5.972504383563995,0.8270359039306641,-1.2396986484527588,0.2765870988368988,-0.7784573334798851,-0.209226933322722,0.389501121082748,-0.4455525996673271,-4.214783191680908,2.7648253440856934,5.501891136169434,0.3266907334327698,-0.2227767705917358,0.2353056073188781,0.2490340769290924,-0.1733006536960601,0.0710597416073083,0.5807853937149048,-0.2557129830382764,1.2617273237675428,174
1733405451890107600,-2.1889158189326525,0.7625592931743711,-0.4523860403478145,8.047377643731236,-0.2666602012492716,5.598123373916745,0.5586994886398315,-0.9775533080101012,0.9979639053344728,-0.7585618056680349,-0.226265676477644,0.4042016474282819,-0.4582672718900745,-4.159641265869141,2.699643850326538,6.202910423278809,0.4346140623092651,-0.023626685142517,0.1380177736282348,0.2575529515743255,-0.1654903888702392,-0.0155067812114953,0.559463620185852,-0.2522540016908198,1.3761118278384208,175
1733405451930107600,-1.347442198193073,0.1245610301703214,-0.7334311791718006,8.267132739812135,-0.6002589725226164,5.240664857497811,-0.2434670478105545,-1.3506972789764404,1.2986488342285156,-0.7383545255948649,-0.2294291211036301,0.4244557923792677,-0.4712027104721877,-5.138420581817627,2.431569576263428,6.429978847503662,0.4822489023208618,-0.1440535187721252,0.2728493511676788,0.3034500181674957,-0.1577454358339309,-0.0393652111828327,0.5218711495399475,-0.3084030282836407,1.485567789465934,176
1733405451970107600,-0.8559931444793939,-0.3044970338210463,2.088368701556325,8.46282073160708,-1.119903097172454,4.826683951129019,-0.2442723512649536,-0.8604193925857544,1.4150227308273315,-0.7169941936938573,-0.2236929342351125,0.4515186310846611,-0.4816760317773696,-4.66034746170044,1.617284893989563,6.374978542327881,1.1302887201309204,0.3020029366016388,0.2164818048477172,0.3387946188449859,-0.1520705223083496,-0.1598772582232952,0.5215545892715454,-0.464892909090966,1.5919506272584198,177
1733405452010107600,1.073219014343619,-0.1180076630041003,1.9793594607830047,8.467225688567757,-1.6647746020592749,4.658863917207718,0.1794964671134948,-0.3226858973503113,1.8383209705352783,-0.6963466491876996,-0.2140694822557527,0.4654442050929605,-0.5026304896811117,-3.768969774246216,-0.0399763062596321,5.226223468780518,1.1427578926086426,0.464366614818573,0.251984179019928,0.316183477640152,-0.1123793795704841,0.0926022958517074,0.5617899298667908,-0.4372846250668167,1.5501920911982654,178
1733405452050107600,2.7026018388956783,0.6873026113338768,2.2332632024422288,8.348733164656162,-2.230814494115859,4.6360003434926265,0.2522085309028625,0.1479409635066986,1.5756245851516724,-0.6764755337439781,-0.2007096320904498,0.4725943407790856,-0.5279687399428271,-2.6319420337677,-0.5842604637145996,2.998507738113404,0.7396015524864197,0.7076127529144287,0.1526535153388977,0.2942387163639068,-0.1527676880359649,0.5003109900832176,0.582208514213562,-0.3391368239171802,1.4609171862035988,179
1733405452090107600,3.349200537788868,1.1644684342816471,0.8656240193948149,8.20731160057783,-2.5795912530377505,4.707029689961671,0.2453399300575256,0.0830120742321014,0.8834618330001831,-0.6638332628262966,-0.1913912772154729,0.4726284573880839,-0.5470987587555975,-1.9724266529083248,0.2356503754854202,3.0319294929504395,0.2582387924194336,0.701545238494873,-0.110405147075653,0.3156966865062713,-0.1968768388032913,0.6583101794749499,0.5415792465209961,-0.3298113616891205,1.313022042196989,180
1733405452130107600,2.684924727907777,1.373496969164908,-0.0261509248226881,8.136268225583434,-2.751659299792349,4.732851821221411,-0.2221966385841369,0.0812530592083931,0.2146102339029312,-0.6585610167045559,-0.1857297868520133,0.4734935616983855,-0.5546220646765034,-1.711217164993286,0.3621675670146942,2.2541983127593994,0.2510515451431274,0.7045149803161621,-0.0873463153839111,0.2723428010940552,-0.1858095228672027,1.0174994652092455,0.5362521409988403,-0.3640981736291199,1.0704257303632796,181
1733405452170107600,0.0708060591071844,1.5045593440532683,-1.6738842295795675,8.145346435052156,-2.8625203059121964,4.650774718776345,-0.5845150351524353,-0.4020898044109344,0.1730240881443023,-0.6576628419840292,-0.1807316046725471,0.4798047241579551,-0.551908660609003,-1.0500106811523438,0.2603585720062256,1.4133704900741575,0.2523123621940613,0.8702943325042725,-0.1105667799711227,0.1228449940681457,-0.1548732817173004,1.1814134316027165,0.5745847821235657,-0.4287194066215306,0.7908680536180734,182
1733405452210107600,-0.9208464326620102,0.0449555785357952,-2.65416484798491,8.214332877516746,-3.0908290030658243,4.375146636565029,-0.8219122886657715,-0.7188774347305298,0.4305355846881866,-0.6512266304025188,-0.1747767078013682,0.4963695255110701,-0.5467855090223913,-0.8004141449928284,0.3435817360877991,0.765311598777771,0.1762496829032898,0.9429324865341188,-0.1696628183126449,-0.080422893166542,-0.0921122431755065,0.7352624862521886,0.6507237553596497,-0.5357096357226372,0.7382584531977773,183
1733405452250107600,-2.639980255287885,-1.616793099831045,-4.228046734589338,8.320075225448608,-3.470137239982188,3.8606870018810033,-1.2721755504608154,-1.7960071563720703,0.911648690700531,-0.6358232179970608,-0.1678386285622607,0.5243948341822267,-0.540896744098104,-0.0184013880789279,0.2379780411720276,-0.0494441948831081,0.0828315615653991,1.0046677589416504,-0.2260002940893173,-0.2340407073497772,0.0220651924610137,0.8613871124774217,0.7367342710494995,-0.4202812486220151,0.6667255411207675,184
1733405452290107600,-3.191711636006832,-3.296060191492736,-3.6704525993168353,8.456261811482905,-4.091099393315613,2.8151246407479045,-1.8184905052185056,-2.88787841796875,1.6220285892486572,-0.6013340458149888,-0.1608253093595811,0.5749815778867272,-0.5309696271215185,0.9274721741676332,0.2127489447593689,-0.9419443011283876,-0.0409898161888122,1.024104118347168,-0.3064983487129211,-0.2881056070327759,-0.0891569033265113,0.6623048020690679,0.6477498412132263,0.1547053354781121,0.4358326726928353,185
1733405452330107600,-3.001007862365246,-5.436775458618998,-3.1844185563892125,8.329602932250499,-4.99027204656899,1.373055216746777,-2.172759771347046,-3.5238683223724365,2.776872158050537,-0.5456617634924334,-0.145197108754695,0.6394618558695307,-0.5217849454718118,2.1271684169769287,-0.142415702342987,-2.3458361625671387,0.0809935331344604,1.0471514463424685,-0.3109256029129028,-0.3421704769134521,-0.2003789991140365,0.4708768058061599,0.5587654113769531,0.7329144618213176,0.2032032627958804,186
1733405452370107600,0.0360334364116191,-5.8688844346135856,-1.5781868903219698,7.697388732540607,-6.070251641088724,-0.2695378938437439,-2.395429372787476,-3.039715528488159,3.46133804321289,-0.4712314578739093,-0.1149175766433997,0.7074860836824484,-0.5140023165046542,2.311039924621582,-0.2856370508670807,-3.1517550945281982,0.0766404271125793,0.9010988473892212,-0.2553064823150635,-0.3335385322570801,-0.2587798237800598,0.0279454070240259,0.4021142423152923,0.8064736190289259,0.1509231135256588,187
1733405452410107600,1.7624124078601595,-4.621257532390952,0.1223908465243875,6.811372790241241,-6.905326500701904,-1.446384802982211,-2.323737621307373,-0.6841830015182495,2.8447651863098145,-0.4160134579442065,-0.0663401202234429,0.7545489296673289,-0.503177507397594,3.1943519115448,-0.6507792472839355,-3.8290328979492174,0.2201110124588012,0.7298856973648071,-0.1193240210413932,-0.3281427323818207,-0.1726380586624145,-0.1498392638117074,0.1525878757238388,0.6197764506801963,-0.2411054156888276,188
1733405452450107600,0.8652244986832142,-4.69714776289463,-0.6359715064167976,6.090080961674452,-7.400005037856101,-2.078753608731925,-2.0939865112304688,0.3162856101989746,2.2659661769866943,-0.3925337979712104,-0.0101363399802096,0.7783856310072292,-0.4898267520751713,3.71098256111145,-0.9515841007232666,-3.990433931350708,0.4973064661026001,0.525591254234314,-0.0120978355407714,-0.322981595993042,0.015167623758316,-0.2542360423535108,-0.1509352773427963,0.4365405652338638,-0.4516554610509425,189
1733405452490107600,-0.1862181526601314,-4.793804302573204,-0.7398138659462332,5.431015579918027,-7.726821747773886,-2.640200620040297,-2.004745960235596,0.1118755862116813,2.319038152694702,-0.373628926356521,0.0427403600905703,0.7954784910888764,-0.4751721791991224,4.19788932800293,-1.2592558860778809,-3.86467218399048,0.7856715321540833,0.3903768658638,0.116462841629982,-0.3379364609718323,0.1636577546596527,-0.2911433389902114,-0.384670078754425,0.3595001783143728,-0.3782267983552068,190
1733405452530107600,0.4702931606993079,-3.46822146948874,0.4950020700201392,4.673948673614859,-7.982198776856064,-3.2571631823435423,-2.020605564117432,0.1439618021249771,2.595698118209839,-0.3496404317964257,0.0977883553950475,0.8102509163489372,-0.4600897241936198,4.125988006591797,-1.7022687196731567,-3.49065899848938,0.8519937992095947,0.2098977118730545,0.3254489302635193,-0.4022536277770996,0.2440787851810455,-0.4370972858011722,-0.4189182221889496,0.3543905802156776,0.0227941617406904,191
1733405452570107600,2.5430951675504443,-1.604074780294299,1.6078747570991516,3.854510943594575,-8.166961470010877,-3.822810860212147,-1.7125129699707031,0.3273386657238006,2.628938674926758,-0.3247862621243966,0.1554906428044327,0.8189821596017794,-0.4467715567433721,2.705145359039306,-1.9768030643463133,-3.0278689861297607,0.6755818128585815,0.034117192029953,0.3585771322250366,-0.4653829634189605,0.2355047911405563,-0.7944961809873581,-0.2916340827941894,0.3615426439274102,0.5227323729887604,192
1733405452610107600,4.233693508304655,-0.2997176905900239,1.8374518667533992,3.123687901094556,-8.251172954136132,-4.281482264439761,-1.54115629196167,0.5978666543960571,2.2590227127075195,-0.3049696545813999,0.2098478392019067,0.8211325884082774,-0.4343945504510771,1.0980430841445925,-2.20393705368042,-2.809511184692383,0.5593361258506775,-0.1536268293857574,0.510805606842041,-0.4164564609527588,0.2052829712629318,-0.8147457728117704,-0.0994916260242462,0.4656507782535627,0.8471222210858017,193
1733405452650107600,4.652111228077113,0.2467319503337144,2.2624475036114453,2.6000749458789825,-8.189794064065813,-4.726230941776931,-1.691319227218628,0.8559273481369019,1.764665961265564,-0.2925324141621382,0.2584247313528546,0.821089135775156,-0.4164781386229232,0.5117977857589722,-2.19932222366333,-2.58447527885437,0.4233388900756836,-0.2171076238155365,0.5456498265266418,-0.367529958486557,0.1750611513853073,-0.8344394843190908,0.092650830745697,0.5689349559109658,1.172387829104066,194
1733405452690107600,4.568240812474489,0.4355898038476705,3.006150485950708,2.239970152734965,-7.997225081074237,-5.215100208130479,-1.8258304595947263,0.7300169467926025,1.5107465982437134,-0.2831949998217433,0.3018632653569122,0.8214466973852615,-0.3923064313990679,0.4767723977565765,-1.9026455879211424,-2.075038194656372,0.3276443481445312,-0.2836612164974212,0.7055811285972595,-0.2508231103420257,0.1335601955652237,-0.3031675387829542,0.222344622015953,0.6949870283566415,1.0642818207807838,195
1733405452730107600,5.413129210093617,0.1303197398275137,4.026970620015264,1.9255479372270403,-7.718144520321488,-5.735234089058637,-1.6675671339035034,0.241049513220787,1.198024034500122,-0.2698127492201082,0.3378490817292088,0.8235736560413395,-0.367131526561135,0.2003211081027984,-0.9357566237449646,-1.6654620170593262,0.2260034084320068,-0.4982582926750183,0.7233909368515015,-0.1504538059234619,0.0467872470617294,0.5551707075178622,0.2349068820476532,0.9262567672729493,0.6814950940988957,196
1733405452770107600,6.730424691826105,-0.4801777181148529,4.765307106885314,1.618306719264388,-7.467974412232637,-6.14661299623549,-1.005474090576172,-0.1963631808757782,0.8117930293083191,-0.2530683107977454,0.3615663189123107,0.8262323176634565,-0.350094934658386,0.770716667175293,-0.0763481631875038,-0.588030993938446,0.224513292312622,-0.545364499092102,0.7075897455215454,-0.0788920223712921,-0.0817804485559463,0.6550210748016834,0.2431938797235489,1.0354447986792772,0.600523980134353,197
1733405452810107600,7.470273921346664,-0.6778022309303283,4.965342187973857,1.380790925565362,-7.357439569327234,-6.33497634423077,-0.2557811737060547,-0.0678227469325065,0.5148962736129761,-0.2411851644099481,0.3740299789115264,0.826495911521047,-0.3447258735401742,0.3294913470745086,0.9659956693649292,0.1225498765707016,0.1902201771736145,-0.6378991007804871,0.7082800269126892,-0.0073302462697029,-0.2103481292724609,0.755758161792159,0.2514808773994446,1.144820607742667,0.519294945885986,198
1733405452850107600,7.5222776648283,-0.1177595334619283,5.146011474335193,1.3606594071626663,-7.363971016922592,-6.331740431049465,0.1962031871080398,0.6170836687088013,0.1178178042173385,-0.2433941015790135,0.3813286730214527,0.8230536801837246,-0.3434100156814499,0.5872427225112915,1.2476273775100708,0.8649857640266418,0.2636988162994385,-0.6015315055847168,0.4891180992126465,0.0177456643432378,-0.2092188894748687,0.9230693694084884,0.4334388375282287,0.8267470301203429,0.5883377216476947,199
1733405452890107600,7.888841863244772,-1.2890227424502372,3.938316769528389,1.556134632989764,-7.495604177436232,-6.129012457615136,0.9301415085792542,0.4945245683193207,-0.385689377784729,-0.2590707253015079,0.3812106815379788,0.8168054124116302,-0.346972399541762,-0.4849485754966736,1.381566882133484,1.5926731824874878,0.3899131417274475,-0.6227049231529236,0.5515149831771851,0.0193354152143001,0.0248570293188095,0.4488356543898582,0.6308040618896484,0.3822476513691246,0.149158441940695,200
1733405452930107600,8.25190536006391,-0.717576022914052,3.12265446639359,1.8306763812690967,-7.728570052745938,-5.75223666178584,1.4387599229812622,-0.224619835615158,-1.3275916576385498,-0.2757812313522801,0.3624828468302275,0.8135653934391052,-0.3614724029853381,-1.830033540725708,1.6134016513824463,2.2777984142303467,0.4488620162010193,-0.5711989402770996,0.490066647529602,-0.0084476303309202,0.240861564874649,0.095016371256113,0.5490666031837463,-0.4583980306463315,-0.2957254060834646,201
1733405452970107600,7.818398792231083,-1.7431611794233322,2.522461544844508,2.371473257128149,-7.897091220673918,-5.308713142329454,1.6075026988983154,-0.6121090650558472,-2.765322685241699,-0.2941513216830571,0.3172050141903002,0.818565827083337,-0.377896712471393,-1.789764165878296,2.074923276901245,2.908703565597534,0.4655842185020447,-0.4003227055072784,0.3080123960971832,-0.0029203239828348,0.4294297695159912,0.1181400572121143,0.349394291639328,-0.6845589386489241,-0.215531377438642,202
1733405453010107600,5.71307252613306,-4.27961091760993,2.166122387844324,3.325938320145011,-7.848219345477223,-4.849125500039756,1.7785450220108032,-0.5982228517532349,-4.001384735107422,-0.3196988490039846,0.2457979844647647,0.8287460042485387,-0.3880157431428263,-1.9785716533660889,2.090787649154663,3.1458096504211426,0.5640894174575806,-0.2143124639987945,0.2724231481552124,0.0543879196047782,0.2129887789487838,0.0845692115217447,0.124109074473381,-0.2613196439389139,0.0177847360808402,203
1733405453050107600,1.3664607869178056,-6.059971654614806,1.8269719737932084,4.879411624971032,-7.431951497215032,-4.138571923108398,2.626494169235229,-0.392144113779068,-4.435487747192383,-0.3617734101675578,0.1320503422328437,0.8328091935360626,-0.3976322250793327,-2.764601707458496,1.8335697650909424,3.5087735652923584,0.5283966064453125,-0.0715577006340026,0.113490492105484,0.1508566737174987,-0.0406861454248428,-0.6335299584835767,-0.0893657803535461,-0.1873969871811568,0.2060426144076511,204
1733405453090107600,-0.5321206713199615,-5.9267784051775925,-0.6754258571878076,5.996736907544732,-6.98634883339703,-3.3764617619410155,3.002887964248657,-0.4295997023582458,-3.734261512756348,-0.3935705378220014,0.0397713586832459,0.8188833098051029,-0.4158734296631823,-3.264056444168091,1.302140474319458,3.6338319778442383,0.3939325213432312,0.1413212120532989,-0.0319431573152542,0.2304751873016357,-0.1900609284639358,-1.073098018312454,-0.137909933924675,-0.1589336206976324,0.5806433312201872,205
1733405453130107600,-0.7050929734379052,-4.995407071369886,-2.353495848019421,6.895152312690019,-6.371814082762598,-2.833243942545354,2.2925939559936523,-0.9645501971244812,-3.7219743728637695,-0.413034696870368,-0.0478265181877929,0.8013537721550738,-0.4300549009981958,-3.264221429824829,0.5428125262260437,3.563844680786133,0.3786840438842773,0.3665761649608612,0.0489334464073181,0.246337279677391,-0.1827971637248993,-1.4486492407828568,-0.0772595703601837,-0.4417519797392189,0.5864104799121618,206
1733405453170107600,-2.699879720455408,-4.6016509146451945,-1.9371143102496864,7.684755460938811,-5.45713727864623,-2.708235168607533,1.0461466312408447,-0.7432847619056702,-3.731108903884888,-0.4272817101862798,-0.1299905290013846,0.7881522837066757,-0.4234957655682578,-3.231379747390747,0.400039792060852,3.4452109336853027,0.306596040725708,0.6154913902282715,0.0233656167984008,0.2079530358314514,-0.094394214451313,-1.1353963613152502,-0.0421096235513687,-0.6046511430669576,0.3467445224419236,207
1733405453210107600,-5.629284820377826,-4.781712298241257,-0.9253858296573162,8.31453161984682,-4.436113730964064,-2.712902868157625,0.2657719850540161,-0.1031763330101966,-2.9553513526916504,-0.4469844212479304,-0.1920672321127865,0.7755190115348625,-0.402349798340358,-1.978609919548035,0.5366368889808655,3.106802463531494,0.2791231870651245,0.821904182434082,-0.0754968076944351,0.1561175286769867,-0.0489672534167766,-0.3169879743427038,0.0019719414412975,-0.6176725372035056,0.3721588400857523,208
1733405453250107600,-7.430643921747803,-4.196918898136913,-0.0180596805647015,8.713338630220294,-3.628080607533455,-2.6618010419517755,-0.0279035381972789,0.244030475616455,-1.884676218032837,-0.4669393472020232,-0.2292783760843344,0.7636396432369568,-0.3824313251338346,-0.8737877011299133,0.5528507828712463,2.276256561279297,0.1375428438186645,0.9899699687957764,-0.1766648441553115,0.1042820215225219,-0.0035402886569499,0.5014449625492096,0.0460535027086734,-0.630679172162339,0.3976443232696503,209
1733405453290107600,-8.647171921351552,-4.586239995023608,0.2930158548638224,8.94180953219831,-3.1097718962058423,-2.5580796784535047,0.205089122056961,0.221658855676651,-1.0541796684265137,-0.4821040392687112,-0.2500155375971116,0.7536033401323876,-0.3703377124667865,-0.8348027467727661,0.4769970774650574,1.3920890092849731,0.0738374590873718,1.072150468826294,-0.2159951776266098,0.0691375434398651,0.0020438870415091,0.743557436388731,0.0375283807516098,-0.7522549029115587,0.2277202662738039,210
1733405453330107600,-9.67697615686059,-6.046372752851248,-0.4980862997710704,8.978767097717522,-3.022863135820627,-2.532674603562057,0.9114106893539428,-0.5390970706939697,0.349027156829834,-0.4803006729135418,-0.2625569783378097,0.7484612900320474,-0.3744073585977762,-0.6615907549858093,0.2621647715568542,0.0737047642469406,0.0904419422149658,1.139392614364624,-0.2615954279899597,0.0790074169635772,0.1486205905675888,0.9782231013536452,-0.0957448929548263,-0.5550202661965042,-0.1398751018213108,211
1733405453370107600,-7.912277683889865,-5.623025759983062,-0.8316928159594535,8.77778158403635,-3.472397001607716,-2.657706466114521,1.2467155456542969,-0.8309436440467834,1.4468828439712524,-0.4556972200105214,-0.2649129412360037,0.7518819441865323,-0.3960236874786099,0.062417559325695,0.1496726125478744,-1.040104866027832,-0.0227926969528198,1.1136374473571775,-0.3282486200332641,0.0112571790814399,0.1044728904962539,1.3515005336731671,-0.1237368285655975,-0.1338266519699245,0.1131431257076561,212
1733405453410107600,-6.1026663024812935,-6.4734571786820885,-2.111437442454696,8.444193772548436,-4.211864246073365,-2.6694828286260366,0.8185624480247498,-0.1508908122777938,2.1603026390075684,-0.4268969094427765,-0.252334105002412,0.7565931820118424,-0.4262078591709749,0.9097976088523864,-0.0807153210043907,-2.0106353759765625,0.2246401906013488,0.9812397956848145,-0.313245415687561,-0.00803979113698,-0.0811932235956192,1.147345742306113,-0.0272394716739654,0.8777856548968702,0.3810423672325909,213
1733405453450107600,-5.1059705558478825,-5.91859568324387,-1.9841849812433123,7.9875413069278,-5.086800575953721,-2.548337744379044,0.1273438334465026,0.3112774193286896,2.915379524230957,-0.4047110526268245,-0.2161798130011682,0.7636722847220351,-0.4541804272233317,1.659697413444519,-0.4628965556621551,-2.9582087993621826,0.3428637385368347,0.7866208553314209,-0.2157543301582336,0.0039012609049677,-0.3021202981472015,0.5882464631676674,0.0008330103009939,1.2012398295789957,0.1249994946528226,214
1733405453490107600,-2.465713821706176,-3.956633931985497,-1.597547132091224,7.337464118269086,-6.029581192526221,-2.444613312140852,0.0630357712507247,0.2081746459007263,3.0312206745147705,-0.3799704531490057,-0.1678019733822043,0.7723231778725257,-0.4806056264875301,2.6900336742401123,-0.7287489175796509,-3.718355655670166,0.4043524265289306,0.550807774066925,-0.1064469218254089,-0.0803938880562782,-0.1603322774171829,0.0384831676512956,-0.2008038759231567,1.052834251832217,-0.0480743681434541,215
1733405453530107600,-1.1135697294324636,-4.646020217725634,-2.832116984342038,6.612002895063162,-6.824748989164829,-2.423754502376914,-0.4203062057495117,0.2256021946668625,2.8383822441101074,-0.3547500705038814,-0.1203758856587896,0.7804400920745082,-0.5005749047412779,4.186400890350342,-0.8900718092918396,-3.936551809310913,0.5571631193161011,0.3632095158100128,0.0001935362815856,-0.1646890342235565,-0.0185442566871643,-0.509860908716917,-0.4024407267570495,0.904161036125198,-0.2214342082742601,216
1733405453570107600,-0.402041169989109,-4.15265919291079,-2.1271818318143487,5.803809612634778,-7.471789586606621,-2.5804177669897674,-1.1826317310333252,0.5243120789527893,3.101015329360962,-0.3314426348850618,-0.0657075983168028,0.7919893934571742,-0.508508765373393,6.513233184814453,-1.2806636095046997,-3.2895925045013428,0.6750032305717468,0.0860015749931335,0.142046719789505,-0.2295476198196411,0.0855908468365669,-1.0056465303301811,-0.5223721265792847,0.8237624613516032,-0.0552691750183701,217
1733405453610107600,1.183146539005637,-2.148848012438416,-0.5790773605450987,4.8749318492084734,-8.032793238061666,-2.807072559456527,-1.3206332921981812,1.0923539400100708,3.3988261222839355,-0.3115899628575166,0.0026002450340751,0.8019439548021995,-0.5096967786626392,4.617446422576904,-1.2614930868148804,-2.716325283050537,0.4250878691673279,-0.1648186445236206,0.3354102075099945,-0.2926103770732879,0.2112100720405578,-1.3273258773595094,-0.5047982335090637,0.7147595772538333,0.163489165110141,218
1733405453650107600,3.158205672246217,-0.7872218060702085,-0.3796019591659307,3.930426016278565,-8.458135788661242,-3.030188948664069,-1.4001473188400269,1.280755639076233,3.111966133117676,-0.2964417545310207,0.0756125275785019,0.8054684291708912,-0.5075682578502768,2.595085382461548,-1.6091910600662231,-2.159787654876709,0.2661975622177124,-0.1578958332538604,0.4208709001541137,-0.3618650138378143,0.2496352046728134,-1.2818810540020464,-0.3598398566246032,0.8232690518114716,0.418916097748652,219
1733405453690107600,3.85099796703756,-0.7905939128518104,-0.0695917148813605,3.0832085911899805,-8.666950973054766,-3.3982585832074284,-1.5862537622451782,0.7066470384597778,2.667447805404663,-0.2809361640164913,0.1404435309900231,0.8084173361279621,-0.4978070611111874,0.941889464855194,-1.9708327054977417,-1.6911859512329102,0.1839344501495361,-0.2014631032943725,0.5162370204925537,-0.3927427530288696,0.2091127038002014,-0.8923971677690744,-0.1532611697912216,0.9801768657699228,0.563153522965312,220
1733405453730107600,4.848556760241091,-1.0846423256337645,0.8830775507599115,2.2447139862611887,-8.706893107342719,-3.914285321077704,-1.6028075218200684,0.1444135308265686,2.502150774002075,-0.256160953906095,0.1939195290573111,0.8136143019104292,-0.4845703624084586,-0.2962601780891418,-1.9174426794052124,-1.236683368682861,0.1306982040405273,-0.2211605310440063,0.5786282420158386,-0.3854469954967499,0.1288988888263702,-0.6781137810975313,-0.0243588536977767,1.0831032794982194,0.38941315908432,221
1733405453770107600,6.029112405970692,-0.4373217422068118,2.3206185375511645,1.4235885954149066,-8.633861773401499,-4.42721760006398,-1.3593780994415283,0.2271019667387008,2.38906192779541,-0.2281251998951811,0.2413818151857836,0.8169823115337227,-0.4714167668930705,-0.6537298560142517,-1.5758283138275146,-0.6614804863929749,0.0890196561813354,-0.2932571768760681,0.6871482133865356,-0.2978414893150329,0.0359356552362442,0.5782657519012689,-0.0082793049514293,1.2941050141505896,0.203614839271456,222
1733405453810107600,7.765347001001238,-0.3324240284055471,2.7339637763649223,0.7182073065549135,-8.519389591047167,-4.803601473966241,-0.9305383563041688,0.6475762724876404,2.155603647232056,-0.2074499073483283,0.2871490023907455,0.8139170548013221,-0.4604878777928482,-0.2199376970529556,-0.6705425977706909,0.1273549348115921,0.1109946966171264,-0.3155049681663513,0.6673056483268738,-0.1371006220579147,-0.0515558943152427,1.5418436573088168,0.0559112168848514,1.1595153419189157,0.1629636799313127,223
1733405453850107600,8.888622716411948,0.5037807120203972,2.800281291881204,0.2278990021078847,-8.42484843608737,-5.014020586425065,-0.3935502171516418,0.71038419008255,1.5685937404632568,-0.1979322365838976,0.3264007502834388,0.8056714350560102,-0.4529668939859613,-0.043127242475748,0.255793035030365,0.5623347163200378,0.2601750493049621,-0.3176891207695007,0.7236238718032837,0.0236402750015258,-0.1390474438667297,2.505926005107164,0.1201017498970031,1.02494189016968,0.1218735446520149,224
1733405453890107600,10.35488827790618,-0.625015812638402,1.6668834109067916,-0.0620652238000882,-8.387207564479112,-5.081459799447655,-0.1001814305782318,0.2053675353527069,0.6630064845085144,-0.1938180402450431,0.3499502110692784,0.7978829484821428,-0.4509457349203495,-0.4815922081470489,1.1324244737625122,0.6587298512458801,0.1458860039710998,-0.3914409875869751,0.6245748400688171,0.1228611916303634,-0.25326669216156,1.9814152242690324,0.2731472551822662,0.4437058537533506,0.1281209146089851,225
1733405453930107600,10.936272454088924,-1.4978075317054986,1.6498112800747156,-0.073181231839885,-8.368098959383367,-5.11272821341455,-0.1054680049419403,-0.0172198377549648,-0.5511494278907776,-0.1932652508249229,0.3515504557748947,0.7981784719143001,-0.4494130627333914,-0.93522709608078,1.7628623247146606,1.0527199506759644,0.4458276033401489,-0.4485661685466766,0.61564701795578,0.1060344725847244,-0.0429010242223739,-0.4245008390784263,0.2962298095226288,-0.8528901369627565,-0.3002984130874276,226
1733405453970107600,9.340256477087737,0.3907826938718557,3.29928879815042,0.3351614540128037,-8.34387052705586,-5.141776028722524,-0.014599222689867,0.3296102583408355,-1.776186227798462,-0.204991022199788,0.334865285213722,0.8062399468916497,-0.442516673275191,-0.4220140874385834,2.149024724960327,1.4895200729370115,0.2842704057693481,-0.379008799791336,0.3442874550819397,0.0786574184894561,0.5576391816139221,-0.7447545372188091,0.1508063375949859,-1.467422038052976,-0.6409970064286142,227
1733405454147424500,-2.426695816525817,-3.6470629559010255,0.3964689228147268,5.524941233327985,-7.175625204584002,-3.762416012743115,1.7557345628738403,-0.93887060880661,-3.75393271446228,-0.3338135836052917,-0.0091456487164469,0.8317128066163134,-0.4435521595591428,-2.973343849182129,0.3812116980552673,2.2237181663513184,0.2127852439880371,0.0889833718538284,-0.2347111701965332,0.554627001285553,-0.2994679510593414,-1.1673878288596868,-0.553869366645813,-0.2012035768786445,0.4054761494064703,228
1733405454187424500,-3.5040953314244745,-3.236729758384824,-0.1578629957914352,6.30980040192008,-6.603738340064883,-3.5703576096221803,1.1339720487594604,-0.8859171867370605,-2.905279874801636,-0.347249957850764,-0.0818012202277223,0.821794461174069,-0.4442746033104208,-3.527179002761841,-0.1734486073255539,2.644395589828491,0.186554729938507,0.1681302934885025,-0.1146010756492614,0.3998197913169861,-0.2862370014190674,-1.0802286008447408,-0.3539274334907532,-0.2535881729040294,0.2037549783945083,229
1733405454227424300,-3.856504163238406,-3.2464076873123644,-0.0027530981004238,6.821123784404993,-6.060751991337537,-3.5930388125076886,0.4685070514678955,-0.7095792889595032,-2.093528509140014,-0.3537826445058434,-0.1354935604265247,0.8153744475058862,-0.4377714281877395,-3.630504608154297,-0.1247633025050163,2.6935479640960693,0.1124332547187805,0.3735419809818268,-0.0577636808156967,0.2554787993431091,-0.1959689259529113,-0.7355792971163988,-0.1615052968263626,-0.4354151779331267,0.2267716968446969,230
1733405454267424300,-4.192834551432728,-3.3218250396072864,0.3174810185566544,7.16762894513309,-5.597922298386693,-3.668614862495661,-0.1258249282836914,-0.099596656858921,-1.403568983078003,-0.3617498068157958,-0.1683799015128347,0.8116005823731949,-0.4267197637729965,-2.10376501083374,-0.009848547168076,2.540332078933716,0.1136713624000549,0.6497424840927124,-0.0993099808692932,0.1111377924680709,-0.1057008430361747,-0.3900228154152632,0.0309168398380279,-0.6169045485056937,0.2504679219916462,231
1733405454307424300,-4.655646124204993,-3.3869974767416715,0.8089405936643481,7.445640415349602,-5.223899016135931,-3.666569620403647,-0.24905426800251,0.3777623176574707,-0.9516355991363524,-0.375322378798795,-0.1838708634542036,0.8081673854746524,-0.4149580559534499,-1.0616021156311035,0.0082066720351576,1.920345425605774,0.0070463418960571,0.7882983684539795,-0.0871307849884033,0.0214377343654632,0.0121762007474899,0.276378900578618,0.2122412472963333,-0.6428999905057251,0.0301534384623169,232
1733405454347424300,-5.05791642677486,-5.439177259063721,-0.1495882116600871,7.6400623327314845,-4.988468212017417,-3.593745207211375,0.0028370760846883,0.260787695646286,-0.5077240467071533,-0.3869305490769053,-0.1919360454293998,0.8039841834889339,-0.4087232187787834,-0.8153467178344727,0.1167421489953994,1.1241981983184814,0.1296683549880981,0.8851780891418457,-0.0706811994314193,-0.0682623237371444,0.130053237080574,0.9441823000639676,0.3935656547546386,-0.6687837888248265,-0.1904208650469779,233
1733405454387424500,-6.133548347479104,-5.144775795060396,0.1635547776922583,7.745895281556248,-4.882141634456813,-3.512295004492998,0.0621992573142051,0.3498598635196686,-0.1557962596416473,-0.3939895176933896,-0.1953346338988174,0.8005757838909274,-0.4070567156887736,-0.2328170090913772,0.0829098895192146,0.1102334186434745,0.1324020028114318,0.9734379053115844,-0.1055345088243484,-0.0964559540152549,0.0528363138437271,1.0209066433042286,0.4413788318634033,-0.0479830365981906,-0.1368761757336556,234
1733405454427424500,-6.8793409955739975,-6.559291880095005,-0.6262520764350891,7.804550884142517,-4.947241298615932,-3.283928439672291,0.387332558631897,0.6579949855804443,0.4043101072311401,-0.4010415246464857,-0.1916684474124395,0.7941643163160926,-0.4144055849782201,0.6362462043762207,0.1056642532348632,-1.05112624168396,0.2564030885696411,0.9910364151000975,-0.1675384044647216,-0.1246495842933654,-0.0243806019425392,1.100883266338706,0.4891920089721679,0.5738274406602606,-0.083657138178125,235
1733405454467424500,-8.34379220112264,-5.546007986754178,-0.8742568231835961,7.666534160071611,-5.29598459365964,-3.057322747044265,0.2719519138336181,0.3026188015937805,1.7058464288711548,-0.3996752538701544,-0.1741349933005111,0.7909216629821249,-0.4293946452479408,1.4654905796051023,-0.2688829898834228,-2.3386893272399902,0.1916171312332153,0.8377807140350342,-0.151936188340187,-0.1420415341854095,-0.1448971927165985,0.8921189353495835,0.3693642616271972,0.728785910649225,-0.3963513608496636,236
