time_imu,phone_acc_x,phone_acc_y,phone_acc_z,phone_gravity_x,phone_gravity_y,phone_gravity_z,phone_gyro_x,phone_gyro_y,phone_gyro_z,phone_ori_w,phone_ori_x,phone_ori_y,phone_ori_z,watch_gyro_x,watch_gyro_y,watch_gyro_z,watch_acc_x,watch_acc_y,watch_acc_z,headphone_gyro_x,headphone_gyro_y,headphone_gyro_z,headphone_acc_x,headphone_acc_y,headphone_acc_z,frame_imu
1723028729392459300,-0.2164701561260968,20.793281352972983,-0.950193011720851,-0.4227818697987124,9.765113874518873,-0.7963778300154953,0.6154819130897522,0.2457530051469802,0.7717782855033875,-0.0180316340114433,-0.0513342707427051,0.7334635386564228,0.6775477911036051,0.8337160348892212,0.2343248575925827,0.3209433853626251,8.370808218342065,-21.75667162685394,4.674291203442215,0.3428430557250976,-0.487072080373764,19.980959592437745,-0.028263371437788,-7.124803948885202,3.235423644222319,0
1723028729432212500,3.090115886360407,19.966327840495108,-5.398513240242004,-0.4291103421678766,9.713542677235605,-1.2780175104416909,1.633596897125244,-0.3615534007549286,-0.5717624425888062,-0.0139560358092803,-0.049065847705937,0.7501688480109507,0.6592757054163664,-1.0532310009002686,-0.0781621411442756,1.1954714059829712,1.580318349392712,-18.4604276032269,3.1508819052293893,-0.0577966198325157,-0.1498565673828125,19.1626757086277,-1.9727542400360107,-5.696710589396953,0.3805790971023962,1
1723028729471964700,-0.5925359770551324,10.856156714844705,-8.187591001063584,-0.5339357579179108,9.644193831199408,-1.6955239605881274,0.1380888819694519,0.2855145037174225,0.0176116451621055,-0.0092041485783639,-0.0532718974191276,0.7639435637327954,0.6430144098448302,0.2827037274837494,-0.3972632884979248,1.0039551258087158,-0.7646399719059467,-15.350632033884525,5.525838474428653,-0.2470567226409912,0.3780402839183807,7.313445529299974,-2.401562690734864,-2.340629206053168,-0.3968992405233904,2
1723028729511716900,0.3770200529139488,-0.7728525044560431,0.4781180091060698,-0.4204148849390446,9.6815266597718,-1.5038840751402078,-0.8463091254234314,0.4212125837802887,0.327853798866272,-0.0189424145776165,-0.0550191766515794,0.757396617890784,0.6503571362339122,-0.2466197609901428,-0.016236774623394,0.2091054171323776,2.154500339111685,-0.1642348689109087,0.7298933604344725,-0.3097413182258606,0.6261305809020996,-4.620878762206435,-1.4476850032806396,1.68800291743353,0.3102196857841685,3
1723028729551469000,0.9499974160835146,-10.004232427239415,5.105076237356663,-0.4045683503791689,9.725756846642494,-1.190108121646568,-0.7138850688934326,-0.0877372324466705,-0.3734820187091827,-0.0227667398107262,-0.0567999114271525,0.7466273494933946,0.6624220977088,1.1286952495574951,-0.4353927075862884,-0.1295616030693054,0.4049751776143908,13.790068478536606,-1.297646778410673,0.1392771303653717,-0.1996805071830749,-8.261139052355288,-0.7070733904838562,3.189609987552464,0.6884364376693963,4
1723028729591222300,-0.8580832486264407,-13.159923486316202,5.787966146814823,-0.5984891863711178,9.737261406475303,-0.9989644222177564,-0.2000350207090377,-0.1311432719230651,-0.3453437685966491,-0.0145244321722147,-0.0615821629258834,0.7396895610503789,0.669967179698964,-0.9180604219436646,-0.0962365940213203,-0.191736951470375,0.9339905763953924,12.715586312389371,-4.41305083528459,0.3407078087329864,-0.0294340513646602,-8.099970000755786,-0.3826268017292022,2.220434116007388,0.94348788805902,5
1723028729630974500,0.3609172055054456,-11.67104101934433,2.567692433190345,-0.6359513404116034,9.734880648818612,-0.9990413599114863,0.0735183358192443,0.1478170603513717,0.0329681523144245,-0.013716812347678,-0.0635367596414142,0.7395268843627455,0.6699814031603271,0.583724319934845,-0.06295857578516,0.1557180285453796,-2.307275656375289,8.185028457099198,-3.1555569113031026,0.3641449511051178,0.0121362302452325,-9.815814134186503,-0.520622968673706,2.806483945913613,0.8960736643247306,6
1723028729670726700,1.4014704332396388,-8.568767662200331,-0.3219733615398407,-0.6703412473998963,9.734444595488906,-0.980623002102226,-0.2344946265220642,-0.0925146043300628,-0.2488702535629272,-0.0133704045171701,-0.0656856970320456,0.7387037628087498,0.6706887600615338,0.871019721031189,-0.256700724363327,0.30631884932518,-3.4838322955965992,7.307096452534198,-3.449466792397201,0.3428724706172943,-0.1174232214689254,-8.677681041383742,-0.4838172793388366,2.746279652580619,1.7252220564983785,7
1723028729710479000,0.3483563415527343,-7.027863916090131,-1.8363105877637864,-0.7802104660034179,9.74094330985844,-0.8220016622241586,-0.4904750883579254,-0.0928629860281944,-0.1988049149513244,-0.0081296518583816,-0.067583823083151,0.733036730895024,0.6767743326502147,-0.2796179354190826,-0.1204194203019142,-0.041768554598093,-2.5782339932098983,8.77548733561933,-3.086660777470469,0.6170085072517395,-0.0339458435773849,-8.108957609331608,0.0166668929159641,2.7839500425443053,1.738407262894511,8
1723028729750232300,0.1821785949457436,-7.648222842833399,-0.4366881935436278,-0.8114049379512667,9.752128720739483,-0.6387574838735163,-0.5097758173942566,0.1891419142484665,-0.0227398741990327,-0.0085366816504856,-0.0695860201171909,0.7264470749294709,0.6836370872167619,-0.3560866117477417,-0.3659260869026184,-0.3797294199466705,-2.9395491850569844,8.03537799385786,-2.5885242088168856,1.0895322561264038,-0.2531565725803375,-8.933180235540867,0.4045967757701874,3.12759659897089,1.1111956207122653,9
1723028729789984500,-0.1054704721879214,-5.676135418879985,0.9588006080031396,-0.7808330548811704,9.766928230464458,-0.4096305291395634,-0.6425310969352722,0.4722034037113189,0.2458740323781967,-0.0154563848520975,-0.0735663605437318,0.7179647172841547,0.6920084863394891,-0.1453578621149063,-0.4147402942180633,-0.7873849272727966,-1.5821104935064911,3.8876480740427968,-2.4585972676992416,1.1097241640090942,-0.9191488027572632,-1.8671305273108183,0.3388182520866394,0.9720417093049736,-0.1755324897284619,10
1723028729829736700,-1.2145092071272432,5.953623157483339,4.516334099626541,-0.6237887550614774,9.77792776338458,-0.4164129192886874,0.9109795093536376,0.3735561370849609,0.4319247901439667,-0.0264787832369002,-0.0735029795837784,0.7182119893123408,0.6914244300321658,0.151283398270607,-1.0083152055740356,-0.0544334165751934,1.5648448859289288,-5.914553714376687,2.938181403835117,1.8560357093811035,-0.0641881600022316,2.450108548556268,0.9304199814796448,-1.857907794804871,-3.088007808165252,11
1723028729869489000,-1.7721596026316284,16.771988194072247,-6.123611475354433,-0.2431597726690582,9.772826056331397,-0.7766269814934581,0.2671477198600769,0.6142448782920837,1.2773666381835938,-0.0442020892713931,-0.0660707014813377,0.7315952563658885,0.677088872180915,1.2488248348236084,0.6189960837364197,-0.8419522047042847,7.008112336915731,-15.377667340326308,3.8953047262758016,2.2890195846557617,-0.3671007454395294,13.79934951710105,0.3368106782436371,-5.155132938423752,-1.2793638104841112,12
1723028729909242000,3.6758471518367526,15.120335085523129,-0.20620653626509,0.0826004413325805,9.781309222516416,-0.6996994438312948,-0.1731058210134506,0.3163094818592071,0.0628803819417953,-0.0627854243853259,-0.0612804265383208,0.7293280829087178,0.6785155596887029,-0.1662833839654922,-0.5293517112731934,0.4131907820701599,2.8276149967476725,-12.52825523005128,4.595869993156194,2.330042839050293,0.1130634918808937,17.9355807223022,-0.9084019660949708,-5.458117521855235,-1.2528351383902132,13
1723028729948990500,2.750674672669172,16.20636506612301,-3.860689924490452,-0.1124140442481264,9.762194187679889,-0.92591737925075,1.072563648223877,0.1214067563414573,-0.9281749129295348,-0.0582215198530369,-0.0724860434996314,0.7361755373776697,0.6703742866221162,-0.6242789030075073,0.3247101008892059,0.697394609451294,2.712948168604076,-17.206294972372053,3.431390160697698,1.632192850112915,0.6589276194572449,12.485166614431142,-1.5938230752944946,-4.325520435869693,0.2262927907539531,14
1723028729988742700,-0.9660516751099376,4.568880279421806,-3.105802115792036,-0.4773525411589071,9.723455583962798,-1.181914439927414,0.163918524980545,-0.0166884902864694,-0.7266383767127991,-0.0453209755332058,-0.0877107926383036,0.7433489650084968,0.6615777269722816,-1.31297504901886,-0.4378898441791534,0.2361438274383545,-0.3128220868349075,-4.863010525268316,2.321285477027297,0.8269940614700317,0.5404830574989319,2.3013429053254426,-1.121196985244751,-0.8766601579982787,0.8313927370343357,15
1723028730028494800,-1.6262440881349145,-4.837990650302172,0.9059283380586654,-0.6172724319700151,9.724256378951669,-1.1082380860809236,-0.4015142321586609,-0.1340282708406448,-0.0293252523988485,-0.0394746005679017,-0.0913056104305838,0.7403834832423342,0.6647836591399443,-0.0416197404265403,0.1502111107110977,-0.0394281670451164,2.9550641495749352,-0.1253846215128898,1.7852531852215527,0.3800677061080932,0.2649540901184082,-4.28129814004451,-0.7462247014045715,1.915965431497991,0.4120549432748928,16
1723028730068248000,-1.3341884566053748,-9.156112208092212,2.309565228617191,-0.5469060063891112,9.747031105339529,-0.9309540582437068,-0.5039258003234863,0.1720675230026245,0.3785699605941772,-0.042830895489532,-0.0884026405505174,0.7346090266659748,0.6713420300342823,0.9056472182273864,0.3119610249996185,-0.1061972752213478,-0.3832987678572535,6.453165501281618,-2.151717138133943,0.1058716103434562,0.0081411330029368,-7.322694419160485,-0.5455945730209351,3.358209773674607,0.350965574203059,17
1723028730108000300,-0.2150138563705608,-11.41863043885231,2.484550039601326,-0.3733612381454557,9.774861361551284,-0.6950338631730526,-0.6507599353790283,0.2453834414482116,0.376896470785141,-0.0531887628724899,-0.084904315636229,0.7267930386519078,0.6795101994827099,0.8409292101860046,0.1495116502046585,-0.3768047988414764,-2.36160112080276,10.761330897724628,-3.978247213378548,0.2018973082304,-0.1309273689985275,-7.984007287582755,-0.3547580540180206,3.7522207819432016,0.3853841227639466,18
1723028730147752400,0.8208628674525767,-11.303332327067851,3.299490458202362,-0.2978795701763592,9.787354347899557,-0.5379291749356314,-0.135733962059021,0.1955069005489349,-0.0625932142138481,-0.0594105864087119,-0.0847452855970517,0.721280105988199,0.6848676550500996,0.2665782868862152,0.4359786212444305,-0.0969431921839714,-2.190329192861914,10.449115544611216,-4.252279843091965,0.1329248249530792,0.0184230487793684,-8.145405471763015,0.0592798553407192,3.4163834379628297,1.461922271592915,19
1723028730187505700,1.1915455340385437,-8.964107873246073,0.3453144165735691,-0.3983167061058804,9.784272748497129,-0.5289193545280024,-0.0004663947038352,-0.0416019596159458,-0.370811402797699,-0.057010437067915,-0.0895493225567974,0.7203806637734362,0.6854068223986309,0.3650846183300018,0.3743679821491241,0.0330395735800266,-3.234270967055857,8.01389447632432,-3.620469255746901,0.3743869662284851,-0.1647096127271652,-8.718308819848298,0.3797191381454468,3.466430202157796,0.5854467859791591,20
1723028730227189200,0.3947321621499955,-4.939809102788567,-2.410758827203512,-0.5139935880748555,9.78238240470588,-0.4595899438446387,-0.5083776712417603,0.2864869832992553,-0.1208906918764114,-0.0540420423921336,-0.0944040565875166,0.7173008016206438,0.6882202111237206,0.2785153687000274,0.1282404065132141,-0.2842249274253845,-3.2682334424123165,5.635571353301406,-2.6793819990888235,0.898578405380249,-0.7254244089126587,-5.604416336581111,0.5142945051193237,2.868644049489498,0.0734121179863112,21
1723028730266939000,0.3386734441891312,0.6941676747977733,0.7345324184119701,-0.4830738048825412,9.79228595908284,-0.2194801150644198,-0.4621393978595733,0.2852416038513183,-0.0174276232719421,-0.0630262431624318,-0.0994596390463257,0.7080241183370042,0.6963026415466929,-0.5922183990478516,-0.721206784248352,-0.4593150317668915,-2.039632435438037,2.4609669194400308,-0.4436100286960601,1.8356900215148928,-0.1673864871263504,1.9549566948018968,0.4871954321861267,-0.9403054586306214,-1.964405198887736,22
1723028730306688500,-1.323107967403531,10.574468601942062,-3.350031727916002,-0.6028774844579399,9.786120422190429,-0.1968283757354132,0.0604666210711002,0.1059066280722618,0.0753689780831337,-0.0590011625301763,-0.1038406248185609,0.7065780770338966,0.6974835341936866,0.2865634560585022,-0.0184206217527389,-0.2182810604572296,2.6623656900972126,-10.030809468519688,1.5838590907394885,2.1220855712890625,-1.411400556564331,4.915471949389577,0.3198435008525848,-0.5736123000722378,0.0620826635586563,23
1723028730346439200,0.5230550656044856,8.882871021017431,0.5020563724458217,-0.2875255320855416,9.801628372445702,-0.125717378864903,-0.150286003947258,0.5083975791931152,0.8501123189926147,-0.0774981597845298,-0.0992031695686283,0.7046761907223535,0.6982723496386628,0.7539927363395691,-1.004063606262207,0.3869269490242004,0.5183838223904371,-11.06457617791891,2.422625498346984,1.602619767189026,0.2559253275394439,9.544595392850042,-0.0857149437069892,-5.076928001236915,-0.6848806448839605,24
1723028730386188800,1.5489776008419691,10.922679982066152,-1.2906874607920646,-0.1239785175746306,9.804221896070242,-0.1795015942888334,0.406620055437088,0.1017844602465629,0.3747301697731018,-0.086409275372008,-0.0969521562371903,0.7069316190057756,0.6952562660470173,-0.1181339547038078,-0.5737298130989075,0.2296388447284698,2.723225232468545,-10.658567273342609,2.206496483808756,0.510010838508606,0.1605039983987808,9.358752503243087,-0.7885987758636475,-4.320719757589697,0.3711052028469741,25
1723028730425938400,1.667640074492991,9.503756601983309,-2.8092273994028565,-0.091207900617551,9.800690214812755,-0.3294208645341918,0.1899788081645965,0.1173149198293685,-0.345359057188034,-0.0877998157161042,-0.097432743432493,0.7122518170583583,0.689561687913367,-0.5556433796882629,-0.8710520267486572,-0.085394263267517,1.4419351300969718,-3.863759248933196,3.029293753390014,-0.2174596488475799,0.7208250761032104,2.682855228157341,-0.3317752778530121,-1.9533425376035272,-0.0416943208506796,26
1723028730465688000,-0.0062273135496303,1.7808499818265435,-1.2343255221009253,-0.3666698142154142,9.79795932854414,-0.1896258787443861,-0.9784454703330994,-0.0681105479598045,-0.9102483987808228,-0.0797257801108897,-0.1077501538637088,0.7057323384008328,0.6956836297688358,-0.4345372021198272,-0.3533947765827179,-0.5157526731491089,2.654360662817955,0.3082423578292131,0.5616878343269228,-0.0909268036484718,-0.0368057899177074,-2.464923548111319,0.3230492174625397,0.7568771558847278,0.0002359858715848,27
1723028730505438500,-1.1068768076650797,-3.7983413126051424,1.8344149832755323,-0.6881759601023048,9.776664027059075,0.3371257763557136,-1.4990627765655518,-0.1206088364124298,-0.6664298176765442,-0.0699340824863189,-0.1159611367254035,0.6851017321911119,0.7157498941380042,-0.1831611692905426,0.0428499281406402,-0.9047094583511353,1.7956012684956193,5.044861714890599,-0.4728241404816508,-0.0627427920699119,-0.3802244067192077,-3.696805768713354,0.672180712223053,1.1299673950690776,0.8601322170455008,28
1723028730545188000,-0.7108349511560053,-6.754055158260464,3.2442876264184712,-0.8738271265294403,9.73214157924354,0.8319904106665402,-0.887503445148468,-0.1454546004533767,-0.3084166944026947,-0.0639128776637237,-0.1187320635085916,0.665945186098659,0.7337129906372294,0.3462680578231811,0.1812825798988342,-1.041987657546997,0.5605918557837605,5.462537676385045,0.0994014544725418,-0.0365651547908782,-0.5908955335617065,-4.5465077040940525,0.6079114079475403,2.084876183265448,0.5454523004494607,29
1723028730584937700,0.2434397769205272,-6.429119439783692,2.340031532420963,-0.9186044989541172,9.709623457965254,1.0245695497259495,-0.1810022890567779,-0.1949272006750106,-0.0049200300127267,-0.0616674351147573,-0.118089522509894,0.6586473681350697,0.7405643329147491,0.1922148466110229,0.3544049859046936,-1.04777729511261,-1.0528545639678837,4.734121695026755,-1.0962354405328631,0.1601920276880264,-0.5517318844795227,-2.672748260162771,0.3973409235477447,1.3587665791533887,0.567140839035809,30
1723028730624687400,0.9671043259680272,-3.675825524526834,0.2972749736130237,-0.9290964476782828,9.703976391988991,1.0677193209487943,-0.0408597290515899,-0.3577402234077453,-0.1053452715277671,-0.0567074352877446,-0.1140378176160825,0.6576905346934199,0.7424438771343002,0.2131600826978683,0.0815376117825508,-0.4570808708667755,-2.2550018637806177,2.3428204324871302,-1.2105416186705231,0.2533641457557678,-0.2523261308670044,1.7395390434034168,0.0050849397666752,-0.0228599615524755,0.866471064678207,31
1723028730664438300,0.7146267446544021,-1.8733254364281893,1.7339233954787254,-0.97364936369732,9.701466454994678,1.0506829920824616,0.3169050514698028,-0.0803798660635948,-0.1628224849700927,-0.0512004763670498,-0.1123130074707046,0.6586469955265133,0.7422590002977951,-0.2445568889379501,-0.234589397907257,0.3930611908435821,-1.485111716261506,-2.964100565728545,-0.4654056809186935,0.0546006113290786,0.1154387444257736,1.9009395656712351,-0.2083090990781784,-0.7026283368900418,0.6881498027477413,32
1723028730704188000,0.399454368366301,2.316435698908568,-2.5424141995489595,-1.0105742690559476,9.721908939042686,0.7959939452644437,0.9371700882911682,-0.26451176404953,-0.0927356258034706,-0.0466261081788997,-0.1126906053555324,0.6683684831167304,0.7337645308497766,0.1284012496471405,0.0580274388194084,0.6579169631004333,-1.1481465372949835,-5.170757208535075,-0.3852566239267587,-0.1233186498284339,0.3055683672428131,0.4767541734069585,-0.2958616018295288,-0.6098620826482772,0.0149794237359892,33
1723028730743937500,-0.3766020466975867,1.7003735925763843,-3.869583425042033,-1.003954558655247,9.745107443800569,0.4419843271903693,0.676235020160675,0.3492902219295501,0.2276708334684372,-0.0452652632197609,-0.1137141694523715,0.6815674280791945,0.7214471686030288,-0.4683772027492523,-0.1038049757480621,0.1884585916996002,-2.187812533865869,-0.2324339603900909,-0.6831155349075794,0.0870563313364982,0.0706185773015022,-0.6955260306041687,-0.1582748889923095,0.266346696587,0.0524220236926339,34
1723028730783688200,0.4904074357062578,-1.320739484706521,-0.6421341206997633,-0.8630048498723656,9.76284300697744,0.3353770695248618,-0.1908834129571914,0.4422944486141205,0.4021762311458587,-0.056395101675618,-0.115287499489543,0.6852804688881714,0.7168813941538623,0.0303628388792276,-0.5056211948394775,-0.0320897586643695,-0.5976809387281536,0.7332482238203286,1.0502081411123274,0.087731048464775,-0.0539927147328853,-0.2786956530883908,-0.1367625594139099,0.1892102836808189,0.5319035945031791,35
1723028730823437600,0.9464791788294912,-0.7137532497555017,2.155023486202955,-0.7922028093531728,9.763985162749886,0.4554046575166284,-0.3137112259864807,0.2465996742248535,-0.0019052971620112,-0.0644291491845968,-0.1169199288758893,0.680522266024429,0.7204637648433254,0.5896767377853394,-0.0293134301900863,0.0636015385389328,1.4527528767094016,0.5812988359868526,0.5940104335218668,0.1834252327680587,-0.0690381526947021,-0.1744821586916223,-0.0339845940470695,0.2197834088599309,0.3456122670089825,36
1723028730863187200,0.144054469865188,0.4423801946401596,2.2385247762322424,-0.805452678483352,9.763054019379616,0.452109305765666,0.3630852401256561,0.0916702300310134,-0.0017199057620018,-0.0662583373339517,-0.1196007819778482,0.6801797513870094,0.7201812192229843,-0.0585507862269878,-0.1759237498044967,0.2117956131696701,0.637466421149671,1.3077064001321792,-0.5992603168740869,0.0983067229390144,0.0737643390893936,0.1905377876912243,-0.2319060415029525,-0.2097778371469117,0.4079246750697493,37
1723028730902936800,-0.0205281895700842,0.2217132444113493,0.2134884369015693,-0.7887120446279644,9.772432673099637,0.218814435963612,0.673451840877533,0.1201837286353111,0.1277641654014587,-0.0671158070400823,-0.1214193964885589,0.6885498522530306,0.7117948506883064,-0.0563217215240001,-0.1976405382156372,0.1883141845464706,0.3517766713902354,-0.9266349529355764,0.379562211677432,0.0254486631602048,0.0952966511249542,0.0223371295550372,-0.2616500556468963,0.0299417228072416,0.0917500629365444,38
1723028730942687500,0.1434775467600673,1.0830874974071978,-1.901334556338191,-0.7254181877817958,9.779704709929227,0.0390942715872311,0.1103020012378692,0.2290196716785431,0.1392933130264282,-0.0705251082147396,-0.1219950169616564,0.6950711926043336,0.7049960611969203,0.2968693673610687,-0.2264350801706314,0.0514046661555767,-0.2652884745046496,-0.8189280269324779,0.2218646355807781,0.064250960946083,0.0260430611670017,0.0381090645087417,-0.1221136376261711,0.0078449002475244,0.1840875703722238,39
1723028730982447000,-0.0708243984814733,0.0913800605803728,-0.5128980844557285,-0.6823018804371357,9.78230875494778,0.106332952502463,-0.3601085841655731,0.2361582666635513,0.0757029876112937,-0.075978290359074,-0.1236291460564929,0.6923108858103714,0.7068584830532586,0.0394599325954914,-0.2089362442493438,-0.012401076965034,0.3161316497743129,0.6692091746300458,0.0882812177821993,-0.0169897396117448,-0.0128349801525473,0.0464244911777321,-0.0716865286231041,0.0519805452691391,0.2836158295622095,40
1723028731022196700,0.2817624933131039,-0.1312964759051799,1.273944415783882,-0.6881782981898635,9.780378079146146,0.2025301127746701,-0.0781228616833686,0.0514898262917995,-0.1085094958543777,-0.0785471543368229,-0.1255701923590522,0.6884082837631602,0.7100398523155734,0.0222212895750999,-0.1613476276397705,0.0344274155795574,0.6181351132139563,0.311398191511631,0.2438490883737802,-0.0030738194473087,0.0125268492847681,0.0881978868803009,-0.069202035665512,0.0150323412333149,0.1315620041067246,41
1723028731061947400,-0.5228049267683178,-0.2103162366062402,0.8550666772842407,-0.720982835682854,9.778443896213174,0.1805753427338786,0.1241001039743423,-0.0019041649065911,0.0072949635796248,-0.0773792588467922,-0.126972116012937,0.6889639336717671,0.709379463987741,-0.003284070175141,-0.0927582904696464,0.0236347541213035,0.7248670567050576,0.3920739027261734,-0.2310594571664929,-0.0226870086044073,0.0167272668331861,0.011999769746029,-0.0605697445571422,-0.0034250733696331,0.2990820047686807,42
1723028731101697000,-0.423724740139395,-0.3984241485357284,0.1591016159419901,-0.6785060683507472,9.78219944935441,0.1364326240840833,0.0620189756155014,0.101639911532402,0.1713989675045013,-0.079329284175142,-0.1263299190091921,0.690713126747343,0.7075755367551412,0.198185920715332,-0.0109642501920461,-0.0037400114815682,0.3691062841147184,-0.3095896807849407,-0.0056093643143773,0.0006617796607315,0.0437348932027816,0.0278676587628317,-0.0233127921819686,-0.0602673257989576,0.1248405503646004,43
1723028731141446700,0.2607099145427346,-0.0271826059579849,-0.0454997501487843,-0.6333077671002596,9.78520155377984,0.1384246381515171,-0.0447435118257999,0.0321841426193714,0.0453381314873695,-0.0822098309580332,-0.1259306469787647,0.6907125160362206,0.7073184298459179,0.0865400955080986,-0.031093381345272,0.0254056900739669,0.0536465422526001,0.3691396018624305,-0.0810538968771696,0.0199904758483171,0.0141123235225677,-0.0894406991487834,0.0080610457807779,0.0394797089745523,0.1558352710898034,44
1723028731181196300,0.0291674961648881,-0.0610217471957206,0.235022205051314,-0.6396888464394956,9.7844726549834,0.1589735508492216,-0.0073195304721593,-0.0506714284420013,-0.0213972330093383,-0.0817444073529369,-0.1257119156755618,0.6899935646673212,0.7081124204551551,-0.0824534595012664,-0.0190091803669929,0.0224737506359815,0.1867106123521923,0.4645838431417942,-0.1184527764230966,-0.0645531117916107,0.0164295360445976,-0.0387403938153758,0.0234259497374296,-0.0051035194135358,0.363963039474748,45
1723028731220947000,-0.1108273230459541,-0.0454383936166763,0.1207925992812029,-0.6373604765571653,9.785049578088522,0.1301494795608334,0.1300769448280334,-0.0725863128900528,0.0305005870759487,-0.0809319235659982,-0.1250547207745481,0.6911769239888885,0.707167388740712,0.0586469434201717,-0.0396012179553508,0.0190103091299533,0.1371852416828274,-0.2162158160388469,0.3766217743113637,-0.0956512168049812,0.0305299144238233,0.0189526336493203,0.0152875240892171,0.008234485799467,0.160634816858638,46
1723028731260632000,-0.1393754086708649,-0.0450023402869701,0.0178846071255858,-0.6062685882009565,9.787307001626491,0.106913108744286,0.0347008965909481,-0.0266674496233463,0.10361198335886,-0.0811347630101244,-0.1232959459787499,0.6923489425401439,0.7063059782450873,0.0224676318466663,-0.0016437186859548,-0.0409564189612865,0.2331216503933072,-0.0666658905625343,-0.0691509853765368,-0.0840970203280448,0.0196978785097599,-0.0101616116581019,0.0273662637919187,-0.0014873148066631,0.0669349715611897,47
1723028731300379100,0.106960601147823,0.0019067104041576,0.1353051270246505,-0.5735307592686265,9.789330616408586,0.1023194608110934,0.0447648875415325,-0.0678883120417594,0.0847191363573074,-0.0817179701700479,-0.121598781921681,0.692818082711007,0.7060730141589696,0.046602264046669,0.0016742604784667,-0.0367377735674381,0.1081125841945409,0.0086620298832654,-0.0150163673460483,-0.0177364237606525,0.0469188243150711,-0.0347644211228005,0.0318818613886833,-0.0323993450924288,0.0200364422640763,48
1723028731340126200,0.1061256846936419,-0.0692921474128961,0.1420592683268245,-0.556085922666639,9.79034885354042,0.1011017281849402,-0.015009849332273,-0.0209531653672456,0.0510881245136261,-0.0816276774431543,-0.1202878370794221,0.6930916841022167,0.7060394352522216,-0.0193722266703844,0.0710810795426368,-0.0359249114990234,0.1171843639224767,0.2638783154457807,-0.2040302882045507,-0.1076504737138748,-0.0085856700316071,-0.1614390276473015,0.0472715832293033,-0.0176652150541311,0.3779417708687484,49
1723028731379874300,0.2085547798916697,-0.2132604733645915,0.4224304625451564,-0.5476335534786805,9.79081530200839,0.1020492838338948,0.051491767168045,-0.006694315932691,0.0255825668573379,-0.0818698501388777,-0.1199175452260176,0.6931209973036029,0.7060455747803231,0.0323610082268714,0.0276584569364786,0.001041161478497,-0.0213186823606491,0.1703881308436393,0.1235296412959694,-0.2377990633249282,-0.0947638377547264,-0.0735609107732772,0.1266985386610031,0.0435042426497442,0.3775696496207267,50
1723028731419621400,0.1845271308332681,-0.3699497492015361,0.0725660453838761,-0.5248029687177389,9.792030523017049,0.105353202483803,-0.0572400391101837,-0.0227993968874216,0.0816724821925163,-0.0825077223019079,-0.1188938951197286,0.693175824344705,0.7060906195500319,0.0965285450220108,0.0251978021115064,0.0099057601764798,-0.0201367790997028,0.0649029725432396,0.1748532935589551,-0.2059926390647888,-0.0076222708448767,0.0733733660116558,0.0708319470286369,-0.1621489477486349,0.0390509667350444,51
1723028731459368400,0.2430733182283118,0.0430476990878581,0.3362199135571718,-0.492818259707652,9.793528068098423,0.1195763918918557,0.0879099667072296,-0.0750633403658866,0.0467889383435249,-0.0829239598681722,-0.1168945433894324,0.6929927607975057,0.7065551603558494,-0.0090466178953647,0.0205188412219285,0.0292120799422264,-0.0170262458637356,0.1649327880471944,-0.0913841522336006,-0.1743068695068359,-0.0014783227816224,-0.0517031485332874,0.0302410013973712,-0.0136667394104471,0.0850216405975166,52
1723028731499116500,0.1903430871030315,-0.046897360253334,-0.0739297440856695,-0.4927607938993722,9.793991593956946,0.0728821347288787,0.1584372967481613,-0.1223912835121154,-0.0418816544115543,-0.0810708942918503,-0.1155363697515349,0.6949355312535739,0.7050840671600459,-0.0619505792856216,-0.028613019734621,0.0542003847658634,-0.0766188370391726,0.0623112024843692,0.1900730745226144,-0.1548061817884445,-0.0052641136571764,-0.120948401764268,0.0410373099148273,-0.0204645908485399,0.1140944533494301,53
1723028731538863600,-0.1320964306438341,-0.1294330201208591,-0.0177513452678918,-0.4770782907947897,9.7949747597754,0.0354085551120806,0.0725933313369751,0.0008574523963034,0.0930520594120025,-0.0805269854232075,-0.1142568692001275,0.6965199451297637,0.7037902864805785,-0.0542891956865787,-0.0390668846666812,0.0085433525964617,-0.0593807019904255,-0.0139741648167371,-0.0565992545783519,-0.315928041934967,0.0368783324956893,-0.0046908675090147,0.0327256061136722,-0.1610888442364521,0.509538581427373,54
1723028731578611000,0.1016914285732433,-0.1802823328703642,0.3347358124792575,-0.4301457496302202,9.797190097737312,0.0199051919836667,0.0484501719474792,0.0093132080510258,0.0961210578680038,-0.0822084875015034,-0.1127373173080581,0.6973345072341102,0.7030337998897395,0.0489399880170822,0.0246119070798158,0.0154926059767603,0.0871130507856607,-0.1455465350538492,-0.0218333538845181,-0.94734388589859,-0.0009305716957896,-0.0992580548133235,0.0292872823774814,-0.2249463445810601,1.4460617085076868,55
1723028731618358000,0.2548039419019595,0.0058393736779689,0.6724795746028422,-0.3977077438946813,9.798564893221856,-0.0181148105687112,0.1448898017406463,0.0294259078800678,0.103378526866436,-0.083574732875744,-0.1121619835716865,0.6988156321556268,0.7014924218615092,-0.0672771632671356,-0.0421599857509136,0.0189753547310829,0.0715031014606356,0.3355944751352072,0.0653439943090081,-2.618607997894287,-0.056605264544487,-0.3939417058920487,-0.0875840410590171,0.1949579422210343,3.344026642282307,56
1723028731658106000,0.4459370834041387,0.5565946028411388,0.1947907506942749,-0.3627384661158546,9.79967373124659,-0.0720875639848178,0.1238457635045051,-0.0369069799780845,0.0800472572445869,-0.0844413627516407,-0.111068774329033,0.7009558974555143,0.6994241701258446,0.0566490404307842,-0.0879338681697845,-0.0223543103784322,0.327838161920011,-0.2380535538375377,0.2944917726352811,-3.8366951942443848,-0.2950351536273956,-0.4096153315704315,0.0824488028883934,0.983880834854394,2.642555658733845,57
1723028731697853200,0.2666438346363604,0.8086749284654855,0.1507224855201784,-0.3202140602497383,9.800929868787527,-0.098050414322922,0.0774582996964454,0.0509775392711162,0.1199361979961395,-0.085822852165845,-0.1096710286155766,0.702119252779155,0.6983088502392567,-0.1580771207809448,-0.1477482467889785,-0.1176972091197967,0.1783183393210172,0.1754781474590301,0.0039244799673557,-4.432775020599365,-0.2592321038246155,-0.3752474537508562,0.0063711069524288,1.4847271008580922,1.6490546164885165,58
1723028731737600300,0.4229448418080807,0.5054273101836443,0.8521721248865127,-0.2795921452703885,9.80146236822903,-0.1535142442637123,0.2746433615684509,-0.0516871213912963,0.0758669674396514,-0.0871005596092563,-0.1086012940852696,0.7042959657503044,0.6961225023165728,-0.421520471572876,-0.2109822928905487,-0.1305053532123565,0.2813426604658365,0.4978747028470039,-0.041136312508583,-4.01627254486084,0.0728104263544082,0.3754221161980182,-0.0949048027396202,1.2245442058641465,0.1047569079579319,59
1723028731777348400,0.2422447767159901,-0.0567085601717233,1.4153601346433162,-0.2566099501443095,9.796620188894869,-0.3616120924344286,0.8824294209480286,-0.1013231426477432,0.0369107127189636,-0.0855361810675602,-0.1074301034608369,0.7119661922897668,0.688655532572063,-0.5994576811790466,-0.0759017094969749,-0.138152077794075,0.3372790672212838,0.6206880125671624,-0.1974497407704591,-3.126684665679932,0.5214449763298035,0.7570881682869046,-0.3066678345203399,1.172215979668498,-1.670439788214117,60
1723028731817095400,0.0547199984367005,-1.112182658988237,0.8901426668405532,-0.2387742875938303,9.768418761283158,-0.8314846531014889,1.4332674741744995,-0.0535557009279727,0.0744690671563148,-0.0826685626524894,-0.1078367985500667,0.7285363033886699,0.6713955751093078,-0.5933313369750977,-0.0966952890157699,-0.0499172247946262,-0.2548509593814611,0.4130693444818258,0.3270470115423202,-2.067324161529541,0.673926830291748,0.5498442152654752,-0.2042412012815475,1.013063747784123,-1.84794081980288,61
1723028731856842500,0.291917428635247,-1.546083779096603,-0.0207248081207275,-0.2138066360052674,9.70791723856926,-1.3715033111296593,1.249674677848816,-0.2844702303409576,0.0269757974892854,-0.0787838959307014,-0.1071737452559735,0.7472890989731024,0.6510498508490078,-0.9391880631446838,-0.0372883193194866,0.1270883083343505,-0.3457417751401662,1.0819026715368032,0.2268393552534282,-1.070620894432068,0.8062290549278259,1.098788559081778,0.4996563196182251,0.3908556860428303,-2.588225810392201,62
1723028731896590600,0.4623315707029775,-1.2761445561766624,-0.3337712052308023,-0.3067082801297306,9.639837974077462,-1.7747721232175826,0.8647862076759338,-0.6413028240203857,-0.3455196022987366,-0.0674028522746023,-0.1051974619761972,0.7611975368785787,0.6363713894949199,-0.7465035915374756,-0.0360245928168296,0.3811900913715362,-0.2731035321697592,0.8385247078061103,0.3670493515849113,-0.4549977779388428,0.8519865274429321,0.2908864598860032,0.541120707988739,0.1282058712123893,-2.40978413695246,63
1723028731936337700,-0.094948785912618,-0.7448276024550199,-0.4770762449681758,-0.5252991547368466,9.58796107184589,-1.99134581278339,0.3061366677284241,-0.5784453749656677,-0.4565010666847229,-0.0503220819280307,-0.1040295984563468,0.7685754494556579,0.6292355330149041,-0.477142721414566,0.1437890529632568,0.4208895266056061,0.1264703709229827,-0.6850514714062214,-0.0288131297692656,-0.141688734292984,0.5762180685997009,-0.5268381278071552,0.4021508395671844,0.1278007610102184,-1.1239845212671906,64
1723028731976082000,-1.1023699977651238,0.426703902080655,-1.787479336838424,-0.6614083646859973,9.585098083630204,-1.9643841560997068,-0.4080398678779602,-0.4841490089893341,-0.0273082740604877,-0.0395092338672363,-0.1015156493233916,0.7680171174151447,0.631096864688853,0.0389547310769557,0.3335201144218445,0.4301703572273254,0.2384311549782752,-0.9054103785991668,0.6414959689266979,-0.1984662413597107,0.3980325162410736,-0.5141943713439628,0.2789826095104217,-0.1819325294964946,-0.0053720883847156,65
1723028732015829000,-0.903153247322142,0.7958359051585197,-0.5738052653610706,-0.6822571645125747,9.631061962425708,-1.7168476113848388,-0.5882064700126648,-0.1052992194890976,0.114800788462162,-0.035665488393659,-0.0965399842340031,0.7604044320113328,0.6412434241935379,-0.2055961638689041,0.260885626077652,0.1964877694845199,0.1540802623823285,-0.4905664256602525,-0.0536265223778784,-0.1781542897224426,0.2331093996763229,-0.7707087704256177,0.087649866938591,0.0543692990026203,-0.0500253606473328,66
1723028732055577000,-0.0474361798377707,0.4472159442335366,0.9399123676598072,-0.5927134159812704,9.645241878947616,-1.6698438681475818,0.3082930147647857,0.1176560297608375,0.2622040510177612,-0.0388591419652707,-0.0928958754614802,0.7592817021038667,0.6429242404945379,0.1798452585935592,0.3154937028884887,0.0880147442221641,0.375102894181013,-0.4285357936829328,-0.5079900002785027,-0.1053422540426254,0.1241359636187553,-0.5313812145968899,-0.1075180768966674,0.0131965018249931,-0.0858582923510577,67
1723028732095324200,-0.0014132643314078,0.0263332956522703,-0.4957891287446022,-0.4826644568966701,9.62020446832478,-1.8409519838288424,0.4322339594364166,0.0647846609354019,0.3054229021072387,-0.0419043460830685,-0.0891396401491844,0.7654518630602319,0.6359101080382266,0.1809057295322418,0.3125375509262085,-0.0603970326483249,0.1740104129940271,-0.6438403400957584,-0.7797394874908029,-0.1112137958407402,0.1081665828824043,-0.4011381567347794,-0.1572791188955307,-0.0374837630840949,0.1588734697419218,68
1723028732135071200,-0.1905369291746989,-0.1429278769880533,-0.5197543800912797,-0.3207746532745659,9.60600935423374,-1.9473203547045588,0.1276254206895828,0.4000489413738251,0.4421675503253937,-0.0501668498594456,-0.0870712225166633,0.7692231865436332,0.6310289161680256,-0.2411698698997497,0.3580082654953003,-0.0043932180851697,0.2566176767930388,1.3375667008668184,0.2013588770382106,-0.1244614645838737,0.0423665605485439,-0.3091562943363562,-0.1606638431549072,0.045642062962614,-0.1925326878354884,69
1723028732174819600,-1.466268630234152,0.323481428015232,1.9882181822821496,-0.1216857487286441,9.590459902924298,-2.044183230610192,0.6282075643539429,0.2562589943408966,0.5449784994125366,-0.0600466861876491,-0.0840040952923125,0.772766234534971,0.6262349203326241,-0.5353617668151855,0.2692196667194366,-0.0457483790814876,-0.4577364614650607,-0.1763040768891572,-0.2731887262351811,-0.0855941846966743,0.0549147091805934,-0.1688632228313013,-0.3268139660358429,-0.1541734205584973,-0.4003893476614728,70
1723028732214566400,0.9532315026339144,-1.197693535274267,3.355352630677819,0.1623168881940655,9.465618302246927,-2.5585320983961224,2.1156234741210938,-0.0314648002386093,0.6986815333366394,-0.0701131651772505,-0.0780408776894183,0.7901635574954639,0.6038503346705943,-0.314072847366333,-0.0435375347733497,-0.0023979779798537,0.1079825280740857,0.1815326251924038,0.3072036624312401,0.0073073566891252,0.0208286792039871,-0.0816445745130069,-0.3072885274887085,-0.0238605785459396,-0.5281252815408631,71
1723028732254313700,0.3555461434589698,1.1069944426953793,1.5901692967996,0.4394782991861924,9.183435099303722,-3.4120071225747464,2.057713031768799,0.8710005879402161,0.7413431406021118,-0.0777974020760799,-0.0728495839438551,0.8177144316425259,0.5656710435036804,0.3687179684638977,0.6501456499099731,0.0961218029260635,0.5596045983120799,-0.0093494276255369,-2.5229811848044394,0.1476714611053466,0.0413999147713184,-0.1488353931319434,-0.0889724791049957,-0.2959648408625274,-0.2470355729227885,72
1723028732294060800,2.1958407958902417,0.8011211520850658,0.0799047268420457,0.7924222242575139,9.021987815284728,-3.761138540153205,0.0761477574706077,3.061847686767578,-0.5581465363502502,-0.1071699017473682,-0.0885310857974621,0.8269987568889073,0.5447474849534318,0.1326609700918197,0.5145958065986633,-0.023661920800805,0.4852405544623732,1.1315525453686714,0.4640827617518603,0.115062415599823,-0.1073072329163551,-0.6578159662172198,-0.0818644687533378,-0.058932930823462,-0.3944003729123622,73
1723028732333809000,0.598089300333336,0.3195861741423607,-5.696356369131803,0.8025186708580702,9.124641549551486,-3.502464807613194,-0.9498251676559448,2.0602591037750244,-0.9176944494247437,-0.1410063504568079,-0.1341881958906275,0.8127542886279746,0.5491276588073256,1.0060275793075562,0.838509738445282,-0.0187714919447898,0.0060720133900642,-1.336215286257863,-1.0932204766258595,-0.0402172915637493,-0.2418260425329208,-0.3163085772437974,-0.019222380593419,-0.1455289902640041,-0.033440723354544,74
1723028732373592600,0.9664432317107916,1.0862532679617405,-1.7316724016815424,0.8347446778107434,9.29291254211068,-3.0191733413919803,-1.265006422996521,2.271471738815308,-0.681254506111145,-0.1709681386880915,-0.1648520472673554,0.7916809966264874,0.562881047723059,0.8997315764427185,0.4568641483783722,-0.2591686248779297,-0.8592293499216437,-0.6229121183574199,-1.4003162947684529,-0.0825501605868339,-0.19633749127388,-0.0889844432812649,-0.0345750823616981,-0.3336763300215825,0.047587301579141,75
1723028732413341200,0.3266935219295322,0.7051163543134927,-2.4032404143974184,0.8069608910892159,9.44420258925259,-2.5151982758432627,-0.8875382542610168,1.9066569805145264,-0.7460677623748779,-0.2028244635813533,-0.1990707300330885,0.7672094058609349,0.5749980450438198,1.461643934249878,0.3982927799224853,-0.2576902210712433,-0.0422203083530068,-1.4665391177386045,0.4849895023107528,-0.0602663531899452,-0.168866217136383,-0.2744878078687005,-0.069785289466381,0.1127868322164285,0.0540098317401949,76
1723028732453090600,0.8762661171793937,0.3942015624046325,-1.8541902355864643,0.5635467600665987,9.499089779216051,-2.3706777228362856,0.3117199838161468,-0.2229029089212417,-1.1161134243011477,-0.2061002514169062,-0.219310255740109,0.7568182968669296,0.5802170677332568,-0.1429543644189834,0.1685805320739746,-0.4044800400733948,-0.7906848060056567,0.57378772970438,-0.0876902661517262,-0.1779093891382217,-0.1872637569904327,-0.1337316397633869,-0.1442920714616775,0.1273528437127825,-0.0489873274030629,77
1723028732492839200,-0.0530506861181464,-1.1952256838560105,-2.902475299681723,0.0552951953756157,9.480212060266732,-2.508570966657996,-0.0358734913170337,-0.4358003139495849,-1.1136295795440674,-0.1829868877862284,-0.2332911810062555,0.7572824765230912,0.5819058076043588,-0.4983238875865936,0.1078064516186714,-0.2561615407466888,-1.1479323100224137,0.8990005115568638,-0.6747288148343563,-0.2701508104801178,-0.1379376351833343,-0.1135043693686369,-0.1741524636745453,0.1650728906376287,0.0837216821811627,78
1723028732532587500,0.0245601850325241,-1.4558072958439587,-1.5044085374057292,-0.2995941372755915,9.543719779059291,-2.235633292574436,-1.2051254510879517,0.5323584079742432,-0.9894680976867676,-0.1763872932329449,-0.2459207046009816,0.7439815730368761,0.5957365262395495,0.5492616891860962,0.7264418601989746,-0.4414073526859283,-0.3065387687817216,-2.1928642642974854,-0.1403492586717009,-0.2671681344509125,-0.1148602589964866,-0.1295480978678911,-0.1746276915073394,0.2159341130206361,-0.2738393904299475,79
1723028732572336000,-0.175741511102952,-1.0440759219676257,0.1386672969341278,-0.5699027414971962,9.631179451325536,-1.756698998649418,-1.1639503240585327,1.215935230255127,-0.5994022488594055,-0.1858924001098731,-0.2658107549463744,0.7203550296604418,0.6130883559707759,0.1984405219554901,0.5233507752418518,-0.485232800245285,-1.1436603317916392,-0.7768599865317344,-0.3778276429697871,-0.3194855451583862,-0.0588330924510955,0.0055379744411999,-0.2385638356208801,0.1846917468104511,-0.1265958787324838,80
1723028732612085500,0.8364988280016928,0.1481903275609016,2.318195109796524,-0.6358349474903195,9.70709189366102,-1.240355742175877,-1.2076187133789062,0.3497699201107025,-0.02097755856812,-0.1947278965929706,-0.2675363646848708,0.7011881600614577,0.6315382851610879,0.0126411002129316,0.0296361744403839,-0.488072395324707,-0.9541901915982364,-0.500595652243495,1.4018220231562852,-0.3109459280967712,-0.0159198269248008,0.0064529880897549,-0.1640339642763137,0.2140527562534436,-0.0134470390950271,81
1723028732651834000,-0.1995311501543968,0.1805447831988334,2.657961317658424,-0.6116542267620563,9.709452777573466,-1.2340098802804946,0.906063199043274,0.0426600240170955,0.0640966817736625,-0.1982930391085526,-0.2695876427787553,0.700171046557249,0.6306844368470891,-0.0638731122016906,-0.0645983442664146,-0.3407137095928192,-0.5454609221473335,-0.166554251769185,1.785552752690017,-0.2536140978336334,-0.058310218155384,-0.1913773620542138,-0.1368798613548278,0.4351773140566423,-0.2783542375058866,82
1723028732691582500,0.661920478926599,-1.0920476334542035,-1.7271205835960803,-0.6025142041034997,9.663737320581076,-1.5554783610381184,0.3452439308166504,0.0141952270641922,-0.1277016997337341,-0.1952918992501017,-0.273889694595144,0.7101350314865303,0.6185091954540256,-0.2326245903968811,-0.3969177603721618,-0.1428184658288955,-0.7793921353578567,1.0403343973517418,2.202230643057823,-0.2590832114219665,-0.0336493775248527,0.1159488855770789,-0.121533915400505,0.3308132322080433,-0.3121192723277956,83
1723028732731332000,-0.0292805280853062,-0.2375298222243785,-0.4056408019162714,-0.6343623907197267,9.663353289699554,-1.5451839076474307,-0.1741376370191574,0.0437036417424678,-0.0002271201810799,-0.1940801589935501,-0.2745680385573028,0.7095032398400707,0.6193145573679748,-0.5891991853713989,-0.7755836248397827,0.0417843982577323,-0.6161512459203601,1.6561492509245872,1.3986281955510378,-0.2445514053106308,-0.0308596678078174,0.047922173256427,-0.0072368420660495,0.4345080730255693,-0.3174020350363105,84
1723028732771080400,0.5889408021073788,0.5563578714758157,0.0589445025302469,-0.6758801037613302,9.66807914917767,-1.4972607114776968,-0.1016207262873649,0.3177248239517212,-0.2810533940792084,-0.196649687912731,-0.2792735237574065,0.7059357996321355,0.6204753873007042,-2.3510162830352783,-0.5376918315887451,-0.0021629540715366,1.2471996167212724,2.144976723963022,-0.5091796484544873,-0.1886179745197296,0.0377088822424411,0.042899650652986,0.0051714633591473,0.2586895146310329,-0.3357734118986875,85
1723028732810828800,1.221625249677524,-0.0666810881316661,0.8831272351205348,-0.8183519075449556,9.66024714037776,-1.4765901177622378,-0.0051755956374108,0.1491336971521377,-0.5062048435211182,-0.1944075593924053,-0.2865602267787533,0.7022594822963809,0.6220294030394901,-1.5117807388305664,-0.374555766582489,0.0034301504492759,0.5961567979007959,-0.3072422408759593,-0.9646230305463076,-0.1252531707286834,0.0120463473722338,-0.0132631921193446,0.0396609455347061,0.3733414739990606,-0.1745860026585869,86
1723028732850578400,-0.6983837581228465,-0.33195231924057,-0.1461784032166004,-0.9634914692331104,9.650185180568696,-1.45464395115301,-0.0567524097859859,0.1509191244840622,-0.0643111988902092,-0.1919825404201506,-0.2937710201853707,0.6984731847085818,0.6236797980686372,-1.4343461990356443,-0.3448306620121002,-0.01666752807796,-0.0485363596320152,-1.1305290475398302,-0.4405661309555173,-0.1050319746136665,0.0259850695729255,0.0473712339759338,0.0006043663015589,0.1912376247899606,-0.0159633476062677,87
1723028732890327000,0.1273198273591697,0.4382359344422817,0.7058372159339487,-0.7752505785737186,9.6552687674433,-1.5313877297461032,0.3087623417377472,0.953632354736328,0.8057479858398438,-0.2028793043091956,-0.294519873775578,0.7009544141709793,0.617058264202719,-1.4368239641189575,-0.5740858912467957,0.0433514676988124,0.4173766862869262,1.7978361879408358,0.9488855093188584,-0.0933375507593154,0.041783683001995,0.0332977849196293,-0.0096786469221115,0.098303073909739,-0.1311522268625907,88
1723028732930075400,1.6849980365291235,-0.2015145059913396,0.1220434943914413,-0.3970670348383486,9.65681541236341,-1.6609171959787603,0.2367425858974456,1.2913938760757446,0.5613640546798706,-0.2274177422707097,-0.2989981206187007,0.7037636897272292,0.6029908615765559,-0.6785674095153809,-0.2636661231517792,-0.0449260622262954,0.4325052818357944,-0.5853045644968747,-0.0900741656135767,-0.074462667107582,0.0266917459666728,-0.0538491841186536,-0.0381099060177803,0.09824954449106,-0.0169535916194785,89
1723028732969823000,2.314254701607674,-0.0943634603053331,0.205104054915905,-0.27155184574835,9.639147653725743,-1.7842302719146013,0.3236428499221802,1.190022110939026,-0.4069480299949646,-0.2449240327344359,-0.3142806189839088,0.7015683298272197,0.590797600519165,0.2483268529176712,0.0914179980754852,-0.0945948809385299,0.4066267442137002,-1.8932658161729568,-1.0220014528036117,-0.0694752112030983,0.0655450522899627,0.0252822042803163,-0.0465676411986351,-0.0151005156652769,0.0377579769155941,90
1723028733009572400,-2.005410578493029,-0.0962783540159463,-1.4532558577954768,-0.4230580929242074,9.612032852306962,-1.897429803984612,0.0681722089648246,1.0787837505340576,-0.4616783857345581,-0.2522198960933541,-0.3376943919076781,0.6947693801931228,0.5827891296410328,-0.4819779694080353,0.121464155614376,-0.0601185336709022,-0.1537842020452022,0.4430044640183448,-0.5661251591872424,-0.0107278060168027,0.0512532517313957,-0.1462387277022469,-0.0347308255732059,0.0582703204625751,-0.063382809204678,91
1723028733049320700,-1.413986508202553,-0.6264817935377359,0.7599483069583773,-0.4647139357948675,9.60623614872694,-1.9169464053593568,0.1189033836126327,0.529324471950531,-0.0642561540007591,-0.2589230021280342,-0.3493586721915299,0.689699635775531,0.5789835288309495,0.0948880389332771,-0.0715785399079322,-0.27208212018013,-0.8714660234212875,-1.8154852418780325,-0.9603590894915164,0.0426092334091663,0.0356118977069854,-0.1288723814302589,-0.0340881757438182,0.0195219534032978,0.1329629843452945,92
1723028733089069300,-0.6439452617749571,-0.3690788115859031,-0.031945582576096,-0.4129452431781217,9.598128830116986,-1.968709618083388,0.0349292121827602,0.3856160044670105,0.0611770860850811,-0.2646271976717053,-0.3543021011648232,0.6890909046053689,0.5741048194584137,0.3687323629856109,-0.0251721069216728,-0.1021671816706657,-0.1256838967204094,-0.3548375202655792,-0.6054110215235501,0.0285881888121366,0.0398151576519012,-0.0931967180809006,-0.0383822992444038,-0.0432188726699911,-0.0301811758526135,93
1723028733128818700,-0.3265322669532149,-0.0955284124314785,-0.087983403879404,-0.421955173183605,9.597965163987874,-1.967588358968496,-0.0488374084234237,-0.0604654997587204,-0.2112255543470382,-0.2667536525471548,-0.3574591246698396,0.6874169470401875,0.5731696102126275,-0.0583771467208862,-0.0166221894323825,-0.1215283647179603,-0.2839250781744718,0.8929366814732551,-1.0492700565446167,0.0399004854261875,0.0128783797845244,-0.1839002493728883,-0.0954671949148178,0.0535404971953947,-0.1226437527063768,94
1723028733168567300,-0.7094879935264587,-0.481471849578619,0.2644344880238175,-0.4931490990972146,9.600834581944346,-1.9367839092515409,-0.0961893051862716,-0.0164771415293216,-0.0551556162536144,-0.2639946566800187,-0.3581421336121491,0.6859174245008304,0.5758108928973542,0.1061207205057144,-0.0528654679656028,-0.0798646062612533,-0.4339057962834834,-0.0273638077437877,-0.5517706167507916,0.0670606270432472,-0.0140111213549971,-0.0532975598515709,0.0053995917551219,0.0029848045182909,-0.0189866592165082,95
1723028733208315600,-0.0313699746452271,-0.2742676075130701,0.0175517310425639,-0.4886209176156669,9.610158875128626,-1.8911640215881167,-0.0854095369577407,-0.2576990723609924,0.0324754901230335,-0.2644373904993576,-0.3567089049968135,0.6849680927639912,0.5776247980885073,0.2308405339717865,-0.0638356655836105,-0.0121038015931844,-0.0573223081558942,0.3001934914082289,-0.3003944938730448,0.0539799965918064,-0.0023682327009737,-0.07662573257084,0.0150889419019222,0.0015583444910589,-0.093810995788034,96
1723028733248065300,0.3671189462224021,-0.171377141880989,0.0711935971200466,-0.6033968686895445,9.597648353123663,-1.9213129300057887,0.2113195061683654,-0.5829623937606812,-0.3451829254627228,-0.2551764733876551,-0.3550054055953343,0.6869722432196197,0.5804526619652375,0.3010390698909759,0.0418857559561729,-0.0633908882737159,0.0472948351383209,-0.3867985926717519,-0.5303804765891283,0.0663197860121727,-0.0296304486691951,-0.1243690695284865,0.0369474031031131,0.0619661153737455,0.0400450192736927,97
1723028733287813600,-0.9143013218674808,0.2177829192250966,-0.9355965502873064,-0.721237906422466,9.579740355989337,-1.969467742974311,0.0078025208786129,-0.2282048016786575,0.0347265712916851,-0.2454000470067204,-0.3535741051843686,0.6894927552933374,0.5825496031552567,-0.0743398666381836,-0.0371007770299911,-0.0278762392699718,-0.2510825467586517,0.5405518150568008,-0.0691886870384216,0.048259075731039,-0.0276904087513685,-0.0587719909409759,0.0338562540709972,0.0121867425438482,-0.0456473419259302,98
1723028733327562000,0.2610217569708824,0.1063970124483108,-0.3244964502766728,-0.6451417780831455,9.59730348520875,-1.909443336252868,-0.1817497462034225,-0.2375774532556533,0.3105272054672241,-0.2454476230774359,-0.3460893801976473,0.6910692136024708,0.5851504926927567,0.0268927402794361,0.0009573908173479,-0.0258616935461759,-0.2677297301769256,-0.3358469885915517,-0.1391021812200546,0.0578746125102043,-0.0511583127081394,-0.0705841143190395,0.0061391671188175,0.1083580651219002,-0.089150465764245,99
1723028733367310800,0.8530055069707334,0.3034375878959894,-0.2066132904350757,-0.5502886345647275,9.619780105432868,-1.8241183379277583,-0.253946453332901,0.0804731845855712,0.2217652946710586,-0.2493438414004178,-0.3409659305487397,0.6904682359710709,0.587216774383729,-0.1071926206350326,0.0867134109139442,0.0184652265161275,0.4472112680584192,0.0810118113011121,0.1843575464200228,0.0877038463950157,-0.0138091696426272,-0.045089982037805,0.0243638809770345,0.0209990950174629,-0.0488552756883436,100
1723028733407060200,0.5918328702870757,0.0030009353816509,0.0007937807261943,-0.4914259285664185,9.639496613293886,-1.7346444032296535,-0.2405340522527694,0.1607455909252166,0.0721476376056671,-0.2542060374410363,-0.3394292450072702,0.687917172745866,0.5890136172137319,0.0604965090751647,0.0241735503077507,-0.0565578863024711,0.1221533845067024,-0.3189987296432257,0.507266142983362,0.1032138094305992,-0.0186850689351558,-0.1158018691886682,0.0133661152794957,0.080104971255036,-0.1308982521015219,101
1723028733446737200,0.1873506272887811,-0.3911328224837779,-0.1909960345864295,-0.4408367645904421,9.6595363617599,-1.6338346893943845,-0.3050939738750458,0.2284108698368072,0.0748591348528862,-0.2602703003500576,-0.3394795695209433,0.684146187593392,0.5907258387355796,0.0806124284863472,-0.014518397860229,-0.0875439643859863,0.2160357832968235,-0.3162637517213821,0.3535883239220828,0.1060139536857605,-0.0465227924287319,-0.079259158947505,0.0116202868521213,0.0640978621388552,-0.0476040837505832,102
1723028733486483000,-0.1514926205093041,-0.0653688364893197,0.1949557319976389,-0.3952829644331708,9.675394440627098,-1.5494753212310373,-0.1347374767065048,0.2470346391201019,0.122678168118,-0.2659503334660202,-0.3399609590094181,0.6807553144925584,0.5918353878435224,0.0419209599494934,-0.0005529944901354,-0.0879025608301162,-0.0383177479565143,-0.1744733543306589,0.276604526028037,0.0681281611323356,-0.0097469603642821,-0.0375337488388177,0.0265199691057205,0.0445223747503012,-0.0663684374193428,103
1723028733526229500,0.1517410057798028,-0.1246773500263691,-0.1601987452626228,-0.3365434829557314,9.683377840596435,-1.513049232240021,-0.0813156366348266,0.2085380852222442,0.0526488982141017,-0.2712835200690699,-0.3407244179834011,0.6790072985076022,0.5909832732596026,0.1128510609269142,0.0763266086578369,-0.0818065106868743,-0.0358352834910154,0.0135784434974193,-0.0993635336149483,0.0423319786787033,-0.021721551194787,-0.044466689907154,0.053721684962511,0.0559936533680185,-0.0644256282219197,104
1723028733565975600,1.1147903572686015,0.0082055182874202,-0.1436803027905523,-0.3615149887355044,9.689808750426767,-1.4653725581772623,-0.2053478360176086,0.2963615357875824,-0.2208729088306427,-0.2737532036268401,-0.343663963370076,0.6757279713637252,0.5919003817092117,-0.1133892685174942,0.0844246372580528,-0.100197710096836,-0.0820101746886968,0.3258884891569614,-0.0642285073477774,0.0189146772027015,0.0044646942988038,-0.0283550541207077,0.0465478748083114,0.0108905606868909,0.0233415961731341,105
1723028733605721300,0.5725360491428524,0.0104909988760948,-0.3603121522843837,-0.4486361497623846,9.698146370661258,-1.3838631726175543,-0.2066600620746612,0.2661855220794678,-0.3293664455413818,-0.2763217660222835,-0.3498122548414542,0.6694690232772337,0.5942128622556269,-0.1396104991436004,0.0417437031865119,-0.1182962879538536,-0.1628723483860492,0.0399023867994546,0.0465261157881468,-0.0266307033598423,0.0032824852969497,-0.0459451238626847,0.0404190458357334,0.0351321584566496,0.1006822423975449,106
1723028733645468000,0.3978938410513102,-0.0005137947410345,-0.1836941871404647,-0.5832949417075142,9.70047218326032,-1.315674748662859,-0.1562547534704208,0.1938142627477646,-0.4070377051830292,-0.2758592738948604,-0.3561891437513483,0.6634832620875445,0.5973449216128133,-0.2815607190132141,0.070936419069767,-0.1282292008399963,-0.0572013121247291,0.2223883671939373,-0.4243295741647481,-0.054592065513134,0.0120682409033179,-0.0936124410086311,0.0106179695576429,0.0376636633953778,0.1044636788987088,107
1723028733685213700,-0.3263954888310283,-0.0335422041177749,0.0745826550364494,-0.6570228430781513,9.699532856583597,-1.2875455095045267,-0.0519521459937095,0.4661546051502228,-0.0412424020469188,-0.2783826076631771,-0.3630275781605872,0.6586786210779552,0.5973747707343703,-0.5371463894844055,0.129311054944992,-0.1240877285599708,0.0218014974415302,0.3075584672182798,-0.555419129320979,-0.0637764260172844,0.003415850456804,-0.0930888646590989,-0.0016202585538849,-0.017097519860015,0.0992157135089393,108
1723028733724959500,-0.8948119007606059,0.1956231098651885,-0.1715221033096313,-0.6389736108422279,9.702156190824509,-1.2768204096116125,-0.0529470220208168,0.2716804444789886,0.0095481853932142,-0.2824351888134248,-0.3658938925336187,0.656674487395732,0.5959284200969531,-0.255423367023468,0.0773859024047851,-0.0650295987725257,-0.5255500607579946,-0.1577986983835697,-0.1063327150404453,-0.0471769273281097,0.0291937328875064,-0.0800301524531561,0.0138296280056238,-0.0432797314451774,0.111578132280102,109
1723028733764706600,-1.284888419124484,-0.0764274061203002,-0.7855717007756233,-0.5463764660896733,9.712191262626648,-1.243065585656464,-0.2034552991390228,0.5192524790763855,0.4179029762744903,-0.2909228904915359,-0.3677962643124439,0.6542970408874902,0.5932834403087848,-0.0118107143789529,0.0201425906270742,-0.0256992392241954,-0.1873977178335189,-0.1090343752145767,0.4743482082437724,-0.0287234336137771,0.0190386027097702,-0.070655786749185,0.0218106377869844,-0.0219012246390921,-0.0756131762611214,110
1723028733804452400,-0.4654269429024308,-0.5882949784845113,0.0865887346506118,-0.3851133064659312,9.73145184341371,-1.149314777356759,-0.2659010291099548,0.2246643453836441,0.2952088117599487,-0.3029173273617767,-0.3668039622543817,0.6511939785986598,0.591305643851805,0.222354382276535,0.0177077688276767,-0.0405299849808216,-0.1833645167946815,-0.3022159371465444,-0.3343524391848593,-0.0206269454210996,0.0255320090800523,-0.0360191338916309,-0.0053765894845128,-0.0387540752808563,-0.0885421337407082,111
1723028733844198100,0.7618694842793047,-0.6289893924444914,1.0592671344239264,-0.27928802949097,9.738028299194571,-1.1239105792481452,0.1099189519882202,0.0028369447682052,0.2367671877145767,-0.3077025028310844,-0.3640758956642015,0.6517301857453921,0.5899284695033595,0.3201315402984619,0.1297416687011718,-0.1437877267599105,0.6075134736955166,-0.5239695135682821,-0.1152227084606885,-0.0039191544055938,0.017672648653388,0.0027892522634385,0.0549692809581756,-0.0537908780601574,-0.0500994990292005,112
1723028733883944000,0.8295651562809944,0.0605646510779857,0.1791128506995737,-0.3032896673252805,9.731120419502258,-1.1762972576327622,0.1317338794469833,-0.3493345081806183,-0.2551833093166351,-0.3031692152849736,-0.3625716530077192,0.6546115378879367,0.5900117497535458,0.2488235384225845,0.1636997014284134,-0.1985510438680648,-0.0316612126767635,-0.1290945819467306,-0.2955599863886833,0.0402529761195182,0.0150407180190086,0.0045313632442557,0.1000477597117424,0.0019406115321151,-0.089703067278862,113
1723028733923690800,-0.8516151485908776,0.8681687354415655,-1.294697427085787,-0.3641906376855447,9.731262458321453,-1.1577139915853738,-0.2286751717329025,0.0463901460170745,0.0462621375918388,-0.2999573766824178,-0.3624409383270175,0.6539599007452407,0.5924514256094234,-0.0486648678779602,0.0401186421513557,-0.0801011621952056,-0.3585053951233625,1.135743567317724,0.2968143703639507,0.0530899241566658,0.034827072173357,-0.0628078314614715,0.0979327261447906,-0.0040115018053271,0.0355928621704224,114
1723028733963436500,0.4201957988282665,0.1784878506690263,0.5032080266989767,-0.3809907101105898,9.737246793428064,-1.100561340907961,-0.0508614033460617,-0.1301600933074951,-0.1442885100841522,-0.2994466360200595,-0.3609586446166318,0.6525502807246953,0.5951626587391998,-0.035753596574068,0.175302192568779,-0.0695783495903015,0.1021615668356418,-0.2079886704415083,-0.0359212082087993,0.1099931076169014,0.0292847901582717,-0.0120676690417109,0.1136953607201576,-0.002333054048958,-0.0292881474194698,115
1723028734003182300,0.1573776234272867,-0.2298988889545202,-0.1031998238421976,-0.4289699107838794,9.737574125686288,-1.0798351445477454,-0.1003471165895462,-0.1055524498224258,-0.1353049576282501,-0.2973954641955678,-0.3611898851380757,0.6516119533826236,0.5970760182822548,-0.0028078970499336,0.1035767123103141,-0.0819589123129844,-0.1434124456346034,-0.0201432088404893,0.0698147099822759,0.3104073405265808,0.0579103678464889,0.0574729778061155,0.1207243129611015,0.1492308587229344,-0.345584684882313,116
1723028734042929400,0.520542936653085,-0.3978822967439889,-0.2055180425442755,-0.522937394041568,9.742153270170093,-0.993678006247431,-0.3065328896045685,-0.1141572296619415,-0.2855485379695892,-0.2944053954621277,-0.3611791932068306,0.6482384362349889,0.6022143162916681,0.0865707173943519,0.0492437481880188,-0.0922942385077476,0.1250122810691595,-0.0377969389528036,0.4117990322850644,0.9141284227371216,0.2127889692783355,0.3274492722002789,0.048463724553585,0.0835326989477034,-1.1185953755747526,117
1723028734082675200,-0.1727939498763531,-0.3722574416220188,0.3762684308290481,-0.6240264362748712,9.745856216341256,-0.894014466772601,-0.1418799012899398,-0.051914881914854,-0.1711015105247497,-0.2920569816460373,-0.3618990616010399,0.6439030387653052,0.6075530270683159,-0.0657626241445541,0.0369173623621463,-0.053981278091669,0.0187836109250783,0.3857423616170883,0.1578795085348188,1.5477992296218872,0.2878620624542236,0.1490670464633498,0.0534759759902954,0.2986340966043994,-1.2313305780686437,118
1723028734122421000,0.0245193780981004,-0.3466682423353195,0.380500369310379,-0.6378840620398522,9.747800336146351,-0.8624823603682219,-0.0320004597306251,-0.0544760785996913,0.0227438826113939,-0.2918484636429393,-0.3615021412310552,0.6428767888218362,0.6089746498412595,0.0247520916163921,-0.0095652909949421,0.0210813153535127,0.0355704950749874,0.0619277561247348,0.4209060294568538,1.944318413734436,0.4367904663085937,0.2388319725978188,-0.0027754423208534,-0.0010167204573604,-0.6995695338413119,119
1723028734162167800,0.0909369199227541,0.1831032355099916,-0.0256230284910649,-0.6544718434210867,9.747595753484964,-0.8523008658327161,-0.0352386012673378,-0.0576047822833061,-0.0764931887388229,-0.2908547038236831,-0.3611966423305457,0.6426447205195592,0.6098755967513115,-0.0728330537676811,0.1305611282587051,0.0779417306184768,0.0574082328736782,0.0850502730369567,-0.4042549005158245,1.926129579544068,0.4046112298965454,-0.1879404464080929,0.0944074392318725,0.2254778393755666,0.0751337358808377,120
1723028734201913600,0.1856548927541822,0.173792386329174,-0.6357903046309947,-0.6694334118399768,9.75181950865984,-0.7901063485305756,-0.2384493201971054,-0.0747821107506752,-0.0238433629274368,-0.2908349464061195,-0.3600252899326684,0.6408322751805496,0.6124792650106068,-0.2498054504394531,0.132308229804039,0.0664230957627296,0.0069452890932559,0.3523690843254327,0.0535784454524517,1.768550992012024,0.3171395659446716,-0.2184452007924206,0.1395392268896103,0.1978850269151851,0.4124430292770266,121
1723028734241659400,0.1988113114472478,0.491608043667674,0.0734452485043555,-0.7086266274567693,9.755275202071664,-0.7091052778191864,-0.1533282101154327,-0.1537912786006927,-0.1538709849119186,-0.2896279925646224,-0.3585808735831975,0.6384152768481195,0.6164100022062114,-0.005931784864515,0.1230516657233238,-0.0294165462255477,0.2451034723490476,-0.8175064696967601,0.1329161129962653,1.5514898300170898,0.2289960235357284,-0.2157681636028923,0.1961216032505035,0.3061083597415127,0.3494839208105579,122
1723028734281406200,0.0209868200577795,0.0649140784591436,-0.1548024391770363,-0.7417911573685705,9.75789678274691,-0.6352837433483451,-0.2615272998809814,-0.0678185820579528,0.0026561510749161,-0.2885222287361155,-0.3571179204955163,0.6362839358255674,0.6199713608886637,-0.0187700856477022,0.0694045200943946,-0.0796161368489265,0.0861293004453182,-0.1175011747866869,0.0352721697155386,1.2160489559173584,0.1400582641363144,-0.2378054425616748,0.1454204320907592,0.2068987015140242,0.5261723573748022,123
1723028734321152000,-0.0661537032566964,-0.0649772068232297,0.3145710128614679,-0.7207903818506747,9.765234286028146,-0.5394760755840688,-0.1695590317249298,-0.407985121011734,0.0060263313353061,-0.2896667567707081,-0.3537196663757176,0.6343406199983949,0.6233678648900579,0.107840321958065,0.0623243488371372,-0.0940934121608734,-0.0253448691368103,-0.1306090781629085,-0.088080434513092,0.886346161365509,0.017347902059555,-0.3212282422609627,0.1202126368880271,0.2055461178612895,0.5669159807713702,124
1723028734360897800,-1.0004106755033135,0.6384539708822965,-1.2603344081044197,-0.8218759169526397,9.758665429031849,-0.5131707639172673,-0.1734768003225326,-0.0355344153940677,-0.1677286326885223,-0.2836759113917594,-0.3533411386422473,0.6334938568355848,0.6271869683314776,0.0566029660403728,0.1787172704935073,-0.0524775236845016,0.2645423323124647,0.1521720906734466,0.4029898490160703,0.681990921497345,-0.0960234403610229,-0.1980577531335875,0.0990655571222305,0.0562181691391626,0.4247221536789089,125
1723028734400644900,0.1362530023340135,-0.4769774607688188,0.5540344700295478,-0.8450860390830784,9.75989409404397,-0.4479409340398386,-0.0419610366225242,-0.1137116327881813,-0.0811702236533165,-0.2832960695572912,-0.3523293601628186,0.6314290573601552,0.6300036069484153,-0.0951130613684654,0.0553398318588733,-0.0734890699386596,-0.4227665626317262,0.1039765073031187,-0.5644423937320708,0.5051275491714478,-0.1010932847857475,-0.1900539862296544,0.1234780624508857,0.0828565349854994,0.5320356233850121,126
1723028734440390700,0.3228249368678778,-0.2608691967576742,-0.2238706781735643,-0.8818708783838898,9.75731985964179,-0.4328883994018658,-0.0576025769114494,-0.0745967552065849,-0.0691213607788086,-0.2810185281972274,-0.3519403080492914,0.6310381811733976,0.6316307551085713,-0.1292084455490112,-0.0428769625723362,-0.0058969720266759,-0.6053524962693453,0.1040916581153869,-0.3092008275978267,0.4523520171642303,-0.1248198598623275,0.0057860743006196,0.1331033557653427,0.0082953428621869,0.0188755064426339,127
1723028734480279000,0.43653716770038,-0.6804431008279324,-0.1222047859003767,-0.9083445323549212,9.756711956876517,-0.3897054930943995,-0.1258095949888229,-0.0134667931124567,-0.058558389544487,-0.2805422804423204,-0.3517787764332938,0.629381555364175,0.6335823334725719,-0.0292600113898515,-0.0710871890187263,-0.0013209957396611,-0.1948871968060731,-0.1661222900927066,0.1795201163262128,0.3904672265052795,-0.0964134633541107,-0.3205925381733104,0.0484960526227951,0.0146691773265949,-0.0976719089998863,128
1723028734520030200,0.2200944110378623,-0.1273719959378242,0.1381389256784692,-0.9358107775598764,9.755353528004884,-0.3573584901105612,-0.0316537134349346,-0.0309534724801778,-0.0911004692316055,-0.2798523158948916,-0.3518225121407379,0.6280454864207279,0.6351869170305178,-0.0683235228061676,-0.0942763462662696,0.0601895004510879,-0.3457733393222093,0.2044756938844919,-0.2508260147143155,0.4333429932594299,-0.2266987264156341,-0.2377450724102556,-0.0209263283759355,-0.0363455277182278,-0.2561346425164491,129
1723028734559782400,-0.4227621056523173,-0.0591536152362823,-0.2906207764208317,-0.9510608805965632,9.754174547353388,-0.349229580723308,-0.0496598817408084,0.0538101829588413,0.0012564333155751,-0.2797708771896502,-0.3524617938793364,0.6273567069590954,0.6355490142761443,-0.0604541450738906,-0.0013373485999181,0.0800174623727798,0.1535229207605123,-0.1086392384171485,-0.3609253888119011,0.4759083688259125,-0.1828043162822723,-0.017633694254572,-0.1347110122442245,-0.1465212618375197,0.0940928266704082,130
1723028734599533800,-0.0468621428094804,-0.0142512281924486,-0.0846247411012649,-0.9090229430731386,9.758951260235904,-0.3270281607113778,-0.0605313330888748,0.0829739645123481,0.1671682894229889,-0.2822347913818932,-0.3514763534763908,0.6270073118869706,0.6353501420422863,0.1117684841156005,0.0535647273063659,0.0211779214441776,0.2190431484192609,-0.5658142666071653,0.1499040726762265,0.4521829783916473,-0.0998340845108032,-0.0368941996931098,-0.0995099768042564,-0.0477518444910878,0.1974997721909545,131
1723028734639285000,0.5748222603838891,0.0938777226150035,0.0466705840264447,-0.8727505833391099,9.763049927726389,-0.3025508133904077,-0.0618745535612106,0.0540233328938484,-0.0098597537726163,-0.284842436771091,-0.3509301495882092,0.6263176739684256,0.635168416236479,0.1177922859787941,-0.028345052152872,-0.0187043137848377,-0.0219932206213474,-0.1207581307560205,0.2621983995348215,0.2521198391914367,-0.0326686240732669,-0.0211863977504894,-0.0361300893127918,0.0488943838560255,0.8158877093885093,132
1723028734679037400,0.3096540512580424,0.3941986397951841,0.044820024256315,-0.9067077249333262,9.760207397776842,-0.2942653800008818,-0.0165992975234985,0.0346551612019538,-0.1238254606723785,-0.284180514723569,-0.3521875767435577,0.6252737556771694,0.635797114515144,0.0447449758648872,-0.0285819116979837,-0.035360787063837,0.0315472309082746,0.0361421574831008,-0.1210726035326719,0.0065936944447457,-0.0749018639326095,0.0715191575462929,-0.0077878553420305,-0.0817646754950284,0.7379944684993476,133
1723028734718479600,0.0889325212977826,0.3079839991539717,0.2473895374596118,-0.9653598934534936,9.754695940878989,-0.2904851673424243,-0.0031926943920552,0.1198821365833282,-0.1582702696323394,-0.283246969640813,-0.3549023370930425,0.6235823545340468,0.6363651182103522,-0.0656132251024246,-0.0254555754363536,-0.0368172712624073,-0.1045844100683927,0.0640139147490262,-0.1979236418925225,-0.185088574886322,-0.0368825867772102,0.1374633736376184,0.0574406385421752,0.1203504632705822,0.4880454192826524,134
1723028734758540000,0.0909635156687349,-0.0043242929399013,0.13642507096529,-0.978015376887098,9.75291490268111,-0.3074611077910289,0.0772651433944702,0.0544496737420558,-0.0202401410788297,-0.2837714922356266,-0.3567756671144662,0.6232072511377909,0.6354507288700844,-0.1499659270048141,-0.0930573642253875,-0.0389849506318569,-0.2588485045850276,0.2341910331904888,-0.0238017313480377,-0.1299901902675628,-0.020285777747631,0.1351458448097109,-0.0751270055770874,0.0381501500043785,-0.262269638140127,135
1723028734798292200,0.3357485697183758,-0.2271405301570892,-0.1650081548383459,-0.9938547510538248,9.750226686510445,-0.3401677378674969,0.077636994421482,0.0312766321003437,-0.1175634860992431,-0.2829847202150737,-0.3580796695314926,0.6237969848063812,0.6344887032877647,-0.1508463621139526,-0.0700706541538238,-0.0010460242629051,0.109954997190833,0.0804606071591377,-0.0166144501924514,-0.0570474676787853,0.0067507782950997,-0.0664123724591918,0.0018817336531355,0.1101741198342293,-0.0377788781397277,136
1723028734838043400,-0.2785979648675769,-0.3668441844016313,-0.0595008212387561,-1.04494664038755,9.744333536818624,-0.3555937819929793,0.0698971524834632,-0.0088487369939684,-0.1160474345088005,-0.2812225042065508,-0.3601188483025828,0.6232532811934832,0.6346524290502354,-0.0640510097146034,-0.0702420100569725,0.0394007340073585,-0.1389981363236904,-0.0943809959620237,0.1016184729348868,-0.0330498777329921,-0.0283416081219911,-0.0568460050141904,-0.0184355936944484,0.0361633190021384,-0.0859285993746016,137
1723028734877794800,-0.6371107395797968,-0.3896498904496431,-0.141346708743833,-1.0400273041639476,9.744244104969502,-0.372060311614722,0.0283451825380325,0.0393211245536804,0.1214789450168609,-0.2813341487244492,-0.3604507327925799,0.6237347715607426,0.6339410762376725,-0.0309433955699205,-0.013781608082354,0.0650576278567314,0.0790823045432567,-0.0028512977778911,-0.0211754744976758,-0.0230309981852769,-0.0349462963640689,0.0211104669870459,-0.0194146949797868,-0.0169165612444514,-0.0136136084256344,138
1723028734917547000,-0.2429031127605587,-0.1592366222321987,-0.2346410785129293,-0.9799349467728288,9.74920961842239,-0.4037120988760143,0.1319562643766403,-0.0767678692936897,0.1741116940975189,-0.2828619430320374,-0.3591415958663579,0.6257802353969439,0.6319852536193771,0.1087042540311813,0.0749629065394401,0.1191298514604568,0.1065916582375764,-0.0808598356097936,0.0014835165560245,-0.092367023229599,0.0199346430599689,0.0268286368545843,0.0190668571740388,-0.0143793412342783,0.2750557622160762,139
1723028734957295400,-0.5105255831707268,-0.068380293264985,-0.2580173875231296,-0.9354230203513056,9.75083225118816,-0.4654802439922466,0.1512047797441482,-0.2159752249717712,0.1663268804550171,-0.2809112645724067,-0.3563550010913928,0.6298761784916284,0.6303618936116675,0.1752710193395614,0.1249027252197265,0.1427410989999771,-0.1105669916093349,-0.1916705728471279,-0.4028075512517243,-0.1104325577616691,-0.0025479681789875,-0.005842175843942,-0.0141328424215316,0.0727117602977668,-0.0253053065946907,140
1723028734997046800,-0.6445255458809435,0.0334796602755785,-0.2105565481681376,-0.8407773821037262,9.758507023599742,-0.4848089581120759,0.0205881930887699,-0.1924529820680618,0.455164760351181,-0.2814027718660778,-0.3513492707222867,0.6334603915919124,0.629360139280761,-0.0890650227665901,0.1406837552785873,0.124614305794239,0.0329477453559637,0.4416062876582145,-0.5712064810395241,-0.1367705017328262,0.0315401405096054,0.0699047172201331,-0.0733271315693855,-0.0623455294456565,0.0982910181457642,141
1723028735036799000,-0.2329268584735691,0.0036386487632989,-0.1100549139013513,-0.659960650095716,9.77158686992526,-0.5009151299888268,0.0591276809573173,-0.2118123024702072,0.4165445268154144,-0.2843840448754869,-0.3431130999840658,0.6386023525737181,0.6273644114093482,0.1428496986627578,0.1355852931737899,0.155347853899002,-0.0714811818897724,-0.0272585938036441,-0.429773811045289,-0.1222769767045974,-0.0177937410771846,-0.1390620501390658,0.0220549702644348,0.0585381913182558,0.1966830489805899,142
1723028735076550100,0.0750651047911494,0.2096229936450719,0.1436042053470388,-0.5176931732451543,9.781080674457549,-0.4825331586671992,-0.07138142734766,-0.2726695239543915,0.3548049926757812,-0.2853456651351952,-0.3341798364449606,0.6425933253497865,0.6276746914886595,0.0199999473989009,0.1312399804592132,0.0536069013178348,0.0038151743739843,0.1288280399650335,-0.4753213641248643,-0.1525015383958816,-0.0516556054353714,-0.0573053478879388,0.0502871721982955,-0.0537169908400392,0.0654684426725842,143
1723028735116301600,0.5671739741204306,-0.0744593209177255,-0.2542131729345768,-0.3825210614830255,9.789978851184248,-0.4246932563779875,-0.1880261898040771,-0.3129619061946869,0.3288195729255676,-0.2868928237208365,-0.3250283494103388,0.6449882957366003,0.6293163689342529,-0.1163499057292938,0.1272769719362259,0.0956774577498436,0.3644593350917101,0.4557587316513061,-0.0288321267306804,-0.1136679574847221,-0.051841352134943,-0.0574412492272909,0.0281327329576015,-0.0393347932116827,-0.0671433444817084,144
1723028735156053800,1.2626587593987584,-0.0906558379590511,0.472324118537642,-0.2888171427986584,9.79555168288052,-0.3662305094826966,-0.0647571608424186,-0.0668989270925521,0.1459977924823761,-0.2885460839766853,-0.3187030974242434,0.6458334887728261,0.6309267205711085,-0.1654876321554184,0.0290077738463878,0.0839658752083778,0.0752209529399871,0.0934200419753789,0.7207463965784758,-0.1074025854468345,-0.0067923008464276,-0.003492343619297,-0.0246273186057806,-0.0478285903885727,-0.0605121400060365,145
1723028735195805200,0.9263895268071444,-0.0688046561568975,0.1944423756480217,-0.2747177076344378,9.795997088560462,-0.3651792468640953,0.0440978705883026,-0.1062960922718048,-0.0433599166572093,-0.2880161571964759,-0.317197441215544,0.6465328638488804,0.6312113225416615,-0.244009330868721,-0.0668078064918518,0.0531163476407527,0.0653998161494731,0.0963631096899509,0.7966997554462403,-0.3970169723033905,-0.050086535513401,-0.2165746576801873,-0.019490024074912,-0.0356664662627503,0.6651376143421978,146
1723028735235556400,0.2106475509198382,-0.0461707995444536,0.2619581610381603,-0.2905541774580255,9.794611771681904,-0.3892998714355751,0.0918110683560371,-0.0184376146644353,-0.0149578358978033,-0.2861460322319124,-0.3170800828140845,0.6475407254952742,0.6310877287251109,-0.025263138115406,-0.0717690661549568,-0.0005475471843965,-0.0053980596512556,-0.6848463042229413,0.6273403831284493,-1.0225807428359983,-0.2306784093379974,-0.3239288795217871,-0.0245595593005418,-0.0762076487226644,1.182322363141179,147
1723028735275307800,0.1859368880333378,0.0108668464511632,0.100749361950159,-0.2776647391380742,9.7936882270962,-0.4206744857233017,0.0947503075003624,-0.0116424588486552,-0.0116133242845535,-0.2863313637191233,-0.3173985458004472,0.6486189889429125,0.6297348371412547,0.0916243344545364,-0.0340499132871627,-0.0315140523016452,-0.2028478004217147,-0.7129127072781324,0.3641144671767949,-1.703036546707153,-0.3370346128940582,-0.4482580006323755,-0.0362434983253479,0.0061216863342444,1.6215581222757696,148
1723028735315060000,0.6079083182319999,0.0557277324408292,0.2361913401622325,-0.2974099981695413,9.790874338719249,-0.4697754569681361,0.1551493704319,0.0089580239728093,-0.0867997631430625,-0.2847575671080117,-0.318622284492687,0.6499474766712177,0.6284593448202542,-0.0891518369317054,-0.1037230491638183,-0.0606462359428405,-0.3014788550436496,0.0419645800262689,0.0301852218400686,-2.177886724472046,-0.4879595935344696,-0.4086188313463703,-0.0628677010536193,0.1678549956368282,1.091305436784774,149
1723028735354811100,0.5258401662783697,-0.0325339038580656,0.2557645670950412,-0.3286178410556167,9.787409292957186,-0.5186779464988037,0.1688387393951416,0.0426468104124069,-0.1100954562425613,-0.2832009949340272,-0.3206195508515076,0.6508827235644472,0.6271778514443075,0.0807695537805557,-0.1764093488454818,-0.0601480938494205,-0.3619172493934631,-0.2464355977356433,0.2778068144898861,-2.423275947570801,-0.3623994886875152,-0.1260032557347323,-0.1052553728222847,0.0064575478171522,0.8812450015705078,150
1723028735394562600,0.7076261451773345,0.1385667591691017,-0.0205962133049964,-0.3760292152456939,9.7822567324996,-0.5800494204476475,0.2117710262537002,-0.0370856709778308,-0.2746273875236511,-0.2807518719545605,-0.3231633353415949,0.6520274144358287,0.6257828435998195,-0.022715026512742,-0.1992619782686233,-0.1052232906222343,-0.3561474338203668,0.2769195833265781,-0.1694213316380977,-2.108039140701294,-0.4225239753723144,-0.0961069795044139,-0.0349970906972885,0.5747558075515553,-0.4320661962987855,151
1723028735434314800,0.6969451036218554,-0.0042611645758152,-0.0941582200568169,-0.4828134003806859,9.772453131365776,-0.6606131226550788,0.227384939789772,0.0679471120238304,-0.3414529263973236,-0.2760907568349666,-0.3279712469645882,0.6527761931829275,0.6245733651927352,-0.1981390565633773,-0.2444006502628326,-0.1189757883548736,-0.3331172713667154,0.1819125644207,-0.1040589248895645,-1.660254955291748,-0.290552943944931,0.1782299669178202,-0.2237113118171692,-0.0475520019368967,-0.9715146166909484,152
1723028735474066000,-0.0471241547465324,-0.2997317191153764,0.2243828289467841,-0.6011058351429179,9.75952058455646,-0.7488626301247626,0.2461948096752166,0.141284242272377,-0.2584486305713653,-0.2722103072142667,-0.3346219308646442,0.6528472500121638,0.6226717345647796,-0.3263470828533172,-0.2619646489620209,-0.0834817737340927,-0.1817144115000963,0.3866355110645293,-0.2120411607027053,-1.1136013269424438,-0.120651364326477,0.0529851511678425,-0.085159994661808,0.3439515672551468,-0.944833311318606,153
1723028735513817300,-0.4221772184364497,-0.1794926437973976,-0.061163274558261,-0.6782577926781028,9.744029585435984,-0.8742211673483252,0.3245599865913391,0.2264857143163681,-0.1881937235593795,-0.2703430543486087,-0.3418580180943658,0.6539923306874589,0.6183380172485456,0.0761513710021972,-0.2017995119094848,-0.0770182833075523,0.1773293282836675,-0.7651911760479211,0.1204652852892875,-0.4968142509460449,-0.1117453724145889,0.2344482228219509,-0.188393622636795,0.0953241494304966,-1.425677822779119,154
1723028735553495600,-0.4335259301204234,-0.277630361944437,-0.0807177967905998,-0.7209283290166407,9.728891053014992,-0.9996659215506164,0.2910952270030975,0.2995225489139557,-0.0509942136704921,-0.2702966238669971,-0.3487838727290459,0.6552240734518809,0.6131647330313282,0.110056072473526,-0.1672030687332153,-0.0828280374407768,0.253127788850665,-0.0144604870289564,-0.2943540446650237,-0.2233479470014572,0.084664836525917,0.1910368963197805,-0.1721526980400085,-0.0477374095403589,-0.6886806216888129,155
1723028735593244200,-0.2691388663224875,-0.3777408414691686,0.0342038828969001,-0.6981186043806373,9.713182027229664,-1.1563363465566188,0.4426348507404327,0.1489494442939758,0.0973446518182754,-0.271037976695123,-0.3532704302569434,0.6589057216727477,0.6062851471286331,0.3049685657024383,-0.1055805012583732,-0.1117499694228172,0.2897966005563736,-0.6544429826527833,0.4249679451335221,-0.0705981701612472,0.0071903364732861,-0.2027612911820411,-0.0618217103183269,0.1986961241023614,-0.4333202514804899,156
1723028735632992800,0.091916651675105,0.4832902971774339,-0.8153717957556247,-0.6844817817594856,9.69670552420318,-1.2945187095180153,0.2276980429887771,0.0605718493461608,-0.0919314175844192,-0.2702043420305374,-0.3561204058764983,0.6627068290295326,0.6008224076609928,0.1106390357017517,-0.0639055520296096,-0.1220681145787239,0.1542307767689228,0.3325502851337194,-0.3094954996954649,-0.0465558432042598,-0.0599515587091445,-0.0687098768458003,-0.0408115051686763,0.0252061958850594,-0.2523988169889897,157
1723028735672742100,0.3485661118458956,0.1534498555243015,-0.1016439727023243,-0.7437593887016176,9.68193231796324,-1.37019208240062,0.1609240770339965,0.2709465324878692,-0.2072824835777282,-0.2688491532779473,-0.3612778499904641,0.6628262721395742,0.5982139701735985,0.0377163626253604,0.0518105030059814,-0.085451453924179,0.1384901868015527,-0.2412339374393224,-0.2369722614068538,-0.0351141430437564,-0.0703689604997634,-0.0924537724927999,-0.0093041649088263,0.1046622793438844,-0.192578298809193,158
1723028735712490500,0.217492631041631,0.2241980469644069,-0.122405897963047,-0.7903052321035414,9.665800098329782,-1.4553727038189768,0.1953724175691604,0.4600299298763275,-0.1828539669513702,-0.2705300779139717,-0.3693064659009755,0.6616767248834448,0.5938098314863658,-0.1766614615917205,-0.0215041898190975,-0.0824049264192581,0.2296598195016384,0.4485071530878544,-0.0986912603765726,-0.0316847749054431,-0.1059397235512733,-0.0752794233952648,-0.0615381821990013,0.1613031993731856,-0.13527409256557,159
1723028735752239000,-0.1258817573800683,0.2205260804533958,-1.062809264010191,-0.9359468980949373,9.643584759390354,-1.5151467890411614,0.0654343962669372,-0.2515307962894439,-0.5433139801025391,-0.2650748350708342,-0.3753175500212729,0.6605964931808485,0.5937039661716487,0.1602601110935211,0.0263563320040702,-0.0708458721637725,-0.2657867794156074,-0.681107702216506,0.0307096841055899,-0.0215434692800045,-0.0790807679295539,-0.0124634691344865,-0.1545308977365493,0.1016803226573392,-0.0311476736640557,160
1723028735791988700,-0.7591803913258016,0.3644844695329666,-1.4112733037211,-1.0840559771131724,9.634600657945873,-1.4729919471397994,-0.2683281302452087,0.2489764243364334,-0.1048596128821373,-0.2616154882599252,-0.3801192218005216,0.6562096197684053,0.5970391917340486,-0.0107507742941379,0.1068180426955223,-0.0886211469769477,0.1113917519956827,-0.3184200529724359,-0.3897505743451416,-0.0239116586744785,-0.0311015453189611,-0.0183972408143512,-0.1673492193222046,0.0210019491282524,0.0935886948068626,161
1723028735831737000,0.550314791919291,-0.0302022460401058,-0.3829179518461227,-0.9917457230105996,9.65564052336514,-1.3983682294405997,-0.20137520134449,0.6094971895217896,0.3266695141792297,-0.2720397929016911,-0.3826426340756873,0.6518293863633637,0.5955648187964429,-0.325052261352539,-0.032626774162054,-0.0881735309958458,-0.2316325808793306,0.4561117828726768,-0.3652624681681394,-0.0164850782603025,-0.0126647353172302,-0.0797465588719584,-0.1806583851575851,0.0147211038766545,0.1005780605038628,162
1723028735871485400,0.9661378190234304,-0.3561275600761175,-0.5824480060219764,-0.8961075665943324,9.675257662504912,-1.3254320264369248,-0.3036328554153442,0.4691136181354522,-0.0171259529888629,-0.2823067669109196,-0.3848025602556737,0.6476922238503908,0.5939063141242302,-0.161909133195877,0.1075778976082801,-0.0935903415083885,0.5102642288208008,-0.3758078275799751,-0.0382914810040965,-0.009342991746962,-0.0196500830352306,-0.0863678584415465,-0.1539614796638488,0.0436896639529382,0.0947356911512091,163
1723028735911234800,-0.1712050732497125,-0.0840425572991371,-1.024093821972981,-0.8982546616256236,9.6919720659405,-1.1954803162042051,-0.4917777180671692,0.7697104215621948,-0.0493129938840866,-0.2920028473305008,-0.3906974706847175,0.638989843176083,0.5947954983751953,-0.2341559082269668,0.1604635417461395,-0.1187700629234314,0.3545452593207359,-0.0135942255884408,-0.0211783971071243,-0.0208158455789089,-0.017238775268197,-0.0158915849862212,-0.0928198993206024,-0.0907897665370255,0.0544892675539012,164
1723028735950984400,-0.8010417301733046,-0.2749304553359746,-0.148293057283014,-0.8698115342125297,9.716163673388955,-1.0049632973063736,-0.5700578093528748,0.4688962399959564,0.006682667415589,-0.304551151301819,-0.3951579289996431,0.6285611181743495,0.5966653903043265,-0.1423924267292022,0.1891085505485534,-0.1009921282529831,0.3884381765723228,0.1637929703623056,-0.0441349098026752,-0.0423190183937549,-0.0095340907573699,-0.0571576510795159,-0.0141783766448497,0.0186660398268606,-0.0781434162579476,165
1723028735990732800,-1.121573952994123,0.0568248800277709,-0.1059399163305759,-0.8232662022672593,9.738901574897763,-0.8040063521325588,-0.5623540878295898,0.4434685707092285,0.1490879952907562,-0.3150942734628327,-0.3957105432353345,0.620004904760519,0.5997689281406963,-0.0875571370124816,0.2689104676246643,-0.0642962977290153,0.0171346746742725,0.1324129127144813,-0.3872399432310834,-0.0398750603199005,-0.0055279405787587,-0.0183293415186693,0.0110787115991115,0.0267600765468436,-0.1762051648256369,166
1723028736030482200,-0.8641084272000938,-0.1546902109742164,-0.4136684794187545,-0.7416527718111873,9.76082582193613,-0.5887542665593326,-0.606120765209198,0.2742222547531128,0.2228377908468246,-0.3273232865322926,-0.395067319371869,0.6115062763421575,0.6023631920991754,-0.1639493852853775,0.1799218654632568,0.0035664376337081,-0.0549620087653398,0.5646580823093652,-0.1279478230644017,-0.0091811809688806,-0.0127245420590043,-0.07451587797713,0.0308481249958276,-0.0062199893305223,-0.1347699424357153,167
1723028736070230800,-0.9742380503054708,-0.0352530996888875,-0.8381704875409602,-0.6188036601252853,9.781897836059333,-0.3192756834210827,-0.8352689743041992,0.4007756114006042,0.4242666959762573,-0.3394550052256756,-0.3895861768838446,0.6037392988872077,0.6070352295320509,-0.0929548293352127,0.1199169605970382,-0.0054661389440298,-0.2169382850944995,-0.0454582673609256,0.1974281865257769,-0.0013007968664169,-0.0088183702901005,0.0092266711788368,0.0773440301418304,-0.0510045307106804,-0.0435794450441142,168
1723028736109979400,-0.3285294686524197,-0.1946884593635797,-0.1208078151166439,-0.4699367850096896,9.79528747898638,0.0435951769027858,-0.9555383920669556,0.0793481320142746,0.2840707004070282,-0.3554773342708639,-0.3827425271196292,0.5926933630288896,0.6130731444444051,-0.1111612692475318,0.0679202377796173,0.0141413174569606,-0.2907318355798721,-0.0062345104753971,-0.0692635423729196,0.0003038039430975,-0.0139777967706322,-0.0847815664976369,0.0857098922133445,0.0906725150992162,0.0590247144598746,169
1723028736149728800,0.4024059481808915,0.1368681385576725,1.316308224260807,-0.3649966203061863,9.793981072562932,0.3392818218784406,-0.5884061455726624,0.0775050595402717,0.2986293733119964,-0.364435157741342,-0.374100044700098,0.5854490561182769,0.620069071505351,-0.0651572868227958,0.0561459176242351,0.0206428933888673,-0.3629296413064002,0.0405073669552803,-0.2255197240222245,-0.0189312100410461,-0.015231629833579,0.0049589809641125,0.0726665407419204,-0.0180751498451805,0.1716279200379736,170
1723028736189477000,0.5861504772691056,-0.8101315570145845,0.9649006784439086,-0.2406371588562615,9.790333071449398,0.5117233415879309,-0.3365954458713531,-0.1256357133388519,0.2642339169979095,-0.37117520262276,-0.36671308122531,0.5826069742982881,0.623152960105135,-0.1890677958726883,0.1040181517601013,-0.001701361616142,-0.0171510412871837,0.2968839284688234,-0.2898960058102384,-0.0835290625691413,0.0332474149763584,0.0386326362916966,0.0547649562358856,-0.0469162841495126,0.1788396049824543,171
1723028736229225700,0.3238472291203215,-2.0481489193707705,0.5845125373363494,-0.1745090101659298,9.783964120939372,0.6434137852467596,-0.3430798649787903,0.2869691550731659,0.1254467964172363,-0.3760410413241282,-0.3625191184593015,0.5794608849067749,0.6256181993401188,-0.4843034148216247,0.1373570412397384,-0.0026152255013585,-0.1681529191374778,0.0484884288370609,-0.8090659736096858,-0.1157526820898056,-0.0157347377389669,-0.1307067663837224,0.0827192291617393,0.1489355107718613,0.0232025804280885,172
1723028736268975400,-0.5459255074517801,-2.929121022284031,1.0022568148266524,-0.1020053442274685,9.78102572939992,0.7010675903793424,0.083504132926464,-0.1070870906114578,0.1732114553451538,-0.3811912296569444,-0.3608947347533005,0.5779364081017951,0.6248501116156019,-0.5157193541526794,-0.0142999663949012,-0.1334605813026428,0.2092220116287469,-0.393639252346754,0.1905073560203425,-0.1443888992071151,0.05660055950284,0.1022519941986072,0.1004477888345718,-0.2278007110988721,0.0104614074554294,173
1723028736308723700,-0.5200138712776825,-0.2921674213409423,-0.1380530374933034,0.0081036373778566,9.78727076126933,0.6161449623100459,0.0833027958869934,0.139485165476799,0.4572725594043731,-0.379833153279237,-0.3561893209777573,0.5845635255961282,0.6222068536232614,-0.1486362069845199,0.016535498201847,-0.1957353502511978,0.1333575000882148,-0.9518576569974422,0.6084054540991782,-0.1219984591007232,0.0219397861510515,-0.1522803459540475,0.1231113821268081,-0.0485294138679979,-0.068043339228467,174
1723028736348472000,-1.2625399553246794,-0.114433019387722,-0.8455448157012462,0.3018665391869843,9.779525846230984,0.6634355596646666,-0.2157883942127227,0.5576852560043335,1.1321347951889038,-0.3948726318043022,-0.3511048766181421,0.5855762670477404,0.6147369224108649,-0.2514422237873077,-0.1200668737292289,-0.1477450430393219,-0.1063251162558794,0.287893397283554,0.8091016294449568,-0.0726813748478889,0.0107299964874982,-0.1358090944914147,0.0488289482891559,-0.0935079394545406,-0.121350772020081,175
1723028736388221400,-0.8660847687743604,1.1895832940548658,0.4840408232837915,0.8586030347168445,9.739648009350896,0.7566046225536615,-0.1111358404159545,0.5723996162414551,1.7434369325637815,-0.4217541292124839,-0.3400537529586453,0.5880368561945662,0.6005826991586932,-0.3536183834075928,-0.0464740395545959,-0.0629898160696029,-0.2824702031910419,0.2135720235317945,-0.0151554835557937,0.0041307974606752,-0.0333409942686557,-0.1430100571124814,0.0684742853045463,0.0712289150286,-0.1283749715684447,176
1723028736427970000,0.8885233950756489,1.8068080144256355,-0.7804466859120875,1.4896673337392508,9.659771339559557,0.8000492120046168,-0.1645773202180862,0.2173660993576049,1.371076583862305,-0.4459425924284727,-0.3240055193083186,0.5951716266973192,0.5847446197461345,-0.4105842113494873,-0.0156745295971632,-0.0340345352888107,-0.0011123451560735,-0.082239307269454,-0.028614684587717,0.0479339100420475,-0.0489021986722946,-0.0351402960973326,0.0372522212564945,0.0947448791046626,-0.1183274604098405,177
1723028736467718700,1.282118369889259,0.8721493295103311,-1.1567331638544798,1.870446812251955,9.576146715411545,0.9845002088617532,-0.6920204758644104,0.1419494003057479,0.6902372241020203,-0.4625863692850295,-0.3099987005879278,0.5947312529257733,0.5798357340278522,-0.3954614400863647,-0.0232109539210796,-0.037574540823698,-0.027243980756402,0.0293874225258827,-0.0211702138006687,0.0169817321002483,-0.0075155165977776,0.01185574560737,-0.0015083778416737,0.0745915187629172,0.0267509365424513,178
1723028736507468000,0.7941096658878027,0.6188707340121269,1.0448311242491006,2.0698041402094063,9.507405187618732,1.222926687664911,-0.4255048930644989,0.036923736333847,0.4324240982532501,-0.4732963199697889,-0.2988212586069532,0.5902151689629742,0.5816722155880338,-0.2844374477863312,-0.0470396429300308,-0.0375748053193092,0.0280517900079488,-0.0684463442385196,-0.0511444597711786,0.028438052162528,-0.0206937622278928,0.0308283032332896,0.0565644614398479,0.1059568400659132,0.0508813701218925,179
1723028736547216400,0.562347759540379,0.211924256324768,0.5492002548061311,2.215674500390142,9.46244493290782,1.3127398642547428,-0.1281034648418426,-0.0753079876303672,0.3526006937026977,-0.4790729432876806,-0.2919372369040874,0.5897809297077607,0.5808787213681411,-0.3767396807670593,-0.0529164932668209,-0.0489221364259719,-0.1253723465532064,0.0999333693921565,-0.2346621213009581,-0.0022664992138743,0.037453319877386,-0.0071168148726603,0.0787070766091346,0.0432261928933439,0.0026204989672551,180
1723028736586965000,0.707329646448791,0.1657090331166982,-0.2659469384133816,2.3065214770071205,9.435039624109864,1.3529143459938466,-0.1160523891448974,0.1470483392477035,0.0980929657816886,-0.4830568110705286,-0.2886670246407183,0.5896540607180882,0.5793406615304895,-0.4537636339664459,-0.0585601590573787,-0.0481438934803009,-0.044881344255805,0.1870949354946613,-0.021450711242482,-0.0272786170244216,0.041615504771471,-0.0532975598515709,0.0596243515610694,0.0029848045182909,-0.0189866592165082,181
1723028736626696000,0.740614368674159,0.3334457726687193,0.0120728612400591,2.27503240602687,9.4354967202276,1.4021519857630134,-0.0666660219430923,0.0452174581587314,-0.193704605102539,-0.4839090903442213,-0.2894686097902105,0.5871269579505295,0.580794226889412,-0.4102683365345001,-0.011290380731225,-0.0396656543016433,-0.1657102021604776,-0.0195130942434072,-0.2213748062372207,-0.0469668060541152,0.0460923425853252,-0.0754987926338333,0.0812090411782264,-0.0413391187714179,0.0218750672845286,182
1723028736666443500,-0.0414006625331938,0.0293991129636764,-0.4889303488910198,2.19079534906894,9.451938736462592,1.4253629116110502,-0.0933878123760223,0.0221779197454452,-0.2127253860235214,-0.4820296042823846,-0.2918505714900259,0.5849358583082064,0.5833701863708717,-0.4983039200305938,-0.0021313966717571,-0.0154609158635139,-0.0652419952392578,0.252098445802927,-0.2597275524418801,-0.0447672940790653,0.0292659401893615,-0.1181672740126028,0.0886492729187011,-0.0106210789710807,-0.0757243267517071,183
1723028736706191400,-0.5193303094603121,-0.1285094755351543,-0.21060104489699,2.1422993214473127,9.454073410403728,1.4837179238155482,-0.1730814278125763,0.0036428526509553,-0.0431798137724399,-0.4816495859847343,-0.2920788227314582,0.5822726177339043,0.5862270140496828,-0.4709660410881042,-0.0255806371569633,-0.0306519214063882,-0.0533639259189367,-0.1821259149104356,0.1327485013443976,-0.0244988165795803,0.0158829595893621,-0.0965612808768637,0.0395734421908855,-0.0417952696076594,-0.0978008052097167,184
1723028736745940200,-0.2872133060649037,-0.1057014313995838,0.0203746795088052,2.161723422233015,9.443836094027755,1.5202937965407968,-0.0551650784909725,-0.0273846387863159,0.088470846414566,-0.4826412967646905,-0.2903740489596577,0.5815234317075846,0.5870014874244952,-0.3974407017230987,-0.0010730031644925,-0.0823382139205932,-0.1080032786011695,-0.2946212442338466,-0.3162463621951639,-0.0063370550051331,0.0122169759124517,-0.0931967180809006,0.0397568456828594,-0.0432188726699911,-0.0301811758526135,185
1723028736785687800,-0.0183943193465471,-0.0444207410067319,-0.4802415771313011,2.187391093583405,9.434927980428933,1.5387779861278832,-0.1231843382120132,-0.1111557632684707,0.0280664823949337,-0.4827339894142183,-0.2881310783967636,0.5818287048360253,0.587727593692074,-0.3427801132202148,0.0752357766032219,-0.0896859392523765,0.0359872591823339,-0.1071177279382944,-0.4443383429706096,0.0059090498834848,0.0158311631530523,-0.1011206977468915,0.0432848259806633,-0.0032323295597976,-0.0113126357235945,186
1723028736825435600,0.0571979511238634,-0.0539981321692466,0.0501584078758955,2.177789152501523,9.431487484586238,1.5731101715795694,-0.0698358044028282,-0.1360670179128646,-0.0646676793694496,-0.4814870015471083,-0.286098479293451,0.5813272393769306,0.5902343959614536,-0.3719968497753143,0.1554184406995773,-0.0767602920532226,-0.0514408489018678,-0.0947942529380321,-0.2960008620239794,0.0114359818398952,-0.0110730649903416,-0.1077419881833251,0.0397677645087242,0.0257362293748417,-0.0171550005096709,187
1723028736865184500,-0.3126875006698071,-0.1149000523775816,-0.1490979439251124,2.158467343046516,9.438371398881078,1.5583850422650574,-0.0200560800731182,-0.1734642535448074,-0.0599909014999866,-0.4786806626707873,-0.2851213778306399,0.5824519512169223,0.5918787351938933,-0.4745056629180908,0.225561261177063,-0.0691090300679206,-0.0049544075369834,-0.040714872226119,-0.5051904326878488,5.21168112754e-05,-0.0028990481514483,-0.039643607999105,0.020089304074645,0.0523007080010604,-0.0254094907716615,188
1723028736904932400,-0.1233532618157565,-0.046231589820981,-0.0501129612989723,2.1570777883842585,9.440030856525896,1.550230085121095,-0.0356783717870712,-0.1623393595218658,-0.0366112813353538,-0.4762044475903271,-0.283098038761188,0.5837942815107807,0.593522567320508,-0.421223521232605,0.3168941140174866,-0.0683582797646522,0.0128296709567308,-0.2561550277173519,-0.1632791756212711,-0.015521409921348,0.0035645877942442,-0.040323000531434,0.0275186169892549,0.0983132573770359,-0.0162689383901422,189
1723028736944680000,-0.2784172745384276,-0.1610199985176324,0.018372107514739,2.1587634033836425,9.44049672047198,1.545041576567292,-0.0017218156717717,-0.1777380555868148,0.0231115203350782,-0.474174734691437,-0.2812044686972179,0.5849349080361581,0.5949231707144461,-0.3316206634044647,0.3223418593406677,-0.0634050741791725,-0.0729524234861135,-0.3682973058193922,0.0658735711410641,-0.020591102540493,-0.0031010024249553,-0.0523626216555945,0.0011250143870711,0.055476648323168,-0.0423421857335837,190
1723028736984428800,0.0904335735104978,0.1270394029825926,-0.2760083137005567,2.178670757641643,9.439442242982985,1.5233872325114906,-0.0068960711359977,-0.1543754786252975,0.056175198405981,-0.4724116337665459,-0.279092345978038,0.586886981498655,0.595397697231155,-0.2800445556640625,0.3340581059455871,-0.0687562301754951,0.0063467386782169,-0.2470394088476896,0.0183902276933193,-0.0405538640916347,0.0098319537937641,-0.0291622217681491,-0.0098691834136843,0.0076509120453847,0.0395896356224315,191
1723028737024176600,0.3594632803700864,-0.0900081877052784,-0.1841505526058375,2.1914090970531106,9.43442879873514,1.53612630257532,-0.1043609455227851,-0.174266368150711,-0.0030061490833759,-0.4709700104255798,-0.2763767289264905,0.5876182931916333,0.5970829130409265,-0.1278507709503173,0.3648615181446075,-0.0712743774056434,0.1425555365443229,-0.4247627048850059,0.0943105610743165,-0.0353227294981479,0.0172560177743434,-0.0325267936972668,-0.0259012300521135,0.0090745151077164,-0.0280299914513831,192
1723028737063924200,0.2698939224734902,0.0650549482345581,0.1536994463711977,2.195534944811463,9.433341588020324,1.5369066392980515,0.0031362636946141,-0.1431876868009567,-0.0061048520728945,-0.4692690233658128,-0.2744155543355953,0.588502909753887,0.5984538956446034,-0.2434676438570022,0.361575186252594,-0.0864960104227066,0.0543073442488908,-0.0055471127331256,0.0995638054274022,-0.0207442790269851,0.001523990300484,-0.0352879951890441,-0.0160565413534641,0.0223618415878969,0.0252844076538458,193
1723028737103673300,0.2703025032743811,-0.0386041636824607,-0.2483119130015373,2.2076963611178098,9.433301840531826,1.5196331406749783,-0.0685974359512329,-0.1582576036453247,-0.019770398736,-0.4672494152505709,-0.2723432808065665,0.5902113249201468,0.5992977344978406,-0.1880736351013183,0.3743913769721985,-0.1137595251202583,0.0911123495548963,-0.1370727212190628,0.11500555857867,-0.0044438950717449,0.0046405578032135,-0.0357554642870323,0.0128339659422636,-0.0038840794583084,0.0369621709123835,194
1723028737143421000,0.229040372429043,-0.0415980848014354,-0.0097663378633558,2.219778866969049,9.427167283299564,1.5399600355193015,-0.0893969982862472,-0.105047270655632,0.0054374430328607,-0.4667608766637685,-0.2703153863407435,0.5902656012168748,0.6005417095725051,-0.0172800477594137,0.4089513421058655,-0.1486737728118896,0.048999300968647,-0.4222732261568307,-0.0439126453541219,0.0059399404563009,0.0388042889535427,0.0579928734943736,0.0834380313754081,-0.0559299450486199,0.065110281451256,195
1723028737183168800,0.1591752474337816,-0.2453372811049222,0.2150292366027832,2.231434964101761,9.422162606880068,1.553686801446229,-0.0484356060624122,-0.1014539375901222,-0.0092683741822838,-0.4659369206118244,-0.2682436304115902,0.5906177897738744,0.601763091335613,-0.3142177164554596,0.4391096234321594,-0.1094548553228378,-0.0628717589765787,0.301921922636032,-0.3285118233978748,-0.0019120994256809,0.0531434342265129,-0.0304169345369795,0.128442108631134,0.0012961812861351,-0.0689889358157757,196
1723028737222917400,0.0037030923016369,-0.3098153062343597,0.383327701690793,2.2487917570941147,9.419602985525133,1.5441544184692204,0.0384944081306457,-0.0887052863836288,0.0232329573482275,-0.4650567637065168,-0.2666583526943717,0.5917460265676082,0.6020400964203383,-0.2485398948192596,0.4750780165195465,-0.1527659744024276,0.1196416939467191,-0.2935363716065883,-0.2121006358049809,-0.011513783596456,0.0215887036174535,-0.1101435694323386,0.1573335230350494,0.0391481252328958,-0.1049152585911098,197
1723028737262665200,0.3199325033619999,-0.1229600247144699,-0.0161538469433784,2.2565280504345893,9.422787460780144,1.513128581086546,0.0721994638442993,-0.1009010002017021,-0.0693501979112625,-0.4637133963982381,-0.2660456972049932,0.593356213963484,0.6017624720942413,-0.318372517824173,0.4697636663913727,-0.1390592157840728,0.2061369050949811,0.0165343706935644,0.0042740240573883,0.0039097419939935,0.015677910298109,-0.0880420569977723,0.1758090108633041,-0.0062836993623874,-0.1354545910984743,198
1723028737302413000,0.1184786415167152,-0.1362140585631132,0.0809046976648271,2.228587027324736,9.431551781994104,1.4998668023228643,0.042862057685852,-0.0567969307303428,-0.0862777233123779,-0.4616648325602471,-0.2662959959578664,0.59381354024113,0.6027747758480632,-0.2418577671051025,0.4935961663722992,-0.1758219003677368,0.0068757309883832,-0.2439794367551803,-0.0184754948239773,0.0376018099486827,0.0050308378413319,-0.10657520029312,0.1832997351884842,0.0291004519607988,-0.1744776834459044,199
1723028737342161700,0.0388559464864432,-0.0364928706169128,0.1715172810040414,2.219474331064522,9.438072708195447,1.4721023048236963,0.1209850311279296,-0.0504186563193798,-0.0183491818606853,-0.4603599512503484,-0.2666482394901617,0.5948465265676732,0.602598472238311,-0.2407288551330566,0.4583472311496734,-0.1617358326911926,0.2141764191657304,-0.05662146641016,0.2963490909397602,0.0367183461785316,0.0191148128360509,-0.0681544851524755,0.2195141017436981,0.0544426291003124,0.0018246941056888,200
1723028737381909500,0.1497159296929836,-0.0379120897650718,-0.1152899284780025,2.217999874597788,9.445478600537776,1.426115191283077,0.1014003157615661,-0.0276721585541963,-0.0598731897771358,-0.4591844742522036,-0.2673412128490536,0.5965040149408537,0.6015490803117608,-0.2337239384651184,0.4234147369861603,-0.1765854209661483,0.1143611231952905,0.0044078795701265,0.2570201931793242,0.0347673520445823,0.0289346221834421,-0.0359194135439349,0.2346081137657165,0.0510016765998909,-0.0988645163179375,201
1723028737421657300,-0.0021902035206556,0.061278352305293,-0.0329128201730549,2.2030600796192883,9.454026064130664,1.392220228204876,0.1327037215232849,-0.0208667498081922,-0.0323350019752979,-0.4580464502948032,-0.2684546683263261,0.5974517648281626,0.6009798786060614,0.0274988748133182,0.4364616572856903,-0.1904331296682357,0.1232633915752172,-0.5347264699041843,0.1795978577375412,0.0323151275515556,0.0195450019091367,-0.0595791563051287,0.2689582407474518,0.0089470927606977,-0.0293993001933442,202
1723028737461406000,0.044596828226,0.0685953973203897,-0.3530101587079465,2.192784477059543,9.46212403039038,1.3528886270307003,0.0487828999757766,-0.0337949655950069,-0.0618230029940605,-0.4568075863573277,-0.2693786451109309,0.5987128023995633,0.6002541787798374,-0.0450411029160022,0.3981651961803436,-0.1706553548574447,-0.0232902746945619,0.1165244387090206,0.0790823045432567,0.0563713200390338,0.0344710201025009,-0.0085273506741534,0.2858609557151794,0.0281228231172775,-0.1020654860500246,203
1723028737501153800,-0.2254004084914922,0.038172786527872,1.98737442493e-05,2.1822113528579474,9.46650852908492,1.3392365337751806,0.0468423627316951,-0.0002998607815243,0.0094709182158112,-0.4561776584107603,-0.2699424781762937,0.5990400608192179,0.6001533351793725,-0.0497884526848793,0.3895042240619659,-0.1285477876663208,-0.1478869607001543,-0.0150596219658851,0.1574468162059784,0.0888661965727806,0.0180074516683816,0.0186808355371933,0.316441148519516,0.0369988816270022,-0.1045887665831018,204
1723028737540901600,-0.2301008412674069,0.0495955132961273,-0.1127728310905396,2.1969375050857662,9.467357254868745,1.3088266363337635,0.0527400039136409,0.0042989565990865,0.0651834458112716,-0.4560140104332724,-0.2700121781955839,0.6003014549723391,0.5989849564555464,-0.0930648222565651,0.4061998426914215,-0.1236472427845001,-0.1067442184507846,0.0081575874924659,-0.2066120483260601,0.1118596941232681,0.0530919581651687,0.1183991191402543,0.3423320651054382,-0.0385065485268831,-0.0582428342340281,205
1723028737580650200,-0.2377976793803274,0.0838613555133342,-0.1169020398497581,2.227678680308163,9.461970885655283,1.2957469361387193,0.022438108921051,0.0317622385919094,0.1214685961604118,-0.4570638245634228,-0.269617823203045,0.6010337088174625,0.597626527391104,-0.0786283612251281,0.3829219043254852,-0.1096173077821731,-0.1751046379715204,0.0537912114202976,-0.0783586664438247,0.1305966526269912,0.0310642197728157,-0.0206909697832074,0.4177178740501404,0.0605351966546382,0.1352253215203993,206
1723028737620398000,-0.2567320969529449,0.1475888545364141,-0.1741138733685016,2.281328875822574,9.449867775407434,1.2907095264934003,0.0068809143267571,0.0534006208181381,0.218242272734642,-0.4592009907491691,-0.2685539902241369,0.6017232610829159,0.5957703958099289,0.1166146397590637,0.3766588270664215,-0.1026196554303169,-0.0795604434490203,-0.0854722978413105,-0.0575835894405841,0.1376287937164306,0.0292213037610054,0.0318555205393116,0.4124966263771057,-0.0266963659441564,0.1768898226215504,207
1723028737660146000,-0.0901364902600646,0.0570516745209693,-0.1295278587974608,2.351908578827977,9.431767470571398,1.296402185177058,-0.0217065960168838,0.0545353889465332,0.214520126581192,-0.4622046798602781,-0.2668733452163032,0.6022296096755385,0.5936875330636768,0.01961325481534,0.3816195726394653,-0.0471764355897903,-0.1457546248465776,0.4415478354692458,-0.2481517174711451,0.126574158668518,0.0307679716497659,-0.0084313012837548,0.3941395878791809,-0.0325210557929356,0.3035550585295073,208
1723028737700018200,0.0673855831392109,0.0207534496933221,0.0277484231472015,2.407620383047312,9.418236957868931,1.2925041548252103,0.0304622203111648,-0.0200341790914535,0.1461729854345321,-0.4641076689266565,-0.2653971884189351,0.6030464011853719,0.5920333443159828,-0.1191797778010368,0.3036438226699829,-0.0722581520676612,-0.1827940234303474,0.2283417226403951,-0.1931891789828427,0.1112207993865013,0.011979691684246,-0.0720743437436409,0.3326031267642975,0.0007313487651408,0.3521810509400442,209
1723028737739770600,0.1928334791466593,0.0492120669364929,-0.193669637709856,2.4494673280432817,9.41102688035965,1.266122636117041,0.0493177436292171,0.0145190358161926,0.1173868104815483,-0.464838077560119,-0.2644892911895544,0.6045586214119996,0.5903217882411991,0.0015650135464966,0.1787378787994384,-0.0812742859125137,-0.3049900780349969,-0.3002712328195572,0.3668073595225811,0.1251466274261474,-0.0658707395195961,-0.1070506905840709,0.26778444647789,0.0405904695283155,0.3696802846103906,210
1723028737779523000,0.1286222882598638,-0.1982604726314544,-0.1297526074640452,2.4812071589142084,9.402470648938417,1.2678965139217675,-0.0283111780881881,-0.0035916899796575,0.0571785978972911,-0.4660210363446107,-0.2635921048036018,0.6048755834093583,0.5894652375291047,-0.0598245784640312,0.1391698122024536,-0.0631988123059272,-0.1707715772032737,0.2671405321121216,-0.3071218293666839,0.1272363066673278,-0.0164929628372192,-0.0137218545730807,0.174264520406723,-0.0550740269056055,0.27621669575423,211
1723028737819276500,-0.0029474516287446,-0.0882242268979549,0.327328020440787,2.504887894231081,9.398525710704922,1.250451019732654,0.1039991378784179,-0.0223101582378149,0.0744657441973686,-0.4662599479041179,-0.2629963642513726,0.6058693371966583,0.5885209258095343,-0.1053883358836174,0.1116008684039115,-0.0279516745358705,-0.0684691405922174,0.2721779417574405,0.0662917874199803,0.1327804177999496,-0.0414302125573158,-0.0759063916206127,0.1459661871194839,-0.0240909692187327,0.2962392008244991,212
1723028737859028700,0.1491302387595176,-0.1286152739971876,-0.1781838992863893,2.543149528086185,9.394474974009396,1.2027527914252132,0.0789181739091873,-0.0032845279201865,0.0862613841891288,-0.46653617045446,-0.2626834562442143,0.6080082845565477,0.5862314784042811,-0.0512681044638156,0.1351634413003921,-0.0842696726322174,0.3529249646425247,-0.2688642871648073,-0.1132592994332313,0.1353320330381393,-0.0622613467276096,-0.1306624705842696,0.1216861233115196,-0.0188368229666375,0.3058560472145676,213
1723028737898781200,0.2321779398024082,-0.0767284348934888,-0.0777075090587139,2.5682898145616053,9.388826154467464,1.1934051173653453,0.0369696468114852,0.049911979585886,0.0578918270766735,-0.4675280387150143,-0.2624535710667872,0.6084992988890896,0.5850335607408934,-0.0551006607711315,0.1875025033950805,-0.1144237145781517,0.3534305760771036,-0.2116898630470037,0.0379120851984946,0.1159438490867614,-0.0588901899755001,-0.0499728358756517,0.0914612188935279,-0.0447004803967196,0.3216417184326797,214
1723028737938534700,0.0231187175199389,-0.2656424025088548,0.3087959000587463,2.5865607997894284,9.38575507645905,1.1780035500939934,0.100887194275856,0.014121126383543,0.0496079511940479,-0.4683291206166519,-0.2627114649176384,0.6090330217831221,0.5837202337307239,-0.1824293285608291,0.2194204330444336,-0.1465688794851303,0.1610398722618818,0.24474457590878,-0.1766530364573001,0.1123891323804855,-0.0676779448986053,-0.0682223901563789,0.0598203763365745,0.0486845039650099,0.2716185543090105,215
1723028737978284000,0.1498451090306043,-0.0261158535093069,-0.1287123776961118,2.610819042733312,9.385648108953236,1.1241014256451278,0.1316982060670852,0.0037394263781607,0.0388794094324111,-0.4684148156734539,-0.2633604916044633,0.6110057515315003,0.581292255744914,0.0494949892163276,0.2012525647878646,-0.1333450078964233,-0.0393225410848855,-0.3873293385475874,-0.1208370412111282,0.0994756668806076,-0.0546209216117858,0.0355597864513052,0.0188236497342586,-0.0511262391278985,0.2399391666547395,216
1723028738018036500,0.2805076709464192,0.1371621530681848,-0.1272328797280788,2.620516553144157,9.386672775825858,1.092545061582327,0.102095328271389,0.0362380780279636,0.0183809418231248,-0.468452151171039,-0.2640223159537148,0.6120358827391648,0.5798766096478537,0.2072364091873169,0.1340542435646057,-0.0637596696615219,-0.3852712369740009,-0.0791372496008872,0.4731453352600336,0.0728157311677932,-0.0458167605102062,-0.0239196449395502,0.0061116875149309,0.0475766020886134,0.2002174884507432,217
1723028738057789700,0.107692897477746,0.1997480808407068,-0.3276795372921973,2.635164087177813,9.38543768107295,1.067637414819002,0.0763243287801742,0.074082002043724,0.0458024442195892,-0.4694010413129947,-0.2650637884917098,0.612622909436933,0.5780112346723845,0.0301255509257316,0.1560515314340591,0.0734828040003776,-0.6651835723757743,0.5781342344760895,-0.2556143449693918,0.0645082294940948,-0.0454417839646339,-0.0319433495198143,0.0042884810827672,-0.0021926043986517,0.229408420290146,218
1723028738097542400,0.0010214520022273,0.095368837955594,-0.2440150925904512,2.643075006432831,9.384771910640596,1.0538537310730665,0.0320741459727287,0.0481585226953029,0.0012544617056846,-0.4700925650385791,-0.2658328865577024,0.6128631898531992,0.576840239766983,0.0840156823396682,0.2033352702856063,0.1469916999340057,-0.4297206195533275,0.1345908412754535,-0.5630313578903675,0.033271562308073,-0.0294772554188966,-0.0339971059951349,0.0055340053513646,-0.0754213708829134,0.2767971625233069,219
1723028738137294800,-0.1711731437414884,0.021132219877839,-0.1168979481965303,2.6419889647617936,9.387332116517424,1.033577981894091,0.0589828081429004,0.009170345030725,-0.0085288891568779,-0.4700211686821009,-0.2666414814260015,0.6133551262454793,0.5760016888182143,0.0767330005764961,0.1572709381580352,0.1663090139627456,-0.1910825438261032,0.0879044934242963,0.0818576510081067,-0.0020210444927215,-0.0415099076926708,-0.1119535779963713,-0.0056051965802907,-0.0223414952029008,0.2044821601578965,220
1723028738177048300,-0.3891042392656207,-0.0955623147010803,-0.26632278598845,2.6489316235065457,9.388356783390044,1.0061315373681483,0.0268683899194002,-0.0104246670380234,0.0599663183093071,-0.4696902940929935,-0.2669374293611142,0.6143663213005134,0.5750560173224345,-0.0282136555761098,0.0377267487347126,0.1397698819637298,0.0581897386401891,0.4812234277755022,0.1174503213822841,0.0184111632406711,-0.0344395712018013,-0.0467759897628333,-0.0156513415277004,-0.1157395080095622,-0.0028219032908702,221
1723028738216800500,-0.2259747012481093,-0.0938975963592529,-0.0524561634242534,2.6885604540616272,9.377713808822632,1.0002606725733727,0.0014191162772476,-0.0168772675096988,0.1499075442552566,-0.4706737246912351,-0.2656294946008256,0.6151762918134767,0.5739907640138602,0.1094611212611198,-0.0038585630245506,0.1470190733671188,0.1049801313877105,-0.1540501595050096,0.2404027473121881,0.0332080051302909,-0.027889521792531,-0.0883455791221465,0.0019655521027743,-0.087415376466792,0.0120498593903845,222
1723028738256553000,0.0919002850621938,0.0329179347395896,-0.0141285516608506,2.7405899165064094,9.3643229968518,0.9843788475044072,0.0408906303346157,0.0105697680264711,0.1719944030046463,-0.4718856416991771,-0.2641530894556078,0.6164688092340515,0.572287770007611,-0.0068686851300299,-0.0286010336130857,0.1100350245833396,0.0366343249142169,0.4492266995340585,0.1498386792898178,0.0311657357960939,-0.043527252972126,-0.0756546179497847,0.0164242535829544,-0.0500877583590568,0.0257676542762783,223
1723028738296306400,0.3391851931035518,0.055808396461606,-0.2086690539211034,2.793478333868086,9.349513550254702,0.976459964138642,-0.0081085180863738,-0.0155971869826316,0.1186605617403984,-0.4734454866419572,-0.2626702084558342,0.6174291519708919,0.57064444473436,0.0413254760205745,-0.0621536150574684,0.154172658920288,-0.1092184996098279,0.2885299416214227,0.0758516885915771,0.0267316233366727,-0.0660701841115951,-0.0872747350202407,0.0257151741534471,-0.0493057320027379,0.1213061200276017,224
1723028738336058600,0.4713777410656213,0.1429085877656936,0.0232305803965777,2.818404977592826,9.343067442855238,0.9664728231314568,0.0585710927844047,0.0006949992966838,0.0196242239326238,-0.4739539366144008,-0.2619784145350594,0.6181350247756993,0.5697754530543532,-0.0381195470690727,0.0291155241429805,0.1899124830961227,0.1120809033036231,0.1043050086051225,-0.329800109642744,0.0281309317797422,-0.0637055709958076,-0.0346565722675761,-0.0031898212619125,-0.0062779888575198,0.1494333316256292,225
1723028738375811000,0.1245066696345806,0.0221720843195915,-0.2159831763267517,2.816022174109518,9.344992273437976,0.954744537545368,-0.0192272998392581,0.010264802724123,-0.0145345460623502,-0.4736979915957577,-0.2623341980805569,0.6184677386361404,0.5694635310874382,-0.0649671405553817,0.0624429136514663,0.2452653497457504,-0.0639788434356451,0.4008230263710022,-0.2955991493552923,0.0031783122103661,-0.0332919768989086,-0.0307964833229198,-0.0234214700758457,-0.0219592247369117,0.2085901069333776,226
1723028738415564500,-0.1384323191344738,0.0373386737912893,0.1526392697937786,2.838792516583204,9.337308733198046,0.9624602995544672,0.0031429803930222,0.0356218889355659,0.0973252952098846,-0.4747877581835047,-0.2616972710836825,0.6184195338670597,0.5689011527062271,-0.1941565573215484,-0.0478490851819515,0.2833540141582489,-0.2108978358864784,0.4149725477546453,0.3717898241102695,-0.0214499104768037,-0.0339283868670463,-0.0615531141260638,-0.0724402591586113,0.0023432283831003,0.144171438175207,227
1723028738455317000,0.1332794664159417,0.0762087949335575,-0.0952012263037264,2.885658897176385,9.3226775657773,0.9648947601597756,-0.025336043909192,0.0514528788626194,0.1088510751724243,-0.4767678318452797,-0.2606468234141919,0.6187627092422798,0.5673519865425065,-0.0139465685933828,0.0418561920523643,0.3044808506965637,0.1104705454975366,-0.6457663397222757,0.0454629800686612,-0.0621537715196609,-0.023543594405055,-0.0448181884922552,-0.0564046502113342,-0.0077653070891159,0.2163683031868189,228
1723028738495069200,0.3072860800176858,0.0802583625853061,0.0163603293009102,2.9037872590631246,9.315637584137916,0.9784305335592478,-0.010274913161993,0.0424122549593448,0.0283889528363943,-0.478040871921609,-0.2602789697658107,0.6183597523082308,0.5668890309999572,-0.1739330440759658,0.0213681235909461,0.2390526682138443,-0.1744809531152248,-0.0805973852813243,-0.2041776242533698,-0.0931076034903526,-0.0106517132371664,-0.0515392038429621,-0.0821874439716339,-0.0685524851938476,0.2208483346777036,229
1723028738534822700,0.1312356856286525,-0.0615536621153354,0.0199753779929131,2.9085020126253367,9.313346842852232,0.986188235013932,-0.0069298669695854,0.0415014140307903,0.0208457689732313,-0.4788296294888396,-0.2605089389796997,0.6179429474575714,0.5665719427856925,-0.0564562119543552,0.1278940886259079,0.1980608850717544,-0.0254769710838794,-0.4025660706460475,-0.6217758078038692,-0.1045541390776634,-0.0246569607406854,-0.1494312218669336,-0.1438033282756805,-0.0588262236125534,0.1445435228906106,230
1723028738574575000,0.1752767796680331,-0.100730657249689,0.0185211605966091,2.9180317652538417,9.309877705436945,0.9907843306325376,0.0052072126418352,0.0493809767067432,0.0109645333141088,-0.4797025443671631,-0.2606405245801776,0.6176978012205913,0.5660401252499876,-0.2428151816129684,0.0279445331543684,0.1661106795072555,-0.203852593550086,0.143612936642766,-0.1264466977864503,-0.1079588457942009,-0.0339975543320179,-0.1068787224174942,-0.2013489753007888,-0.0520312251436058,-0.0269732398069114,231
1723028738614327600,0.0416050990641117,-0.1382604696989059,0.0440244351655244,2.9278032176837323,9.306257761374116,0.9959571301605552,0.0073724575340747,0.0561356842517852,0.0365290902554988,-0.480738979015424,-0.2609110685978418,0.6173700130395776,0.5653934550336236,-0.1724267601966858,-0.124239943921566,0.1901319175958633,-0.1821855361431837,-0.058352235725522,0.7381517779529094,-0.0729548037052154,-0.0195479094982147,-0.1115179265254642,-0.1549210250377655,-0.080093189485697,-0.0666670641728909,232
1723028738654080800,0.2569888481929898,-0.0731289490967988,0.0185457105159759,2.9413652945682403,9.302327436187865,0.9927054348882288,0.0444697365164756,0.0860548689961433,0.0348926968872547,-0.4818321186544612,-0.2613398994855562,0.6173229028493679,0.5643152955007311,-0.0553118512034416,-0.2088367938995361,0.1257247626781463,-0.0487643231689929,-0.0871259102672338,0.3415513377130031,-0.0484178513288497,-0.0443690419197082,-0.1524361758365761,-0.1065375283360481,-0.0572780534556368,-0.0641507522367173,233
1723028738693833500,0.0549342439755797,-0.2370499297529459,-0.094147187206149,2.9556249983280893,9.297756475010514,0.993170348986238,0.014161916449666,0.1096823066473007,0.0456499606370925,-0.4834260014560985,-0.2621196243651872,0.6169730193366232,0.5629714582693934,0.0471266396343708,-0.2009065449237823,0.0836500227451324,0.2910071453899145,-0.533455134794116,0.3092430593043566,0.001335872686468,-0.0720764398574829,-0.1998716341551393,-0.0962335914373397,-0.1038741703066509,-0.1943364858544431,234
1723028738733586700,-0.0304588511496782,-0.2638905904054641,0.1537152284622192,2.9760747888997194,9.291078312420844,0.9946035966597496,0.0672324001789093,0.0896426141262054,0.0611860491335392,-0.4852941659667802,-0.2627525516192979,0.6166444905221364,0.5614270252342783,-0.1948005110025406,-0.1839745938777923,0.0918306559324264,0.1167658462494611,0.6979296576797962,0.0950339069128036,0.0702349916100502,-0.0954927429556846,-0.2749310033252463,-0.0864994078874588,-0.0784638164518866,-0.187354079621192,235
