time_imu,phone_acc_x,phone_acc_y,phone_acc_z,phone_gravity_x,phone_gravity_y,phone_gravity_z,phone_gyro_x,phone_gyro_y,phone_gyro_z,phone_ori_w,phone_ori_x,phone_ori_y,phone_ori_z,watch_gyro_x,watch_gyro_y,watch_gyro_z,watch_acc_x,watch_acc_y,watch_acc_z,headphone_gyro_x,headphone_gyro_y,headphone_gyro_z,headphone_acc_x,headphone_acc_y,headphone_acc_z,frame_imu
1733108381149849900,-1.006237774221599,18.77628569675684,-9.677343236607312,-0.0395794978209072,9.377730759957432,-2.868273462611437,-1.2524774074554443,-0.8195322751998901,0.2881437242031097,0.2524373882894517,0.3381157050622068,0.7293277810962678,0.5385482093118081,0.6971819996833801,2.187854528427124,-0.7617453336715698,-1.738604187965393,1.1038384437561035,-0.7521337866783142,0.0800321996212005,-0.1414414495229721,0.9687266664728522,-0.4983744323253631,-0.1309506946748122,-0.7738875465922057,0
1733108381189524000,0.3243352683655917,7.718184267809987,-10.726551845288276,-0.0270054433097713,9.634242346027492,-1.8305873878113923,-3.912095785140991,-0.2472862899303436,0.1348569989204406,0.2769841803578449,0.3326227536086239,0.6947633292863878,0.5744091612620006,2.74165415763855,2.069711446762085,-1.78775155544281,-0.8506696224212646,0.8607333302497864,-0.0541550517082214,0.2008187174797058,-0.0904081091284751,0.988274612833932,-0.5612016916275024,-0.0731165508395293,0.0401615354925626,1
1733108381229270000,-0.1122893858219962,-5.318553568342328,-4.254367755281925,0.0512372571877436,9.80453812241256,-0.1969016784336417,-4.000204086303711,0.3745319247245788,0.2565265297889709,0.2993378497672274,0.3087791259108883,0.643967890040261,0.6327381619468798,3.576141834259033,1.4020060300827026,-2.4628665447235107,0.1943907141685485,0.4880544543266296,0.6157400608062744,0.1981690824031829,0.1012684851884841,0.6565376899097114,-0.0033698407933115,-0.146850639922358,1.5104685680970549,2
1733108381269017000,1.4670315774306657,-13.680049768459796,-0.9383985290307552,0.0839622129387687,9.740539405232669,1.1336750174153596,-2.8838980197906494,-0.1258879601955413,-0.1828702688217163,0.3187943756969323,0.2890168070245221,0.5988889245613763,0.675404674116164,2.332240104675293,0.5697044730186462,-1.6509300470352173,1.17525053024292,-0.4175525903701782,0.933405339717865,0.0866077244281768,0.2129018157720565,-0.3586696823069825,0.4630613625049591,0.0649234445091104,0.6499114767029881,3
1733108381308763100,-0.4966078247163444,-18.004101885342596,2.312948441314697,-0.0021343875311176,9.60015478298664,2.001852009228617,-1.3895595073699951,0.4664877951145172,-0.1315824836492538,0.3318725461769041,0.2696811679396447,0.5702683760274537,0.7013748713711467,0.8219457268714905,0.2564144730567932,-0.8254428505897522,1.5307767391204834,-0.5756668448448181,1.0039994716644287,0.1346660852432251,0.1349622458219528,-0.9562234509915112,0.1987598687410354,0.1273289148479234,-0.8123725408744067,4
1733108381348509200,-0.3281872676186263,-19.61699184025526,1.0436989053487775,-0.0034096691628801,9.556107551467418,2.20253941674605,0.1928457021713256,0.2535291016101837,0.3204861581325531,0.3284336895534765,0.261143855582841,0.5652482869018473,0.7102320489746324,0.4185671210289001,0.6982782483100891,0.6181449294090271,1.543245792388916,-0.5811052322387695,0.8690736889839172,0.1489825844764709,0.2273541688919067,-0.5286075120998546,-0.0169480741024017,-0.2518607828558422,-0.115990688025346,5
1733108381388255000,0.0349378140614833,-16.299857004290818,-1.049804236486554,0.1441784067721106,9.604322424060106,1.976510062701255,0.9212673306465148,0.2283641695976257,0.5197615623474121,0.3178292039594171,0.2677090780892135,0.5723267287577406,0.7069360616384992,-1.1755508184432983,0.6501299142837524,1.68547785282135,1.3640737533569336,-0.513825535774231,0.9010936617851256,0.0964275524020195,0.1845427602529525,-0.6013419454537332,0.1509467214345932,0.130650679681776,0.4816204277364537,6
1733108381428001800,0.0450069433968514,-8.97793473854661,0.5142622124157845,0.321455694341287,9.691705523958802,1.462150965782255,1.835906147956848,0.6896005868911743,0.6461111903190613,0.2972644509696234,0.2755520057984323,0.5912039758912156,0.6972680341003858,-1.8196967840194704,-0.1373671889305114,2.4441826343536377,0.8330851793289185,-0.1969141960144043,0.6314871907234192,0.1940090358257293,0.1002034917473793,-0.5972263268284499,0.3041041791439056,0.2134738421206362,0.5265621969426051,7
1733108381467747800,-0.5910960073798894,6.786188080102205,0.0415687856417149,0.6370349709298462,9.7599887865901,0.7121558244962245,1.950334310531616,-0.0544848851859569,0.7563588619232178,0.2703714163721964,0.292084993617161,0.6151231706750241,0.6805945951489284,-2.6477744579315186,-1.81500256061554,2.51397967338562,0.1673552393913269,0.0660208463668823,-0.0332911014556884,0.1679697334766388,-0.2032505869865417,-0.0331411216367501,0.8729562759399414,-0.4798864800833165,1.771064208610356,8
1733108381507494000,1.6333886991925537,14.499273563468456,2.1454630461752413,0.6818041600480675,9.779876559364794,-0.2440182891945354,2.849147081375122,0.0008437494980171,-0.2954274415969848,0.2548448980573855,0.3069848697589405,0.646685209107431,0.6500866463989243,-2.385093688964844,-0.662122368812561,1.370449423789978,-2.0088911056518555,0.7291600108146667,-0.2251856625080108,0.0927656590938568,0.2278934568166732,0.938130233483389,0.7561156749725342,-0.3119336135625839,-0.286536575847119,9
1733108381547240000,0.0624948884882032,11.221733071267604,-3.149247289764881,0.6168597595158964,9.72199427923858,-1.1281439790342005,1.5336867570877075,-0.0575752444565296,-0.0716133788228035,0.2426775756875542,0.3158791098451709,0.6765646490940739,0.6193450568279327,-1.2903250455856323,-0.8988462686538696,0.4072575271129608,-1.0612678527832031,0.7363525629043579,-0.6045639514923096,0.0834023356437683,0.113185666501522,0.0987993969261646,0.1600515842437744,-0.2034691654567606,-0.9952589918285608,10
1733108381586986000,0.7924990158207714,4.903265963289141,-3.805927237689495,0.5754880308162421,9.685951490476729,-1.421812233392149,-0.0081779202446341,0.1045198440551757,-0.1282550692558288,0.2389538576589695,0.317805101588578,0.6866528716467555,0.6086122438290744,-0.1547491550445556,-0.2076925933361053,-0.0987605974078178,-0.5024566650390625,0.4632877707481384,-0.4248077571392059,0.0780031532049179,0.0309515725821256,-0.1648036817748099,-0.1586588323116302,0.009656842757028,-0.3618773923071101,11
1733108381626733000,0.6570381137125194,1.380731304332614,-1.60442724699378,0.5622091547872871,9.71190426237881,-1.2382377271085976,-0.6358476281166077,0.1886855214834213,0.0031905686482787,0.2402995036025911,0.3127690965453769,0.6821349156292593,0.615730177622719,0.5649358034133911,0.0541325733065605,-0.2015498131513595,-0.0800945162773132,0.238344669342041,-0.1605450510978698,0.1264373660087585,-0.2491552978754043,-0.4591353684775531,-0.0917301252484321,0.2065817445193417,0.2103004910478368,12
1733108381666479000,0.2376487358963117,-0.9009177433550356,-0.0424034829001873,0.5828142455184832,9.733426358357072,-1.0445646553326398,-0.345936506986618,0.0696652084589004,0.0239349547773599,0.2409901131199705,0.3091734289220802,0.6765129460189806,0.6234306377570308,0.4800235629081726,0.1502913236618042,-0.1479313969612121,0.0887121558189392,0.0446934103965759,0.0421623289585113,0.1148527860641479,-0.1940675526857376,-0.1343904233325272,0.014231220819056,-0.1420389561911579,0.1230544980648905,13
1733108381706225200,0.2868018026545643,-1.6548410909354685,0.7884978904206306,0.5635887725774198,9.74335154004395,-0.9590848317719995,-0.0389860644936561,0.0006213159067556,-0.1292197406291961,0.2424747669758147,0.3069225510456688,0.6743131813440041,0.6263435541305967,0.0812921449542045,0.1150757670402526,-0.0347213596105575,0.1308760643005371,-0.1455113887786865,0.1307170689105987,0.0934223383665084,-0.0692435875535011,-0.0216577324561309,-0.0068167997524142,-0.0759542676166398,-0.1008906153180636,14
1733108381745971200,0.1175575446164235,-1.8303794441491363,1.4065993205606937,0.5061319147890433,9.740372231972216,-1.019486401242763,0.3470331728458404,0.0358995199203491,-0.1447426378726959,0.243212230923087,0.3055136358217222,0.6772302113188461,0.6235931703998437,-0.2998208403587341,-0.1419268995523452,0.0761134102940559,0.1539282202720642,-0.1470565795898437,0.1164454221725463,0.045514490455389,-0.0217909161001443,-0.1179915247200522,-0.0340243726968765,0.0212584081073524,-0.2161213061558082,15
1733108381785718300,0.3314319851608946,-1.5199433756679297,1.6588893434129657,0.447132540266402,9.71694284106791,-1.2455905740894375,0.8039395213127136,-0.0111010605469346,-0.1712399572134018,0.2413347927333808,0.306040580086964,0.6854535779715113,0.6150204387671069,-0.4977011680603027,-0.3895692825317383,0.2405815869569778,0.1457993388175964,-0.1174576878547668,0.0711834728717804,0.0718403607606887,-0.048390369862318,-0.2408260507581755,-0.0527423694729805,0.0230789106659358,-0.334754334516637,16
1733108381825464300,-0.5007300922781228,2.930753007400036,1.0297991209425033,0.3958341320425271,9.666637718197704,-1.6030607809461652,0.967658519744873,-0.090281456708908,-0.0394088439643383,0.2380071523115774,0.3094698094272216,0.6971095945569245,0.6013478152901278,-0.9853941202163696,-0.5194500684738159,0.4043357670307159,-0.0508423447608947,0.0366560816764831,-0.1112375855445861,0.0774495378136634,-0.1074823215603828,-0.2299569940836168,-0.0214080940932035,-0.0619498674918431,-0.4076149880660697,17
1733108381865210400,-0.631732042216137,17.680715149873492,-2.7579695058524605,0.426279685319215,9.625454059416056,-1.8273754400275648,-0.1865434944629669,-0.2510722279548645,0.2229654937982559,0.2345684013473534,0.3146486957593138,0.7029697147437244,0.5931335494088131,-0.1424248367547989,0.6633712649345398,-0.309233158826828,-1.204331398010254,0.8726915717124939,-0.98404723405838,0.1942594498395919,-0.1275287568569183,-0.2069840965088456,-0.2376572042703628,-0.2487835491012781,-0.3082532810820266,18
1733108381904956200,1.5332561539664864,20.80265240790844,-8.679078048700093,0.4259489189948886,9.710249480909107,-1.3038457791812716,-2.5360705852508545,-0.92788165807724,-0.0599574856460094,0.2513007600932708,0.3174737492698102,0.6824134023439851,0.6085805773837384,1.285877704620361,1.462110161781311,-1.2190055847167969,-1.550320386886597,1.1399224996566772,-0.8502131700515747,0.1679213792085647,-0.0174118671566247,1.6746255494661628,-0.2330913245677948,-0.1554317865891382,-0.5179135014649481,19
1733108381944703200,0.5118904783157632,5.889302953264117,-7.902145581454038,0.3745626132918521,9.79855378730595,-0.1357882069670129,-3.139276027679444,-0.9008998274803162,0.0230583045631647,0.284354116453993,0.3129756497672799,0.6395072436380183,0.6420432281441818,2.318135976791382,1.1072782278060913,-2.360766649246216,-0.7242671847343445,1.0043866634368896,0.1444550156593322,0.206063836812973,0.0202179625630378,1.2530801991924645,-0.2213038504123687,-0.1002779724455904,0.4373847609730437,20
1733108381984452400,-0.3793903622418642,-9.630375733727217,-5.787900095841288,0.3466197635510936,9.74903952255249,1.003237496427074,-2.843186378479004,0.3302092254161834,-0.2430209815502166,0.3066975733718807,0.2982778320354358,0.5998995396757357,0.6760825031464411,2.870699405670166,1.4253792762756348,-2.930705308914185,0.3968138694763183,0.3702816367149353,1.0780619382858276,0.0690507665276527,0.1016885414719581,0.0968208177290391,0.3946490883827209,0.2130039413202553,1.6842413729429244,21
1733108382024198400,-0.8617842220362275,-19.096339488410948,-0.8889913048483431,0.1522028328715823,9.591357728546855,2.0379082419939336,-2.174239158630371,0.6791515946388245,-0.3239869475364685,0.3209105849881004,0.2689581979900962,0.5689965559875952,0.7077575760811411,2.196065902709961,0.6710039377212524,-1.4207618236541748,1.706169843673706,-0.6397556066513062,1.1761205196380615,-0.0252836365252733,0.1817378252744674,-0.7450831846512853,0.4789824187755584,0.1666621143241413,-0.4327805916458368,22
1733108382063944400,0.300161671497859,-22.15396414101124,0.7191895955905317,0.0918887864206451,9.47217780689299,2.5376722657188773,-0.4918998777866363,-0.1987736821174621,0.1428054720163345,0.3270778003339473,0.2563570715616186,0.5521736816291668,0.7227761516841897,0.3904883563518524,0.6128653287887573,-0.4043137729167938,1.678022384643555,-0.7240586280822754,0.9396765828132628,0.1633382886648178,0.0950556918978691,-1.6595974916823206,0.11849095672369,0.37578594454173,-0.8711565921459347,23
1733108382103690500,0.3634229047160595,-19.26685621407032,0.4010241019010543,0.1987655178104527,9.460954986611007,2.573172618167102,0.2213696986436844,0.0689590275287628,0.2768497467041015,0.3249746266224299,0.2599931940139589,0.5488244208177816,0.7249737167234287,-0.4828119575977325,0.6970105171203613,0.9748778939247132,1.665535807609558,-0.6420718431472778,0.8983001112937927,0.210893377661705,-0.076682835817337,-1.465307968508452,0.0882674977183342,0.4368422150615602,-0.1606781628100201,24
1733108382143437300,-0.1394837278835475,-12.835619051480291,1.788703617936373,0.3082749449245631,9.5422456148535,2.2407376299761235,1.7452795505523682,0.0678336396813392,0.344436764717102,0.3141834042140563,0.2672246270841484,0.560664941532438,0.7180074287115137,-1.670573115348816,0.2873751521110534,1.902632594108581,1.10955810546875,-0.5569518208503723,0.9104468822479248,0.2292875200510025,-0.0520276203751564,-0.4144523963380604,0.028355473652482,-0.109805944108963,0.1607260205397382,25
1733108382183206000,-0.0799822855902835,0.1866869392156601,0.9172286805562676,0.4549741571448743,9.718573657140135,1.2299212957926091,3.045086145401001,-0.2841099798679352,0.3287259638309479,0.2956335842435545,0.2887498352323224,0.5949075546186996,0.6894268130347292,-3.515618324279785,-1.2542674541473389,2.141618251800537,0.334820032119751,-0.0863465666770935,0.2776582837104797,0.2348269969224929,-0.2933727502822876,-0.0757230344103416,0.2715076208114624,0.2308923935038968,1.3405549228973686,26
1733108382222952700,-0.3381895331297069,10.943936705106497,-0.4574304642558097,0.55486492950432,9.790148362532255,0.1244867684908676,2.6023871898651123,0.1737298518419265,0.0943898409605026,0.2774430702605122,0.3101148239133273,0.6304615269999624,0.6552650963167168,-2.965419292449951,-0.9759474992752076,1.0285109281539917,-1.5733418464660645,0.6896764636039734,-0.1710228621959686,0.0389930829405784,-0.0528827011585235,1.476808582818508,0.5102791786193848,-0.5764092738470062,0.8841660035837441,27
1733108382262699500,1.7947408522740005,12.66956339688301,-2.54357038384676,0.4924698846613988,9.767698045793177,-0.7210727059233933,1.7335227727890017,0.0170215927064418,-0.3615959882736206,0.2627854652410255,0.3165456098646599,0.6607294102738803,0.6278370497986491,-1.1701147556304932,-1.131046175956726,0.5855532288551331,-0.788043737411499,0.8020864129066467,-0.4805168211460113,0.0156530998647212,0.0326496213674545,0.8878887504339218,0.1425289511680603,0.135166668402031,-0.2732674905598163,28
1733108382302447600,0.2211769455775618,6.94720340244472,-2.9627053119778632,0.4065526925968006,9.724819858053326,-1.1970705080050974,0.6261952519416809,-0.0551834665238857,0.0367507450282573,0.2591306899390662,0.3214910007830363,0.6765184006097993,0.6097685393113677,-1.0902141332626345,-0.6591776013374329,0.0162291750311851,-0.7030110359191895,0.5801709294319153,-0.5546472072601318,7.34634231775e-05,-0.1048000156879425,0.2594189614167437,-0.0637347474694252,0.0109294587920187,-0.0357356864409055,29
1733108382342194400,0.6865298733957111,3.208796626320481,-2.1141104610562325,0.4769024593038484,9.717797412070633,-1.2277459975801408,-0.3051304221153259,0.1740333437919616,0.1974945962429046,0.2551473849417212,0.3229387065715072,0.6769846480798847,0.610165700137078,0.4328137040138244,-0.1617154031991958,-0.028695024549961,-0.2587038874626159,0.4967498779296875,-0.3743254840373993,-0.0224121790379285,-0.0066958796232938,-0.1603483463337645,-0.1607929617166519,0.0694737327911891,-0.3215058536259457,30
1733108382381941200,0.5406580519102514,0.7322317402541637,0.0481342085719108,0.5383785992035642,9.730728789836167,-1.0924551182765514,-0.2767305374145508,0.0786009058356285,0.077687494456768,0.2540138454418296,0.3217188972259149,0.6724556954843759,0.6162607419123572,0.4345895051956177,0.0848120301961898,0.1186937615275383,-0.0596259832382202,0.1018804907798767,-0.0775285065174102,0.0160888619720935,-0.0572438724339008,-0.3808872497361153,-0.1583131998777389,0.173766740431264,-0.2608648311098106,31
1733108382421688000,0.1614099476832896,-1.0828887599647044,0.4789360474906861,0.5439816799076274,9.739275668907164,-1.0104494736324996,-0.1298565864562988,0.1546718776226043,-0.0312293507158756,0.2539595402161549,0.3195093233356706,0.6703971801652318,0.619666129869105,0.1437304764986038,0.1232899129390716,0.1159037724137306,0.0566844940185546,-0.0848116278648376,0.0788218677043914,0.0487897954881191,-0.0289696902036666,-0.2577566542277112,-0.0650709718465805,-0.0218228758729877,-0.130049873377569,32
1733108382461436200,0.204418191543594,-1.8947662838637829,1.3284592653036116,0.532995956317149,9.739068748158216,-1.0182605127096176,0.229037657380104,0.1714814603328704,-0.0425045117735862,0.2519660480286484,0.3168334915542598,0.6719623311748658,0.620158314327327,0.0082062147557735,-0.1006162092089653,0.0580216981470584,0.1325644850730896,-0.1473638415336609,0.122217059135437,0.0546841099858284,0.0656510964035987,-0.0651053267149254,0.0154085028916597,-0.08897942917943,-0.1790270721122622,33
1733108382501183000,-0.4716657642267644,0.8643038767069577,1.581564257800579,0.5428931905511767,9.720312025240062,-1.1794880164980888,0.5730580687522888,0.0365005247294902,0.1130510866641998,0.2476344282738037,0.3177293024286357,0.6776320863313896,0.6152560776796014,-0.381268560886383,-0.2779722511768341,0.2982789874076843,0.1188679933547973,-0.0556584000587463,-0.0267093777656555,0.0051861368119716,0.0544406026601791,-0.3927984176084399,0.0754425376653671,-0.1583528434013016,0.005360083994735,34
1733108382540929800,0.2904724539913237,14.416765960651636,-0.9134430245377124,0.5807175289675593,9.69299556376934,-1.37077499685511,0.1053295359015464,-0.1538233608007431,-0.0163036026060581,0.2439855572036308,0.3222503645403295,0.6826747207077997,0.608753773590749,-0.641585111618042,0.3633996546268463,0.5273056626319885,-0.630865216255188,0.4806454181671142,-0.6351481080055237,0.0233555361628532,0.0649580508470535,-0.4931642966663465,-0.0784144103527069,0.0471627514575608,0.2276261582495644,35
1733108382580676900,-0.1452552970223128,20.74730987539291,-8.173077322542667,0.6182597625069319,9.74239935388565,-0.934765360160172,-2.711585760116577,-0.4945419430732727,0.4398345351219177,0.2559581749333339,0.3244153442890976,0.66514243184642,0.6219530633782864,1.7283456325531006,1.5174365043640137,-0.8233082294464111,-1.88030743598938,1.4697246551513672,-1.1699970960617063,-0.0527338795363903,-0.1277327090501785,2.7082226013869044,-0.0558936782181263,-0.6372101813662797,-0.2634581720712594,36
1733108382620423700,1.07552115380615,9.394601815259456,-6.741740451088547,0.6203215904075652,9.777566528856754,0.4298765407674014,-3.765601396560669,-0.1728330850601196,-0.1755916774272918,0.2810097092008859,0.3087417410358071,0.6186767605510808,0.6655458178546823,3.243896722793579,1.1895992755889893,-1.966598629951477,-1.1571701765060425,1.011306643486023,-0.1338496804237365,0.0402978993952274,0.221071183681488,1.6140044920258223,-0.3620277941226959,-0.5895315345421434,0.3182510165484622,37
1733108382660171500,0.98138266136311,-6.687195206430554,-4.0486698261260985,0.5061646480148658,9.636701429617403,1.7458968879975378,-2.959470748901367,-0.3212331235408783,-0.5522921681404114,0.3094105115785952,0.28887107026014,0.572308953044524,0.7023397018993959,3.124438524246216,0.5724949836730957,-2.596977949142456,0.0809856057167053,0.3671115040779114,0.6780377626419067,-0.1270453631877899,0.2310161590576172,0.0247707362103974,0.122154414653778,0.0487305852961726,1.783380815478414,38
1733108382699918600,1.1955139992780983,-16.878441320621967,-2.0952453093275425,0.1913272393021732,9.426488653385638,2.69723738925308,-2.0805490016937256,0.2299999147653579,-0.9541683793067932,0.3361356771832546,0.2644895232726884,0.5408552986452203,0.7242469728063562,1.851151466369629,0.1199371516704559,-1.6492338180541992,1.3411238193511963,-0.5519013404846191,1.1205925941467283,-0.2839111387729645,0.009995037689805,-0.7339467274785041,0.2767554819583893,0.2410044943313114,-0.1238803635629359,39
1733108382739665200,0.5506284609783441,-22.21820075860024,1.188506020212173,-0.2006260509853251,9.302680487409232,3.0968153839990493,0.0941275730729103,0.4107277989387512,-0.7426345348358154,0.3504138731539212,0.2412552511370446,0.5328247894063477,0.7315078762307635,0.3720704615116119,-0.0112669402733445,-0.7286574244499207,1.8932344913482664,-0.6888147592544556,1.207215666770935,-0.1791945248842239,-0.0244576502591371,-1.60796155859977,-0.1530752778053283,0.0710578190782805,-1.0591782140314578,40
1733108382779412200,-0.214557162111625,-21.539432897508146,-2.0836875580027696,-0.2888234812078997,9.37314635477662,2.868985410273075,0.7416902780532837,-0.1364472657442093,0.2932178378105163,0.3488758099944525,0.2414773745305378,0.543517372445284,0.7242672933949825,-0.6035754084587097,0.3711279928684234,0.7214394211769104,1.7291090488433838,-0.6774693131446838,0.8136317133903503,-0.0678577646613121,0.0079958951100707,-1.7237034686289727,-0.3586958348751068,0.1687583924836479,-0.2551905848656781,41
1733108382819160300,-0.2100296382172033,-16.328823571056127,-1.1318120730876922,-0.1538889410613104,9.43756300510764,2.6606591784402727,0.9301626086235046,0.1358514428138733,0.6220176815986633,0.341658077947493,0.2497382114573501,0.5495224872129113,0.7203649098243071,-1.7496944665908811,-0.0054578394629061,1.715054273605347,1.240811467170715,-0.5699819326400757,0.8257313966751099,-0.0566987581551075,0.0617128908634185,-0.7904523124240338,-0.3692021369934082,-0.0843736250175628,0.0850263898378703,42
1733108382858907000,0.0410862080228515,-4.0394489933162925,2.083986833210289,0.0947844804626889,9.608661914569138,1.958323394756019,2.6212172508239746,0.3395932912826538,0.670610249042511,0.3182513692346074,0.265610086151562,0.5741119890079749,0.7060898667264421,-2.9636876583099365,-1.0505189895629885,2.156006336212158,0.4199613332748413,-0.056437075138092,0.3881081938743591,-0.0034820158034563,-0.1658495664596557,-0.9854302562534808,-0.1207667589187622,0.5376935760814696,1.333955963023752,43
1733108382898654000,0.7468774476569146,11.009413678145409,0.9938129577387124,0.2218763077522627,9.761633046665787,0.9119716368108988,2.687882661819458,0.5873122811317444,-0.111548900604248,0.2926711020333575,0.2805928691266736,0.6121846363439309,0.6788529450910976,-3.245549201965332,-0.5780947208404541,1.1977421045303345,-1.647705078125,0.5277917385101318,-0.1155353188514709,-0.2333904057741165,-0.2166618853807449,1.362684629379958,0.2070779204368591,-0.2959313039191067,0.5675150426430627,44
1733108382938401000,-0.9933607569918036,12.211993816417454,-1.273198565852642,0.1119955265751108,9.805981306958198,-0.0234104601582628,1.839770555496216,0.607554018497467,-0.1595631688833236,0.2746099244439071,0.2826972222567733,0.6490576875551813,0.6506886188239165,-1.4571667909622192,-1.0032470226287842,0.6199254989624023,-0.7700323462486267,0.6253949403762817,-0.6533735990524292,-0.1049026846885681,0.0213703401386737,1.5167673759803175,-0.2708407640457153,-0.4090161966335028,-0.8585516698557883,45
1733108382978149600,0.771724377208948,8.480754447704554,-2.029375829839706,0.1208638835522811,9.792093066859245,-0.5202997390143573,0.9086310267448424,0.1475184261798858,0.091545931994915,0.2632005431822572,0.2858092345109576,0.6669640058420333,0.6357654325050247,-0.6056146025657654,-0.6403862833976746,0.0013945022365078,-0.4843034744262695,0.5677793622016907,-0.4587095975875854,-0.0275656301528215,0.051393199712038,0.442103788851574,-0.2781020402908325,0.3099326490037143,0.0781145920222625,46
1733108383017896700,0.9446063706949352,3.686156364405155,-1.4802023169100285,0.1492445127889514,9.77524188530147,-0.7698981116298586,0.4466724693775177,0.3505535423755646,-0.0812257155776023,0.2557243689349501,0.2870066908353533,0.6759297594101117,0.6287695350036107,0.0228205770254135,-0.1710813641548156,0.0696457922458648,-0.2109502553939819,0.2549068927764892,-0.1286088526248932,-0.0009436070686206,-0.1404580175876617,-0.0246913234317908,-0.0517880171537399,0.278734195000492,0.0599940572489518,47
1733108383057643800,0.5321578249925747,1.0661819553136824,-1.6141045913994312,0.0861447080770041,9.769975343075394,-0.8429451545968651,0.0878678485751152,0.0989887863397598,-0.1954832971096038,0.253658584518395,0.2824969967951249,0.6805686504831707,0.6266411334853366,-0.1518508344888687,-0.1593590825796127,0.0538488551974296,-0.0054693222045898,0.0046347975730896,-0.0301108658313751,-0.0052603683434426,-0.0019023874774575,-0.1726397456953302,-0.0370989590883255,0.0526339037444908,-0.0771075704041868,48
1733108383097390300,0.1042702478189952,-0.1050233860075473,0.4677484446525573,0.0482104064801242,9.759791218191385,-0.9563159515805542,0.5058380365371704,0.0655268728733062,-0.1014768555760383,0.2522682809051023,0.2815826225976976,0.6851786425440396,0.6225770727896909,-0.0247842259705066,-0.1421682834625244,-0.1685758233070373,-0.0311126708984375,0.0784113407135009,0.0817415714263916,-0.0586071908473968,0.0409224554896354,-0.198805155701097,-0.034198559820652,0.1223710458453744,0.0314570729733677,49
1733108383137138400,0.0791131198066286,-0.8312848196804523,-0.758396255210787,-0.0384117144168587,9.742803258511424,-1.1165627737686037,0.1902528703212738,0.1197672560811042,-0.3110205829143524,0.2510024853392907,0.2786838026446868,0.6922890984865604,0.6164973714174536,-0.158326581120491,-0.2378413826227188,-0.1788082271814346,0.0690327882766723,-0.1285001635551452,0.0108725428581237,-0.1492244452238083,0.0307221822440624,0.0009629912509262,-0.0627791881561279,0.0119882882291451,-0.0201406287243356,50
1733108383176885200,0.431105680703558,-0.3391629812717437,-0.6772421128295362,-0.1654987513668835,9.744932671755551,-1.0859374800108372,-0.2852150201797485,0.4489490389823913,-0.4607847034931183,0.2524185304520849,0.2703516276445963,0.6944619498493793,0.6171850295243118,-0.1547464877367019,-0.3063655197620392,-0.1425764411687851,0.0346449017524719,-0.0874821543693542,0.0284890085458755,-0.2017399221658706,0.0623620972037315,-0.030105288471654,-0.1161824762821197,0.0187934633155236,-0.0767741097992751,51
1733108383216632000,-0.6850145003966986,-0.2412076339542865,-0.1207154606580734,-0.2699725772002712,9.756213944226502,-0.9559272445239126,-0.2590158581733703,0.4832241535186767,-0.1108276322484016,0.2508112511518068,0.2574621588195106,0.6945876189703689,0.6231813637232495,0.2149042636156082,-0.2762126624584198,-0.1279199421405792,-0.0060283541679382,0.0663241744041442,0.0067071467638015,-0.199445828795433,-0.0091077014803886,-0.1779502183946781,-0.1287807375192642,0.0069500897076039,0.0320584364000009,52
1733108383256379100,-1.7505298084951937,-1.0643529863208532,0.0922924992501735,-0.1982008331323973,9.759195590385794,-0.9429822766244412,0.1297704726457595,0.2092634737491607,0.2950540482997894,0.2441866786913528,0.2548522158651061,0.6950748627306965,0.6263339379323587,0.0119354398921132,0.0289803482592105,-0.0210966914892196,-0.0574570894241333,0.0225344896316528,0.0580560714006423,-0.2116960138082504,0.0151172606274485,0.0563267897459445,-0.1370261013507843,-0.1695376880267635,-0.0253607265763566,53
1733108383296144100,0.6201115278534591,0.5781909330993891,-0.3376176515258848,-0.1539904469407163,9.752491124311089,-1.0176503449220209,0.2090242654085159,0.0102899111807346,-0.0070158592425286,0.2410465769330027,0.2565292750827876,0.6971932716665142,0.6245085413697294,-0.3871160745620727,0.2332165688276291,0.1343460977077484,-0.0422890782356262,-0.0283602476119995,0.0409394800662994,-0.1936654150485992,0.0424658805131912,-0.0862637770125642,-0.1486969888210296,-0.0546901558542856,-0.0321239850500365,54
1733108383335892000,0.7910748282365501,0.6234989783346653,0.0302128404993563,-0.1621479796342551,9.74070073327422,-1.1237647410366685,0.218818113207817,0.1323545128107071,0.0269287675619125,0.2401146592439657,0.257779336305272,0.7006039320058928,0.62052308219366,-0.2227503061294555,0.1468571275472641,-0.0085290353745222,0.0289056897163391,0.1149359941482544,-0.0583426803350448,-0.1593458950519561,0.0716197714209556,0.0096742163002258,-0.1149564981460571,-0.0478894445971818,0.0812471726932562,55
1733108383375639600,0.9478743595149368,0.3171837891757488,-0.2824035676956176,-0.1425248582782689,9.741904848366977,-1.1159593279827384,-0.1448166966438293,0.2149890512228012,-0.0384585484862327,0.2367887827905386,0.255227838799979,0.7012537637770513,0.622119752430223,0.110393039882183,-0.0064279758371412,-0.0226571056991815,0.0220446586608886,-0.0024906396865844,-0.0923289060592651,-0.1430798470973968,0.0708023905754089,-0.1475894025256857,-0.0365034379065036,0.0866610144355334,0.0946175811968743,56
1733108383415387000,0.1469914366325363,0.1903203272819519,0.3864880654178559,-0.1513310641388874,9.740081140071153,-1.1306360150456427,0.2825915515422821,-0.0360281318426132,-0.0146935731172561,0.2360943485132095,0.2542045531780454,0.7021584133992572,0.6217823167582563,-0.1483016461133957,-0.1027878522872924,-0.0991251766681671,0.0372470617294311,0.0339815616607666,0.0288712084293365,-0.1140931546688079,-0.0340324304997921,-0.1804640095802024,-0.0729744881391525,0.1823761816107668,-0.0685614128523971,57
1733108383455135500,-0.8792042895231396,-1.2854641731858252,-0.23173151120916,-0.0672536318891914,9.733256262487172,-1.1956621755771335,0.0353291779756546,0.2679430246353149,0.3552682101726532,0.2301756263474201,0.2553215413749126,0.7041112937798646,0.6213352634544226,-0.1745510846376419,-0.1274364739656448,-0.1094449311494827,0.0453800559043884,0.0154359340667724,-0.0300457179546356,-0.1180334165692329,-0.0665163919329643,0.0233001202351413,-0.0617014542222023,0.0419300110363867,0.0716094342122087,58
1733108383494883000,-0.1562464091739617,-0.2099970876544714,1.0197148031711578,-0.0076068970904336,9.72934288843572,-1.228907442574948,0.1758972853422165,0.4601036310195923,-0.0199472941458225,0.2232252510837115,0.2526421887492011,0.706278108665871,0.6225059444853792,-0.1351301819086074,0.0373175330460071,0.0865727141499519,-0.1183241605758667,-0.1324718594551086,0.0385771989822387,-0.1416293233633041,-0.0430555939674377,0.0233200464950292,-0.0016683377325534,0.0650608528189593,-0.0648949399338336,59
1733108383534630700,-0.0526640203215414,0.2037199070811271,0.2571216807924211,-0.0033005844776838,9.702140993255377,-1.4278864387392998,0.8388818502426147,-0.2773956656455993,-0.0024905474856495,0.2189489359362558,0.2532879942465717,0.7131950205487837,0.6158405112960392,-0.6799929738044739,-0.0122552923858165,0.0200728494673967,-0.004901111125946,-0.061100959777832,0.0054300129413604,-0.102573275566101,-0.0487984083592891,0.0015064932895242,-0.0113331926986575,-0.0196420543853193,-0.1618929636935703,60
1733108383574378200,0.928894495365396,0.3211351571500301,-1.547944750662893,-0.0491750639609294,9.666725396481157,-1.649960771548003,0.1300447881221771,-0.0401442535221576,-0.1286785304546356,0.2202569489435345,0.257378767088181,0.7196393228478202,0.6061041201052885,-0.4393459856510162,-0.0269159395247697,-0.0200416147708892,0.0339172482490539,0.0159770250320434,-0.047309786081314,-0.0506061799824237,-0.01126429438591,-0.0272362404079409,0.002303494606167,0.0316274885036749,-0.0006916206845955,61
1733108383614126600,-0.342014315582253,-0.473422398635745,-0.3715862643621861,0.0047312959883478,9.671046766811608,-1.6251777740776538,0.0326482392847538,-0.304188460111618,0.3088755905628204,0.2207494483081412,0.2612916381351997,0.7173476726563428,0.6069667329414479,-0.0380787253379821,-0.217531532049179,-0.0796185880899429,0.0654210448265075,0.0904956459999084,-0.1075063198804855,-0.0184332970529794,-0.0530118085443973,-0.0844898444089107,0.079366035759449,0.0850389570584986,0.1877439191889949,62
1733108383653874400,0.981250340220332,0.4585696974188089,-0.5326011483132839,-0.0368875850059441,9.64915116134584,-1.750120643172413,0.2729344964027405,0.0801979675889015,-0.2217266708612442,0.2222513273102474,0.2634337311654264,0.7209951365932424,0.6011431488047343,-0.2521286904811859,0.0074685048311948,0.1745709329843521,0.0320237278938293,-0.1349746584892273,0.0610288977622985,-0.0368330180644989,-0.0172609221190214,0.0701883153679082,0.0784965232014656,-0.004344695836291,0.0872909372363705,63
1733108383693621800,-0.6609332945201546,0.2441454409718513,0.302503083524853,-0.0259032017058925,9.623556116840245,-1.885967768119276,0.3985961675643921,0.6690687537193298,0.033676192164421,0.2148964483902298,0.2591414084777876,0.7273261484921327,0.5980484217676467,0.3316077291965484,-0.0478327274322509,-0.0641606748104095,-0.028842806816101,0.2320682406425476,0.0023661404848098,-0.0138205830007791,-0.0277434326708316,0.0985433672053273,0.0028681845869868,-0.0152352593772928,0.0639493433465249,64
1733108383733369300,0.526107475445047,0.2509989601284265,-0.1717557659350335,0.0106428387117397,9.598297172421216,-2.0107075158573684,0.267768919467926,0.7500874996185303,-0.1611982882022857,0.2036180854635058,0.2515074492617172,0.7343443037408163,0.5966758257820091,-0.2898670136928558,-0.1200447157025337,0.0548920147120952,0.0171579718589782,-0.1020119786262512,-0.0171918421983718,-0.0189578980207443,-0.0049821413122117,0.0182214926634449,-0.0318112485110759,-0.0528814259318867,0.0468082800306612,65
1733108383773118000,-0.2459992886776104,-0.1924772130548954,-0.3197159380018711,0.0597003715320024,9.583433949810264,-2.079573692943156,0.0491669625043869,0.5522096753120422,0.0834358185529708,0.1923089356596592,0.2431255642197093,0.739539527102432,0.5974852193245594,-0.3778682351112366,-0.2254300564527511,0.0136130191385746,-0.0191616415977478,0.0434063076972961,-0.0487327575683593,0.0113555211573839,-0.0264193303883075,-0.0669795687547419,-0.0718215256929397,-0.0058275473845016,-0.0157787243124505,66
1733108383812865500,1.3178398177422583,0.0676946490883827,-0.0412301282718777,0.0462564000352518,9.579592471951246,-2.0975402883969245,0.0690096095204353,-0.0716387331485748,-0.2761770784854889,0.1894908341496811,0.2390533138499963,0.7414838554776412,0.5976190496192308,-0.3340027928352356,-0.090435154736042,0.0297254081815481,-0.0348095297813415,-0.0279653668403625,0.0282339453697204,0.0180567614734172,-0.0501296855509281,-0.0368462277989601,-0.06538637727499,-0.0651245657049352,0.0642102867044974,67
1733108383852612900,-0.5517651003254577,-0.2649170108437538,0.9126248400226236,-0.0282300988670554,9.571178279349208,-2.13591239688918,0.1614203006029129,0.0490756332874298,-0.0405837334692478,0.1930319487090131,0.2386668817700298,0.7429262045671752,0.5948423067878964,0.0331845358014106,0.0327011570334434,-0.1219203099608421,-0.058479905128479,0.1407017707824707,0.0718118697404861,0.0044227875769138,-0.0547971725463867,-0.0366623545654583,-0.0565302148461341,-0.0968794708474073,0.0635326020720647,68
1733108383892360700,0.7955950090747326,0.1773474484622478,-0.7421034381881356,-0.0119430437232658,9.562116436493396,-2.176278894069046,0.0062807477079331,0.0284745171666145,-0.1110487133264541,0.1910354373145714,0.2384695908472122,0.7443732920729187,0.5937560052515658,-0.3325265944004059,-0.0111246202141046,0.0151224974542856,0.0485808849334716,-0.1549655199050903,-0.0252140909433364,-0.0148122254759073,-0.0560510046780109,-0.1228544637144543,-0.0695735663175582,-0.0213103300908347,0.0178713275189045,69
1733108383932109000,-0.1785838218567892,-0.3209966254621744,-0.1172004382744431,-0.0654751829406246,9.565459317180514,-2.160583458417654,-0.0406929552555084,0.0188174489885568,-0.0529693774878978,0.1933370784905106,0.2367865380786664,0.7443730485645438,0.593684955481082,-0.5014679431915283,-0.0004756513226311,-0.0345343351364135,0.0002165436744689,0.004114031791687,0.0418972447514534,-0.0180663056671619,-0.0747444033622741,-0.0305926838295301,-0.0585908740758895,-0.0305832995132543,0.0714080298885935,70
1733108383971855600,-0.0584565363502129,-0.0372369669824838,-0.3372176924228668,-0.0397057408493477,9.568104863253236,-2.1494597145959733,-0.077276699244976,0.5374397039413452,0.0811323150992393,0.1890153432798929,0.2330974838733741,0.7451560309730229,0.5955512320210236,0.0525571666657924,0.0121532715857028,-0.0979750975966453,0.0060200095176696,0.0490664839744567,0.0218494683504104,-0.0051242364570498,-0.0845231413841247,-0.0103174346907646,-0.0588962770998477,-0.0102359532526577,0.0708275585529394,71
1733108384011603500,-0.4988547268602997,-0.2688420753329992,-0.9733503807507454,0.1602248843508772,9.583483049649,-2.07401868916452,-0.2560927867889404,1.9314059019088743,0.4309553503990173,0.1703299334092429,0.2236220092723216,0.7454788548394095,0.6043526738074577,0.0381510630249977,-0.0142272561788558,-0.0757775157690048,-0.0087839365005493,0.0030019283294677,0.0057922080159187,-0.0036711520515382,-0.0565627701580524,0.0319034970000386,-0.0806897729635238,-0.0440690780248492,0.0436003462682478,72
1733108384051350800,0.2188107644354924,-0.0875046804517507,0.7202667233027518,0.5269831257684156,9.591437223523856,-1.9740804974667727,-0.0411319434642791,2.1023309230804443,0.459753930568695,0.1300340787875569,0.2008421202384427,0.7485402698446847,0.6184181239121522,-0.1267657279968261,-0.1584009975194931,-0.0746232271194458,0.0150251984596252,-0.0805156826972961,-0.0940428301692009,0.0153683545067906,-0.0749683827161789,-0.0868633777403738,-0.1084603294730186,0.0579472990532871,0.1031985543337184,73
1733108384091099400,0.981475527278334,0.2822831561863422,0.7234136430263519,0.7276850367352367,9.58033130761981,-1.964209237924218,0.114506185054779,0.7528861165046692,0.0132549135014414,0.1063755720513735,0.1877858437045557,0.751587170368739,0.623327750909772,-0.1778131872415542,-0.0695440918207168,-0.0621338747441768,-0.0206151008605957,0.0267152190208435,0.1208331584930419,-0.0156286973506212,-0.0625939518213272,0.0687859012240776,-0.1195065006613731,-0.0830824618290178,0.1223242292952723,74
1733108384130847000,-0.373428238967061,0.2803326066404581,0.2664201088830829,0.7469236248861998,9.575399696436524,-1.98096850341484,0.0329425521194934,0.8499587178230286,-0.1035858616232872,0.0970695802100519,0.178346104899002,0.7544494361392635,0.6241605155450979,-0.0441459380090236,0.0312971919775009,-0.1261027306318283,0.0046350955963134,0.0718565583229065,-0.0236341506242752,-0.0285144504159688,-0.0224916525185108,-0.0903557133681606,-0.1634363830089569,0.0101187086647143,0.0426864143276819,75
1733108384170594600,-1.3015648286372423,-0.0087958853960037,-0.4608312126100063,0.8608820855647324,9.579317746663094,-1.9146658932067453,-0.0665941908955574,1.4263924360275269,0.3544650077819824,0.0799939449985885,0.1657395873516945,0.7550835609425036,0.6292695908326978,0.4388508200645447,0.0796731933951377,-0.1084445118904113,0.0181310772895813,-0.0179932713508605,-0.0137640386819839,-0.0466721467673778,-0.0466648116707801,-0.0035683697100408,-0.1589024066925048,0.0100476778386742,0.0695624385545263,76
1733108384210342100,-1.0495691856216638,0.0988274539768695,0.0367747562982141,1.2146193895034492,9.55414414243996,-1.847539107134193,0.0097623318433761,1.861173152923584,0.7691271305084229,0.047341920235335,0.1537754354559434,0.7553485255515989,0.6352640483127575,0.0932633206248283,0.0210073236376047,0.002850585617125,0.048322856426239,-0.000815212726593,-0.0289561748504638,-0.0544148609042167,-0.0286681465804576,0.0040638918629789,-0.1764132529497146,-0.0243053083724458,-0.0780253063036128,77
1733108384250090500,-0.2820195368140936,-0.114317284053564,0.0824364372767508,1.6799338850073515,9.504075750935078,-1.7380265930138528,0.074980154633522,2.49877405166626,0.838370144367218,0.0030721143825787,0.1371589173835419,0.7548523861627289,0.6413858352049389,0.2486350536346435,0.034678392112255,0.019565450027585,0.0008208751678466,0.0242519974708557,0.0599554851651191,-0.0486532673239707,-0.0075563318096101,-0.0093544434398383,-0.1585704237222671,0.0017523344056651,0.050686934395181,78
1733108384289838000,-0.3751864808112383,0.0943266354262828,-0.2719404797397554,2.165899538873881,9.432650098624825,-1.5825184897854925,0.0157684236764907,2.091125965118408,0.903748095035553,-0.0428344703009481,0.1210343182741215,0.7523540933379252,0.646126297066027,-0.0422566942870616,0.0360582843422889,-0.0004410149995237,0.0138410329818725,-0.0506094694137573,-0.0370035320520401,-0.0561474673449993,0.0034337416291236,-0.066512097373465,-0.1535470634698867,0.0204183725200593,-0.0274564887126325,79
1733108384329585700,-0.2968132013201713,-0.249828747305274,-0.0827425806164741,2.648817057216167,9.346149042257666,-1.343004508006573,-0.1154721155762672,2.519589424133301,0.9709618091583252,-0.0889478675719928,0.1054722282748996,0.7465586256307527,0.6508564784599451,-0.1344854235649109,-0.0259474031627178,-0.0249196588993072,-0.0117141008377075,-0.0066171884536743,0.0274096727371215,-0.0501396469771862,-0.0021558785811066,-0.0394597301990259,-0.1946253180503845,0.0205457960087223,-0.0260871799706714,80
1733108384369395500,0.0384536492958664,-0.0822322930067777,0.0180991357922554,3.132816087184846,9.237958716651796,-1.007951519336924,-0.0492256581783294,2.64333724975586,0.9886580109596252,-0.1399440161940049,0.086285054098128,0.7375270252243498,0.6549995938412474,-0.0157800763845443,-0.0530670620501041,-0.0996281877160072,0.023965299129486,0.0325786471366882,0.0006279423832893,-0.0641028508543968,-0.0001960133668035,0.0061257722792506,-0.1870905607938766,-0.0147109295425121,0.0143052302518743,81
1733108384409146400,-0.0951537339001894,-0.1415723707258701,-0.783340069266036,3.5781185990124937,9.107709119451046,-0.6458489034391939,-0.0230839997529983,2.6644062995910645,0.9605716466903688,-0.1914329595207164,0.0659299527228105,0.727036705043082,0.6560674216739252,-0.2204224318265915,-0.0834003090858459,-0.0729494988918304,0.0292170047760009,-0.0132898688316345,-0.0083606988191604,-0.0692630484700203,0.0199426487088203,0.0140217040276911,-0.1887282878160476,-0.0141939199310843,-0.007778209953173,82
1733108384448896300,-0.1712035388797521,-0.3302946151614189,-0.4512052695980295,3.9492531740844248,8.973211801677941,-0.2350330004399642,0.1080221235752105,2.616305112838745,0.7658318281173706,-0.2417921116675993,0.0437440089130663,0.7141917180567886,0.6554030365017703,-0.2281637191772461,-0.075808435678482,-0.0904881507158279,0.0123386979103088,0.0613581538200378,0.0127720832824707,-0.0511273480951786,0.0177261866629123,-0.0466762694151373,-0.1985895484685897,-0.025983756128815,-0.0131442921471432,83
1733108384488646100,-0.1624170058339834,-0.8838520422637463,-0.1303857908010482,4.192906155364216,8.864923276394606,0.0552681749379495,0.5056918859481812,2.379807710647583,0.6632243394851685,-0.2854147934406817,0.0194198909287264,0.7048439366649563,0.6491196079571943,0.0194309055805206,0.0385080724954605,-0.1545774638652801,-0.0147250890731811,0.0247888565063476,0.0220324471592903,-0.0337022244930267,0.031663492321968,-0.037789294502465,-0.2311829179525375,-0.0539820121515076,-0.0521534632837865,84
1733108384528396000,-0.4688081828385591,0.1403822841584682,-1.0670534774512053,4.485081175489723,8.717115810671448,0.2575140593771822,0.4045151174068451,2.307295083999634,1.0165684223175049,-0.3285994246700484,-0.0009554530524361,0.6977603630553997,0.6365154667840313,-0.0118945250287652,-0.0108836041763424,-0.1672485023736953,0.0390627384185791,0.0312870144844055,-0.0327881574630737,-0.0424546338617801,0.0431526005268096,-0.0359112873196951,-0.2579852938652038,-0.0126327201875916,0.0408547601874219,85
1733108384568147000,-0.5841451653286814,-0.231663560539484,-0.987235259848833,4.842531800863147,8.502882108360529,0.6490541292212904,-0.012424130924046,2.5538487434387207,1.2928736209869385,-0.3762204072123359,-0.0161434287441648,0.683115539434517,0.6257402039587622,0.1036882624030113,-0.0532678104937076,-0.2164806276559829,0.0097116827964782,0.0812073349952697,0.0159787610173225,-0.0750840008258819,0.0336411818861961,0.0038600912279449,-0.2744641602039337,-0.0156812358793918,0.0591567661745939,86
1733108384607896800,0.7174106032192706,-1.023095093259215,0.2263688151322305,5.139254985812306,8.256725912088156,1.2589341859176757,-0.0299348812550306,3.3401174545288086,1.0534822940826416,-0.4315796979110913,-0.0365132240820377,0.6591502139714696,0.6147574375723416,0.1518222242593765,0.0990079045295715,-0.1304117292165756,0.0158052444458007,-0.0445349812507629,0.0420783832669258,-0.1277860850095749,0.0422051660716533,0.0128748378307966,-0.3338554501533508,0.0055727026904642,0.0130401068285282,87
1733108384647646700,0.8118956440776586,-1.2429682627618313,-0.1195984393268823,5.202189288631081,8.083651318639516,1.9396410522483287,-0.0906989276409149,3.05896544456482,0.5951501131057739,-0.4830166556756921,-0.0646236132896205,0.6300235057262662,0.6046397126179538,-0.0997306331992149,0.0382915027439594,-0.0932113677263259,0.0259410738945007,-0.0271205902099609,0.0123409703373909,-0.2000289112329483,0.0499653257429599,0.0081596030655055,-0.3462200462818146,0.035387003150687,0.1034208644480444,88
1733108384687396900,0.5922744035094976,-0.1371855339437723,-1.230096213968098,5.090512874475121,7.954702282643318,2.641926713180542,-0.7900367975234985,2.536893606185913,0.3476451635360718,-0.5238426038153886,-0.0892853458148312,0.59776864130225,0.6002413993402069,-0.0499111488461494,0.1411828994750976,-0.1216372177004814,-0.0397520065307617,-0.0228388309478759,0.0695573091506958,-0.2392707914113998,0.0848939940333366,0.0362310596092604,-0.3171519935131073,-0.0335043882914585,0.0910793423344381,89
1733108384727147500,0.0457598806560039,-0.6534972262352705,-1.066244206894934,4.920711603608727,7.770111438924074,3.4032840101540085,-1.4090176820755005,1.5743780136108398,0.1582544147968292,-0.5525482475745603,-0.0989755197687442,0.5627474105945001,0.6068027488052837,-0.1614195704460144,0.1141111105680465,-0.1168240159749984,0.0163794159889221,-0.0371065735816955,0.0155046433210372,-0.2835245132446289,0.1109136715531349,-0.0557471129947341,-0.3026486337184906,0.033769409602927,0.0265425636219326,90
1733108384766897400,-1.0663049971714615,-0.2892588404178619,-1.3347604112744331,4.7574157691136,7.452410932397842,4.242518035273254,-2.149779319763184,1.816222786903381,0.4789643287658691,-0.5763421560821542,-0.0958452488947423,0.5239326870355082,0.6197886905774904,-0.2605024576187134,0.1408943086862564,-0.0940071195363998,-0.00596684217453,-0.0455003380775451,0.0340078473091125,-0.3582659661769867,0.1128389090299606,-0.043991094584926,-0.3090128600597381,0.0186051844766072,0.0636158873081905,91
1733108384806647300,-1.909993371351063,-0.4857341831982135,1.795784516108036,4.495731164319813,6.92374244735837,5.29344659961462,-1.478789210319519,3.0592615604400635,1.26300048828125,-0.6162524959288345,-0.0966050846439276,0.4698689236686879,0.6245986223856775,-0.2807014882564544,0.2115323096513748,-0.0960837230086326,-0.0222346186637878,-0.018694519996643,0.0549917072057724,-0.4688509106636047,0.1671777367591858,0.0025293523683707,-0.314936101436615,0.035840299876139,0.0806527687303721,92
1733108384846397200,-1.278702131704986,-0.2182446915179491,0.7653326303452253,4.269359572708606,6.427905972340703,6.051857321742177,-0.5680865049362183,2.538808822631836,1.9385958909988403,-0.6641393993610771,-0.1059962510593825,0.4245066965724579,0.6061994440922404,-0.4052836298942566,0.2478933036327362,-0.0170588735491037,0.0281123518943786,-0.042787492275238,0.0439952611923217,-0.5194090604782104,0.1808535307645797,-0.008391452188912,-0.2972606420516968,0.0137406232056324,0.0305463056708453,93
1733108384886148000,-0.3331958895608782,-0.2217331181555986,-1.5972177540063857,4.30008847297132,5.913049739554524,6.53570759088993,-0.9783695936203004,1.196149230003357,2.058565378189087,-0.7058347628567283,-0.1030869487413791,0.3951515239131908,0.5788140916498298,-0.443139910697937,0.3145915865898132,0.0227188989520072,0.0037933588027954,-0.0521080493927001,0.0450711697340011,-0.5373598337173462,0.1776511520147323,-0.1484046826976351,-0.2684336304664612,0.1470557523067109,-0.0288536627090536,94
1733108384925898000,-0.0218102652698755,0.3000871084243059,-0.4042465710788965,4.441356600053608,5.18682396171689,7.038579371371865,-1.7171701192855835,0.8571659326553345,1.7137795686721802,-0.7375053577143822,-0.0791196764826458,0.367249800682597,0.5612072072711121,-0.3975540697574615,0.3003521561622619,0.0566428415477275,0.0173259973526,0.0194380283355712,-0.0209508538246154,-0.5135554671287537,0.1425941437482834,-0.1381389987437054,-0.2481095343828201,0.0501632530143717,-0.2226483150380663,95
1733108384965648000,-0.570921234357357,-0.1126361990988254,0.476182510998845,4.558314754004776,4.432973094850778,7.465982946154475,-1.326149344444275,0.4819781482219696,1.6820759773254397,-0.7631129972091361,-0.0517105555457104,0.3415652555954619,0.5461847463096119,-0.312043160200119,0.1760183721780777,0.0896981954574585,0.0100248456001281,-0.0171577334403991,0.0017009973526,-0.4409922957420349,0.1316231191158294,-0.0948989736878313,-0.2692494690418243,-0.0526886889719171,-0.2635863650281913,96
1733108385005396700,-0.7267392803177237,-0.022978724527359,0.8879916262865066,4.728946630476415,3.810156838083267,7.700009728693962,-0.6555795669555664,0.409791350364685,1.854283571243286,-0.7853268481471257,-0.0290457955869855,0.3264430999670125,0.5252171025213638,-0.5614564418792725,0.1974057406187057,0.0374851264059543,-0.0711750984191894,0.0017603635787963,-0.0087627694010734,-0.3924152851104736,0.1570558100938797,-0.1555171450513414,-0.2865929305553436,0.0021463854993489,-0.1427704579366371,97
1733108385045147600,-0.1583534096568822,-0.1127174476414918,0.4642863214999437,4.873284666523337,3.3279809318885207,7.832370618960261,-0.2280296236276626,0.3842703104019165,1.865507960319519,-0.8070096114245188,-0.0146531702018061,0.3169314109721854,0.49807165001171,-0.5563519597053528,0.1379573196172714,-0.0928086936473846,-0.0435745120048522,-0.0053531527519226,-0.0426414534449577,-0.3995263576507568,0.1109854876995086,-0.2796026301317848,-0.3368967771530151,0.1221133447572588,-0.1137255104391835,98
1733108385084897500,0.9176414991408586,-0.0582256867364048,0.2464087097287177,4.946955467411875,2.909420881035924,7.951936325061321,-0.2517039179801941,0.4439718425273895,1.5492671728134155,-0.826930639523969,-0.0043373638664906,0.3074821527462844,0.4707670832037579,-0.3794701397418976,0.0983645841479301,-0.0496054962277412,-0.0011255145072937,-0.0338025093078613,-0.019955389201641,-0.3690996766090393,0.0043049179948866,-0.2639385394667275,-0.3656626939773559,0.0738951613960554,-0.1507849014982115,99
1733108385124647400,1.172365032750368,-0.0788821057960391,0.1472550925374031,5.031010884192586,2.574538353562355,8.014428729331494,-0.236972764134407,-0.032249704003334,1.0553851127624512,-0.8397742577502,0.0060017477072184,0.3022281089373279,0.4510005147475562,-0.3989532887935638,0.0903218910098075,-0.0846757963299751,-0.0171331763267517,0.0156604051589965,-0.029884397983551,-0.3054520189762115,-0.0244302619248628,-0.0855725798780098,-0.3582015037536621,-0.0139374700851389,-0.3174881789498031,100
1733108385164397600,0.8810843311160802,-0.069791182976216,0.5854553711444139,5.140631534862518,2.337997834636271,8.01736010660827,-0.0931054577231407,0.100829117000103,0.8657848238945007,-0.8474664225417087,0.0147411833975518,0.3016804732340588,0.4365459055341542,-0.3941745162010193,0.1067221760749816,-0.012369979172945,0.018122375011444,-0.0093399286270141,-0.0101604461669921,-0.1884444653987884,-0.066184177994728,-0.2144811377333477,-0.3831394016742706,0.1097224214108195,-0.3274593917354941,101
1733108385204148200,0.1568342372655868,-0.1116664772838354,0.3035673517554998,5.11863948328495,2.103343129456788,8.096040260091424,-0.2008392214775085,0.4653296768665313,1.003529071807861,-0.8574695981528483,0.0197258236023368,0.294665431513295,0.4213420801380545,-0.2971861660480499,0.0519691295921802,0.1046635657548904,0.00942063331604,0.0122721195220947,-0.0570768117904663,-0.117877185344696,-0.0963476374745369,-0.1499710460983682,-0.3614709377288818,0.1232037429430056,-0.1296470555971842,102
1733108385243898000,0.0486024106055498,-0.2385840074524283,0.3421732690036296,5.077233121663332,1.8216000714965164,8.189863037648797,-0.2009984403848648,0.2493779063224792,1.0069280862808228,-0.8679247200646858,0.0264953684046811,0.2858866508186626,0.4053065748922225,-0.2846799790859222,-0.0045923660509288,0.1741838604211807,0.0092490315437316,0.0175436735153198,-0.0254212617874145,-0.1450571566820144,-0.1372146755456924,-0.1414717416292987,-0.3171676695346832,0.1355844736889936,-0.0307964764730539,103
1733108385283648000,1.1120236690342429,-0.0625778905965387,1.0376730691879987,5.037782570284604,1.6313785284139215,8.254073936274647,0.0527996495366096,0.2885368764400482,0.6156443357467651,-0.8760496109579902,0.0301096429353437,0.2797369484969219,0.3916347129825366,-0.2664985656738281,-0.0111477365717291,0.1788792014122009,-0.0493522882461547,0.0121338367462158,-0.0075905919075012,-0.1731287389993667,-0.108319453895092,-0.0558830143340863,-0.2460848242044448,0.0481516117978608,-0.10606922353236,104
1733108385323398000,-0.1858902358800172,-0.0891078778646886,0.3465548450887203,5.057043151071667,1.5622902330100537,8.255662082248925,0.173220008611679,-0.2058309912681579,0.5343259572982788,-0.8805458300310988,0.0306559149287889,0.279532834248609,0.3815243005778679,-0.2411407679319381,0.0314592197537422,0.1933505684137344,-0.0211769938468933,-0.038027286529541,0.0084662456065416,-0.1543697863817215,-0.1039575710892677,-0.1261554780212231,-0.1653717160224914,0.1740069606616161,-0.2030048541469499,105
1733108385363148800,0.7647206359267235,0.1994276167146861,0.5523159026086331,5.150304203093052,1.5444490175016223,8.201184642130135,0.2538013458251953,-0.0889818295836448,0.3331483602523803,-0.8822695269180519,0.031246823966282,0.2843933931719831,0.3738241044851325,-0.1891745030879974,-0.0196200516074895,0.1487230956554412,0.0019193887710571,-0.0027133226394653,-0.0238028764724731,-0.1209646165370941,-0.0836928412318229,-0.0782762488573789,-0.1355700641870498,0.0992170012837275,-0.204249082054384,106
1733108385402898700,-0.3385942414730787,0.2190117303676903,0.0440191744685173,5.145104296362399,1.5332447557896374,8.20654938403368,0.1814602166414261,0.1948228180408477,0.5640553832054138,-0.8861297847978908,0.0288163128905712,0.2841690558465712,0.3649542979613392,-0.0417725294828414,-0.0491434261202812,0.0734477937221527,0.0018738508224487,-0.0225851535797119,-0.0055908551439642,-0.1106042936444282,-0.0433517806231975,-0.1191944890353362,-0.1263574212789535,0.1220321327472105,-0.2017327701182104,107
1733108385442556000,-0.0385614935845136,0.1681654863581061,-0.2911871781319379,5.136565016075968,1.4299641217961907,8.230509520813822,0.0230559986084699,0.1189311891794204,0.6396722197532654,-0.8912235565542842,0.0301734881997949,0.2818693943386354,0.3540618625594559,-0.1088511645793914,-0.0501230470836162,0.0403438992798328,-0.0460137724876403,0.0166077613830566,-0.02726811170578,-0.1070536449551582,-0.0067248782142996,-0.0508760591925354,-0.0994339659810066,0.0127037498719873,-0.0677307798476889,108
1733108385482302200,0.2877951976060867,0.2297714631825685,0.3054308075398206,5.1094835324049,1.3376824362009765,8.262818383744358,0.106709748506546,0.2410441786050796,0.5356184244155884,-0.8959459682367353,0.0310407107683402,0.278836822948651,0.344336246188143,-0.0706545114517211,-0.1054117605090141,0.0372573621571064,-0.030996024608612,-0.0174791812896728,-0.0358499884605407,-0.129316970705986,0.0247604269534349,-0.1205969031791668,-0.1149606481194496,0.0432943673253059,-0.1666994871924631,109
1733108385522049800,-0.4970797530770302,0.2969141774766147,-0.2811632122457027,5.075840790522098,1.2377690866835414,8.299045296901465,-0.0189300663769245,0.1013745591044426,0.5940864682197571,-0.9005030681460431,0.032355186476021,0.2753535700746205,0.3350042049758517,-0.0677423402667045,-0.0934467166662216,0.0512841641902923,-0.0226046442985534,-0.0146270990371704,-0.000693917274475,-0.0972010418772697,-0.03851068764925,-0.123570028105285,-0.0880959704518318,0.1288401505279354,-0.1159222989642526,110
1733108385561795800,0.0190367089033126,0.2452475569948554,0.1020318029761314,5.053827696156501,1.1020895003233104,8.331543544924259,-0.0296666361391544,0.3204845786094665,0.6146323680877686,-0.9048693500425464,0.0357354365001716,0.2719052906011225,0.3255796411156993,-0.0623158849775791,-0.1106795445084571,0.0403301827609539,-0.0107479095458984,-0.0132112503051757,-0.0178211331367492,-0.0535872057080268,-0.0058468570932745,0.0235799509566742,-0.0101990811526775,-0.0245703274006256,-0.1956472031268291,111
1733108385601542400,-0.2406260346740484,0.160310754269734,-0.3230009510219097,4.934457804888487,0.9375803445156664,8.422734220412373,-0.1586910188198089,0.4491734206676483,0.7786869406700134,-0.9114699232132366,0.0381453817452707,0.2628782849997891,0.3141060641356697,0.011065118946135,-0.0751548931002616,0.0635216534137725,-0.0156643390655517,-0.0114021301269531,0.0138843655586242,-0.0041309362277388,-0.0277207624167203,-0.1219556882438249,0.0005676749860867,0.1353194478109478,-0.1484183824294246,112
1733108385641288700,1.2579472207069395,0.3180115452367812,0.1222317104399204,4.818835575716197,0.7524957989953458,8.507817226675153,-0.1131374239921569,0.4817366898059845,0.5698893070220947,-0.9175428207772208,0.0420612201895147,0.2538757248669874,0.3031387848583893,0.0033094610553234,-0.1014371514320373,0.0407057553529739,-0.0054720640182495,0.0414981842041015,-0.0057861804962158,-0.0078943707048892,-0.0099452966824173,0.0212662900197086,0.0213717315346002,-0.0081679205151682,-0.0175061977006727,113
1733108385681036300,0.858889450442791,0.4261132427111267,-0.2107347542792558,4.628770099978149,0.5972582928692922,8.624856629168987,-0.2269257456064224,0.6743016242980957,0.5199704170227051,-0.9235918167233376,0.0440276703896854,0.2414875866828924,0.294488403956802,0.0531595759093761,-0.0729125142097473,0.0572953186929225,-0.0002149939537048,-0.0072579383850097,-0.0002926588058471,-0.0289043243974447,-0.0033816841896623,-0.02791563294027,0.0075622331351041,0.0776400333130732,0.0084489305552793,114
1733108385720782800,0.9893626272663474,0.4121266202716157,-0.6367021587789058,4.475702229508757,0.4349719642102718,8.714888197749852,-0.217140257358551,0.1915935724973678,0.2564325630664825,-0.928068938938518,0.0478328554167333,0.2310332837077628,0.2881385062164901,0.0378642417490482,-0.1071095243096351,0.0756759867072105,0.0027157664299011,0.0040661096572875,0.012115478515625,-0.0239608585834503,-0.0173076186329126,0.0250983310468145,-0.0115500446408987,0.0166543963270611,0.0384356661146041,115
1733108385760529200,1.16052817222327,0.2751051543157548,-0.6031126083880662,4.434421832354366,0.3220984857568517,8.7408544136554,-0.3569561243057251,0.1195453852415084,0.0302696861326694,-0.9286389396643072,0.0528726257679198,0.2270350881820584,0.2885986969880857,0.0457216314971447,-0.0966140106320381,0.0599889755249023,-0.0068886280059814,0.0139309167861938,0.0081171989440917,-0.0331810563802719,0.0026730047538876,0.0600746756039559,-0.0302898772060871,-0.0232047244361136,0.0209364347275462,116
1733108385800276500,0.7881839291006326,0.0395169676784425,-0.1095119295984506,4.385985133704543,0.2002024552783928,8.768890421572326,-0.335528165102005,0.1248542368412017,-0.0901106670498848,-0.9282887363527216,0.0589834886432416,0.2223330058780473,0.2921797078155613,0.0429242476820945,-0.0879262462258338,0.0612822063267231,-0.0067546367645263,-0.0256084203720092,0.0230956077575683,-0.0100220553576946,0.0106768412515521,0.0122234932160179,-0.0421072542667388,0.0110816947782412,0.0253955581444315,117
1733108385840023000,0.1808510726690292,-0.021743036119407,-0.0322550869166851,4.352719408440589,0.0917733798800501,8.787252007693052,-0.3902650773525238,0.1386027038097381,-0.1138467416167259,-0.9272359586880584,0.0649689326679035,0.2185266014253324,0.2970836050135725,-0.0359125100076198,-0.1201544404029846,0.019998213276267,-0.0054338574409484,0.0071744322776794,0.0083132972940802,0.0020154435187578,-0.0351745374500751,-0.0153243932572484,-0.0498945266008377,0.0252119041066383,0.0324891148682683,118
1733108385879769300,-0.243976221884787,-0.2012992010065354,0.1524620135307312,4.300502022208273,-0.0222593584609567,8.813374290943145,-0.3088655471801758,0.1214783117175102,0.0599718205630779,-0.9267965355630352,0.0705520935312239,0.2136945425656157,0.3006746153103629,-0.0945920646190643,-0.1253068000078201,0.0120291030034422,0.0063728094100952,-0.0138616561889648,-0.0032914876937866,-0.0029906937852501,-0.043427862226963,-0.0290063987354864,-0.0727196782827377,0.0163995516330236,0.0356970486306818,119
1733108385919516000,0.5518175976976752,0.0919981102803256,0.1877209584385156,4.263819766499102,-0.1436230196453631,8.830039594539999,-0.2606328725814819,0.0938334763050079,0.0849465280771255,-0.927093844065986,0.076048341439018,0.2097854366076308,0.3011706348712444,-0.0404806323349475,-0.1480890810489654,-0.0030037083197385,0.0049030780792236,0.0149752497673034,0.0011938828974962,-0.0068079009652137,-0.0512481480836868,0.0523626216555945,-0.0590271204710006,-0.055476648323168,0.0423421857335837,120
1733108385959263200,0.1940299954548478,-0.30167688010009,0.5424386517167091,4.2183340266093605,-0.2190619992502033,8.850313736283779,-0.0524794720113277,0.1311518847942352,0.1155972108244896,-0.9275637279665756,0.0790465179576951,0.2061824949280531,0.3014398914153472,-0.0689032152295112,-0.1549043804407119,0.0076167113147675,0.0138324499130249,0.0111270546913146,0.0172935724258422,-0.005292915739119,-0.0533703155815601,0.0013026892295572,-0.0642743557691574,-0.0110179830339096,-0.0247109049150953,121
1733108385999010600,0.1870519731357693,0.0737816408518701,-0.0334533567905426,4.188052285592258,-0.2334448727319948,8.86431654267311,-0.0027307588607072,0.0025187376886606,0.0892244726419448,-0.9281926428195943,0.0790519101849119,0.2044417574540965,0.3006872268251855,-0.0668816119432449,-0.1398178786039352,0.0289759952574968,0.0026421546936035,0.001893401145935,0.0209670066833496,0.0163763910531997,-0.0969556346535682,0.0008071682182635,-0.0861910209059715,0.0032396486415062,-0.0162480417325859,122
1733108386038757000,-0.1161085513845086,0.1862368756269104,-0.313168123793602,4.198820932365954,-0.2876912440412678,8.85762493607998,-0.1541643589735031,0.020691467449069,0.1809062957763672,-0.9284064481581612,0.0816780349817751,0.204243750288582,0.2994571077286947,-0.0641979426145553,-0.1703604012727737,0.0500521883368492,0.0161671638488769,0.0132914781570434,-0.0040808953344821,0.0338927842676639,-0.0575607866048812,0.0290344489363254,-0.1181490868330001,-0.0569031054962892,-0.032482150837942,123
1733108386078503700,-0.0577566079199314,0.1301497170228511,-0.17497487411201,4.166954844766855,-0.3861795839905738,8.868919652554393,-0.1921253502368927,0.0779606774449348,0.2172794789075851,-0.9293417972104432,0.0855989125007275,0.2012057792950094,0.2975111784996392,-0.0033654859289526,-0.1507666110992431,0.0740914791822433,0.0055350661277771,-0.0024166703224182,-0.0021765232086181,-0.005780154839158,-0.0665406137704849,-0.0827714322516229,-0.1128858774900436,-0.0068615643240686,0.0283881572392885,124
1733108386118250800,0.074454644742608,0.2230290397176519,-0.3459159626632929,4.138142884041368,-0.4940227035939693,8.87705444369316,-0.2512733936309814,0.0834744945168495,0.2086596339941024,-0.930186304352554,0.0900578056873459,0.198206373376318,0.2955625926855708,-0.0264495015144348,-0.1594551354646682,0.0776519253849983,0.0029518604278564,0.0090155601501464,0.0006778165698051,-0.0156401395797729,-0.063905268907547,-0.0914265574700664,-0.102985642850399,-0.0279909357993397,-0.0665698417429579,125
1733108386157997300,0.1557847282126545,0.0965224284375086,-0.133021400001645,4.111280596078932,-0.6076843367503956,8.88248114491701,-0.2279393821954727,0.0814715847373008,0.206267237663269,-0.9309737491803276,0.0948456395803271,0.19525313971702,0.2935446894696961,-0.030601367354393,-0.1664249897003173,0.0938605889678001,0.0049190521240234,-0.0114776492118835,0.0064398013055324,0.0049713016487658,-0.0629094466567039,-0.1170204055324196,-0.0858055800199508,-0.0303877015926293,-0.0965426492416299,126
1733108386197743900,0.1883931586116552,0.0960807856172323,-0.1511748963296413,4.055478629358112,-0.7308435007661581,8.89883957452178,-0.2911335229873657,0.1716086715459823,0.2089892476797104,-0.9319149394922516,0.0997129761421204,0.1906378176155796,0.2919744023155298,-0.0352043770253658,-0.160396933555603,0.113675832748413,0.0004074573516845,-0.0222294330596923,0.0129611566662788,0.0238290298730134,-0.0799683555960655,-0.1297674671064596,-0.089455559849739,0.0132917903094552,-0.116690241996292,127
1733108386237490200,0.3393763317614793,0.1239456016857177,-0.1240256081193685,4.010588809534907,-0.8351730592906474,8.909996928352117,-0.3087440729141235,0.134846806526184,0.1612727493047714,-0.9324808107922228,0.1039945288690487,0.1868199990621243,0.2911408257450091,-0.0035894578322768,-0.1805222779512405,0.0994135439395904,0.0117320418357849,0.0314741730690002,0.0021330118179321,0.025040840730071,-0.0769126862287521,-0.0447222355708014,-0.085979551076889,-0.0425107335337903,-0.0502106495197862,128
1733108386277237800,-0.0527209518402814,-0.3650121466688811,0.3136129449516535,3.958561685177684,-0.9503023173142224,8.921720683893561,-0.1624338030815124,0.0833743587136268,0.1776103675365448,-0.9330557324374732,0.1087095103487421,0.1824858222370738,0.2903244587937995,0.1266971677541732,-0.1572494357824325,0.1016212999820709,0.0076456665992736,0.0074689984321594,-0.0107908174395561,0.0212554056197404,-0.0855268388986587,-0.0582764670755714,-0.0705027729272842,-0.0020708902732119,-0.0541102051084395,129
1733108386316984000,0.3156976422712206,-0.0676649115372449,-0.0053249944150447,3.94553210773468,-1.0091274312485008,8.9210327016294,-0.0757521018385887,-0.0468622706830501,0.1210716366767883,-0.9336147757187636,0.1110797789786256,0.181149681604678,0.2884605875012679,0.191771775484085,-0.2004419118165969,0.1167858093976974,0.0151118040084838,0.0025206208229064,-0.0292341709136962,0.0234565772116184,-0.0738584399223327,-0.0642183649796759,-0.0760403424501419,-0.0191148727230378,-0.0690931222760351,130
1733108386356730400,0.7199328151732682,0.1090381015416234,-0.1088946744829416,3.94157781715095,-1.0701602843601257,8.915666206160187,-0.2092709839344024,0.0614524483680725,0.0378828756511211,-0.9334448658890826,0.1141004298887958,0.1800239226936762,0.2885364814550582,0.124675303697586,-0.1756582260131836,0.1331593245267868,-0.0043997168540954,-0.0061005353927612,0.0231100395321846,0.0385680347681045,-0.0711749121546745,-0.0793869317793287,-0.0836675465106964,0.0148456709712394,-0.0404965943995164,131
1733108386396478000,-0.1574471084669232,-0.2957261367358267,0.0843687205135822,3.95510014654696,-1.1476782621961086,8.900022646826505,-0.1308840662240982,-0.1082001850008964,0.1629705131053924,-0.9332084536419404,0.1181272325766667,0.1796415730052569,0.2879179082081491,0.1154250800609588,-0.1547801494598388,0.1260852962732315,-0.0022592544555664,-0.0025302767753601,0.0162539407610893,0.0463613457977771,-0.0595036707818508,-0.0180095669458154,-0.1021315306425094,-0.0193770376404281,-0.0442710668703541,132
1733108386436224300,0.4385802178353071,-0.1206880611944943,0.0132306529730558,3.968995400908589,-1.2253021115593612,8.883473078563808,-0.1847861111164093,-0.0189366955310106,0.1657415330410003,-0.9332505552075352,0.1219833973473449,0.1794128404893291,0.2863120121043075,0.0749951004981994,-0.1305477917194366,0.0961473807692527,-0.0045657753944396,0.0082767009735107,0.0223748683929443,0.007093402557075,-0.0231254808604717,-0.0008071682182635,-0.0831081271171569,-0.0032396486415062,0.0162480417325859,133
1733108386475981300,-0.3820563665807246,-0.2633903857983649,0.2541483640700578,4.077805611978471,-1.2911948257923125,8.824664331242442,0.0010783604811877,-0.5371775031089783,0.1566058993339538,-0.9327002834591892,0.126544795486299,0.1845365789476163,0.2828477395713027,-0.0311310701072216,-0.126743733882904,0.1089214980602264,0.0042406916618347,-0.038908302783966,0.0097627639770507,-0.0087474565953016,-0.0401170253753662,-0.013837829652545,-0.0604539699852466,-0.0175609920612536,0.0071005213249853,134
1733108386515728000,0.6112541215285658,-0.0865209301114082,0.3367944985747337,4.216503596311807,-1.2697943103671072,8.762368910849094,0.1305162906646728,-0.217198759317398,-0.030508616939187,-0.9312869921670812,0.1276926074388958,0.1921929420742602,0.2818884458866972,0.1795960664749145,-0.1075033545494079,0.0574168935418129,-0.0077278614044189,0.0304973721504211,0.0207041501998901,-0.0257186349481344,-0.007523201406002,-0.0679145069507183,-0.0370974652469158,-0.058319388335268,0.0075768044879136,135
1733108386555475700,-0.0685734777495264,0.3614864567607641,-0.2856587700992822,4.241666679140925,-1.2385124523967503,8.754698230090737,0.0643064677715301,0.0006698343204334,0.1438684612512588,-0.931497228127948,0.126253963060905,0.1941508787335277,0.2804965866250066,0.1031162217259407,-0.0847755149006843,0.0250441711395978,-0.0110813379287719,-0.0139364004135131,0.0118532106280326,-0.0391569770872592,-0.0685600340366363,-0.1703740657856687,-0.0511875487864017,0.0536042100813705,-0.1219591040436178,136
1733108386595222800,0.4516720468595623,0.3877089855149388,-0.5309872833758592,4.204750614675879,-1.2734139621689915,8.767489322602747,-0.1653570532798767,0.1285374909639358,0.0433568991720676,-0.9320350937061492,0.1272552520612497,0.1918033779929706,0.2798716127062852,-0.0127880154177546,-0.0995378941297531,-0.0220579598098993,-0.0128375887870788,0.0284686684608459,-0.0134139209985733,-0.0337930060923099,-0.0636557787656784,-0.0961218665462918,-0.0683431178331375,0.0249542030185228,-0.1126934639777056,137
1733108386634969600,0.3820730254545808,0.3324821883335709,-0.4080471324056386,4.1561362213715904,-1.3479229674473403,8.779522874745727,-0.2614054381847381,0.2009745687246322,-0.0736168101429939,-0.9317433388345716,0.1306166980233492,0.1879047497201153,0.2819316381084339,0.1853953748941421,-0.0627257600426673,-0.0060487664304673,0.0086749196052551,0.0112139582633972,-0.0015814378857612,-0.0258840192109346,-0.0564713180065155,-0.0571576510795159,-0.0631493479013443,0.0186660398268606,-0.0781434162579476,138
1733108386674716200,-0.226016202302277,0.0099830493539571,-0.5277577999353409,4.106568472865224,-1.4189707263559102,8.791644105172157,-0.2652191817760467,0.1380680948495865,-0.0287939198315143,-0.9309438991551864,0.1340982598587078,0.1837622599857591,0.2856439786861909,0.2981443107128143,-0.0873680487275123,0.0715285763144493,0.0307951569557189,0.0171017050743103,-0.0129181295633316,-0.0164397098124027,-0.0535142086446285,-0.0773051296697463,-0.0448977351188659,0.0475708893004572,-0.0846704434065148,139
1733108386714464300,-0.1565817238092422,0.0543020835518836,-0.6571949117094278,4.046560578887164,-1.5415502273201942,8.798826710152625,-0.4480308592319488,0.2242959886789322,0.1027272492647171,-0.9307495465594252,0.1395190356874268,0.1786592283104868,0.286915460205054,0.7336984276771545,-0.1498094797134399,0.1648799628019333,0.0514687895774841,0.0366494059562683,-0.0346010848879814,-0.002194557338953,-0.0347797349095344,-0.010269459371682,-0.0410918295383453,-0.0276086676166392,-0.0624619178003631,140
1733108386754211000,0.0084536478295922,0.1003752679407596,-0.5381470920026302,3.9766950155004857,-1.74085231795907,8.79350405382514,-0.5748785138130188,0.1144184097647667,0.0126200998201966,-0.9300591875698077,0.1487660935202283,0.1718275700254816,0.2886760426780891,0.6847255825996399,-0.1791805326938629,0.169024109840393,0.0312939882278442,0.0512431263923645,0.0181597471237182,0.007957162335515,-0.0439042337238788,-0.0592675102398032,-0.0431944541633129,0.0264443730776198,-0.0371844764601322,141
1733108386793957600,-0.2932511249244213,-0.232666892363131,-0.1237988136261701,3.922411636649072,-1.9523413977369664,8.773450276833772,-0.5880547761917114,0.1862002462148666,0.1204451248049736,-0.9287661157083088,0.1590367704440573,0.1654866069827,0.2910583469046772,0.537455677986145,-0.2956269681453705,0.2049832493066787,0.0177114009857177,0.0087185502052307,-0.018360374495387,0.0397757813334465,-0.0402800999581813,-0.1307304577865637,-0.0849089175462722,0.0013035020803101,-0.096549608705379,142
1733108386833705500,0.1676543219655752,0.0971279565826058,0.0064507835745811,3.837246505060792,-2.171404566030949,8.759619319880008,-0.5468436479568481,0.2294483482837677,0.1367518752813339,-0.9283633602887826,0.168746743691071,0.1578234718071628,0.291132074627244,0.8550781011581421,-0.3560698628425598,0.1689721196889877,0.0265354514122009,0.0509654879570007,-0.0314699411392211,0.0651033967733383,-0.0720757916569709,-0.1236417051020078,-0.1294392645359039,-0.0014191415163455,-0.102385009461129,143
1733108386873452500,0.1838210283905267,-0.1151437980055808,-0.1437982300817966,3.79609031880796,-2.366296731273085,8.727011181741952,-0.4733575582504272,-0.0794225707650184,-0.0186404343694448,-0.9269186257802112,0.1783319060572469,0.1524598411203682,0.2928745437799562,1.179368019104004,-0.4229770302772522,0.2173625528812408,0.0356491208076477,0.0279290080070495,0.0120547423139214,0.0912663117051124,-0.0668667703866958,-0.0985153192877769,-0.1617957800626754,-0.0252682967692613,-0.0607344455537851,144
1733108386913199000,-0.1472024855673313,-0.2471408233955502,0.1318704764008522,3.8579154913410543,-2.48509218365401,8.666670987069606,-0.2763391137123108,-0.2500746250152588,-0.0558466017246246,-0.924690353169117,0.1859285204413301,0.1534709643473548,0.294660730222261,0.7452080845832825,-0.4397540390491485,0.2789022922515869,0.0587450861930847,-0.0621565580368042,0.0284553803503513,0.081750176846981,-0.0736196115612983,-0.1132363478159066,-0.1240086257457733,0.0118073307552258,0.0926887046266812,145
1733108386952946000,0.5071335295796394,-0.0196565943673253,-0.2810562447398901,3.92438410576582,-2.5916692288443444,8.605396141895651,-0.4471287429332733,-0.0162480045109987,-0.0513067469000816,-0.9222282938652016,0.1931295886899714,0.1547509338101369,0.2970658692285318,0.9411965012550354,-0.348388671875,0.2608561217784881,-0.0248691439628601,0.0331955552101135,-0.0187094770371913,0.0288482625037431,-0.0419089123606681,-0.1095121487941592,-0.0961290672421455,0.0105082936458347,0.0192336699472507,146
1733108386992691700,-0.0489332499951124,-0.0943625835224986,-0.115315062919259,3.920805955018103,-2.7584786244183777,8.555025552573799,-0.4596690535545349,-0.0585086494684219,0.0551244542002677,-0.9202156507190872,0.2020856579784124,0.1515799374033014,0.2989783725162013,0.4205743372440338,-0.4568609893321991,0.372335821390152,0.0682970285415649,-0.059207797050476,0.028564266860485,0.011148571036756,-0.047390092164278,-0.0431079002759186,-0.0961145758628845,-0.0360314339674892,-0.0827067329849582,147
1733108387032438800,0.426633174932003,0.0447486577868461,0.0549830515533685,3.9863291052863,-2.89938551697284,8.477802027639747,-0.4200896322727203,-0.3001743257045746,-0.145061120390892,-0.9175897205604862,0.2110088974470998,0.1524061617226926,0.3004607897948251,0.6303936243057251,-0.2471998929977417,0.3380041420459747,-0.0160372853279113,0.026986539363861,0.0845789909362793,0.0082848733291029,-0.0179646331816911,-0.063595072849025,-0.0979371964931488,0.0158796890524507,-0.0846634748096112,148
1733108387072185600,0.3199672824144363,-0.1414244866877794,0.2466799278855323,4.115889843440056,-3.006950696417689,8.377833002412318,-0.398177832365036,-0.28386390209198,-0.2116823643445968,-0.9134001212640352,0.2200073456948293,0.1563526952499032,0.3047144241049908,0.626804769039154,-0.2399288713932037,0.3680000007152557,0.0007227063179016,0.0082150697708129,0.0163153409957885,0.0087142772972583,-0.0025509400293231,-0.0666398702052887,-0.0611545629799366,-0.0288338186475564,-0.0203489993615658,149
1733108387111932200,-0.1733636395230889,-0.1129971413657069,0.3732739251881837,4.263557900692522,-3.0647070120766755,8.282513264295458,-0.1777080297470092,-0.5033965110778809,-0.2774958312511444,-0.909381116095639,0.2268370004666425,0.1620318524989091,0.3087338252003977,0.0735303610563278,-0.2370422780513763,0.4017884433269501,0.0052117109298706,-0.0546765923500061,-0.0127100273966789,-0.0154267027974128,0.0099829491227865,-0.1534552623517811,-0.0615618377923965,0.0117407649001048,-0.0504399190978612,150
1733108387151680300,0.1488739259108901,-0.1021288336098194,0.0505804326802492,4.498720409263671,-3.0670459764182567,8.156293361002206,-0.2074553817510604,-0.5428586006164551,-0.3623999357223511,-0.9044075123577284,0.2327836264889091,0.1730795756328614,0.312893288707395,0.0725236907601356,-0.1314299404621124,0.3496999442577362,-0.026404857635498,0.0482498407363891,0.0304629877209663,-0.018074432387948,-0.0190661139786243,-0.1339591375094838,-0.0680256262421608,-0.0116550947690033,-0.031557448624901,151
1733108387191427000,-0.4210945377662777,-0.1104649925395846,0.2412269231766462,4.666163426566124,-3.0783123435810205,8.057375306132435,-0.1721876263618469,-0.334055632352829,-0.1500678360462188,-0.9000429968544845,0.2379974615121973,0.1804034197850889,0.3173869875761578,0.0897601991891861,-0.0519780442118644,0.3124720156192779,-0.0353078246116638,-0.011515200138092,0.0368680357933044,-0.0122068263590335,-0.0512863807380199,-0.2265886501616798,-0.0867421329021453,0.0611277009213808,-0.0837387703132815,152
1733108387231173600,-0.1553711789757013,-0.0766615071371197,0.1116343285799026,4.783063712850213,-3.1275285021707413,7.96939424034059,-0.1924175024032592,-0.3784745037555694,-0.0440323427319526,-0.897373622299167,0.2434171356990295,0.1855318251306155,0.3178782649748254,0.1305781900882721,-0.059031318873167,0.2844614386558532,-0.030514657497406,0.0055824518203735,-0.0090624764561653,0.0128957964479923,-0.0822528153657913,-0.0803580509669613,-0.0924152806401252,0.0664917761046439,-0.1600752467471174,153
1733108387270921700,0.144935125157237,0.0046072015345096,0.3470867600083351,4.911618781092763,-3.155825206850469,7.879539781892299,-0.1070141866803169,-0.2829186916351318,-0.092057392001152,-0.8945244750375931,0.248120361722226,0.1915503888224421,0.3187016492158404,0.0934159234166145,-0.0625368356704711,0.2477439641952514,-0.0118592977523803,-0.0062460899353027,0.0201094821095466,0.0508980304002761,-0.0712536424398422,-0.0523626216555945,-0.0582660362124443,0.055476648323168,-0.0423421857335837,154
1733108387310668500,-0.1581663626521825,0.167621004217863,-0.0364157137274742,4.9911611043632025,-3.1861104549989103,7.817121611902118,-0.101953312754631,-0.2574179470539093,0.0219515394419431,-0.8927189340071832,0.2516680380491661,0.1951945379859007,0.3187712086293939,-0.0606306381523609,-0.0873387530446052,0.1845985502004623,-0.0036496520042419,-0.0051004290580749,0.0293884351849555,0.0682570487260818,-0.0604564137756824,-0.0460810252020368,-0.0430810786783695,0.0495143560850061,-0.0319295447567477,155
1733108387350415000,0.2251151618093252,0.0454717113643884,0.1880459526091814,5.00666379392147,-3.2462200557857748,7.782400427132845,-0.185786634683609,0.1295299679040908,0.1720155626535415,-0.8919844177242767,0.2551557107965069,0.195201363712926,0.3180498442385285,-0.0386600941419601,-0.122827872633934,0.1450739055871963,-0.0030327439308166,-0.0130310654640197,0.010237693786621,0.0791585072875022,-0.0573780797421932,0.0321870951478136,-0.0419055856764316,0.0139317572969826,0.0326002676421427,156
1733108387390162000,0.3133312054008245,0.358769306756556,0.097569562870264,4.932514269605279,-3.3398496488586065,7.790127806514501,-0.1601161807775497,0.0788780152797699,0.1537695676088333,-0.8927659283779497,0.2581557995321252,0.1901830642761084,0.3164727718264301,-0.0377370417118072,-0.1898064762353897,0.0703764930367469,0.002706229686737,0.0300797224044799,-0.0021253228187561,0.0805186554789543,-0.0833700597286224,0.0115721486012393,-0.0513565726578235,0.0165906857243739,0.0377510128852678,157
1733108387429910000,0.163010880073905,0.0732601742610335,0.0371136328637599,4.920477794852853,-3.399255193029344,7.772023994547128,-0.1119109764695167,-0.0380881540477275,0.0672899857163429,-0.8925129611621236,0.2609643599599431,0.1887714750922172,0.3157272370044272,0.0815201103687286,-0.2112867981195449,0.0191465336829423,0.0128893256187438,0.0445460677146911,-0.0103887841105461,0.0618026629090309,-0.0722474604845047,0.1299513449065387,-0.0140041848644614,-0.0450467000185046,0.1160125527972821,158
1733108387469656800,-0.1480021115124225,-0.1788721738114952,0.0100742347687482,4.925930799561739,-3.423503206840157,7.757913051608204,-0.0601903535425663,-0.0304067004472017,0.11036416888237,-0.8923307379914096,0.26229336566912,0.1888351194585933,0.315102088170939,0.1131898909807205,-0.2124341875314712,0.1260361671447754,0.0383723378181457,-0.0366902351379394,0.0041026622056961,0.0515425130724906,-0.0905474722385406,0.0265088668483076,0.0122444126754999,0.0317577683864161,0.1431216551276389,159
1733108387509403400,0.0105804307252168,-0.2230935928538441,-0.0021796821266412,4.944219320446252,-3.443177044603228,7.737545386362076,0.0316831432282924,-0.161125048995018,0.1253169476985931,-0.892632934683586,0.2632778707068494,0.1902097249008455,0.3125882536442706,-0.0157073736190795,-0.2067680358886718,0.3178218007087707,0.0496279001235961,-0.0290234088897705,0.0162091255187988,0.051373828202486,-0.0593946501612663,0.0568460050141904,0.0068663312122225,-0.0361633190021384,0.0859285993746016,160
1733108387549236200,0.5065460850805044,-0.0908750336676836,-0.099514851719141,4.969890937319398,-3.461072474516928,7.713076131016016,-0.0196154005825519,-0.0795881822705268,0.0744398385286331,-0.8928419373942954,0.264318219260588,0.1920375737494173,0.3099851803840275,0.3300156891345978,-0.2050755023956298,0.4661310017108917,0.0470662713050842,0.0338881611824035,-0.0139896273612976,0.059533879160881,-0.0544889755547046,0.0259054986942559,-0.0167524442076683,0.0198940449685673,0.0221876243820181,161
1733108387588986400,0.6083902565300464,0.0060290510311722,-0.1557844359517097,4.973092363709212,-3.4810631231442093,7.70200879355669,-0.0314813107252121,-0.0246131587773561,-0.0041267652995884,-0.892785928152107,0.2653372905078788,0.1921014317506814,0.309235454243358,1.425785779953003,-0.3142299950122833,0.6420626044273376,0.0576089918613433,0.010221779346466,-0.0150094628334045,0.0652433559298515,-0.0304781161248683,0.0131864850377663,-0.0189989060163497,0.0230699830073863,0.0052549305617401,162
1733108387628736500,0.2265297047823667,0.0614607231348752,-0.0633943215459585,4.988340786245465,-3.4898075706139204,7.688178421124816,-0.035890806466341,-0.0380013100802898,-0.0385411418974399,-0.8922734578494216,0.2662571912898424,0.1926631529640581,0.3095742768350474,2.59405517578125,-0.2478563040494918,0.7000658512115479,0.0081570148468017,0.0748968124389648,0.019375741481781,0.0575959756970405,-0.0148630505427718,-0.0221015078679891,-0.0311570968478918,0.0454318268785718,0.0305393370739417,163
1733108387668486700,-0.0692015465199947,0.0126426239520311,-0.0269786078184843,5.0201113045156,-3.487826041407883,7.668372481414675,-0.0290278084576129,-0.0175216402858495,-0.0340814441442489,-0.891437424668568,0.2670768236663047,0.1941437115016007,0.3103506714584041,2.7090489864349365,-0.1713709086179733,0.7121018767356873,-0.0476249456405639,0.022789716720581,0.0618145018815994,0.0241753049194812,-0.008599947206676,-0.1364367431367747,-0.0491552799940109,0.0596330647497205,0.0107568741375114,164
1733108387708237600,-0.1814683277845382,-0.1105041555061936,-0.1035153195321559,5.0286786418527365,-3.5015979616507886,7.656473369306325,-0.0645373687148094,0.0004025612724944,0.0361615531146526,-0.8909811814937448,0.2681183351644307,0.1942706016557243,0.3106830353448257,2.419776201248169,-0.0284130088984966,0.6254352927207947,-0.0465598702430725,-0.0562120676040649,0.0169376730918884,0.0110580651089549,-0.0205858405679464,-0.0919501246864441,-0.0713587030768394,0.0267702485976973,-0.0613218763531884,165
1733108387747987700,0.0370551806747913,0.0094040804222226,-0.0317471373945474,5.008126267689466,-3.538906240303814,7.65279029687941,-0.0954740419983863,0.0807765498757362,0.1076378971338272,-0.8911996949384056,0.269490504087738,0.1928500973056177,0.3097528029743354,1.0055807828903198,0.0926194041967392,0.4248037040233612,-0.055343747138977,-0.0309116840362548,0.0796916484832763,0.0221934169530868,-0.0217532627284526,-0.0845216643192805,-0.0742144808173179,0.0010413365920976,-0.071727553299698,166
1733108387787737900,0.3377496073424816,-0.0127142278835177,-0.0871983909815549,4.971991124469041,-3.5925042672395704,7.651379261037706,-0.1073846668004989,0.0594293512403965,0.0503769479691982,-0.891458392203609,0.2714150622751003,0.1903210451797208,0.3088911566492215,-0.7519251704216003,0.0238190349191427,0.1185159310698509,-0.0209152400493621,-0.0374775528907775,-0.0207611620426177,0.0236611180007457,0.0034462679177522,-0.0452177548696286,-0.0694424733519554,-0.0282530984334414,-0.0417477863372769,167
1733108387827489000,0.2960895632207393,-0.014580606277287,0.0278004455953836,4.957835757866501,-3.615029110519588,7.649955365714431,-0.0348214879631996,-0.0056428709067404,-0.0402857474982738,-0.8912577380103732,0.2724264095048687,0.1890626605248655,0.3093522593840412,-1.7288888692855835,-0.0723810493946075,-0.1077357158064842,-0.0231877565383911,-0.0396538972854614,-0.0164743065834045,0.0083793234080076,0.0034207575954496,-0.0927572946171741,-0.0542155504226684,0.0235305999561911,-0.0450738391871796,168
1733108387867239000,-0.0516162054687738,-0.0365910702943801,-0.0478413631051778,4.974843006768823,-3.611124796557426,7.640752653083204,-0.0571836829185485,0.0388581678271293,-0.0323290340602397,-0.8905705844345088,0.2728773498414883,0.189652253374352,0.3105705848884714,-2.4129445552825928,-0.3205823898315429,-0.1337679922580719,0.0139041244983673,-0.033187448978424,-0.012739360332489,0.0006120702018961,-0.0097000077366828,-0.0736008591911755,-0.0257069133222103,0.023141016116715,-0.0216210902401711,169
1733108387906989000,0.0135942255884408,0.0433645099520683,-0.03467033136487,4.947790164670348,-3.6421488803744313,7.643592844945192,-0.1069881170988082,0.1396813243627548,0.0731459110975265,-0.8905093447079121,0.274037782967299,0.1875860572448069,0.3109788622051031,-0.7695564031600952,-0.2561214864253998,0.0212651453912258,-0.0168166756629943,0.0377666354179382,-0.0744437873363494,0.0165466088801622,-0.0235848668962717,-0.0834028528898023,-0.0300305914133787,0.0217782649797038,-0.0957607690157834,170
1733108387946739200,0.2647825708091259,-0.0043058805003762,0.1646089629203081,4.905345692172646,-3.6751331583485,7.6551523498356335,-0.0298306830227375,0.0966839790344238,0.0259600318968296,-0.8909219659860114,0.2748036051231199,0.1848751532399111,0.3107444739888432,-0.5435791611671448,-0.1372053772211074,0.0921233370900154,0.0036365687847137,-0.0589337944984436,0.0473101139068603,0.0300045236945152,-0.016915014013648,-0.0868153921464923,-0.0230266060680151,0.0405745824060169,-0.0300909197362954,171
1733108387986488000,0.3402043070182204,-0.0972623966172337,-0.0850251385957002,4.897261462177336,-3.6833316623732446,7.656388613632321,-0.0347207151353359,-0.0138069000095129,-0.0402760095894336,-0.8907558773981874,0.2751853778588118,0.1841353481199936,0.3113218007191798,-0.5344341397285461,-0.2070254683494568,0.1596519201993942,0.0667864382266998,-0.010042130947113,-0.0230573415756225,0.037170261144638,0.0309840645641088,0.0317476762506645,-0.0039802053943276,-0.0528177176124881,0.0474929332599975,172
1733108388026238200,0.2580371882021427,0.0022778818041086,-0.1084083522707223,4.928252520507574,-3.670793375578522,7.642512063971162,-0.0208674501627683,-0.0871962085366249,-0.1257930696010589,-0.8899187733423466,0.275495487649063,0.1855870984320798,0.3125768671171797,-1.4714021682739258,-0.249338150024414,-0.0356193073093891,0.011604905128479,-0.0376032590866088,-0.0694558173418045,0.0255508422851562,0.0149090318009257,-0.0697407725298078,-0.0066495924256742,0.0074597790956788,0.0375356713678455,173
1733108388065988400,-0.1857137102693319,0.0032385435298085,-0.0789180538922548,4.958405082187056,-3.667863167345524,7.624393638956547,-0.0601397901773452,0.0055620041675865,-0.0274622105062007,-0.8888225976323569,0.2764079247500466,0.1867157142926808,0.3142136501144013,-1.1048201322555542,-0.2405791133642196,0.2275868356227874,-0.0038532614707946,0.0592067837715148,0.0796741247177124,-0.0043990174308419,0.0336528085172176,-0.0573053478879388,-0.0148804644122719,-0.0537169908400392,0.0654684426725842,174
1733108388105739300,-0.2225397583633661,0.0473848515093326,-0.0922024828791618,4.949441439008712,-3.703180856703221,7.613137500926852,-0.1392075717449188,0.0844662562012672,0.0822636038064956,-0.8884174978658018,0.2782067723673652,0.1855774842173218,0.3144459655364627,-0.8310477137565613,-0.1807875782251358,0.0839835256338119,-0.0202670395374298,-0.0086353421211242,-0.0008715316653251,-0.0187395084649324,0.0172999333590269,-0.1305945655803661,-0.0240390449762344,-0.013078697831335,0.0360621784489136,175
1733108388145489400,0.0086512162283062,0.0417523985803127,0.2611310625642538,4.891082481281459,-3.763987792104482,7.6210297154814,-0.0691474005579948,0.1309662610292434,0.1055926159024238,-0.8888730725234536,0.28004406013447,0.1816891672794605,0.313797779432793,-0.3594013452529907,-0.3010061681270599,-0.0058508273214101,-0.0470916330814361,0.011596143245697,-0.0569595694541931,-0.0003976236330345,-0.0162075590342283,-0.1282809092099778,-0.0349984131753444,-0.0294811058584367,-0.1420788315438199,176
1733108388185239600,0.2812038365170359,0.1778138969302177,0.1282458561629056,4.857800389404595,-3.778842831408977,7.634953026893735,0.0005279516335576,0.0344782024621963,-0.012063362635672,-0.8894072626014564,0.2799879210912062,0.179812381902199,0.3134151410465939,2.4087884426116943,0.1818897873163223,0.1808410286903381,-0.0414482057094574,0.1184435486793518,0.0988662242889404,0.0386412553489208,-0.0239173453301191,-0.0390639312478946,-0.0198819898068904,-0.0834675795559305,-0.0242276537260855,177
1733108388224989700,-0.0710188250750303,0.100460315875709,-0.0214238963007926,4.858673957368731,-3.777654790668189,7.634985175597667,-0.0497720055282115,-5.09750680066e-05,-0.0193613599985837,-0.8891657609338756,0.2800816255428332,0.1796617995858255,0.3141023914516408,2.406810522079468,0.522594690322876,0.0365786552429199,-0.0502258539199829,0.0712222456932067,0.1540211290121078,0.0322047993540763,0.0185203775763511,0.0261454746127245,0.0098047982901334,-0.0928679701837245,0.027939735335065,178
1733108388264740600,-0.1127934354871511,-0.0080836454734206,0.0465139138936996,4.851516779090463,-3.790766201175749,7.633037548661232,-0.045164905488491,0.0401860997080802,0.0456330254673957,-0.8890578049763045,0.2806700230544742,0.179018821029509,0.3142495864988574,0.3616889119148254,0.3828765749931335,0.118081234395504,-0.0025635063648223,-0.1527532339096069,-0.0091096460819244,0.0233496762812137,0.0032406328245997,-0.0697127200456801,-0.0011120206909254,-0.0330437736259424,0.0407505691605852,179
1733108388304490800,0.0245440741479396,-0.0402875867247581,0.0023439327776432,4.842119712930917,-3.801807527410984,7.633513349479436,0.0114573333412408,-0.0383803471922874,0.0231760237365961,-0.889279978131605,0.2809403790103135,0.1785263123460156,0.3136591528156346,-0.3189244866371155,0.1821977496147155,-0.1701631397008896,0.0887233316898346,0.0187535285949707,0.0146284699440002,0.0135964723303914,0.0048056980594992,0.0422571103991707,-0.0023799629416316,-0.1379710674314294,0.1157069574468303,180
1733108388344241000,0.2181380162730813,0.0829775584161281,-0.1201402911186218,4.826893502226471,-3.802968680144846,7.642572269725799,0.0174296051263809,0.0801416486501693,0.0514606423676013,-0.8897384926295266,0.2805237445618626,0.1778867642079257,0.3130942949802607,-0.277715802192688,-0.2854188680648803,-0.1753848791122436,0.0817210376262664,0.0312239527702331,-0.2515507340431213,0.0055563040077686,0.0286358539015054,-0.0084911748198966,-0.0194280184805393,-0.0760151263918262,0.0408686928146518,181
1733108388383992000,0.245971779616177,0.5712289851322769,-0.3499398113518953,4.845896601121128,-3.7833497874394055,7.640283866527676,0.0145162055268883,-0.16293765604496,-0.1694487333297729,-0.8893839753466333,0.2800519185888821,0.1789549051017482,0.3139144635819441,-1.1780112981796265,-0.3341557383537292,0.0502364113926887,0.0705167651176452,-0.2652540802955627,-0.0303062200546264,0.018768111243844,-0.0140216490253806,-0.0310321027266792,-0.0172630846500396,-0.0973327675728593,0.0863006932231597,182
1733108388423742000,-0.4284121673032641,-0.1000081881940364,0.1401917300224304,4.866813424682617,-3.78712755241245,7.6251020794868465,-0.1297470331192016,0.2273563742637634,0.1132446825504303,-0.8885285857606663,0.28101086887451,0.1796131304614837,0.3151017748634204,-1.0304276943206787,-0.4126496315002441,0.1281736195087433,-0.0348898470401763,0.0495212078094482,0.0588000491261482,0.026486424729228,-0.0020739887841045,-0.0777644725434947,-0.0227746702730655,-0.0423094251082977,0.066726598640671,183
1733108388463492000,-0.4104182454511523,-0.1536681744500994,0.4696650919288396,4.744371870884299,-3.8723315547063946,7.659397147798538,-0.0780463814735412,0.207426443696022,0.2608802616596222,-0.8901845592129008,0.2824342666343112,0.1723667645968114,0.3131964674013157,1.4303051233291626,0.1171676218509674,0.1146673932671547,-0.1275724172592163,0.0575135946273803,0.1147537231445312,0.0452153794467449,-0.0444522313773632,0.0186172916145762,-0.0205837506800889,-0.1568948083464056,0.0486677994253812,184
1733108388503242200,0.1879424922347068,0.2079699657410383,0.335520240855217,4.703111931996047,-3.896087401086092,7.672784452638029,0.0442958064377307,-0.0430159345269203,0.0637826845049858,-0.8913938443687082,0.2823233849487778,0.1705589922095445,0.3108376385628942,1.9173957109451287,0.4066036343574524,-0.0303786061704158,-0.0637047886848449,0.0499758124351501,0.1827546805143356,0.0365012399852275,0.0191604699939489,0.0099141922186943,-0.0284711495041847,-0.1606514574661851,0.0869992790797259,185
1733108388542993400,0.108989074768126,0.0926256767272949,0.2559264796584844,4.709940316711366,-3.8961139968320726,7.668581740251183,0.0505415499210357,-0.0651439577341079,0.0702185854315757,-0.8918117060971414,0.2821902922467809,0.1714053356855149,0.3092907009683857,0.564577579498291,0.3959935009479522,0.0652100294828414,-0.086580604314804,-0.0598323941230773,-0.0733063817024231,0.0297820698469877,-0.0113579435274004,-0.100101602098532,-0.0355161912739276,-0.0722511479155393,-0.0250234620125847,186
1733108388582728200,0.3474839426323771,0.1567991659522056,-0.0058984103888273,4.724931549616158,-3.8791841970801353,7.667942273303866,0.0994446128606796,-0.1474449336528778,0.0143543239682912,-0.8924038141803904,0.2812560105670317,0.1730283142597712,0.3075252919715659,-0.3164424300193786,0.01717977412045,-0.2691951990127563,0.1456839442253112,-0.0150021314620971,-0.1277877986431121,0.0339471884071826,-0.0407649949193,0.0568740574983181,-0.0166044551879167,-0.0766668774319812,0.0891434971673414,187
1733108388622477800,0.4856622870057821,-0.1660334427654743,-0.1894289314001798,4.775146656115353,-3.8496415839925406,7.651706593295931,0.0157673601061105,-0.0232668574899435,-0.0329546928405761,-0.8920737977183254,0.2807129066850816,0.1762719563621513,0.3071363475346172,-0.5806498527526855,-0.3936057686805725,-0.2904241681098938,0.065712422132492,0.1175786852836608,-0.2998083531856537,0.0106781143695116,0.0324023962020874,0.1771792340221814,0.0270548909902572,-0.1143276867165695,0.1271237841972615,188
1733108388662228200,0.0014510755911469,-0.1237856618836522,-0.0859410843968391,4.754181609497964,-3.854928584484756,7.662092962753772,-0.0300070531666278,0.0929210036993026,0.0219436064362525,-0.8923319598390405,0.2805348661192664,0.1750490594294179,0.3072485796700007,0.0885298177599906,-0.4046664834022522,-0.0784317553043365,0.0847818255424499,-0.1335007548332214,-0.0592776536941528,-0.0004302909364923,0.0083533003926277,-0.0639546953750774,0.0015863387379795,0.0157551208162214,0.056411180093768,189
1733108388701977900,-0.0591714431539177,0.149841894160211,-0.1714765106022358,4.797895079018176,-3.841850199463963,7.641385690289735,0.0261842478066682,-0.1921852380037307,-0.1494860053062439,-0.8913726706345686,0.2810502280081706,0.1772245299885329,0.3083130851103579,-2.1983389854431152,-0.3152287006378174,-0.0407496206462383,0.0625331997871398,-0.3753856420516968,0.184311643242836,-0.0115379281342029,0.036566000431776,0.0235400961536099,0.0015089603839442,-0.070832010965771,0.0773615451652556,190
1733108388741727200,-0.4581111399963498,-0.1932373837724328,-0.0141717332154512,4.808375556500256,-3.8445837160810825,7.633419241455197,-0.0771695375442504,0.1640226691961288,0.0962567403912544,-0.8907603244241885,0.2816744098522706,0.177379432206251,0.3094223884922935,1.811457872390747,-0.0035308827646076,0.2961946427822113,-0.1316431760787964,0.1499698758125305,-0.0799587965011596,-0.0513331554830074,0.0551842898130416,-0.080893418218987,0.0297438241541385,0.0344877276398474,0.1213963738606311,191
1733108388781476900,-0.1932254010736942,-0.0091284783512353,0.0445686250448226,4.774829552990198,-3.8830949407830833,7.634982837510108,-0.0525733493268489,-0.0352606736123561,0.0321872904896736,-0.8909585368954112,0.2829439050555259,0.1751198480923127,0.3089800825341597,0.7110801935195923,-0.1297482699155807,0.0698840096592903,-0.0285596847534179,-0.0551496744155883,-0.0162945985794067,-0.0650844573974609,0.0265087820589542,0.0111327285624458,0.0279200375080108,-0.0501587869018083,0.052643676219834,192
1733108388821227000,0.0618234189674258,-0.0117795773819088,0.0679378101944923,4.775960018324851,-3.895557239732146,7.627923566648364,0.0097403600811958,-0.035255879163742,0.0628565177321434,-0.8909154957919558,0.2835800966169592,0.1751183992579059,0.3085212926967327,0.2197884917259216,0.1501350998878479,-0.2053604125976562,-0.0727454721927642,0.0989726185798645,0.1334114670753479,-0.0780420377850532,0.0628153458237648,-0.031215975960181,0.0400289110839366,-0.0655778578638099,0.0869783824221696,193
1733108388860976600,0.7269537998512386,0.0390776264131069,-0.2389619008541107,4.771180382832885,-3.90960359300226,7.623727284002304,-0.046868160367012,-0.0084651745855808,0.0036173854023218,-0.8909237331003507,0.284182078627507,0.1747530234531314,0.3081506299131694,0.3619677722454071,0.4814275801181793,-0.258519172668457,-0.0479196310043334,0.0815471410751342,0.0121354460716247,-0.0709943994879722,0.0344446077942848,-0.1887713077416643,0.0230041872709989,0.0746061546430457,-0.0283704160866211,194
1733108388900726000,0.5749602806150913,-0.0756961692363023,-0.0358785381108522,4.772339489740133,-3.918729441004991,7.618315195825695,-0.0405489765107631,0.024564916267991,-0.0599631518125534,-0.8903785153966712,0.2849432558296148,0.1743025336300785,0.3092769067598864,0.697868287563324,0.3738668859004974,-0.2373554855585098,0.0805095732212066,-0.0589101314544677,-0.0863499045372009,-0.0362403988838195,-0.0486227422952652,-0.018801164848078,-0.0038844461087137,0.1886497089223004,-0.0479901102263713,195
1733108388940476700,0.1971063341602683,-0.126924836692214,-0.0972410615682601,4.808720716676116,-3.903264453108609,7.603362541365623,0.0336897000670433,-0.1593968123197555,-0.1429280638694763,-0.8893691620269606,0.2852775389144607,0.1759350082063956,0.3109440401230815,0.4181623160839081,-0.0782542824745178,-0.1074698641896247,0.1020135879516601,-0.0430741906166076,-0.1750776767730713,-0.0517601519823074,-0.0165633521974086,0.3489993521640077,0.0106563670560717,0.0815687236646656,0.1972973997529596,196
1733108388980225000,-0.1171796877473592,-0.1202460895806551,-0.1599836412072181,4.863235566195845,-3.877172857257724,7.582008787691593,-0.0271819736808538,-0.0145652396604418,-0.0279544442892074,-0.8881355733410604,0.2854882206206459,0.1786661966758432,0.3127141305032548,-1.1558836698532104,-0.4354731142520904,-0.0301443822681903,0.0520125031471252,0.0441285371780395,-0.0079221576452255,-0.1089574769139289,0.0518020279705524,0.2375449649945832,-0.0305990613996982,0.195369226435665,-0.0226262281451257,197
1733108389019974400,0.2481549688741564,-0.0486497568786144,-0.1465641876637935,4.862118837125599,-3.89714450892359,7.572479327324032,-0.1094273179769516,0.0382287353277206,-0.0495651997625827,-0.8874526318087395,0.2868166317511698,0.1778966219368447,0.3138738537289192,-1.4872809648513794,-0.2222444713115692,0.1469939202070236,0.0452354252338409,-0.2325344681739807,0.0036953687667846,-0.0808403939008712,0.0431190878152847,0.194728773107659,-0.0349632129073143,0.1537042321441695,0.0233862435990362,198
1733108389059725000,-0.1474368788450956,-0.1178457504406571,0.3738929338693618,4.841119595977664,-3.918029768303037,7.575156437578797,-0.0306539684534072,0.118523322045803,-0.0007673992076888,-0.8868600444147012,0.2878514944349764,0.1758295712249591,0.3157606954073055,0.503161609172821,-0.1269381940364837,0.3171666860580444,-0.1149413287639617,0.1755332946777343,-0.0728552937507629,-0.048658475279808,0.0590168349444866,0.0935881559507455,0.0078832870349287,0.1273410619434435,0.1485779843047726,199
1733108389099474400,-0.0282616333663463,0.1449026841923594,0.1363233641564846,4.823398645848036,-3.912478271655738,7.589316480356454,0.0579330176115036,0.0254867542535066,-0.0056745982728898,-0.8870174486665263,0.2872420833794024,0.1747699587411131,0.316460917565767,0.950333297252655,0.0466724708676338,0.114125981926918,-0.0722647905349731,0.0869462490081787,0.117899015545845,-0.0465787053108215,0.0745163634419441,-0.0196002062712796,-0.0130516150966286,0.1217756737681105,0.1079772034449968,200
1733108389139224000,0.0030471126109361,0.2696244578823447,-0.2339139698147773,4.832940965697169,-3.896540405550599,7.591445309078693,0.0283617470413446,-0.0588083714246749,0.0143646551296114,-0.8869837326041603,0.2866342558173747,0.1754559985323605,0.3167269839767102,0.4861573576927185,0.5934120416641235,-0.2338822036981582,-0.1006561815738678,0.1045053601264953,0.2217972874641418,-0.0616403333842754,0.0492389388382434,-0.0791793625764083,-0.0667904391884803,0.1307227768036071,0.0785779078182298,201
1733108389178973400,0.4277636402666568,0.1956575966566801,-0.3869260184437036,4.835888709586858,-3.907567995521426,7.583896208873391,-0.052496250718832,-0.0218211505562067,0.0663170143961906,-0.8869929470903808,0.2872005766954413,0.1756266614639651,0.3160930042956644,-0.0245828889310359,0.5001916885375977,-0.2904802858829498,-0.0487662851810455,-0.149113655090332,-0.0180777907371521,-0.0595295540988445,0.0116828000172972,0.0907109839460812,-0.1113322898745536,0.1781414301178418,-0.067223780173622,202
1733108389218724000,0.5949459608063101,-0.0210945182159543,-0.3014654110401868,4.81579986128211,-3.951035673587024,7.574151644450426,-0.1181010901927948,-0.0069942823611199,0.0868035852909088,-0.8869614436701349,0.2890138823338079,0.1740594710859923,0.3153946153459522,0.6430966258049011,0.2929088175296783,-0.3596177101135254,0.0132524371147155,0.1708847284317016,-0.0794432163238525,-0.0396214574575424,-0.0030789151787757,0.3022950119984336,-0.069080613553524,0.0960885213991161,0.1809382029632106,203
1733108389258473500,0.9534177459210156,-0.057272331534326,-0.087865914979577,4.826334699299931,-3.989377386941016,7.547300462403893,-0.1578885465860366,0.0480802357196807,0.0026985460426658,-0.8861280306402795,0.2914684871319081,0.1738990764774727,0.315566666305462,-0.3995735347270965,-0.2706137597560882,-0.4397064447402954,0.0583799481391906,-0.1910380721092224,-0.0510692447423934,-0.064880684018135,0.0515516959130764,0.3080611560434103,0.0091267358511686,0.0812530179121531,0.336318076702021,204
1733108389298223000,0.6012257717281579,0.189717685213685,0.3945645504981279,4.801888824829459,-4.038097578707337,7.536976636788249,-0.0668138340115547,0.0850545912981033,0.0440755039453506,-0.885646694405615,0.2937174411199026,0.1716135204992721,0.316083523470036,1.7902231216430664,0.1753199845552444,-0.2198201119899749,-0.008555918931961,0.0856937766075134,0.0850377082824707,-0.0834686756134033,0.0357318334281444,0.211891322169546,0.0152470525354146,0.1235799375779461,0.356914107343927,205
1733108389337973200,0.6016372751384973,0.4915007839009165,0.0869628286600112,4.824970132948458,-4.0271380855366585,7.528094242152571,0.0311643928289413,-0.1259484589099884,-0.1532309055328369,-0.8848487040373612,0.2939651416181426,0.1725065324013346,0.3175982890060432,1.37206768989563,0.3927793204784393,0.0893059149384498,-0.0349712073802948,-0.1615720391273498,0.1483921706676483,-0.0615589842200279,0.0408182144165039,0.1824174452029168,0.0064298687502741,0.1137335750146303,0.4042889123832807,206
1733108389377723000,-0.0232449742481112,0.7253700377911328,-0.1239145489603281,4.88571861616075,-3.986871249338984,7.510325945749878,0.051506582647562,-0.1198958083987236,-0.0675390139222145,-0.8836586663657827,0.2935802642986196,0.1757571477849032,0.3194799369526498,2.193372964859009,0.3660740852355957,0.1318932622671127,-0.0399105846881866,-0.0731880068778991,-0.0317848026752471,-0.0241930969059467,0.0154329380020499,0.1111620714256539,-0.0204965807497501,0.2044697938666679,0.4639982983388006,207
1733108389417472300,0.0443780709087848,0.7544768898099661,-0.3878910640835761,4.909674076765776,-3.9827582610622048,7.496874343502521,-0.0627887696027755,0.0036476443056017,0.0692106485366821,-0.883221032947249,0.2939788329190659,0.1770373875962106,0.319616808067843,3.974517822265625,0.3208109438419342,0.100256972014904,-0.0188575088977813,-0.118285059928894,-0.0340461730957031,-0.0054152007214725,-0.0257721971720457,-0.012767581488972,-0.0413027107715606,0.333185404699482,0.4891506405781954,208
1733108389457223000,0.1454968506932258,0.8474749069809913,-0.0916752441346645,4.891454529464244,-4.017846817839145,7.490057064703106,-0.0192662570625543,-0.0350574739277362,0.1294358074665069,-0.8834276152496717,0.2952819291119424,0.1758463426432643,0.3184998852177503,3.083066940307617,0.206082746386528,0.1000801995396614,-0.0669313669204711,-0.1840524673461914,0.0504586696624755,0.0225820057094097,-0.0631909668445587,0.289140346871037,-0.0050000338815152,0.1570161514374427,0.4351547368986532,209
1733108389496972300,0.429393287295103,1.0953604112640023,0.1127297226011753,4.892019177609682,-4.028855995370448,7.483772869867086,0.0435982272028923,-0.0428017228841781,0.1213301941752433,-0.884022387164748,0.2954894584062994,0.176407939672976,0.3163395323213534,2.868971109390259,0.3173073530197143,0.171637013554573,-0.1578993797302246,0.0422144532203674,-0.0406644940376281,0.0406704284250736,-0.0380857288837432,0.3169917737349867,-0.0048420373350381,0.2240176123635843,0.2805567342525348,210
1733108389536722000,0.7620555083706975,0.8186509635567665,0.4481120162904262,4.875391283413768,-4.026282637751102,7.495998145189881,0.1609129011631012,0.0132724316790699,0.0896823853254318,-0.8849988978242751,0.2945792970187326,0.1761632610453454,0.3145892417161054,1.2102049589157104,0.0170649401843547,0.1529201120138168,-0.0498674511909484,-0.0439051389694213,0.0522296428680419,0.1177766174077987,-0.0689510256052017,0.3662733987763524,0.1040562391281127,0.2279654001412913,0.2442792234193533,211
1733108389576471300,1.0387307615473866,0.8351137303188443,0.71765434884727,4.89754290946722,-3.9261777111843226,7.5345602232962845,0.4170211553573608,-0.0982168689370155,-0.1500001847743988,-0.8862161045286784,0.289407655795456,0.1791300011742199,0.3142878047415835,1.4903106689453125,0.2152943611145019,0.2049806416034698,-0.0893656313419342,-0.0036459565162658,-0.0062094926834106,0.257028579711914,-0.0966232344508171,0.4570168054210022,0.1961642652750015,0.1774677138410508,0.0637330382813001,212
1733108389616222000,0.6271610079735517,0.1487552679672837,1.5486831479400396,4.969883923056721,-3.683045831169188,7.609587114968895,1.0321470499038696,-0.2657564580440521,-0.2170356959104538,-0.8880745306378187,0.2777270780660403,0.1867798321539294,0.3151264523596597,1.271212458610535,0.073348082602024,0.2450020313262939,-0.0531953275203704,-0.0491756200790405,-0.0302813053131103,0.3312874734401703,-0.1483578830957412,0.7676515017468482,0.2530674636363983,0.1526871549229603,0.0911578691970557,213
1733108389655971300,1.3633283341109752,0.6785758456513286,0.8791028019100428,5.134984468886256,-3.212089822646975,7.71263949316442,1.35200834274292,-0.4692945182323456,-0.64520663022995,-0.890570827427333,0.2560253767654744,0.2030168486334464,0.316415713490613,0.8188535571098328,0.0696093142032623,0.4269986748695373,-0.0680145025253295,-0.0113687217235565,0.0149313807487487,0.3546207547187805,-0.0948224440217018,0.757949899682775,0.302127867937088,-0.0974550331125035,0.3061014368103817,214
1733108389695717600,0.7867430826425552,0.776344145964086,0.2722375629901886,5.349146859526634,-2.782984412382543,7.733822566446661,1.293984293937683,-0.6839730739593506,-0.8727859258651733,-0.8896408637671127,0.2389546229308505,0.2204211045677692,0.3207092503680332,-0.0469198897480964,-0.0776817053556442,0.4296171367168426,-0.0478992462158203,-0.0760613977909088,-0.025911808013916,0.3117907345294952,0.0407080985605716,0.6131903502881526,0.3054668605327606,-0.3568584316339344,0.3770163996521383,215
1733108389735468000,0.7589397144377231,0.5410965894579887,0.602809241527319,5.632231979745626,-2.170949369609356,7.72886348273456,1.544169783592224,-0.6102409958839417,-0.9127957224845886,-0.8872959313788812,0.2148000735245428,0.2445374583971494,0.32675410823853,-1.010890007019043,-0.0644120797514915,0.5792765617370605,-0.0347709953784942,-0.1790463626384735,0.0969840288162231,0.2088677734136581,0.0766710117459297,0.3366811743933707,0.3382673561573028,-0.5459394263792783,0.3650925914939493,216
1733108389775217400,-0.5066945536404848,0.0464550233133137,0.997942531824112,5.773489293172955,-1.389901283738017,7.80419023413658,2.1700310707092285,-0.1821435540914535,-0.4842888414859772,-0.8877315288359355,0.1787125582785785,0.2648751986361232,0.3314146816720563,-1.1853435039520264,0.0173583123832941,0.705258846282959,0.0023517906665802,-0.1392044425010681,0.1456466913223266,0.1822680830955505,0.0268978308886289,-0.0916452417220454,0.3550794422626495,-0.5691684358732775,0.3899849310902878,217
1733108389814966800,0.4624783952951431,-0.7073839339192957,-1.2761924869716166,6.058129241618514,-0.7925833331033587,7.67080584604144,1.3202455043792725,-1.2538816928863523,-0.3298665583133697,-0.8872208097964078,0.1519863744664115,0.2929127517072503,0.3223996553399957,-0.806104302406311,0.1648747026920318,0.9167499542236328,0.0844825804233551,-0.0582075715065002,0.1144554018974304,0.1697514653205871,0.0039006159640848,-0.1334903052881825,0.3236899375915527,-0.662479501048848,0.5555760734483599,218
1733108389854717000,0.4676549211502075,0.66026562439166,0.9604197336375712,6.359411112785339,-0.2382875452565029,7.461333659043908,1.3987890481948853,-0.5234447121620178,-0.918371856212616,-0.8806496119859362,0.1314188889458649,0.3198545501171214,0.3238494186273276,-0.9757865071296692,0.3690626323223114,1.5210009813308716,0.1633108109235763,-0.2195244431495666,0.1493574976921081,0.0706384479999542,-0.0574954263865947,-0.2574760654543526,0.3002759218215942,-0.4527568464215845,0.5742986383685842,219
1733108389894466300,0.11206804382205,0.4957693645982071,0.7510673736274242,6.41871553466916,0.5199706897230818,7.395952547594905,1.80487060546875,0.094734638929367,-1.2140052318572998,-0.8759354779502231,0.0971771023278559,0.3368500970674552,0.3313996339279285,-1.3470258712768557,0.3117500841617584,2.3754234313964844,0.2128174901008606,-0.3440242409706116,0.2032338380813598,0.0166299697011709,-0.1344342678785324,-0.1323360024202149,0.2627289593219757,-0.4073453773444518,0.3750714030642062,220
1733108389934215700,-0.1988391493022441,0.5097250073775649,-0.1138642795890569,6.328743587321043,1.3929171244278549,7.360514154466986,1.6824328899383545,0.114399679005146,-1.44341242313385,-0.8707116465817457,0.0555278899041326,0.3487619298970883,0.342261519781887,-1.1896320581436155,0.4923340976238251,3.070487260818481,0.2560780942440033,-0.1106700897216796,0.1307587623596191,-0.0262749381363391,-0.2117466628551483,-0.0867305634072516,0.2205420285463333,-0.419471283946,0.2789594185911119,221
1733108389973965000,-0.4711351644814014,0.6080446579627692,0.3453261800765991,6.011916356498003,2.209631420833617,7.425953133583069,1.2954658269882202,1.5279629230499268,-1.5953962802886963,-0.8660408350041596,0.0140560156904292,0.3481152041577329,0.3585966179773165,-1.3341526985168457,0.743796706199646,3.830030679702759,0.2176959067583084,-0.3190280795097351,0.2621294856071472,-0.0850056782364845,-0.1256261616945266,0.0097109863803489,0.0204488299787044,-0.4646641418363899,-0.1486125076288822,222
1733108390013714400,-1.7795242861807343,-0.1958060652166605,0.3980366105228662,5.165673037138581,2.861001133520901,7.829487757000327,1.034062147140503,3.2593090534210205,-0.7791721224784851,-0.8720941514783309,-0.0324120977980613,0.3158428152107016,0.372349973069329,-0.9535083770751952,0.8520234227180481,4.055593013763428,0.338550329208374,-0.0084686875343322,0.0241665840148925,-0.013979498296976,-0.1608646363019943,0.0235370068640913,-0.0007711298530921,-0.5338683552375063,0.1205106314015109,223
1733108390053463800,0.0417009606540203,-0.4002314902186393,-1.9056576802343128,4.11732630598396,3.1670304914757605,8.317927692025899,0.1937683522701263,2.1855742931365967,-0.2932760417461395,-0.88549743105012,-0.0697333032617866,0.2665351160587006,0.3741531528595287,-1.444467544555664,1.2847820520401,4.771131992340088,0.1959843933582306,-0.2554771900177002,0.1894333958625793,0.053978968411684,-0.0396629981696605,0.0764114002669928,0.1224998831748962,-0.7308714116863906,0.4338285297961905,224
1733108390093213400,-0.1430056183993816,0.4107639901489019,-1.55099493201375,3.676996906393766,3.145672938409448,8.529643274036049,-0.2930246889591217,0.6628826260566711,-0.0693574622273445,-0.8908338145705579,-0.0774455425878418,0.2431283616440812,0.3759066614003595,-1.9556463956832888,1.4389744997024536,4.437115669250488,0.2764610946178436,0.0006937980651855,0.0311416387557983,0.0849172994494438,-0.0260270480066537,-0.3577054403847083,0.1600861549377441,-0.5742601695217192,0.5563826405908913,225
1733108390132963600,-0.9175760326892136,0.0415083606913685,-1.418085175693035,3.473685287852585,2.984014057466388,8.671767433425783,-0.7503202557563782,0.7597302198410034,0.1288187205791473,-0.8944501469086461,-0.0735790641404645,0.2290175124067861,0.3769561962336007,-2.638721227645874,1.195950269699097,4.810863018035889,0.2478623390197754,0.0365737676620483,-0.027267575263977,0.0606125891208648,-0.033946469426155,-0.3314122575471177,0.1206491887569427,-0.5947451044719666,0.4407105443948879,226
1733108390172713000,1.3081632039889692,0.6107575701832771,-0.2541939567774534,2.974165740408003,2.672142110963166,8.954573152181506,-1.0978549718856812,2.166449785232544,-0.9194580912590028,-0.8986696434970697,-0.0668146726547832,0.197432576218983,0.3859393818306158,-3.3004186153411865,1.2846633195877075,4.827181339263916,0.1867873072624206,-0.0152826309204101,0.036234438419342,0.0724798887968063,-0.0160780698060989,-0.212753236228507,0.0514196828007698,-0.7228828240852803,0.2517154013020917,227
1733108390212462300,-0.2579169228233396,0.3309463570684194,0.2972866640508175,2.0228926053002474,2.3638772490412,9.30002032828927,-1.0186121463775637,2.04131817817688,-0.7662742137908936,-0.9005363218010575,-0.068643064355017,0.1453240011711094,0.4039843496722773,-3.880007028579712,0.8504882454872131,4.810910224914551,0.3523760437965393,0.1667894124984741,0.0154529511928558,0.100634217262268,-0.0099321883171796,-0.1971289843834936,0.1733814477920532,-0.8173626773118973,0.4876647859346121,228
1733108390252212700,-0.5679230754546821,0.3399028398536145,0.8552963943868875,1.34648738168627,2.182089187783003,9.465507827609777,-0.1365694105625152,1.2370182275772097,-0.5606761574745178,-0.9005171589079946,-0.0730125172729204,0.1098297400062491,0.4143373478216283,-3.6043875217437744,0.1355292648077011,4.77776575088501,0.4140440225601196,0.3493558168411255,-0.0749113410711288,0.0835252478718757,0.0767875835299491,0.1363027871593367,0.2315130829811096,-1.0349579650104046,0.0826487557200249,229
1733108390291962000,-0.0641207361243665,-0.9891456235148012,0.921663594263792,0.9899285905860364,2.290693647147715,9.48383609598279,0.5327214598655701,0.5161511301994324,-0.2933410406112671,-0.8982114127485256,-0.0850852746332374,0.0960178170473876,0.4204251489677892,-3.271629571914673,-0.5600302219390869,3.651087284088135,0.3752689957618713,0.5098776817321777,-0.0071579813957214,-0.0057189879007637,0.2224590331315994,0.7788229571677744,0.2915030717849731,-1.303953331208974,0.1399592912397347,230
1733108390331711500,0.2206155123025178,0.1008469771057367,1.0024860204726458,0.8026064222067594,2.5490850556150075,9.435484445267916,0.6851524114608765,0.3349383771419525,-0.5415781140327454,-0.8945823991043178,-0.100773412175324,0.0936423122676808,0.4252036671969588,-2.769798755645752,-0.4958740174770355,2.527622938156128,0.2205107808113098,0.693272590637207,0.0001717954874038,-0.1233419552445411,0.2169233411550521,0.4390970082510262,0.3681035041809082,-0.8027274913031608,-0.160818831656035,231
1733108390371462000,-0.1230354645708575,-0.3682186876252293,1.224130291301012,0.5794300829729065,2.8477137819245457,9.36617183958888,0.8764133453369141,0.5239472985267639,-0.6721072196960449,-0.8882305539408923,-0.1188035099619488,0.091344790654564,0.4342676506665225,-2.492410182952881,-0.2900993525981903,1.3336780071258545,0.1257106065750122,0.7044418454170227,0.0250236392021179,-0.2094865441322326,0.2664225399494171,1.1272337323214858,0.2163448184728622,-0.6585484452102333,-0.7752495556604116,232
1733108390411211300,-0.6272973477043211,0.0144604870289564,0.6870990515857934,0.2490134306007064,3.200503429749608,9.266345437702537,0.8336485624313354,0.9172298908233644,-0.5078612565994263,-0.881672540954882,-0.1421803315636469,0.0856307679476266,0.4417076865644585,-0.937472403049469,0.0927419662475586,0.3974867165088653,0.0444138050079345,0.7722511291503906,-0.0516003221273422,-0.2007715255022049,0.1790428608655929,0.9017907267972828,0.1858632415533065,0.0339846095564542,-0.8064184547755867,233
1733108390450960600,0.048512723028101,-0.1513926307335495,-0.2738151875704527,-0.1505655961917247,3.4274086898460983,9.186979055520892,0.4608587324619293,0.6699689030647278,-0.4348984956741333,-0.8772875380132341,-0.1618411285731014,0.0734974126689448,0.4458389140964161,0.6626487374305725,0.2478210777044296,-0.3912995755672455,-0.0103585720062255,0.7941532731056213,0.0143878459930419,-0.1654620468616485,0.070918969810009,-0.5942907117679714,0.3103050887584686,0.9091363403197378,-0.2659604554820806,234
1733108390490711000,0.3030095169433392,-0.9518702242180704,0.1654343078285455,-0.262756910200417,3.610481530217826,9.1140424141258,0.6604083776473999,-0.2167156487703323,-0.310350239276886,-0.8725182026468078,-0.1727586751041341,0.0739432825198186,0.4509975215168124,1.3565797805786133,0.4155458807945251,-1.196638822555542,-0.194616436958313,0.6193087100982666,0.0412158519029617,-0.1770448684692382,-0.0586178340017795,-0.913333061357215,0.344810277223587,1.0490278452865778,0.1299219726815819,235
1733108390530460400,0.2566708865513094,-1.4921239331111311,0.2120014132142066,-0.2137249308048747,3.922837168584764,8.985324264276027,1.065276265144348,-0.205863744020462,-0.145775556564331,-0.8667623897632754,-0.186109811332002,0.0850828540230297,0.4548043743875792,1.9142206907272337,0.6536378860473633,-1.788083553314209,-0.2120161652565002,0.4844810366630554,0.0284659340977668,-0.284941166639328,0.0055926633067429,-0.7609006392471492,0.249158889055252,0.9818047592326998,-0.0621838497776538,236
