time_imu,phone_acc_x,phone_acc_y,phone_acc_z,phone_gravity_x,phone_gravity_y,phone_gravity_z,phone_gyro_x,phone_gyro_y,phone_gyro_z,phone_ori_w,phone_ori_x,phone_ori_y,phone_ori_z,watch_gyro_x,watch_gyro_y,watch_gyro_z,watch_acc_x,watch_acc_y,watch_acc_z,headphone_gyro_x,headphone_gyro_y,headphone_gyro_z,headphone_acc_x,headphone_acc_y,headphone_acc_z,frame_imu
1733108761664928800,-1.0252742639292032,18.992927044731378,-3.655402329701185,-0.2797152236607856,9.532788635200262,-2.284312275547534,0.0726832300424575,-1.172176957130432,0.2308375239372253,0.3063504769352821,0.3682134423485702,0.6934597123958701,0.538220996990089,-0.1675666868686676,1.7977010011672974,-0.1491744220256805,-1.8616759777069087,0.9777907729148864,-0.9262638688087464,-0.0744556561112403,0.0496751405298709,0.9700094728250056,-0.2865833640098572,-0.1909979708151891,0.010105429058033,0
1733108761704629000,-0.7658261129505932,12.950767525660993,-7.945605952996015,-0.1679123701135627,9.613535658085343,-1.929278648187965,-1.8548799753189087,-0.6272122263908386,0.7119835615158081,0.3219823682651499,0.3813115576095826,0.6730284786768042,0.5458584999369067,1.0835202932357788,1.369070053100586,-1.0308979749679563,-1.0967519283294678,1.0759336948394775,-0.2556013166904449,0.0256115086376667,0.042354080826044,0.4987302967630326,-0.6080489158630371,0.0970254369230475,-0.3510071848550811,1
1733108761744329000,0.4522914208669215,-1.1032540871232748,-7.567269483721255,0.0904440675050485,9.759190914210675,-0.9593800883915274,-2.8760299682617188,0.1562595814466476,0.5628353953361511,0.3352486999578785,0.375753392517964,0.6385328180134289,0.5819738833100846,2.87949275970459,1.0537611246109009,-1.856873869895935,-0.0661131143569946,0.5844582319259644,0.5042625665664673,0.109644316136837,-0.0068837627768516,0.6011620223095641,-0.3043374717235565,-0.0261914988616714,1.1197128352973609,2
1733108761784029200,0.8163941976059228,-10.47896473942995,-5.192955596339703,0.2173022047697566,9.803201905372738,0.1428357965241186,-2.767759323120117,0.242462158203125,0.0825089439749717,0.3492379078638139,0.3576604095934871,0.6039838015040377,0.620737892059303,2.7258572578430176,0.97189199924469,-1.987643361091613,0.9137386679649352,-0.1153951585292816,0.8937344551086426,0.1145927235484123,0.1219099313020706,0.1668494718560949,0.4904937148094177,0.0754094110170612,1.5191682996422051,3
1733108761823729400,0.2437000718245282,-15.568132629036905,-2.046793120847642,0.2137420828690752,9.733311207544803,1.177847775010392,-2.299100637435913,0.0065969033166766,-0.0072159795090556,0.3655252279937311,0.336597205610551,0.5715319728322058,0.6530273105496975,1.3623372316360474,0.5416262149810791,-1.4328281879425049,1.3871634006500244,-0.5154221653938293,0.9180760979652404,0.1313533931970596,0.1634133160114288,-0.5904212133908644,0.5963200330734253,0.1786488133843988,-0.1404726293230429,4
1733108761863429600,0.9437371866449712,-17.0808004607439,-0.4854880994826555,0.1710629248326644,9.616578094521165,1.9137790273696185,-1.6948243379592896,-0.0660016164183616,-0.2469022721052169,0.3885568599176049,0.3285635121515348,0.5426513084180389,0.6682807507224763,0.8296095132827759,0.7251602411270142,-0.9883121848106384,1.37518310546875,-0.6271362900733948,0.8454544544219971,0.1397618353366851,0.140178307890892,-0.9120528853535652,0.2351981252431869,0.2651043866420164,-0.7601288511570543,5
1733108761903129900,0.4818186902549117,-15.605757134032247,2.738077349163592,0.0586723619248252,9.505182250872254,2.412149989300966,-0.6301660537719727,0.2692133486270904,-0.3083943724632263,0.4003248483929548,0.3146848450667175,0.5272456992364286,0.6802393435912418,0.1798445433378219,0.7284646034240723,0.034829556941986,1.3722586631774902,-0.6614269614219666,0.7523526549339294,0.0796199664473533,0.0793652608990669,-0.6017777795877307,-0.1414226442575454,0.240199260629341,-0.5916293836042285,6
1733108761942829800,0.8589040634900331,-11.536128691029548,4.1218128037482495,-0.1367530425443314,9.54879226001799,2.2298547091729937,1.5354551076889038,0.7794347405433655,-0.556022584438324,0.3966766346173822,0.307016207727557,0.540416593498471,0.6755284110663762,-0.5767118334770203,0.7628552913665771,1.306219458580017,1.092298984527588,-0.4624025821685791,0.8971248269081116,0.1292966604232788,0.0172724071890115,-0.481140900591202,-0.3324237167835235,0.2172681381033733,-0.0257391360012697,7
1733108761982530000,-0.443841134038195,-1.5216291367977857,2.5896026517033577,-0.3520811342295259,9.71039678042531,1.324617641314119,2.8466222286224365,0.5350790023803711,-0.1067585945129394,0.3802294510155731,0.3111236922692154,0.5793663300213983,0.6503554861881502,-2.2659006118774414,-0.1643879413604736,2.0604894161224365,0.5986587405204773,-0.2120673060417175,0.2113619446754455,0.204508900642395,-0.098205916583538,0.2352882355763576,0.2070855647325515,-0.2595675395745784,1.8057492991529405,8
1733108762022231000,-1.2080251058049498,9.678022451043129,0.79947221583426,-0.3022674116054549,9.798209503912926,0.2722318821680732,2.573972463607788,-0.0273551475256681,0.3530248403549194,0.35818555107724,0.3295884420129517,0.6144033655270003,0.6209533847701616,-3.078660249710083,-1.5312970876693726,0.980315625667572,-0.9638938307762146,0.4760308861732483,-0.3812819421291351,0.0798677951097488,0.0013032970018684,0.8631913123551755,0.6448370814323425,-0.5380703369719907,0.5452242273146286,9
1733108762061931300,-1.014781438422203,10.893411802005769,-2.359402733975649,-0.1523919348360504,9.787403447738289,-0.5948920021293684,1.5596576929092407,0.132802203297615,0.1823871880769729,0.3383572247012642,0.3496419690878772,0.638812605648194,0.59597260177529,-1.07127583026886,-1.1160200834274292,0.9605538845062256,-0.9613062143325806,0.5987107753753662,-0.5502301454544067,0.0866320133209228,0.1618233919143676,-0.0278827421675319,0.1260464191436767,-0.4377373738029971,-1.1498667852163311,10
1733108762101631500,0.2556270948531106,7.641364062979817,-2.15006776349172,-0.1378620997647754,9.756550628834962,-0.9803507610321044,0.5887404084205627,0.127545952796936,-0.039123747497797,0.3289384679503675,0.3544752014140213,0.6514071775884572,0.5846498350224554,-0.6006507277488708,-0.642416775226593,0.2778111100196838,-0.713379979133606,0.4442574977874756,-0.4678955078125,0.0822750553488731,0.0004742362070828,-0.2630035967041738,-0.150915265083313,0.1263869943553116,-0.1741404325818643,11
1733108762141331700,0.4019395362455397,3.6545156099945295,-2.32787698424682,-0.1200222542295232,9.747924839308858,-1.0648563327331095,-0.1703809201717376,-0.0122690852731466,0.1154760047793388,0.3264531952524891,0.3560306539159049,0.6538614049754461,0.5823535432998138,0.1710811406373977,-0.0470751635730266,0.0234456751495599,-0.3553497195243835,0.3211886882781982,-0.3375201523303985,0.0335969701409339,-0.1603230386972427,-0.0065452666289784,-0.1253822594881057,-0.0289077058676746,-0.1359169387800619,12
1733108762181032000,0.5943371081929654,0.7319915017575025,-0.9158755854468792,-0.0697076100457226,9.760746326959133,-0.9451675847742708,-0.3431037962436676,-0.0088559314608573,0.1158441007137298,0.3271568816232357,0.3557378874715624,0.6493386567031587,0.5871781401277811,0.4198653995990753,0.1703987717628479,-0.0958834439516067,-0.0166665315628051,0.1676669120788574,-0.0712735652923584,0.0640138760209083,-0.1027295812964439,-0.0725337916486663,-0.1558869183063507,-0.0632505154613638,-0.1686213951657526,13
1733108762220732000,0.4191157485065981,-1.0090268204182389,-0.4204431611854582,-0.0471167797242524,9.77390099208653,-0.7994024385336786,-0.3901607394218445,0.0046888520009815,-0.004579144064337,0.3293235751990945,0.3542557578694156,0.6444075101489896,0.592273500860916,0.2697936296463012,0.2235975563526153,-0.070418506860733,0.0834879875183105,-0.0591386556625366,0.0886119306087493,0.0517024360597133,-0.0572220422327518,0.0093625696640781,-0.0862454026937484,-0.0653867329056141,0.0890323466767556,14
1733108762260426000,0.3500536469899117,-1.4904092381477354,1.016077981038764,-0.0655923978458158,9.78137878062129,-0.7004918363180012,-0.0511365085840225,-0.0114259831607341,-0.078698955476284,0.3314800360549638,0.3517711873920554,0.6418505857253243,0.595319859174337,0.0880113020539283,0.0857336968183517,-0.0518872290849685,0.13629812002182,-0.0887115001678466,0.1214349567890167,-0.009285413660109,-0.0069264448247849,-0.0684580027102725,-0.0093304812908172,-0.0266890434375149,0.1493291405987925,15
1733108762300126200,0.3424722154175862,-1.556595236238837,1.4969512071371078,-0.0990118523667566,9.776188810762765,-0.765970928248763,0.3726563155651092,-0.0464249774813652,-0.1097164303064346,0.3317678204449849,0.3522716985763626,0.6441725701626236,0.5923482671941322,-0.2711937129497528,-0.1535936743021011,0.0519014820456504,0.1366406679153442,-0.1235458254814148,0.0960387587547302,-0.0505858436226844,-0.01336947735399,-0.1821219693876802,0.0206085741519927,0.0051340418451407,-0.019313146657939,16
1733108762339826400,0.4033949226856231,-1.2676648971229791,1.412887607049942,-0.1602338713749311,9.757055071225762,-0.9719051503784956,0.6369635462760925,0.0240675564855337,-0.1899093836545944,0.3301140818110394,0.3539782275148244,0.6513469020819049,0.5843555195557208,-0.4609703123569488,-0.3009149432182312,0.2437841147184372,0.1229466199874877,-0.1111009716987609,0.0464454293251037,-0.0292612724006176,-0.023799605667591,-0.1964073373117484,0.0091739781200885,-0.0155420306213898,-0.1370392390745692,17
1733108762379526700,0.3520539539616554,9.23544585704e-05,0.9943383698523044,-0.2190261424855329,9.725753339511156,-1.2377990434303878,0.7274118065834045,0.1052294746041297,-0.1101208627223968,0.3262292819837625,0.3555804192789303,0.6608121896104333,0.5748602833919408,-0.5469821691513062,-0.2977093458175659,0.3573883473873138,0.0364838242530822,-0.0146074891090393,-0.0685942471027374,0.00484075024724,-0.0406947918236255,-0.369123125651665,-0.0032267267815768,0.0949681390670593,-0.0840722309181932,18
1733108762419227000,-0.5997437164768576,5.970894610279798,0.4850678282439708,-0.2353839145031757,9.68434113267064,-1.5259471461273728,0.7552030682563782,0.0161118935793638,0.0491534285247325,0.3206971602148021,0.3589939679131143,0.6700186428470927,0.565112103764664,-0.4331051409244537,0.1577552706003189,0.398781418800354,-0.3037877678871155,0.2245911359786987,-0.3675830066204071,0.0159565117210149,-0.124585784971714,-0.1103348816202022,0.0062854052521288,-0.2039977741744369,0.0554488013350171,19
1733108762459249200,-1.0550308120284229,18.6240002088368,-3.204907802188396,-0.1432670914803165,9.659750881293416,-1.6849493750818072,-0.2059485018253326,-0.9313609004020692,0.5031473636627197,0.3189431230884297,0.3694841924249008,0.6703655276598316,0.558897755930741,0.3175430297851562,1.3581115007400513,-0.4595755040645599,-1.5958740711212158,1.0630040168762207,-1.229877233505249,-0.0757014378905296,-0.0882379487156868,0.9494145016290249,-0.0079797720536589,-0.1652081891887821,-0.121248188428441,20
1733108762498961400,-0.697068730001524,14.62506150508523,-5.280569582384825,0.0916349943226668,9.721574592521788,-1.2856778159365057,-1.7817455530166626,-0.8977963924407959,0.651822030544281,0.3304583976861142,0.3831529764193353,0.6471051852518107,0.5703033532301122,1.310634970664978,1.1002039909362793,-0.7469597458839417,-1.2074226140975952,1.0098483562469482,-0.5793807506561279,-0.0435071513056755,0.0822223424911499,1.2138764621816576,-0.4543842375278473,-0.2679660779497586,-0.6479107313398271,21
1733108762538673400,0.8220494468886405,1.4669552973240614,-5.183051457440853,0.1622666375778615,9.795219089925288,-0.4446689631644636,-2.316962242126465,-0.3507254421710968,-0.026611378416419,0.3510337370570269,0.3775922936998192,0.6165191533885098,0.5950659539608962,1.817151427268982,0.5595285296440125,-1.299514889717102,-0.340596854686737,0.4143308401107788,0.4757536351680755,-0.0272939577698707,0.1691327542066574,0.5331757333308458,-0.4266934394836426,-0.1888717359088361,0.4686274559767917,22
1733108762578385400,1.59939641321972,-10.780945114254951,-4.339655344206094,0.0849245551649015,9.7978254730314,0.4071793365951627,-2.166675806045532,-0.1430500596761703,-0.4001716375350952,0.3732300567753964,0.3631639010475716,0.5893654326427175,0.6176242754424417,2.3985517024993896,0.5453136563301086,-1.9330979585647583,0.6694262623786926,-0.0500476360321044,0.8103581070899963,-0.0030149584636092,0.1447411030530929,-0.2541724938643164,0.2590134143829345,0.1275989456946495,1.1248196569170803,23
1733108762618097400,-0.4758772809745744,-17.88799713335037,-2.723805954965949,-0.0852636965919285,9.720027947601675,1.297759006613493,-2.2563180923461914,0.5591462850570679,-0.2154337912797927,0.3916931812798163,0.3379279897365682,0.5653648180182609,0.6424513857185408,2.1535966396331787,-0.0506595149636268,-1.2436221837997437,1.5675349235534668,-0.5554641485214233,1.0476140975952148,0.0696131289005279,0.0385536327958107,-0.917171324345842,0.3665480315685272,0.1240312798083294,-0.5119212387802079,24
1733108762657809400,0.2702719985382631,-19.8383830131054,-1.6195204789683222,-0.1019299317705444,9.612899698269366,1.9370517664074896,-0.9416844844818116,-0.3049734830856323,0.1057334020733833,0.4010848985529632,0.3225675958155941,0.5451495119480498,0.6617349640794341,1.1296579837799072,0.1921699047088623,-0.773510217666626,1.510143756866455,-0.5486503839492798,1.1234490871429443,0.0153526095673441,0.1036170274019241,-1.1118396907694637,0.0308634508401155,-0.2988156089174561,-0.6454149690013379,25
1733108762697521400,0.0665339347459375,-16.49401647134423,-0.3093617172479629,-0.0156572008416114,9.569685994964836,2.1427219307735563,-0.2754423916339874,-0.1660618036985397,0.1805320382118225,0.4062351186559146,0.3244611267694355,0.5343000712372276,0.6664994352275007,-0.6606967449188232,0.6523483395576477,0.235130101442337,1.4545289278030396,-0.6528814435005188,0.97549569606781,-0.1175917834043502,0.1395609527826309,-0.761550043066591,-0.0213303100317716,-0.0023933562725404,0.1761890174084343,26
1733108762737233400,0.063821565948124,-8.245615904530883,3.727617086562514,0.0445159313097828,9.590708324727416,2.046149562247097,1.0647331476211548,0.4956272542476654,0.2947826087474823,0.399052640535984,0.3253995448308991,0.5383219660557776,0.667144396524297,-0.96848863363266,0.2542849481105804,1.1980239152908323,1.012538194656372,-0.3859916925430298,0.683596670627594,-0.102184809744358,-0.0142073249444365,-0.4629873311979696,0.1216414049267768,0.1586285916027613,0.2908629876788705,27
1733108762776945400,0.7115698413018137,4.754820199662447,3.449095328736305,0.1138310988386627,9.710198627504706,1.3672903696097434,2.206550359725952,0.0434421561658382,0.0306448601186275,0.3816876401122646,0.3383216638746812,0.5619840223580077,0.6511735709015978,-2.299175977706909,-0.9764435291290284,1.7323939800262451,0.1966065764427185,-0.1372535824775695,0.1214429140090942,-0.0438358224928379,-0.1368961483240127,0.3442487235708162,0.5021679401397705,-0.1489126778855454,1.1163491310179232,28
1733108762816657400,0.2206633152333088,10.03608068692088,2.885101847815513,0.0166617816241399,9.798084416228532,0.4094689819023013,2.656914472579956,-0.1324668675661087,-0.3001419007778168,0.3694690366531475,0.3553617755397055,0.5940041252189234,0.6199756460551361,-2.778511047363281,-0.684359073638916,1.233867049217224,-1.3113784790039062,0.6568480134010315,-0.4067531228065491,-0.1814905256032943,0.1306472569704055,1.16515079052262,0.4291003942489624,-0.5553142076417803,-0.7302035954274236,29
1733108762856369400,-0.352109227812849,9.800305014887453,-1.414787303191423,-0.058346874563815,9.795039641705154,-0.4734893994573503,1.7038761377334597,0.1952795833349228,-0.2481237947940826,0.3543517202444869,0.3681877842814314,0.6233610479404826,0.5918561295146665,-1.6284024715423584,-1.103981614112854,0.5803307294845581,-0.7829930186271667,0.5067103505134583,-0.5009797215461731,-0.1586745977401733,0.1031382083892822,-0.081979916547751,-0.0090102227404713,-0.1889898641294799,-0.6400923126738518,30
1733108762896082400,0.5364253827765584,4.738336682373285,-2.0729718104600905,-0.1816346425284631,9.758105457061529,-0.9574894523393362,0.8797956705093384,-0.0228134524077177,-0.3402464985847473,0.3482044068989917,0.3721803801306725,0.6405467509111062,0.5744000054762686,-0.9232346415519714,-0.4973843395709991,0.307402640581131,-0.5370869636535645,0.3731257319450378,-0.4086799919605255,-0.1616164743900299,-0.0001783123007044,-0.2533137946757487,-0.0356849916279315,0.2897639403957873,-0.1128603449772112,31
1733108762935794400,0.494289830097556,1.5963000546395778,-2.366718609946966,-0.2710307810163125,9.736054953294992,-1.1428818947650492,0.0912489965558052,0.0752877742052078,-0.1242616847157478,0.3469969543248274,0.3722105756212531,0.6478657628162382,0.5668531110525871,-0.2006596475839615,-0.1450506746768951,0.0646525025367736,-0.115755558013916,0.2777185440063476,-0.209922581911087,-0.0165686439722776,-0.2769858539104461,-0.3440890029644593,0.0352669395506382,0.2562640410497784,-0.1917856505941599,32
1733108762975506400,-0.1704685208697803,-0.1577653806358575,-0.9490870232403278,-0.2715611067670397,9.739510062184928,-1.112918718177825,-0.1347896605730056,0.0756857991218566,0.0808645784854888,0.3468447190089224,0.370815632349422,0.647486548260088,0.5682919186485931,0.0543843619525432,-0.0422048792243003,0.0498709566891193,0.002267837524414,0.0953335762023925,-0.0385699570178985,0.0278732478618621,-0.1754059940576553,0.0910631583846174,0.077533945441246,-0.0966348027708008,-0.0486120689164614,33
1733108763015218400,0.2018467336203903,-0.8134101402938365,0.0981201824903488,-0.2347671525780111,9.744680158299207,-1.075403007319197,-0.0431471168994903,0.1368253231048584,0.0755200460553169,0.3452301698301787,0.3699490366870361,0.64650445118748,0.5709517442116688,0.1517889350652694,0.0783517286181449,0.064562015235424,0.052375853061676,0.0114761590957641,0.0682159662246704,0.0297802723944187,-0.1009145081043243,-0.0454097520440816,0.0465035811066627,0.0671362023548688,-0.1807893873433582,34
1733108763054930400,0.2567081863543949,-0.910954568722844,0.7681799095351248,-0.2025391728639602,9.741816585561631,-1.107408503388986,0.2269085645675659,0.0393821746110916,0.076292797923088,0.3427567720155806,0.3705405438897968,0.6474270808985639,0.5710127964263036,-0.0821319371461868,-0.034540731459856,0.1446847468614578,0.0832678079605102,-0.0767398476600647,0.062309592962265,0.0261041689664125,-0.105871133506298,-0.1014685156707186,-0.000534591730684,0.0834083327825181,-0.1464616406047716,35
1733108763094642400,0.4942199066665023,-0.9121990158259868,0.7354863581359387,-0.1928498457595706,9.72749989091754,-1.2283918942682444,0.349122941493988,0.0940597429871559,-0.0669022500514984,0.3395039269508278,0.37222863240658,0.6512114867453827,0.5675443348605138,-0.1691920012235641,-0.1497245877981186,0.2150128483772277,0.083778440952301,-0.0698247551918029,0.0590956807136535,-0.0021847710013389,-0.0619632229208946,-0.0766058085942408,-0.0446348786354064,0.024689183990343,-0.2303153790672309,36
1733108763134354700,0.1675188590176403,-0.6324877559542655,1.1756899393893778,-0.239793803367298,9.703219436141849,-1.400146345029026,0.6082756519317627,0.1621559709310531,-0.2143396288156509,0.3360184172121397,0.3718223933645495,0.6581304608486525,0.5618754483542685,-0.2663044333457947,-0.2198700010776519,0.3751023113727569,0.0756980180740356,-0.0961203575134277,0.0729020833969116,-0.0233046803623437,-0.050257172435522,-0.3243329668106511,-0.0903625562787056,0.1432369977361522,-0.3036554318977519,37
1733108763174066400,-0.8904821279279888,3.282841521218419,0.448371544009447,-0.3081151147203519,9.655424250265956,-1.6876706167392432,0.7994731068611145,-0.0797323957085609,-0.0404321812093257,0.3320756236607551,0.3740048866193859,0.667957785095495,0.5510703361856122,-0.4112480282783508,0.0874045640230178,0.5830256342887878,-0.1469372510910034,0.0907483696937561,-0.182487666606903,-0.0970404893159866,-0.0139852184802293,-0.1234335422440432,-0.0921526402235031,-0.1981787856973707,-0.3561043618636205,38
1733108763213778400,-2.215592375064641,14.966958879756929,-2.306875258880853,-0.2567201873194426,9.61445978719294,-1.914850894384831,0.1149010360240936,-0.2971001863479614,0.3761698007583618,0.3286567603211677,0.3827485388864808,0.6716649296435154,0.5425445468579773,-0.1248402521014213,0.9678428173065186,0.1039495095610618,-0.944265067577362,0.76981121301651,-0.7993083000183105,-0.0110674714669585,-0.0432264879345893,0.2169630907421931,-0.121660515666008,-0.3691461412010714,0.1686077867655083,39
1733108763253493500,-1.6313365889683364,17.499840696328878,-7.955790662401914,-0.0477470906841568,9.65968424579799,-1.690746370922774,-1.7535994052886963,-0.6207001209259033,1.1140638589859009,0.330602652288825,0.3902423194161521,0.658722253009053,0.5518132943594418,1.979700326919556,1.2072590589523315,-0.4547213017940521,-1.2698383331298828,1.3339388370513916,-1.0362484455108645,-0.0678563863039016,-0.08563282340765,0.4980103849906474,-0.233589693903923,0.4353114618303254,-0.3682635131476446,40
1733108763293205500,1.9645795325413344,10.503285526216027,-8.092566446501015,0.2391336954907514,9.785926945444942,-0.5906046436663717,-3.5437419414520264,-0.242818996310234,0.4726350307464599,0.3489678467068919,0.3858558661092096,0.617436399797785,0.5900075546141001,2.998576164245605,0.5032972693443298,-1.6015563011169434,-0.6834593415260315,0.91863614320755,0.0581243932247161,0.0642129331827163,-0.1781380921602249,0.9151250593405216,-0.2685489356517792,0.0776407365659717,0.3996236239859834,41
1733108763332917500,0.7703074961483478,-4.387876646539569,-4.332891841420531,0.3937235696293413,9.771238494879007,0.7336584851216524,-3.0999433994293213,-0.342178463935852,0.3716077804565429,0.3728812863084772,0.3692506576941791,0.5711810388560602,0.6311621412163861,3.045772075653076,-0.2433710098266601,-2.380535364151001,0.2972936034202575,0.2537465095520019,0.6731160879135132,0.0974512100219726,0.0599988959729671,0.4714986274989322,0.0976523980498313,-0.1112795420591719,0.876162949065864,42
1733108763372629800,1.4616025381192563,-15.250496419918536,-2.317459781259298,0.4836862011598423,9.611852235043049,1.8838100055634968,-2.910998821258545,0.3985185027122497,0.0135776745155453,0.3918178915706797,0.3496745244906719,0.5307354772457475,0.6652265803003028,2.4228878021240234,-0.8629848957061768,-2.00158953666687,1.428888916969299,-0.5334155559539795,1.0198471546173096,0.069040760397911,0.1837667226791381,-0.8135294558245688,0.1019149348139762,0.2267383425643667,-0.5596751062650234,43
1733108763412341500,0.9509676493551582,-18.534366115140912,0.863777514745295,0.2416441804743371,9.416049092435836,2.729469972077012,-1.1642941236495972,0.3872250914573669,-0.8788530826568604,0.4068958792002937,0.3188903766194653,0.5090625571679447,0.6881859633778842,0.3621941208839416,-0.8006869554519653,-1.020088791847229,1.7604151964187622,-0.7848178744316101,1.1440470218658447,0.0863805636763572,0.0208445619791746,-1.268064856225997,-0.0670944675803184,0.102483601864241,-0.4094659496949985,44
1733108763452054500,-1.0621232545074075,-19.672217468392848,0.4691390222281217,-0.0231981691144523,9.427429149106144,2.7006340459540485,1.0617568492889404,-0.6225781440734863,-0.5026868581771851,0.4197375284039096,0.3151192648063583,0.5128409398927389,0.6793485357352604,-1.2114992141723633,0.0405426211655139,-0.0546616427600383,1.484398603439331,-0.730044960975647,0.9269587993621826,-0.0380135402083396,0.0487512648105621,-0.7591241310939192,-0.0866703540086746,-0.1808099734736606,0.0109076408274995,45
1733108763492012300,-0.418009431232512,-14.127553881984948,0.1674669826999306,-0.1028788939252961,9.552831890797616,2.214314610213786,1.4512443542480469,0.2825199365615845,-0.1577907055616378,0.4182155696467873,0.3266840357926967,0.5295081797660218,0.6618113447373415,-1.5654700994491575,0.1783250421285629,1.1959412097930908,1.2911031246185305,-0.4064604043960571,0.7254984974861145,-0.1335162818431854,0.1112952902913093,-0.3370313760705292,-0.1533517986536026,-0.1689914157882332,-0.157686872039549,46
1733108763531733800,-1.1574695883702486,-2.9858436109811066,1.8234861775040625,-0.1654765030024573,9.691254273059965,1.4908372543014583,2.2385518550872803,0.8558763265609741,0.2257467806339264,0.398180754447496,0.3321051789884504,0.5600844612072865,0.6461142826033187,-1.5948138236999512,-0.7732780575752258,1.9613529443740845,0.6554684638977051,-0.1088848114013671,0.308032751083374,-0.071352370083332,-0.0232680775225162,0.1359302092535886,0.1320268660783767,-0.4965742512403056,1.2455347522489726,47
1733108763571455000,2.172928122336417,10.04149335961938,1.823761487314105,-0.1194513498732354,9.788930218914151,0.5770244831359014,2.430481672286988,0.2713303864002228,-0.1840139478445053,0.373778111423941,0.3451878560429475,0.5928113384086063,0.624267554255334,-2.436955451965332,-0.6902081370353699,0.7048656344413757,-1.4266369342803955,0.3493882417678833,-0.2732442021369934,-0.1517262756824493,-0.0109682381153106,0.6448893376920372,0.3292141556739807,-0.0537682324035093,0.2583931802992709,48
1733108763611176400,-1.4491761872664093,12.503352259463073,-0.390841730582714,-0.1944432524308562,9.801179459634422,-0.2635230722673237,1.7283419370651243,0.2682034075260162,-0.2266364842653274,0.3587621152644577,0.3562746948415997,0.6216946836017299,0.5982087863372143,-1.4049211740493774,-0.9292826056480408,0.9589618444442748,-0.9727203249931335,0.4689515829086303,-0.5581823587417603,-0.1402078568935394,0.1838509440422058,0.6133341426730156,-0.0995698347687721,-0.3830781108438968,-0.6950515449602156,49
1733108763650897700,0.7888211310256272,8.197340241661667,-3.0462627161085605,-0.3224006105085835,9.768300103339552,-0.8042124691639095,0.8844653964042664,0.2811031341552734,-0.3134625256061554,0.349150059379832,0.3580606139647417,0.6424920413401938,0.5805952106378528,-0.3244982361793518,-0.3740161061286926,0.218151181936264,-0.6861856579780579,0.6174588203430176,-0.4751515686511993,-0.0949735566973686,-0.0432588458061218,-0.4182178132861852,-0.2163909971714019,0.52230179955177,-0.0916214772539679,50
1733108763690619000,-0.152848382499814,2.4653251146495343,-3.447694814288616,-0.3898872063368558,9.756475810033082,-0.910798939769715,-0.1988890618085861,0.1552970558404922,-0.1294902712106704,0.3468773614405869,0.355135342500718,0.6483183718986377,0.5772679506924847,0.1348224729299545,-0.087218701839447,0.0264278165996074,-0.2525369524955749,0.2589256167411804,-0.2037120461463928,-0.0488782860338687,-0.1438176184892654,0.0878781077408697,-0.1144314184784889,0.0611694531372981,-0.0003720984151354,51
1733108763730340600,-0.46363695421312,-0.3020446722328663,-1.3245733637809751,-0.4015676707258447,9.76737129805684,-0.7794807634893804,-0.4143775105476379,0.2866676449775696,0.033886719495058,0.3467923915150274,0.3492900395330112,0.6463272598538415,0.5830888353675339,0.4101206362247467,0.1966214478015899,-0.1642830818891525,0.0260905027389526,0.1382744908332824,0.0362446904182434,-0.0216262247413396,-0.0169589929282665,0.1965151816003955,0.0762220025062561,0.0416633868562988,0.2664361284361221,52
1733108763770061800,-0.373747095657885,-1.2162445064872502,-0.0599169277589768,-0.3885067848291247,9.77820833389163,-0.6372444489620626,-0.3477899432182312,0.2059560269117355,0.0102606797590851,0.3461014902089277,0.344096214358174,0.6434968690502774,0.5896806871552249,0.2965775728225708,0.1869328171014785,-0.1155950948596,0.0772563815116882,-0.111048400402069,0.1037510633468627,-0.0451611168682575,0.0001862620702013,0.0521743873408064,0.1911703497171402,0.164413823940698,0.1595571594234555,53
1733108763809783000,-0.1266375076508149,-1.0168126519888638,0.3297287979722023,-0.3933532019469887,9.78557623231113,-0.5080965659255161,-0.3545545935630798,0.2049621343612671,-0.0708187967538833,0.3464236396388003,0.3393957718550515,0.6408714582202096,0.5950504036549783,0.1629792749881744,0.095319740474224,-0.1077087521553039,0.0347246527671813,-0.1257194876670837,0.082292765378952,-0.0704134777188301,0.0167385078966617,-0.0204952987973461,0.0899461880326271,0.115545510674268,-0.1416760137634351,54
1733108763849504500,-0.4835826311875134,-0.7959574857115745,0.7294049923956394,-0.4146921233780682,9.790674432232976,-0.3756615144444629,-0.1837653815746307,0.1348978728055954,0.0126985097303986,0.3464191515818154,0.3332175717056197,0.6388422783961771,0.6006999704530022,0.145730510354042,0.0847143456339836,-0.0028999117203056,-0.0020342469215393,-0.0588389039039611,-0.0087520480155944,-0.0742932185530662,0.0478007197380065,-0.0655771546109113,-0.0073406491428613,0.07291021461247,-0.0508120175129966,55
1733108763889226800,0.6850196149632334,0.287363820451498,0.6867758109807968,-0.4186647533360868,9.790579155164956,-0.3737337247196585,0.0309699717909097,-0.0665320679545402,-0.0720548555254936,0.3462504939191435,0.3327099943614151,0.6390298714730095,0.6008789932652009,-0.0263003632426261,0.0278909560292959,0.0508976057171821,0.0129095315933227,-0.0229234099388122,-0.0222793817520141,-0.0620853826403617,-0.0007086786208674,-0.0689897030007559,-0.0227276440709829,0.0917065343220718,0.0148578317664912,56
1733108763928948200,0.2676246258346363,0.1681570107907056,0.4889923082113265,-0.4118752758590504,9.790524794629215,-0.382599898872897,-0.0553762167692184,0.4890189468860626,0.0204788595438003,0.342714110252137,0.3297079322639138,0.6409366939794662,0.602527978079225,0.1253642588853836,-0.0575283877551555,0.0317438207566738,0.0162933468818664,0.1054663062095642,-0.0245625376701354,-0.0458313934504985,0.005962592549622,-0.0378933736481587,-0.022186866030097,0.0443978076557163,0.0747062174840364,57
1733108763968669400,0.4299925318298861,0.204587337565422,0.1308697749257087,-0.4168243861664086,9.790606043171882,-0.375077905870229,0.0212904512882232,0.4103980660438537,-0.0799243152141571,0.336902475506054,0.3229404862328164,0.6440753780670512,0.6061131039854923,0.1464261412620544,-0.0225283820182085,0.1064324378967285,0.0019035339355468,-0.0082133412361145,0.001216173171997,-0.0211494006216526,0.032194759696722,0.1037778155263978,0.0339434258639812,0.0883248194619081,0.0848579105363227,58
1733108764008390700,-0.5371682735657319,-0.2946732666820287,0.2210216819506138,-0.4048005516998469,9.78723510543406,-0.4653800350207835,0.4347106218338012,0.064845822751522,0.1745124459266662,0.3324071552608983,0.3220680354676006,0.6480740381784734,0.6047956999391779,-0.3605297207832336,0.0631309151649475,0.0969732925295829,-0.0103641748428344,0.0324227809906005,0.0220937132835388,-0.0266493838280439,0.0338824689388275,0.015268291713926,0.0091361608356237,0.0557951990533154,-0.0389189150203252,59
1733108764048112000,0.0172510675955563,-0.5451566785037517,-0.6531996315281838,-0.3135335230398923,9.779890587890147,-0.6525380258142948,0.4225780069828033,-0.0132774170488119,0.2558953464031219,0.326535966329893,0.3283048357360683,0.6522929679959072,0.6000866667979979,-0.4057411551475525,0.157896026968956,0.0654042437672615,0.0084758400917053,-0.0173022747039794,0.0739269852638244,-0.0757363736629486,0.0537186190485954,0.0794430367475841,-0.0581321641802787,-0.0958527764144819,0.0469263945515733,60
1733108764087833300,0.8869034657236188,0.051339726614952,0.167771737800166,-0.2352317196161486,9.774614108791948,-0.7562971640396863,0.1220222488045692,0.6845160126686096,-0.0010390437673777,0.3176535761561311,0.3274675106077071,0.6567537231053783,0.6004464038303863,-0.2951786816120147,0.1126945242285728,0.0526863187551498,0.0908932089805603,0.0634009838104248,0.0726436972618103,-0.1260328888893127,0.0901939496397972,-0.0220372835253598,-0.0474211648106575,-0.0992096764937974,0.1766884182979352,61
1733108764127554800,0.4660585188042372,-0.2883990087181329,1.0562065778095275,-0.1995538917091674,9.770035548830032,-0.8227712583571672,0.3321887552738189,0.5867699980735779,0.0631228759884834,0.3065461091285544,0.3199684800879419,0.6630006258809659,0.6033902008569909,-0.4772659242153168,-0.0523105673491954,0.0781217738986015,0.0183184146881103,-0.0683827996253967,-0.0665230453014373,-0.1042748615145683,0.0673383623361587,-0.0862918249301146,-0.0173557456582784,-0.0141866019910201,-0.0353388851260649,62
1733108764167276000,1.4427508303940295,0.1435989081174135,0.0648478813551366,-0.1929776185913942,9.747747144654392,-1.0557488241046666,0.683971107006073,0.0979987233877182,-0.0825086012482643,0.2982573543384054,0.3190526843352466,0.6723344374591482,0.597674238371988,-0.9862468838691713,-0.1659169793128967,0.1021119207143783,0.0817033648490905,-0.0383849740028381,-0.0468499064445495,-0.0331753343343734,0.0033286623656749,-0.096461565095745,-0.0385503023862838,0.0479604777065105,-0.108123187786946,63
1733108764206997500,1.1925950430914758,0.1535159064978361,-0.5103447467111051,-0.3010541085592471,9.715681442829966,-1.2981757707208397,0.4889550805091858,-0.0335072129964828,-0.4692099392414093,0.2982945178881806,0.3198398518382276,0.6810954516421557,0.5872237325416879,-0.938821017742157,-0.1277313977479934,0.1580206006765365,0.0123007893562316,-0.0296282172203063,0.0101873874664306,-0.0056344787590205,-0.0242872815579175,0.0688856261383509,-0.0107059385627508,0.0066732871976186,0.112001846718043,64
1733108764246716000,-0.8426628305241465,-0.2433463995486497,-0.453091119877249,-0.4295563323697074,9.69101637265086,-1.4387769583269954,0.2821529805660248,0.3885224759578705,-0.2090442031621933,0.2973426288142718,0.3145043369728457,0.6887991211862525,0.5815756454152649,-0.4385744631290436,-0.0623984076082706,0.1694869846105575,-0.0219045877456665,0.0667325854301452,0.0373255610466003,-0.0481491237878799,0.0225479714572429,0.0837705993568059,-0.001938072615303,-0.0852880912476684,0.0944053906177636,65
1733108764287678200,-1.0661210189066828,0.7500619959771633,0.4866771631367504,-0.3587283902242779,9.670104517525434,-1.5908539180628951,0.4629256129264831,0.8293490409851074,0.3169884979724884,0.2845651567429014,0.3095554208679757,0.6966250220726847,0.5813018880744399,0.0341667085886001,-0.0460275299847126,0.1029896363615989,0.0031338334083557,0.0347330570220947,-0.0364022254943847,-0.0647094622254371,0.0251266807317733,-0.0481628318781964,-0.0368419624865055,0.0167891388974327,0.0122443008253176,66
1733108764327399700,1.2474972844935952,0.2990431523293256,-1.308211280914396,-0.2372937484461814,9.65155763796568,-1.7209027319945394,0.1010205373167991,-0.0991247296333313,0.147319346666336,0.2735312683023849,0.3094531694024163,0.7014131146372488,0.580895017827341,-0.0122825475409626,-0.0439755134284496,0.0345122404396534,-0.0641810297966003,-0.0517064929008483,-0.0740553438663482,-0.0418218523263931,0.0375144779682159,-0.0491538750424282,-0.0381518714129924,0.0453044011066202,0.0291700283319805,67
1733108764367121000,0.4541466933447867,0.0208960730344057,-0.4670936340056359,-0.2266974625647068,9.650929276934264,-1.725845741354674,0.004383475985378,-0.3173829615116119,-0.0184926092624664,0.2777233789391676,0.3154516039655499,0.6989162517952541,0.578684740513169,-0.2415748685598373,-0.0009526767535135,0.0536577068269252,-0.0096817016601562,0.0016108155250549,0.0193142294883728,0.0035092011094093,-0.0114245293661952,-0.1121537036783527,-0.03507786616683,0.136682205797825,-0.0742786990872351,68
1733108764406842000,-0.0983379534268751,0.1947767221689224,-0.5686753551267087,-0.2153023727220483,9.659756726512311,-1.6772351474426686,-0.2827520072460174,0.3189786076545715,0.0379819944500923,0.2771039743625574,0.3138775920689671,0.6978510235253287,0.5811180237859151,-0.0976123586297035,0.0010786227649077,-0.0681449621915817,0.0001633167266845,0.1027122735977172,-0.0162283480167388,0.0300290621817111,0.0142024168744683,0.03497634684043,-0.0690461173653602,-0.0398591230464633,-0.0174992313870578,69
1733108764446564600,0.3883103854741901,0.1005862803429365,0.476360644044727,-0.1943802336646243,9.67553881753385,-1.586372242604196,-0.1135721951723098,0.3775111138820648,-0.0612363442778587,0.2738551772489614,0.3084650776868757,0.6969445972110103,0.5866182778021859,0.0259782895445823,0.0674218535423278,-0.0963108837604522,-0.0427910089492797,-0.0166465640068054,0.0208190381526947,-0.0100235734134912,0.0432437919080257,-0.0621845347642432,-0.0981714129447937,0.0309830576868727,0.0200225096368463,70
1733108764486285800,-0.7795137889761478,0.4764502220243215,1.0477274302124977,-0.1741266597848385,9.669128950491547,-1.6272743079654872,0.2111704647541046,0.2146595567464828,0.1636272072792053,0.268240632885682,0.3045910861405592,0.7001372514575814,0.5874343625704807,-0.0695152059197425,0.0921358317136764,-0.1512586325407028,0.0008885860443115,0.0052302479743957,0.0240009725093841,-0.0588450282812118,-0.0030214334838092,-0.1428741557731293,-0.0986448153853416,0.0568467128336662,0.0042368201524252,71
1733108764526007300,0.7152724952120334,-0.4796352818012237,0.4088859213173389,-0.1131309055468998,9.659752634859084,-1.6872399702370169,0.0929179117083549,0.0631976053118705,0.0449429266154766,0.2632843118261072,0.3050522928520443,0.7021170812943726,0.5870742360581919,0.1722574681043625,0.0659819394350051,-0.0795075371861457,-0.0222567319869995,-0.0139455199241638,0.0029431581497192,-0.0481545850634574,0.0069252839311957,-0.1479889597699046,-0.126479759812355,0.0661732116747647,-0.163498517460376,72
1733108764565781200,-0.0377543693195562,-0.2333563359320163,0.2598351775348186,-0.1398655576748307,9.651696754175424,-1.7307726763628422,0.240011379122734,-0.2975746095180511,-0.1037436202168464,0.2651872919865505,0.3068126024656103,0.702930207138192,0.584320846093387,-0.2382251322269439,-0.0505856908857822,0.050165370106697,0.0801532268524169,-0.1068402528762817,-0.0388519763946533,0.0115528041496872,-0.054293867200613,-0.0094622911534184,-0.1077455654740333,-0.024369018975133,-0.0787099549663718,73
1733108764605504500,0.0280496163171716,-0.3794780405253172,-0.4931693016350269,-0.2427796507776714,9.637257309934496,-1.798530453815311,0.1004886552691459,-0.3518346846103668,-0.1410845965147018,0.2731867816307052,0.3112505776712644,0.7034362904435842,0.5776412695144953,-0.107032224535942,-0.0259458050131797,0.0041552679613232,-0.0202665925025939,0.020315945148468,0.0009398162364959,0.0099423620849847,0.0262386873364448,0.0510318799419095,-0.0440908595919609,-0.0039551102843484,0.0638381928559392,74
1733108764645228000,-0.1659436090575531,-0.1280862816870212,-1.09460477059111,-0.2813232068466954,9.635909402456878,-1.8001349664025008,-0.2007917612791061,-0.4511376321315765,0.0195060819387435,0.2774844575960634,0.3137330938554071,0.7023908382587336,0.5755180204527337,-0.1833248734474182,-0.0131414327770471,0.0300076380372047,-0.013828694820404,0.0023553371429443,0.0234981179237365,-0.0053614266216754,-0.000176443834789,-0.0218895844336482,-0.0341912098228931,-0.0268266412603203,0.0330765502342488,75
1733108764684951300,0.0269626795969903,0.3274392257302999,0.5552841047644614,-0.321599157932587,9.653688220253589,-1.6950737326025962,-0.1720040440559387,0.056710347533226,-0.0558441579341888,0.2835267406835933,0.3145434955437272,0.698202762948402,0.5772243323905043,-0.059815976768732,0.0977276712656021,-0.033900573849678,-0.0252261757850646,0.0431488752365112,0.0516757071018219,-0.0171323623508214,0.0168683193624019,-0.0471998411980923,-0.0670199617743492,0.0287774282682221,-0.0078963284698402,76
1733108764724674800,-0.6059186787847429,0.0529968461722135,0.1976866182662546,-0.3034289296654984,9.673596451294422,-1.5810862650252877,-0.3654568791389465,0.5972673892974854,0.0222549978643655,0.2794635311376676,0.3071102814143292,0.6973494393223818,0.5841978529645111,0.2764951884746551,0.1095896065235138,-0.0380979105830192,0.0181807875633239,0.0277324318885803,-0.0204688012599945,-0.0269507821649312,-0.0084736850112676,-0.0222573331839405,-0.0588785521686077,0.0366831827243557,0.0344319240656914,77
1733108764764398800,0.2100319215058348,-0.1011608653604984,0.6137304485142231,-0.247142138569802,9.690836339908838,-1.4822269546054303,-0.1489877551794052,0.4231078922748565,0.124749481678009,0.2738306692632773,0.301228454204365,0.6963001948231318,0.5911380669022291,0.1419011503458023,0.1215051710605621,0.0188299510627985,-0.020497441291809,-0.0367665290832519,-0.0071260333061218,-0.028314109891653,0.0215904470533132,0.0039080665470275,-0.0925139188766479,-0.0330539502433733,-0.0741327147452859,78
1733108764804122000,0.113396771675162,-0.0518932688444852,-0.0349555780470371,-0.2036282284759916,9.698431617343426,-1.4385260523058474,-0.1110978871583938,0.2973106205463409,0.0708321034908294,0.2690703972368574,0.2973620057969907,0.6963621581321514,0.5951947081838305,0.2096841931343078,0.0965148136019706,0.0607655495405197,0.0338554382324218,-0.0060587525367736,-0.0555768609046936,-0.0323855504393577,0.0201210938394069,-0.062991700128396,-0.0930951684713363,0.0277434090453665,0.0362705513694323,79
1733108764843845600,0.3330314927794039,0.3443459368675947,0.3707436760582029,-0.1584043178602121,9.700376906192302,-1.431075736299902,0.0701112374663353,0.2765001952648163,0.032446876168251,0.2642601643204987,0.2947560001681537,0.6971968577460002,0.5976637758726292,0.0209084302186965,0.1003170609474182,0.0222053099423646,-0.0333560109138488,0.0110900998115539,0.0393279194831848,-0.0493990629911422,0.0284304786473512,-0.0378173447033041,-0.0933710113167762,-0.0134784594298864,-0.0553683610765263,80
1733108764883568600,0.2765816200764849,-0.0435696771353483,-0.2003542300403118,-0.1393638643635436,9.692651280376314,-1.4844155506908894,0.1039614602923393,0.2767298519611358,-0.0185521841049194,0.2591776762207368,0.2918486147807679,0.7003631323783578,0.5976143133132831,0.0790351182222366,0.0832780972123146,0.007910125888884,0.0194801092147827,-0.0011055469512939,-0.0167168378829956,-0.0264698918908834,0.0128409219905734,-0.0996902356855105,-0.096439741551876,0.0350018785739084,-0.0431310254231793,81
1733108764923292200,-0.277502132454887,0.3431155182898044,-0.2230393784485757,-0.1091613991277292,9.688887543928622,-1.5112597184747456,0.1155780479311943,0.6456171870231628,0.0343005135655403,0.2530557030814924,0.2876816021778188,0.7030590984012586,0.599090907946002,-0.0548851378262043,0.0440092571079731,0.015578432008624,0.0230613946914672,-0.0093313455581665,-0.011344701051712,-0.0382075309753418,-0.0034751389175653,0.0196519547248259,-0.0714201033115387,-0.0146472177981806,0.0149898834812105,82
1733108764963015700,0.0583530485762748,-0.053559156230092,-0.4217348814964294,0.0223015285186935,9.685282797434926,-1.5379193234719335,0.0176671929657459,1.0052359104156494,0.2820208370685577,0.2380963748934276,0.2805148970494666,0.7069112088608025,0.6040679461786794,-0.1148355528712272,-0.0535681657493114,0.0540278181433677,0.0256692767143249,-0.0474498867988586,-0.0533827245235443,-0.0560180656611919,0.0199531093239784,-0.0270523648911505,-0.064954824745655,-0.0001274223470187,-0.0013693087419611,83
1733108765002739000,-0.1134978391631506,0.2312742689609527,0.3730687580049037,0.2142037820966914,9.678924952840804,-1.5629872753635048,0.154958963394165,1.339873433113098,0.4436758458614349,0.2187003695407679,0.2726354964765521,0.7108868127006983,0.6103114400416086,-0.0504413843154907,-0.0689403042197227,-0.018207361921668,-0.0071431994438171,0.0478826165199279,0.0271396338939666,-0.0562421754002571,-0.0029846227262169,-0.0190006101100472,-0.0644666031002998,0.0091382262812257,-0.0273453359387582,84
1733108765042462200,0.045444202302955,0.3046931409150362,0.3873720086455345,0.4969920747935771,9.659225980636476,-1.6194877457424997,0.3018355667591095,1.6081379652023315,0.5004495978355408,0.1901092621308773,0.2617748731015248,0.716969184883556,0.6174848847820565,-0.1240708604454994,-0.1092127859592437,-0.0394656434655189,0.0096627473831176,0.0204138755798339,0.0207675993442535,-0.0571288168430328,0.0151715036481618,-0.0848613628687337,-0.0713385716080665,0.0240476095676189,-0.0671572771089384,85
1733108765082186500,-0.9375609822280704,-0.2957762594878673,1.4674856048084794,0.8491250853408128,9.610716509011388,-1.7559873432487247,0.657288134098053,1.7202203273773191,0.7779578566551208,0.1555456754800213,0.2512396360385472,0.7255405459000275,0.6215103198077365,-0.120538979768753,-0.0341292731463909,-0.0708598494529724,-0.0286808013916015,-0.0096895098686218,-0.046740710735321,-0.045144323259592,-0.0040138317272067,-0.0614852136887377,-0.0608461759984493,0.0081013529475807,-0.1256224214572925,86
1733108765121909800,0.043814591807127,0.0261591081291437,-0.485654980482161,1.2816753022968768,9.537630230012535,-1.887149086858332,0.3863407373428345,2.298677444458008,0.7662544846534729,0.1155098060870357,0.2402356371240495,0.7338287710933618,0.6248518013271749,-0.0897006392478942,-0.1682299822568893,0.0260885301977396,0.0801328420639038,-0.0324394106864929,0.0100148022174835,-0.0221181586384773,0.0065098125487565,-0.041026093599759,-0.0715400353074073,-0.0033062133549829,-0.1268805774253793,87
1733108765161633000,-1.1334427430294454,-0.5535661949306726,-0.73222004981637,1.7551869866512717,9.476008178836109,-1.815210224328935,0.0203000865876674,2.136930227279663,0.8901786208152771,0.0702441071389772,0.2226378171353225,0.7368733708871705,0.6344413679794842,0.0293221548199653,-0.0917722731828689,0.0072003263048827,0.0107865929603576,0.0266320705413818,-0.0245797336101531,-0.008024662733078,-0.0026976754888892,-0.0618448362147901,-0.0288515277206897,0.0079767869946401,0.0154522357293753,88
1733108765201356300,-0.4518079481989145,0.0737596482157707,-0.8921803101480007,2.260477518712729,9.405632912361622,-1.6108068650282918,-0.1890695095062255,2.384493112564087,0.9996678829193116,0.0262186445055824,0.2082325057496236,0.7340078441555786,0.6458980673911779,-0.1564881950616836,-0.1699974536895752,0.0273520667105913,0.0209013223648071,-0.0045017004013061,-0.0132734775543212,-0.0046924073249101,0.0116471508517861,-0.0191283829418709,-0.0097002685070037,-0.0401139654572121,-0.02023784887098,89
1733108765241075700,-1.2573735124722123,-0.5823755253076554,-0.839952110260725,2.83575095693022,9.3132807918787,-1.1797062623586505,-0.6248775124549866,3.003014326095581,1.289775252342224,-0.0268045955689656,0.188888680460358,0.7242025579193013,0.6626712885075644,-0.0983628332614898,-0.1462299227714538,-0.0463433265686035,-0.0013143420219421,0.0544356107711792,0.0247550308704376,-0.0067028985358774,-0.0047844504006206,-0.0144891742673236,0.006542659830302,-0.0120519999734766,0.0194559754949994,90
1733108765280799200,-0.3126397160053253,0.2602449273794889,-0.1928384475827217,3.439167808961868,9.165577371051906,-0.5785436555271968,-0.5891336798667908,2.979894161224365,1.405975103378296,-0.084900112927224,0.1693452898286435,0.7076861519745297,0.6806573992759232,-0.1541946828365326,-0.1176664531230926,-0.0724921002984047,-0.0049307942390441,0.0122761130332946,0.0313833951950073,0.0107148457318544,-0.0199976097792387,-0.0668517959229182,-0.0048124827444553,0.0434246472080471,-0.0228862125218729,91
1733108765320523300,0.4209945845231413,-0.2364560555130243,-0.258683669412136,3.972664444810152,8.965265811109543,0.1109913179686293,-0.6362083554267883,3.2186429500579834,1.265609860420227,-0.1468075501917901,0.1459946333781538,0.6877692815402549,0.6957776009710431,-0.3295270800590515,-0.0367906205356121,-0.0288024805486202,0.0158545970916748,-0.0266771912574768,-0.0027418136596679,0.035080824047327,-0.0333607606589794,-0.0318754467991995,-0.0432624071836471,0.0035655235907615,-0.0403854439089307,92
1733108765360246800,0.1724628912910819,-0.4032984765738248,-0.0091524437487125,4.2996065346732735,8.778515159007906,0.7883153003953397,-0.6032088398933411,2.367715358734131,0.8827248811721802,-0.1975209863994797,0.1236361189728824,0.6667242430401317,0.7079395205035193,-0.0869061797857284,-0.0173917300999164,-0.0008373599266633,0.0163874626159667,0.016370952129364,0.018306940793991,0.0313068404793739,-0.0406635999679565,-0.0035683697100408,-0.0443064756691455,0.0100476778386742,0.0695624385545263,93
1733108765399970000,-0.3826736216962337,-0.5191343484967946,0.8219055814385413,4.514766704179347,8.59806916000843,1.3640002420231698,-0.2158376425504684,2.456805944442749,1.0578304529190063,-0.2419371447086015,0.1026968423979457,0.6480036280295328,0.7148504644332428,-0.0186938419938087,0.0153308492153882,-0.0835016071796417,0.0230258107185363,0.053892970085144,0.0086205303668975,0.0163021609187126,-0.044417418539524,0.0096461649577424,-0.0478474460542202,-0.0073858918755606,0.0780322749005165,94
1733108765439693600,-1.0357678200885654,-0.4154933567583561,-0.4810379882059991,4.787781389021873,8.361551145175099,1.825381781992316,-0.2344764471054077,1.87599778175354,1.3095149993896484,-0.2863298899889718,0.0884307359533882,0.631752667597613,0.7149013146490772,-0.1006872430443763,0.0276465322822332,-0.1460803002119064,-0.0086907148361206,0.0239894390106201,0.0226423144340515,-0.0104686198756098,-0.0067038238048553,0.0521787484220927,-0.0541086159646511,-0.0237217340475413,0.0430198749325936,95
1733108765479416600,-1.1551917796313762,-0.5307908840209246,-0.084085519658029,5.108766324046254,8.055017344829439,2.277623007041961,-0.4579859673976898,1.5897321701049805,1.5160192251205444,-0.3268521679755947,0.0838331782150933,0.6138774668812262,0.7136483707945475,-0.1400668770074844,0.0546366013586521,-0.1834407150745391,0.0217881202697753,0.0149689316749572,0.0070055425167083,-0.0279547553509473,-0.0143255805596709,-0.0708876364434138,-0.0764304772019386,0.0272264017172274,0.0583539892911911,96
1733108765519140000,-1.0115554621130227,-0.431347928494215,0.6902148455187678,5.455193158841133,7.680540473592281,2.72406606720686,-0.1270573288202285,1.6558352708816528,1.7731789350509644,-0.3695919193244784,0.0820035831752323,0.5953038701824572,0.7087245289486765,-0.0639353543519973,0.0983833372592926,-0.1920951306819915,0.0058105587959289,-0.0094532966613769,0.0178499817848205,-0.0546627454459667,-0.0304615143686532,-0.0342969497415237,-0.104514367878437,-0.006153422333757,0.0083586778638942,97
1733108765558863400,0.1984592100739479,-0.8222019340366125,0.0629375176891684,5.780011388418078,7.282056703823804,3.119854022020101,-0.1825207024812698,1.5812932252883911,1.568904161453247,-0.411614407709631,0.0810063950545888,0.5782470772854489,0.6997440908228942,-0.1168768629431724,0.0835809558629989,-0.1893588751554489,0.0416826605796813,0.0029717683792114,0.0099649727344512,-0.0512024834752082,-0.0430591478943824,-0.0689336025990778,-0.1165951788425445,0.0106994265955407,0.0212876319185481,98
1733108765598587400,0.8146843980133534,-1.1107090793043377,-0.2415197686433792,5.954022970455885,6.934604617634415,3.5540474030733105,-0.1876759678125381,1.8376373052597048,1.0075398683547974,-0.4483057905846732,0.0761355565188828,0.5594616929755784,0.6929847854804524,-0.0502291321754455,0.1317113190889358,-0.1774227172136306,0.0042782425880432,-0.0227831602096557,0.0317643880844116,-0.0391267165541648,-0.0367869399487972,0.0059699486757657,-0.1054674759507179,-0.023459569130151,0.018197817243624,99
1733108765638311000,1.9772581045895807,-1.8433406325310469,-0.0770882081165909,5.7151616073668,6.777789669591188,4.191523761095106,-0.0248253941535949,3.540160655975342,0.1463601291179657,-0.4848425850043503,0.047705407494119,0.532931475436574,0.6918351175387335,-0.2953230440616607,0.1606754213571548,-0.1987342536449432,-0.012759506702423,-0.0085003972053527,0.0528754591941833,-0.0513336658477783,-0.012044534087181,0.0148569218759716,-0.1284494549036026,-0.0514578274361323,-0.0208113493264419,100
1733108765678103000,0.987214801582694,0.039931612893939,-2.3789409626603124,4.9833255884319545,6.748827194479108,5.0784033344864845,-0.8539115190505981,3.4241485595703125,-0.568547785282135,-0.5197805017419275,-0.0016134501967978,0.4909896998208161,0.6991099812158128,-0.3453001677989959,0.1745408475399017,-0.2107651531696319,0.0039111375808715,-0.0177204608917236,0.016791746020317,-0.0786219462752342,-0.0192743297666311,-0.0591035609829006,-0.1290422230958938,-0.0284413784140022,0.098642215336766,101
1733108765717828900,1.806935440197587,-0.5939508122891187,-0.8262725444763899,3.88991777254045,6.683153822085261,6.031117316052317,-1.7332345247268677,3.0750465393066406,-1.3350296020507812,-0.5405060404578756,-0.0517612718486654,0.4356826340753099,0.7178820196243443,-0.273460328578949,0.202335774898529,-0.1917123645544052,-0.0069600939750671,-0.0142722129821777,0.0294104218482971,-0.0881990939378738,-0.0197116322815418,-0.0579367685261182,-0.1461703032255172,-0.0250771626779111,-0.0586804812991991,102
1733108765757554700,-2.0585747440561653,-0.4831202013075351,1.1108411812514063,3.1154654316723347,6.314497619825601,6.825787684562802,-1.566422700881958,1.774466872215271,-0.2838675379753113,-0.5473017212548067,-0.0690603089449492,0.3836826196598525,0.7405937651461958,-0.1070253029465675,0.2048846930265426,-0.1787178069353103,0.0176716446876525,-0.0144085884094238,0.0039655268192291,-0.0386538356542587,-0.0358228310942649,-0.1236697530195582,-0.2162235826253891,0.03908441234692,-0.1055999072538688,103
1733108765797280500,-1.9241236035123463,-0.085146719148755,2.040859346884489,2.8496321827664968,6.013339667299389,7.2034519536644215,-0.2242334187030792,1.0176256895065308,1.150134563446045,-0.5650409504293569,-0.0757362095294899,0.3563568168451406,0.7402719352739762,-0.1750035583972931,0.1508308351039886,-0.1351491659879684,0.0141726732254028,-0.0002679228782653,0.0077243000268936,-0.034548208117485,-0.0914812907576561,-0.1094124330130405,-0.196162924170494,0.1002640443849377,0.0089112828034441,104
1733108765837007400,-0.553431170374155,-0.2488958503693342,1.2807137637883423,2.9506252903446555,5.873474100491404,7.277808983251452,0.3392812609672546,0.8938498497009277,1.852628469467163,-0.5946566407936091,-0.0802015685553986,0.350003891635502,0.7193389489069092,-0.3389101922512054,0.1326313763856887,-0.1069603338837623,-0.0094897150993347,-0.0452522039413452,0.0025004744529724,-0.0399323776364326,-0.0332186073064804,0.0145652032121783,-0.2663543820381164,-0.0458242648288374,-0.1495305540555622,105
1733108765876733200,-0.3564262507617473,-0.4460615135014057,-0.0116857616186141,3.169014651030302,5.727071825391054,7.302628367209434,0.2489576786756515,0.7748806476593018,2.01244592666626,-0.6271776334438662,-0.0817492617567297,0.3478313428660761,0.6920828409849926,-0.3198997378349304,0.1212887018918991,-0.1043979749083519,-0.0014399886131286,-0.0076121091842651,-0.0073131322860717,-0.0622030831873416,-0.030883764848113,-0.0591877138687064,-0.2606428265571594,0.0930692831757944,0.0889975128253921,106
1733108765916458800,0.2326543251425027,-0.4958785605937242,-0.5944517475485801,3.374060838279128,5.4804567794352765,7.399371416127681,-0.2243196964263916,0.8857311010360718,1.953989624977112,-0.6594842758164415,-0.0796362981053441,0.3411672917297323,0.6650890971695346,-0.265607476234436,0.1463639140129089,-0.113878957927227,0.0009124279022216,-0.0160173177719116,0.0064627826213836,-0.102449707686901,-0.0540687926113605,-0.0974526036933995,-0.2745178937911987,0.0764757342074764,-0.0911974614219274,107
1733108765956184600,0.1828726416245102,-0.5449637862801552,-0.7852315090358257,3.5079388551101087,5.07479332729578,7.623072034963965,-0.6586927175521851,0.894873321056366,1.8665622472763064,-0.6914583106144826,-0.0723657131224694,0.3257218299044158,0.6407448200280556,-0.384001225233078,0.1063610538840293,-0.0726484358310699,0.0035997629165649,-0.0318103432655334,0.0192174017429351,-0.1182179749011993,-0.0150028066709637,0.0098499655927764,-0.2825113236904144,-0.0160099655102589,-0.0591497975776903,108
1733108765995910400,0.1955482910633087,-0.1747086243912577,-0.6642261255204677,3.617517127943039,4.610565750245749,7.862991382673382,-0.6807435154914856,0.5919539332389832,1.6514593362808228,-0.7193508699062897,-0.0609276630886159,0.3088475604292252,0.6192215350500826,-0.3977718949317932,0.1562565416097641,-0.026212889701128,0.0101365447044372,-0.0332165956497192,0.0162357240915298,-0.0933761969208717,-0.016506964340806,-0.0832750800579786,-0.255828857421875,0.0710304561473196,-0.1028682629334274,109
1733108766035636200,0.1967997524291276,0.1495508022591471,-0.313326529225707,3.7428590793579817,4.171235006304085,8.047495717152954,-0.6461132168769836,0.3677934110164642,1.5161871910095217,-0.7421671384309773,-0.0476981987396772,0.2956633017748752,0.59957988106372,-0.3666158616542816,0.1028377413749694,0.036220259964466,0.0457188487052917,-0.0112875699996948,-0.0358052253723144,-0.0706288069486618,-0.0307498220354318,-0.0608619215580867,-0.2347770184278488,0.0430959221437573,-0.1411927694242913,110
1733108766075363000,0.0851636702835559,-0.3637839200481772,-0.9575210895866156,3.929014688175916,3.715815881870687,8.18082749827802,-0.8474829196929932,-0.1506422609090805,1.3867748975753784,-0.760368671727529,-0.0299072099866134,0.2863554280922646,0.5821904047660537,-0.2868062555789947,0.0538140572607517,0.206738606095314,0.042553961277008,-0.0589459538459777,0.0081119984388351,-0.0524149239063262,-0.0373148508369922,-0.0529859137862455,-0.2145043164491653,0.0204820831227465,-0.0267718332000076,111
1733108766115089000,-0.1656546725809574,0.6446642236992717,0.189493813329935,4.178635930210351,3.244566735620797,8.257249643701314,-0.6954832673072815,-0.1476003229618072,1.2067869901657104,-0.7742597742332719,-0.0079008518239885,0.2809537355123931,0.5670312479339367,-0.2108121514320373,0.0850583165884018,0.1947522461414337,-0.0175215601921081,0.0369759798049926,-0.0241827815771102,-0.0644450485706329,0.0376869924366474,-0.0251544337317813,-0.2279552817344665,0.0643527045496041,-0.0448654662666609,112
1733108766154814700,-1.835020255692303,-0.9656295772403478,0.3200964617520571,4.410282831875979,2.8757532969728112,8.273440900045633,-0.1733814030885696,-0.3966197967529297,1.619613766670227,-0.787549801806052,0.0086956831628223,0.2794571179908022,0.5491751193422609,0.0667664632201194,0.0924196168780326,0.3113204836845398,0.0070602297782897,-0.0144793391227722,-0.0108006000518798,-0.0856366604566574,-0.0304314866662025,-0.1125650700913742,-0.2814043462276459,0.0294291770250885,-0.0561711333933519,113
1733108766194540500,-1.2164905902028085,-1.3452730374604462,0.2874152583777904,4.80973836928606,2.4787778859406706,8.178781087142228,0.0655217170715332,-0.6433129906654358,2.3627047538757324,-0.8064781186360204,0.0269286396704264,0.2868328154934373,0.5163281433997878,0.2360952943563461,0.1696359366178512,0.3564998209476471,-0.0257747769355773,0.0154981613159179,-0.029889702796936,-0.1209741234779357,0.0656141638755798,0.0511359568043146,-0.2701109051704407,-0.102334932374861,-0.0630214879118837,114
1733108766234266400,0.8295423599272966,-0.5846788338139652,0.7830664399564266,5.156111428067088,2.078062119336426,8.078771729904412,0.1228398382663726,-0.1069086194038391,2.144826889038086,-0.8265431983409552,0.0418404577849972,0.2938479988155995,0.4782561950781602,-0.0600806958973407,0.1513313949108123,0.4230170547962188,-0.0087032914161682,-0.0529813170433044,-0.0107541531324386,-0.1029322370886802,0.0332123450934886,-0.1578669778468087,-0.2292607128620147,0.1226867424647323,-0.1075636176754254,115
1733108766273993000,-0.0327273806035518,-0.6743750329606235,0.7772995469927787,5.245054032367468,1.60227781387493,8.12972917920351,-0.1002289429306984,0.6897419691085815,2.519834041595459,-0.8491778027523552,0.0527420031785176,0.287606392262052,0.4397703863982112,-0.2590968608856201,0.0350967235863208,0.3940500319004059,-0.0433034300804138,-0.0313974618911743,-0.0172308385372161,-0.1064528822898864,0.0433255657553672,-0.0743600526611786,-0.1776620000600814,0.0025286502571165,-0.138662529427465,116
1733108766313719000,1.4251508762955665,0.325586145209521,0.4031482544481754,5.068821267148852,1.0055899047721175,8.334639757373928,-0.2962031364440918,0.9681692123413086,2.3295938968658447,-0.8749077688212976,0.063086096147064,0.2665928921663746,0.3993554815914679,-0.4586863815784454,-0.0183286853134632,0.4389595985412597,-0.0370002388954162,-0.094254732131958,-0.000414565205574,-0.100554384291172,0.0340784192085266,-0.1229903559206519,-0.1562252789735794,-0.006928131891656,-0.1147404596353881,117
1733108766353444900,1.884894878190756,1.1626996710434556,0.7192775661349297,4.7813107317030425,0.537033870063722,8.54523539544344,-0.2450616508722305,1.045984387397766,1.557470202445984,-0.8944837255889683,0.0697583406251997,0.2438196585815027,0.3682180854390926,-0.4146662056446075,-0.0904753133654594,0.3383998274803161,-0.0537952780723571,-0.0176756381988525,-0.0544915348291397,-0.0964714959263801,0.0368590876460075,-0.1543983336218632,-0.1721648871898651,0.0228833150285994,-0.1668036782192997,118
1733108766393170700,0.1334255968883633,0.3970385028636082,0.6241004513591527,4.44204341327399,0.17742029450275,8.741118617549539,-0.2483969926834106,1.0578068494796753,1.477688908576965,-0.909413685446729,0.0737918669534012,0.221092150632515,0.3444412237370075,-0.4668063819408417,-0.1106265559792518,0.2679276764392853,-0.0422382354736328,-0.0746710896492004,0.0060992091894149,-0.0957559645175933,-0.0309008192270994,-0.211943655144982,-0.1830843687057495,0.0819283324909862,-0.1070873328000307,119
1733108766432896300,1.4521034728899598,0.2499771793326362,1.839142011797428,3.951011415928602,-0.1196427990584168,8.974718699109554,-0.083246886730194,1.9024194478988647,1.370734691619873,-0.9243524537582312,0.0734543532481189,0.1924087820348775,0.3211788242456972,-0.3154333531856537,-0.0941275730729103,0.1184313744306564,-0.0247295498847961,0.0626217126846313,-0.0057114660739898,-0.1127116382122039,-0.02483481913805,-0.1008090471149887,-0.1715313494205474,0.0142649507571244,-0.0190978097070939,120
1733108766472622000,1.167715453378856,0.4040002316350117,1.2072627431303262,3.159803755092621,-0.3445940298771485,9.277245017379522,-0.1369926184415817,2.0196762084960938,1.2614400386810305,-0.9399465487008424,0.0665088539385463,0.1502288447583001,0.2991793115744225,-0.1981410980224609,-0.0990835577249527,0.0735418647527694,-0.0166722536087036,0.0154193043708801,0.0069712549448013,-0.1215733736753463,-0.017003234475851,0.0291341715673101,-0.135818749666214,0.0328526418178807,-0.0428045379817485,121
1733108766512349000,1.7833344921186565,0.7658316659085452,0.5028215115994215,2.6414494510576128,-0.4698484491391107,9.432516827633975,0.0253258477896451,0.9042301774024964,0.3905828893184662,-0.948341749530485,0.0623726631850217,0.1232280051084809,0.2856087435456454,-0.2792167663574219,-0.1022996455430984,0.0648110881447792,-0.0026713609695434,0.0607507824897766,-0.0054296851158142,-0.1124582961201667,-0.0074187698774039,-0.0563504857153631,-0.1188885569572448,0.0219056884683668,-0.0943914625571109,122
1733108766552075000,1.8370298419490456,0.0321904607152566,1.2146066761523484,2.306285622424632,-0.4712271170811727,9.519946104761958,0.0494735054671764,1.5923188924789429,0.333506166934967,-0.9517067960760264,0.0568802771058942,0.1066886057539544,0.2821992952589809,-0.2462686747312545,-0.121521808207035,0.0730335339903831,-0.0130994915962219,0.0294796228408813,-0.0167226791381835,-0.1299159377813339,0.0642665550112724,-0.0360191338916309,-0.1187523901462555,-0.0387540752808563,-0.0885421337407082,123
1733108766591800600,1.7699480640619991,0.7610374173693358,-0.3286398336917162,1.6269750327579675,-0.5060550136279315,9.657496964886784,-0.1290694326162338,1.6941401958465576,0.1285470724105835,-0.9563563633308576,0.0481762944430222,0.0726893516487146,0.2788865178823593,-0.2117740958929062,-0.0993056669831276,0.1347710043191909,-0.0021867156028747,0.0018576383590698,0.014098897576332,-0.1143514513969421,0.00015765579883,-0.2100176737847738,-0.0919656753540039,0.1059049089492764,-0.1473685993818566,124
1733108766631526400,1.0983416190318762,0.3412018301555887,-1.253276306286454,1.2653339699573811,-0.5194202527660876,9.710793670788409,0.0765081346035003,0.1859620213508606,-0.4439250826835632,-0.9565923194176664,0.0437998886901095,0.0544873792410042,0.2829201056797946,-0.0892910435795784,-0.0969818457961082,0.130655750632286,0.0016853213310241,0.0150768160820007,-0.0088889524340629,-0.0621088966727256,0.0054686553776264,-0.0701122864230535,-0.0841190665960311,-0.0535315695368451,-0.2173655157969333,125
1733108766671252200,0.2187165468133985,-0.0603100917950272,-0.9381927042603492,1.2562611673161386,-0.4710530391559004,9.714437580248712,-0.030101990327239,0.1880619823932647,-0.3965604603290558,-0.9539454511601724,0.0418130304889768,0.0543432228551481,0.2920388005522793,0.0255665630102157,-0.073697879910469,0.1145293787121772,0.0011394023895263,-0.0035971999168395,-0.0150834321975708,-0.0356551371514797,0.027955524623394,-0.1152502449215855,-0.0703089982271194,-0.0151597635803336,-0.1329313105653971,126
1733108766710999600,-0.3626872839178889,0.2461145856203511,-0.9200152425348758,1.1430473144598303,-0.5397035641970113,9.724841485363244,-0.4155001938343048,0.3581596910953522,-0.1826263666152954,-0.9525677268354934,0.0437263281027227,0.0475296608238944,0.297394620211727,0.0793600231409072,-0.0744836181402206,0.0963106974959373,-0.0284913182258605,-0.0029600858688354,-0.0131067633628845,-0.0292269475758075,-0.0198656637221574,-0.2045432426953688,-0.0403885766863822,0.0967029726361855,-0.1207079166724346,127
1733108766750726100,-0.4247779755193739,-0.0326163945097476,-0.2338712997168302,0.9803823982793836,-0.7651016711335629,9.7274794326514,-0.6944906711578369,0.5133274793624878,0.0034355241805315,-0.9517155730301132,0.0523495030515518,0.0360015374755247,0.3003345967654243,-0.0701708793640136,-0.0434786714613437,0.0567638203501701,-0.0444563627243042,-0.0111569762229919,0.0231984257698059,-0.0142182055860757,-0.0439509898424148,-0.0723262224457459,-0.0321302264928817,0.0526265835211379,-0.0495468975145835,128
1733108766790452700,-0.4414562847282737,-0.3655235302571207,0.181617965388298,0.7947505941398442,-1.0292485743876545,9.720051328477265,-0.591562807559967,0.3043802380561828,0.2020490616559982,-0.9519733825178236,0.0623430997330848,0.0229919086162492,0.2988834055988597,-0.0589696280658245,-0.108089730143547,-0.0508092492818832,-0.0248621106147766,0.0599117279052734,-0.02008056640625,-0.0117570869624614,-0.0379778705537319,-0.0508760591925354,-0.031654417514801,0.0127037498719873,-0.0677307798476889,129
1733108766830179300,0.5063277661547064,-0.1733395279951393,0.6392547658711671,0.6886780644055456,-1.2221807646684348,9.705791332456467,-0.4153867065906524,0.3084796369075775,0.1407430917024612,-0.9524765820205152,0.0701082039993551,0.0150735903009503,0.2960505087657935,-0.0415546856820583,-0.0769243016839027,-0.0497666858136653,-0.0083808898925781,-0.0287708640098571,0.0057429671287536,0.004076394252479,-0.0501367859542369,-0.0602866013215854,-0.0330703482031822,0.0954631925750058,-0.0234736456045648,130
1733108766869906000,0.7681998563446104,0.0727346890822052,0.3583125028997659,0.5683632204376161,-1.362162066810578,9.694940268096326,-0.2604206204414367,0.2534124553203583,-0.0260614417493343,-0.9524173453765762,0.0751317084429684,0.0071309297206063,0.2953059247022357,-0.0226646140217781,-0.0965423136949539,0.056790318340063,0.0254756212234497,-0.0343682169914245,-0.0034053325653076,0.0113424193114042,-0.056225448846817,-0.0059979994474269,-0.0423228666186332,0.0639631207101279,-0.021412719602941,131
1733108766909633300,0.6054159168943762,0.0422794911943376,0.3650958794295788,0.5081870937531814,-1.4089195802018046,9.6915979719311,-0.0091259414330124,0.1189309582114219,-0.1653992235660553,-0.9516364284865042,0.076518585705678,0.0033037956001956,0.2975266553750611,-0.0218427628278732,-0.1270014196634292,0.186565101146698,0.0312420129776,-0.0396543741226196,0.0102282166481018,0.0082603339105844,-0.0490820631384849,0.011727971633902,-0.0519176945090293,0.0253393253120128,0.0338584236102295,132
1733108766949360000,0.034138343380019,-0.1215717852264642,-0.0684738167673349,0.4756769726295023,-1.3960527921050787,9.695109779444335,0.0177505277097225,0.0956845954060554,-0.1314003020524978,-0.9507110976357784,0.0753937802552899,0.0016584803865358,0.3007680424803471,-0.0340642780065536,-0.1059296876192092,0.2092886567115783,-0.0126084089279174,-0.016427457332611,0.01825463026762,0.0201943665742874,-0.0368735492229461,-0.0041997892065759,-0.0744924023747444,0.0386875037175137,-0.0545864899838343,133
1733108766989086700,0.0804573922887444,0.1169825577400624,-0.2179822411894798,0.4591358068689704,-1.398329212604463,9.695579150521755,-0.0467399023473262,0.0482130534946918,-0.1119337975978851,-0.9500166430205096,0.0752504426923634,0.000641007144076,0.3029941571088018,-0.0041631022468209,-0.1724106669425964,0.213820680975914,-0.0049923062324523,0.0071606040000915,-0.0152468085289001,0.0320110693573951,-0.0486730560660362,-0.0666959706069668,-0.1077470630407333,0.0521732867956859,-0.0267788017969112,134
1733108767028813000,-0.4038870901167392,-0.1126300616189837,-0.097892218953371,0.4643406455030665,-1.4259437802389263,9.691308049073816,-0.0640223771333694,-0.0564921051263809,-0.0436365455389022,-0.9492526979140212,0.076685731332289,0.0002991250873067,0.3050220547532514,0.0899926945567131,-0.1887535750865936,0.1856560856103897,-0.0059071779251098,0.0056925415992736,-0.0182747244834899,0.0290561001747846,-0.0447051413357257,-0.0207707684375927,-0.1102049872279167,-0.0060897111602476,0.0090433328056969,135
1733108767068541000,0.2456056862501427,0.3467379465706646,-0.1332815122425556,0.5190424324296414,-1.4340046293586493,9.68734265257418,-0.0091613177210092,-0.0929842740297317,-0.0289581976830959,-0.9491503456229426,0.0779418981390468,0.002834957359545,0.3050092230739818,-0.0157435908913612,-0.2309654355049133,0.1521125137805938,-0.0084022879600524,-0.0085976719856262,-0.0195580050349235,0.0182557012885808,-0.0495094172656536,-0.1210842939704656,-0.1142882332205772,-0.0060823920785391,-0.0185173417963727,136
1733108767108267300,0.2596529528357088,0.3736638012886047,-0.3969973306030034,0.5011046246789396,-1.4619779473029075,9.684105570349097,-0.1849941462278366,0.1326645612716674,-0.0504755713045597,-0.948740533805923,0.079031408123383,0.0014384014858511,0.3060119497039572,7.558474317193031e-05,-0.2282122522592544,0.1818668693304062,0.0035946369171142,-0.0112537145614624,0.009852111339569,0.0209344439208507,-0.0735160186886787,-0.1191583126102574,-0.1314313858747482,0.0178941855213954,-0.0587986003866884,137
1733108767147993900,0.0648524113997817,0.1168820199750363,-0.0374614233881235,0.4687552836075425,-1.5415816453717648,9.673374917498233,-0.1709639281034469,0.0207222085446119,-0.0549176670610904,-0.9481593134365456,0.0824195338331111,-0.0014725155679384,0.3069181132677572,0.0240695998072624,-0.1992989927530288,0.227980375289917,0.01398766040802,0.0183607339859008,0.0020710229873657,0.0398557297885417,-0.0921626612544059,-0.037789294502465,-0.1315129101276397,-0.0539820121515076,-0.0521534632837865,138
1733108767187720400,0.1568240811977535,-0.1197872398972511,0.1154816516578197,0.4776393587436526,-1.5539093581557273,9.670967271834613,-0.0329513661563396,0.055279217660427,-0.0510229431092739,-0.9477465573878988,0.0831631989894695,-0.0013302055467576,0.3079911333649727,0.1028935760259628,-0.1469954699277877,0.1989326775074005,-0.0159409642219543,0.0369030833244323,0.0100382566452026,0.0350899808108806,-0.0517442859709262,-0.0318754467991995,-0.141238585114479,0.0035655235907615,-0.0403854439089307,139
1733108767227447000,-0.2509754696549847,-0.3470462818674742,-0.3142471512019634,0.4675011188279837,-1.582979531425983,9.666747023791077,-0.1724265217781067,-0.0429534986615181,0.0543104633688926,-0.947502987914778,0.0844254783196627,-0.0023220500362314,0.3083911811938623,0.1199774891138076,-0.1866042464971542,0.1919780224561691,0.0103635787963867,-0.0014609694480895,-0.025244228541851,0.0383481234312057,-0.0608900301158428,-0.1049807889748364,-0.147503912448883,0.0124489074612385,-0.0704693973316112,140
1733108767269652500,-0.1006657387873157,0.0294135798804461,-0.1958656864494085,0.4817927520960569,-1.705504379593581,9.645181088671087,-0.4239245057106018,-0.051975067704916,0.1501480489969253,-0.9478266735056804,0.090673149341036,-0.0033183488079381,0.3056010864992425,0.0723180919885635,-0.1992170214653015,0.2105784863233566,-0.0016436576843261,-0.0178936123847961,0.0185942687094211,0.0299192313104867,-0.0566839314997196,-0.0851730135006364,-0.1647244393825531,0.0065503269674081,-0.059372103125439,141
1733108767309378800,0.0586821983322501,-0.0714684685386717,0.1636667136341333,0.5895479011550545,-1.830724750455469,9.616198155292867,-0.0701185315847396,-0.5797854661941528,-0.1245711371302604,-0.9474127708153092,0.0985410802817456,5.94339986495e-05,0.3044645884240411,-0.0141670005396008,-0.1673753708600998,0.2237590551376342,-0.0118193626403808,-0.0247226357460021,0.0090843476355075,0.0034401826560497,-0.0254594851285219,-0.0519668227044632,-0.1631880104541778,-0.0485367340913508,-0.0404826617722865,142
1733108767349105700,-0.0661264499235898,-0.1344813895516097,0.4639098894029855,0.83212134356983,-1.7533464733511208,9.612686347779633,0.348982572555542,-0.4864650964736938,-0.268521636724472,-0.9461239789283484,0.0986288237376798,0.0127185708298226,0.3081557253738535,0.1445707082748413,-0.0878203585743904,0.1594929248094558,-0.0419403314590454,-0.00105881690979,0.007990725338459,-0.0174337588250637,-0.025487832725048,-0.0735728112736251,-0.1350346654653549,-0.0173625388881948,-0.0184061878808541,143
1733108767388832000,-0.483059849422425,-0.238020382220298,-0.2477075173676013,0.9270346197776496,-1.636489880078286,9.624598319369554,0.1361385583877563,0.1403481662273407,0.0978401154279708,-0.9459866777404236,0.0944391250867253,0.0190605941970926,0.3095596601790915,0.4303633272647857,-0.0378482714295387,0.1096196398139,-0.0328189134597778,0.0239421129226684,-0.0078941583633422,-0.0220308285206556,-0.0162222851067781,-0.1109226823123637,-0.1393822580575943,-0.0045950784135202,-0.0854523144992068,144
1733108767428558600,0.2602123402841389,0.3049453621104359,-0.4413818312525749,0.7727360384695231,-1.6702388588145374,9.6324227293849,-0.2165388166904449,0.4541493654251098,0.2358862906694412,-0.9473252768555118,0.0935634670267397,0.01135791734733,0.3060909476874121,0.4414034485816955,-0.04089892283082,0.0809101611375808,-0.0135170817375183,-0.0016924738883972,-0.0067509487271308,-0.0185232833027839,-0.0561416186392307,-0.0919501246864441,-0.1614823192358017,0.0267702485976973,-0.0613218763531884,145
1733108767468286200,1.1912152791708708,0.5775574575014412,-0.1861462564677,0.6512724628578871,-1.7492197488099337,9.627380643564464,-0.1296483725309372,0.0166783537715673,-0.2203392684459686,-0.947254393244904,0.0955115330080995,0.004211753316426,0.3058903027312288,0.4642770886421203,-0.0363047011196613,0.0890932604670524,0.0066822171211242,0.0234737992286682,-0.0242326855659484,-0.0307588353753089,-0.0346774980425834,-0.0457132787350332,-0.1431621760129928,-0.0139954678996698,-0.0332849208714789,146
1733108767508012800,0.3990882384676486,0.0483460977569222,-0.3418582117050886,0.8066915726285427,-1.764539775277674,9.612805590245127,-0.029007501900196,-0.553671658039093,-0.4719695448875427,-0.9445587935988096,0.0988261362858305,0.0108030673714585,0.3129302805064366,0.5418003797531128,-0.0249537769705057,0.183798998594284,0.0215144753456115,-0.0065574049949646,-0.0016236305236816,-0.045823898166418,-0.040915735065937,-0.0531417391021968,-0.1071852445602417,0.0117334435351076,-0.0228792462082579,147
1733108767547739400,-0.4015733332816511,-0.2829077178254723,0.1484106923133134,1.0788332009635866,-1.7181959572538732,9.594493688485024,0.1591756045818328,-0.6172258257865906,-0.2167369425296783,-0.9423092052379656,0.1011451436692871,0.0242204491910783,0.3181767394790509,0.4614397585391998,-0.0422770008444786,0.2642231285572052,0.0222185254096984,-0.0107266902923583,-0.0010481998324394,-0.0471262112259864,-0.0171671472489833,-0.02061494540493,-0.085905373096466,0.0026589289982133,0.0051507446723029,148
1733108767587466000,0.188607970406115,0.045795974882692,-0.1758697771251201,1.2480626632913947,-1.6867219377122815,9.57954571020007,-0.0272302217781543,-0.2926275730133056,-0.1665993928909301,-0.9410933424129344,0.102518954124344,0.0326950889531717,0.3205686031173269,0.474385917186737,0.0053480961360037,0.2390207648277282,-0.015334665775299,0.0152856111526489,0.0112873911857604,-0.0506500303745269,-0.0029817803297191,-0.0254380295962677,-0.0773930177092552,0.0063518749359936,-0.0338653899238444,149
1733108767627193300,-0.0607433686457574,0.0736219933107495,-0.236506908917427,1.4089780323907732,-1.6837224636353552,9.557731937798858,0.0337520390748977,-0.546825647354126,-0.1563164293766021,-0.9397057234444496,0.1052012456672082,0.0402985722890735,0.32289628420673,0.5626108646392822,0.0172547698020935,0.2310137748718261,-0.0038880705833435,-0.016495943069458,0.0072964280843734,-0.0588287562131881,0.022712530568242,-0.0450619341202545,-0.0850571170449256,-0.0195044588458025,-0.0456403733290266,150
1733108767666920200,-0.2571124745726585,-0.1017050552397966,-0.043766076490283,1.6514356664061545,-1.648755779672414,9.524954288312792,0.1149618998169899,-0.6839602589607239,-0.1739804893732071,-0.938211416981254,0.1077519512511253,0.0524596541598234,0.3246487962201641,0.319911390542984,0.0281050186604261,0.3016974627971649,0.0035104155540466,-0.0512217879295349,0.0445575267076492,-0.0676749795675277,0.0040162885561585,-0.0290063987354864,-0.0611480139195919,0.0163995516330236,0.0356970486306818,151
1733108767706646800,-0.4648701127372682,-0.1313274555653333,-0.3095943569600582,1.900044224266708,-1.6113519316904246,9.484922722175718,-0.0353802740573883,-0.4963148534297943,0.0026594242081046,-0.9369511318962016,0.1102837703038999,0.0651230287492966,0.3251448664300725,0.0996320024132728,-0.0119658056646585,0.2712343633174896,-0.0072337388992309,-0.0099963545799255,0.0218773484230041,-0.0727023482322692,0.0216351374983787,-0.0264010202763718,-0.0639092624187469,-0.0056364138639735,-0.0137247611995087,152
1733108767746373000,-0.050474341957271,0.056390288002789,-0.2672270413517952,2.0369135318681595,-1.6801079264000056,9.44450127993822,-0.2598778009414673,-0.2881928086280823,0.0741452500224113,-0.9364796961630624,0.1159400455767522,0.0708685341850212,0.3233287023280312,0.2611953318119049,0.0389132499694824,0.2162497490644455,-0.0295153856277465,0.010082721710205,0.0319396257400512,-0.0832427889108657,0.011135583743453,-0.103570255456632,-0.0619791224598884,0.0275522772373049,0.0342165893981349,153
1733108767786176000,0.2060486422896385,0.0940669615767896,0.0197165078610181,2.142962461531162,-1.7743476141951977,9.40371158891022,-0.1820590496063232,-0.3420679271221161,0.0452107489109039,-0.9358490545447232,0.1223515266774176,0.0746609533447423,0.3219354650502147,0.4331055879592895,0.0250396691262722,0.1191165372729301,-0.0217252969741821,0.0320491790771484,-0.0190114378929138,-0.0891845077276229,0.0198652762919664,-0.0379731677359668,-0.0686791911721229,-0.0222271001591696,-0.0514757740847766,154
1733108767825905400,0.7748201512672006,0.2660666192702949,0.1342179163098335,2.2282569185875354,-1.8453418893508613,9.37016353957355,-0.2125137746334076,-0.0751007199287414,-0.0370337404310703,-0.9351217284511232,0.1273289252023882,0.0777299570244179,0.3213921135115131,0.5746073126792908,0.0869718566536903,0.0569329261779785,-0.0194767117500305,0.0099926590919494,0.0341797024011611,-0.0908005535602569,0.0237133912742137,-0.0528020405527437,-0.0605242103338241,-0.0112728277279471,-0.0274495223990175,155
1733108767865634600,0.0398584015272557,-0.0125699971072375,0.1507271525621414,2.2729404021836817,-1.8951596670955413,9.349465034937856,-0.1143138855695724,-0.1424079686403274,-0.0563750118017196,-0.934160391743782,0.1306896298695543,0.0789314284052628,0.3225435140132707,0.400339126586914,0.0881964862346649,0.0376828014850616,0.0028657913208007,0.0115175247192382,0.0104235410690307,-0.0913221165537834,0.0066091446205973,-0.0602305009199073,-0.0595731735229492,0.014456082565186,-0.0170438477357965,156
1733108767905363700,0.0077804247431457,-0.160499627905339,0.1128179854065179,2.319383588928729,-1.944901603125036,9.327818435797097,-0.1762145012617111,-0.0868617296218872,-0.016036557033658,-0.9334496255482232,0.1340185769613048,0.0803282334009221,0.3228902780198371,0.2245741933584213,-0.0324664451181888,0.0443409718573093,0.0165854692459106,0.026044487953186,-0.0129287242889404,-0.0780883133411407,-0.0096587361767888,-0.0167349290587415,-0.0520809665322303,0.0101085331889276,-0.0721968695781892,157
1733108767945093400,-0.0487171230264008,-0.1089567799337208,0.091034608143568,2.374684035868197,-1.9862690940409893,9.305159444743394,-0.0895906910300254,-0.2044505625963211,-0.0615607164800167,-0.932543188925595,0.1371410262299601,0.0822267359305008,0.3237193796092472,0.5390163064002991,-0.014952914789319,0.105887159705162,0.0194327533245086,0.0025977492332458,-0.0072876662015914,-0.0608669631183147,-0.0207643508911132,-0.0921340024865232,-0.065881036221981,0.0585251583067467,-0.0606441917207557,158
1733108767984823800,0.0284615398526191,-0.0761255005642771,-0.0310971490532159,2.45252963822335,-2.0138626188874245,9.27899975209236,-0.1227063611149787,-0.1656187623739242,-0.0644090920686721,-0.9316003565001362,0.1399821636421865,0.0854848468263763,0.3243734361644504,0.2735843658447265,-0.0236065369099378,0.1386130899190902,0.005999743938446,-0.0103713870048522,0.0330951809883117,-0.0517461635172367,-0.0105242263525724,-0.0468601426486391,-0.0572112649679183,0.005771155863523,-0.0124666052314219,159
1733108768024553000,-0.1607762528896331,-0.0216503985330462,-0.0851028800070285,2.503951490163803,-2.046790198238194,9.25803762808442,-0.0461266301572322,-0.2214710414409637,-0.0229314975440502,-0.9307878112260464,0.1426226616138758,0.0873511487475269,0.325057850590834,0.517869234085083,0.0114375744014978,0.178666353225708,0.01901575922966,0.0045676231384277,0.0128333568572998,-0.0726029425859451,-0.0085856094956398,-0.1143632786197587,-0.0538392066955566,0.0547047963009914,-0.0229973652957472,160
1733108768064282400,0.1588502532631159,0.048953562130779,-0.6907973215818405,2.6266534484639763,-2.073999253811687,9.217895587310194,-0.1411336809396743,-0.4479408264160156,-0.0699446722865104,-0.9298296749867948,0.1461907824120157,0.0929858370214833,0.3246515647507536,0.2596088945865631,0.0001491795846959,0.2048805058002472,0.0117209255695343,-0.0114844441413879,0.0367344617843627,-0.0962068513035774,-0.0054753045551478,-0.0579648210102459,-0.0670009925961494,0.0154263911853544,-0.0618953790919389,161
1733108768104011800,-0.0750976188212633,-0.236756792025268,-0.2184206326067447,2.813316130021214,-2.120783509079367,9.151935214668512,-0.1351345479488372,-0.5579828023910522,-0.12647645175457,-0.927672891489399,0.1520959342735387,0.1012324138593027,0.3256408088941298,-0.0016810363158583,0.0032821223139762,0.2978909611701965,0.0306926369667053,-0.072639524936676,0.0292186141014099,-0.0926146432757377,0.0031742448918521,-0.0982317257065791,-0.0418363511562347,0.0327325385525706,-0.0717345218966016,162
1733108768143742200,-0.2722556831687688,-0.4005579456940293,-0.2798790176540613,3.01675897372663,-2.1555514555998143,9.07871975633204,-0.1776732355356216,-0.4358850717544555,0.0421509072184562,-0.9256790592483536,0.1576645740412216,0.1107068495755188,0.3255828949199275,0.1830613762140274,-0.0025268711615353,0.3597206175327301,0.0073030591011047,-0.0036163330078125,0.0036676228046417,-0.0668747872114181,-0.0151747297495603,-0.0879142841659486,-0.0248027872294187,0.0429684963718056,-0.1425620850161183,163
1733108768183471400,0.9040937430426478,0.0907375248931348,0.0776011260747909,3.016112200255692,-2.281132622598112,9.048197776818276,-0.3759664595127105,0.3961139321327209,0.1196065917611122,-0.9253786487516108,0.1637914325713216,0.1088239595927335,0.3240435334920568,-0.1103358715772628,-0.115695983171463,0.2416947931051254,-0.0339191555976867,0.0431796312332153,-0.0153411626815795,-0.0273681133985519,-0.0313760265707969,-0.1056601860737428,-0.0177489034831523,0.0584614454207709,-0.061328844950092,164
1733108768223200800,0.5212456415623427,0.1351915836475789,0.1634995403736829,2.887199404616654,-2.3935222995899617,9.061209234082698,-0.2358254790306091,0.2111888229846954,-0.023853225633502,-0.9254275408887234,0.1671179420014859,0.1003917160590937,0.3249259085680165,-0.063413105905056,-0.1866313070058822,0.0585332885384559,-0.043244183063507,0.0498642921447753,-0.0553122460842132,-0.0300980824977159,-0.0282373707741498,-0.1121256557608023,-0.0590640269219875,0.0961786565011367,-0.071063796727918,165
1733108768262929200,0.2853787841141224,0.0498109096124768,0.1980290019631385,2.875566249968111,-2.475586104162037,9.042841218221188,-0.2362662404775619,-0.0359110943973064,-0.0934297442436218,-0.9243499936036806,0.1712151603501299,0.0981263267245847,0.3265481859772093,0.0535920709371566,-0.0736908540129661,0.0844806656241417,-0.0307132303714752,-0.0211880803108215,0.0374647378921508,-0.0513899847865104,-0.0423680990934371,-0.1527322544400114,-0.0842141807079315,0.136491076273052,-0.0763326633418211,166
1733108768302659600,0.232286368612945,0.0656032297670841,0.1079939262509346,2.912647149606049,-2.5193606562197206,9.01885185534656,-0.1164737790822982,-0.110205240547657,-0.1511955559253692,-0.9227849984831116,0.1744100266751745,0.0987302206622904,0.3290918331715748,0.0497017242014408,-0.1129655539989471,0.128806322813034,0.0200244784355163,-0.0003068447113037,-0.0004644691944122,-0.0497447066009044,-0.0517378896474838,-0.0857807336028199,-0.0392381586134433,0.1828221900789067,-0.0637688311138888,167
1733108768342389000,0.0002720949396491,-0.1911912648975849,-0.260375275760889,2.991282879425585,-2.54433376943469,8.986043810722231,-0.1342114359140396,-0.2027235627174377,-0.1312640756368637,-0.9210645825863772,0.1774462642804365,0.1017453191257979,0.3313621675054226,0.0943030193448066,-0.1418713927268982,0.1300294548273086,0.0044635236263275,0.0068461894989013,0.0064893960952758,-0.0269215479493141,-0.0139953615143895,0.016203232193191,-0.0057475427165627,0.1082870457123033,-0.0622744415374007,168
1733108768382118100,0.1478185716390609,-0.1652723952651023,-0.0436170234084129,3.068492083573341,-2.58162538921386,8.949299011170863,-0.1494242250919342,-0.15033620595932,-0.084085926413536,-0.9194853113498924,0.1810263523769157,0.1046049892563712,0.3329173244064571,0.0070701111108064,-0.1307791173458099,0.1230505630373954,0.0006783902645111,0.007364809513092,0.0314477980136871,-0.0223863795399665,0.0068216258659958,-0.0242194909692276,-0.0179462097585201,0.1168445466420147,-0.0682209973503137,169
1733108768421847600,0.3061842562556267,-0.053010874697566,-0.0979132617413997,3.121713970673084,-2.6262504206210373,8.917852318027615,-0.161526083946228,-0.0604684725403785,-0.1676527857780456,-0.9179904617733964,0.1845439176751387,0.1061112558673662,0.3346303195128159,-0.0359948016703128,-0.0852100327610969,0.1222994178533554,-0.0184465944766998,-0.0098066329956054,0.0328547358512878,-0.0269516706466674,0.0152933076024055,-0.040323000531434,-0.020509572699666,0.0983132573770359,-0.0162689383901422,170
1733108768461578000,-0.7453413971960544,0.1512763108775019,0.0443476757705211,3.1955075211584565,-2.6668340676829216,8.879589515128732,-0.1565959304571151,-0.187510684132576,-0.0852705240249633,-0.9160288289645052,0.1883763102888102,0.10854162251611,0.3370820848128802,-0.0062124049291014,0.0245410706847906,0.0576513819396495,-0.050309807062149,-0.0212970972061157,0.0300648212432861,-0.0309709962457418,0.0109249092638492,-0.0508243153055664,-0.0010015199659392,0.1198322115501388,0.0552363139283843,171
1733108768501307100,-0.3750499949499964,0.2241486548647284,0.2517079851806164,3.1729739100500938,-2.7563161856874823,8.860324258166552,-0.2909370958805084,0.2909587919712066,0.145224243402481,-0.9155000568479964,0.1924733453543726,0.1058451859299752,0.3370616234250963,-0.2348248064517974,-0.0754368156194686,-0.0494676157832145,-0.0308296084403991,-0.0018297433853149,-0.0431866347789764,-0.0439465008676052,-0.0069972928613424,-0.0691735762342577,0.0104974601417779,0.1234614440311212,0.0155355198238568,172
1733108768541036500,-0.0311477101966738,0.2037339356064796,0.0370990198165178,3.1067990178748963,-2.8553122742295263,8.852422106739878,-0.1867290288209915,0.0005915240617468,0.1159020960330963,-0.9158734578991308,0.1960047457690461,0.101164380031172,0.3354454502413022,0.0389124602079391,-0.0924747586250305,-0.080430656671524,-0.0168648064136505,0.0369353294372558,-0.0454780459403991,-0.0320808589458465,-0.0176236927509307,-0.0245311393178417,-0.045754250138998,0.0993472674667369,-0.060435818800237,173
1733108768580766000,0.5819722052037716,0.2598524209305644,0.151302322101593,3.0935762559473514,-2.9398616120070216,8.82934752062261,-0.2268266230821609,0.0708331987261772,0.0286908615380525,-0.9156052563794588,0.1999525164781307,0.0992347549023897,0.3344225790046042,0.0106621822342276,-0.1346586048603058,0.0154968723654747,0.0212684571743011,-0.0392365455627441,0.0007198452949523,-0.0041512735188007,-0.025615582242608,0.0385684119490673,-0.017737403512001,0.0977252100897021,0.0326905191918835,174
1733108768620496400,0.7230915714651346,0.0741907331094145,0.4449292946010827,3.06004632678926,-2.992124006424844,8.82347424467504,-0.0910228565335273,0.144127756357193,-0.154282659292221,-0.9146964698752128,0.2021701449789497,0.0962042275374832,0.3364556079772494,-0.3306863605976105,-0.1212330162525177,0.1222838386893272,0.0363396704196929,-0.0386210083961486,0.0191758871078491,0.0146493855863809,0.011830698698759,0.1064112510362174,-0.007825088687241,0.0257853040974005,0.0386510030654491,175
1733108768660225500,0.376054203556478,0.2200865199923515,-0.1923988871216773,3.111698772615194,-2.957556843173504,8.817061455023289,0.0117637384682893,-0.0260221939533948,-0.249797984957695,-0.9130255150039712,0.2018829066343598,0.0984798008396033,0.3404841043780358,-0.4836210310459137,-0.1339814066886901,0.2005492150783538,0.0453750193119049,-0.0112881660461425,0.0093685388565063,0.0181577000766992,0.0241731610149145,0.0632553742995718,-0.0045339772477746,0.0071265850647148,0.0892337510003708,176
1733108768699955000,-0.042885786524415,-0.1645522642970085,-0.0865764596909284,3.099682756128907,-2.9541946732640265,8.822419767186044,-0.0969786271452903,0.1865512728691101,-0.0700997337698936,-0.9120545876065728,0.2017840088019787,0.0972882114178363,0.3434745559725988,-0.5271586775779724,-0.1825059503316879,0.2073033303022384,0.0171655416488647,0.0175850391387939,0.01984503865242,0.0017651543021202,0.0193660408258438,-0.005678228299506,0.0043091922998428,0.0178260110894334,0.1105213806356303,177
1733108768739685400,-0.2765498732313514,-0.2955351442083716,0.2806219449758529,3.0243451910719275,-2.9709044005244967,8.842932393860817,-0.0074689984321594,0.2624484896659851,0.069354124367237,-0.912026866632803,0.2012455566644261,0.092930948506552,0.3450668196214031,-0.2149935811758041,-0.1669543236494064,0.2224170267581939,0.0096304416656494,-0.0006869435310363,-0.0008465051651,-0.0153379738330841,0.0307126846164464,-0.0281711808872059,-0.0095797590911388,-0.020864351305447,0.0226639069741242,178
1733108768779414500,-0.0444534742325544,0.2340951716005802,-0.4640665412694215,2.959393703211844,-2.985182224462926,8.860082266104222,-0.0473992750048637,0.0486589297652244,0.0349832288920879,-0.912836514606338,0.2005483569625458,0.0896764925146293,0.344191880791358,-0.3291726112365722,-0.2267354726791381,0.2407797276973724,0.0019407272338867,-0.0113988518714904,0.0075888633728027,-0.04229536652565,0.0453503355383873,-0.1255957343797665,-0.0218289084732532,0.0151078336053411,-0.0653186498051974,179
1733108768819195000,0.1440682791948318,0.2414873276785016,-0.3631540977120399,2.9350246933698654,-3.0482398614004254,8.846708405268192,-0.2349202036857605,0.0944702997803688,0.018297079950571,-0.9123832254127124,0.2032874860929141,0.0872788297223826,0.3444032661405375,-0.0236220210790634,-0.3318055272102356,0.3094730973243713,0.0337811410427093,0.023576021194458,-0.0234353393316268,-0.0454541072249412,0.0242753326892852,-0.1642482946480624,-0.0054935310035943,0.0388932736889924,-0.1076538715084549,180
1733108768858926000,0.3361868880704045,0.0955196446031332,-0.0558370380342006,2.899576655630767,-3.1270281514331697,8.830885397714376,-0.210028126835823,0.0812280029058456,-0.0087374430149793,-0.9117305527497096,0.2066391423763283,0.0839667780120046,0.3449597671673401,0.8305495977401733,-0.5926494598388672,0.5041333436965942,0.0812456309795379,0.024030864238739,-0.05314801633358,-0.028350980952382,0.0129286926239728,-0.1220554131580982,0.0083954203873872,0.0455637096299324,-0.1380959907190408,181
1733108768898658300,0.3423872040152549,-0.0759726480901241,0.2771533920824527,2.89143105083704,-3.17445508851856,8.816623063606023,-0.1105277985334396,0.0562080256640911,-0.0826611667871475,-0.9107168602158882,0.2090470941237707,0.0823203472458378,0.3465794770967799,2.771969556808472,-0.6874035596847534,0.6632484793663025,0.0447494983673095,0.1401767134666443,-0.0350646376609802,-0.0081975450739264,-0.0047674644738435,-0.1220554131580982,0.030094975605607,0.0455637096299324,-0.1380959907190408,182
1733108768938389800,0.0515314497947692,-0.0835343155160546,0.1693850912809371,2.8882486214086414,-3.1851492087513207,8.813808590707183,-0.0556162633001804,0.0704885274171829,-0.0636690929532051,-0.9099448539086914,0.209692126208151,0.0815476807662772,0.3483955638658654,2.343930244445801,-0.3746353983879089,0.75362229347229,-0.0344232618808746,0.0259770154953002,0.0508736670017242,0.0186009500175714,-0.0154357803985476,-0.1487961297006346,0.0334229916334152,0.062933572166413,-0.1472504802943673,183
1733108768978121000,-0.1526855931535363,0.0723798842951655,0.1556336293041706,2.88282367375046,-3.1938202987238764,8.812447239226103,-0.0448397919535636,0.0555623658001422,-0.0287544187158346,-0.9094060240530611,0.2101393085611826,0.0808190175347643,0.3497004035093798,0.6876888871192932,-0.1638909876346588,0.5487815141677856,-0.0853585004806518,-0.1632940173149109,0.0856287777423858,0.0536491088569164,-0.0242356806993484,-0.1496032996313646,0.0267453379929065,0.0596939235249068,-0.131002433995204,184
1733108769017852400,-0.1117711067020893,0.0251686357870697,0.2387222468793392,2.876924386578798,-3.198832573927939,8.812557129341364,0.0164275746792554,-0.0024988062214106,0.0002525611780583,-0.9092432790854088,0.2103107138862858,0.0803370784719723,0.3501313555275943,0.1107983738183975,0.1143567636609077,0.0947187915444374,-0.0891124606132507,0.1407815814018249,0.1239835619926452,0.0593308694660663,-0.0272700954228639,-0.071279078879836,0.0274320282042026,-0.0568957852729363,-0.0600428237275453,185
1733108769057584600,0.0961012438833713,0.0797889915078878,0.0574134935706853,2.8884207631051537,-3.1861163002178072,8.81340293251574,0.0429301410913467,-0.0736146345734596,-0.0041340673342347,-0.9094317369567968,0.2098622084710666,0.0812364243512993,0.3497031944962095,-0.3870124816894531,0.04556230828166,-0.1763925403356552,-0.0885148644447326,0.0357559919357299,-0.0266931056976318,0.051504261791706,-0.0055805146694183,-0.1656588372994214,-0.0119523722678422,0.0237899084795033,-0.2123398513883352,186
1733108769097315800,0.0164426007568836,0.0575321515142917,0.0401133992016315,2.887574375408888,-3.170443222528696,8.819330568999051,0.025533128529787,0.0308179222047328,0.0298949424177408,-0.9096793770703252,0.2090235613775209,0.0815379760501604,0.3494912456061312,-1.4857627153396606,-0.1058087348937988,-0.2884323298931122,0.0192776620388031,-0.1338803768157959,-0.1263847053050995,0.0970431566238403,-0.0573157593607902,-0.1395975087226368,-0.0229542888700962,0.0524325953189982,-0.1940448276977986,187
1733108769137047000,0.0121139239028096,0.0637584786832332,-0.0013958382725715,2.8678113980576394,-3.167392310525477,8.826872070419787,0.0048872269690036,0.0477032214403152,0.0515830181539058,-0.9101653235465156,0.2083917820582771,0.0807938838315799,0.3487752814333379,-1.251842975616455,-0.3372336030006408,-0.2945221662521362,0.048739731311798,0.0018973350524902,-0.0840728878974914,0.1065135225653648,-0.0558081716299057,-0.0455574534190818,0.005341975018382,-0.0052468271703866,-0.0371775101465173,188
1733108769176778200,0.1875093615144491,-0.0118973585426807,-0.0008393734335899,2.856718049374223,-3.163113318032026,8.832001834523677,0.0485608130693435,-0.0236422847956419,0.0357888229191303,-0.9106470105117098,0.2078642181861314,0.0805337572390075,0.3478918288581895,0.2689240872859955,-0.2087640315294265,-0.0623817443847656,0.0512922704219818,0.0272349119186401,0.0185157358646392,0.0893720015883445,-0.020556328818202,-0.032994262795255,0.0362982004880905,-0.0171714059384888,-0.0163522259095567,189
1733108769216510700,0.2381625671699643,-0.0209977798432111,-0.125975573143363,2.868463432225585,-3.143538264468312,8.835183387169241,0.0461992248892784,-0.0546746104955673,-0.033084750175476,-0.9107980959788562,0.2070921947771153,0.081509702060972,0.3477294645504939,0.522053062915802,-0.1624576300382614,0.1415384858846664,0.0967781245708465,0.0431402325630188,0.1002688407897949,0.0725654438138008,0.0087238177657127,-0.0024215046547906,0.060315404087305,-0.0097189459245186,0.0487441206311807,190
1733108769256247000,0.0974979589387774,-0.1381412272334098,-0.0878583161950111,2.899892881973088,-3.1208158527895806,8.832978570601343,0.0564526952803134,-0.0568008758127689,-0.0682920739054679,-0.9104384355833534,0.2066537513529961,0.0832924982884058,0.3485090044139932,-0.3439454138278961,-0.307416707277298,0.0181847997009754,0.0398025810718536,-0.016990840435028,-0.1198379695415496,0.0593462586402893,0.0222308598458766,0.0097022665010648,0.0793887078762054,-0.0883929984604474,0.084462070485996,191
1733108769295978200,0.009280161781609,0.0178507139891386,-0.2135784532725811,2.931996285459399,-3.098290424987673,8.830310228174925,0.0125634185969829,-0.0356536135077476,-0.0470961853861808,-0.9100330885348196,0.2062515596049197,0.0850868274206473,0.3493713510443647,-1.2363790273666382,-0.2748869657516479,0.0335439145565032,0.0154680907726287,-0.0260329246520996,0.1116349101066589,0.0515514276921749,0.0431265756487846,-0.0619726090466137,0.0417885296046733,-0.0412754104520194,0.0225597205138648,192
1733108769335710500,-0.0020987258449196,-0.0010796119302511,0.1029828200906515,2.9396342329919336,-3.1095868950277565,8.823797485280036,-0.0841543078422546,0.1637515872716903,-0.0546568967401981,-0.9093836308633368,0.2071017968783499,0.0849727954962611,0.3505848802891584,-0.4050686955451965,-0.4940877556800842,0.3133321702480316,0.0247342586517334,-0.0093982815742492,0.0212117433547973,0.0341271944344043,0.0054222815670073,-0.1351059968565125,0.0360129252076149,0.0081115278525452,-0.0107391318431997,193
1733108769375441700,-0.4095467233136296,-0.0805889097139239,0.322248671349883,2.8745269700482488,-3.1246482705593106,8.839912169256806,0.0461899377405643,0.1066184118390083,0.0468401052057743,-0.909582198501974,0.2065676517453153,0.0813616072881729,0.3512409429020863,0.1129587292671203,-0.3842674195766449,0.1991772204637527,-0.0381501019001007,-0.054147720336914,0.0853363871574401,0.0485581867396831,-0.0050290953367948,-0.0593672305874992,0.0204156339168548,-0.0633113742365501,-0.0268620893163257,194
1733108769415173000,0.028838556471467,0.205639184705913,0.0448339979827403,2.8666490762799977,-3.09963044141978,8.851271183139085,0.0837347507476806,-0.012249432504177,0.0045812842436134,-0.910071277616313,0.2050871820358237,0.0815476255846737,0.3507985068641102,0.3786759078502655,-0.1425574868917465,0.1920379549264907,-0.1097843945026397,0.0699617266654968,0.1553167849779129,0.0524552278220653,0.026937423273921,-0.0226207277028122,0.0238792281597852,-0.0879425512792076,-0.0807499911603052,195
1733108769454904600,-0.0240370014086365,0.1141200079157948,-0.1281266136974096,2.857425028599798,-3.076046736736596,8.862473545154929,0.0602870509028434,-0.0316446013748645,0.05222774669528,-0.9106902134401658,0.2036217547877941,0.0817176405174634,0.3500052233302336,1.0592511892318726,0.3507758975028991,-0.1081396490335464,-0.0687421262264251,0.0863633751869201,0.1548143327236175,0.0724392160773277,-0.011867705732584,-0.0785517139310482,0.014809526503086,-0.0224182319672312,-0.0535297383393626,196
1733108769494636800,0.2465852353394031,-0.0371983885377645,-0.1256961716800928,2.8539059145629406,-3.071223554363846,8.865280419269203,0.0002557463012635,0.0010823418851941,0.0380784757435321,-0.911149012593208,0.2032139253957525,0.0818572113254278,0.3490144229584253,0.4587331712245941,0.4133341908454895,0.0363666005432605,-0.0499982833862304,-0.0270526409149169,0.0265883207321167,0.0602077282965183,-0.0182427335530519,-0.02061494540493,0.0378470495343208,0.0026589289982133,0.0051507446723029,197
1733108769534368000,0.1190977963283658,-0.1434250128552317,0.021973346877098,2.850460450284183,-3.061812459678948,8.869642706131934,0.0457685813307762,-0.0134448241442441,0.0164000708609819,-0.9114432038790306,0.2026225137471171,0.0819645462118945,0.3485644502133783,-0.2873559296131134,0.3345771133899688,-0.1786488890647888,0.0976677238941192,-0.0575401186943054,-0.0614084899425506,0.0472370535135269,-0.0117422817274928,0.0756627418907359,0.0794545859098434,-0.0135466350034927,0.1139516199457924,198
1733108769574099200,0.202244866092503,-0.0064841013222932,-0.1280734222054481,2.883132885830104,-3.0377433095663786,8.86735839458704,0.09271951764822,-0.1272520422935485,-0.0141332680359482,-0.9116594832421216,0.2020043338711762,0.0841712148354199,0.3478310373288356,-0.1934022754430771,-0.1160458177328109,-0.0612973757088184,0.0714854598045349,0.0707247257232666,-0.0579942762851715,0.0230854004621505,0.0517420880496501,0.1088408802027814,0.1209593266248703,-0.0281301387740531,0.1296261589396279,199
1733108769613831700,0.2617980020403861,0.1045017002210021,-0.3016185557752847,2.9266800588727,-3.011810703669488,8.861936954060196,0.0310642048716545,-0.0709099769592285,-0.0818319544196128,-0.9113352662151984,0.2016265291634892,0.0866816271881457,0.3482831862145661,-0.838165283203125,-0.4568802118301391,-0.0004382185870781,0.0864218771457672,-0.0358021855354309,-0.0644304156303405,0.0103626102209091,0.0600359067320823,-0.0847616379544604,0.0906679630279541,0.1138033614483661,-0.0774796733858995,200
1733108769653563100,0.0919300956785678,-0.0663636927455663,-0.2604576933473349,2.9485563751161097,-3.0089883397251365,8.855641653308272,-0.0440656244754791,0.0421203821897506,-0.0739668160676956,-0.9107033846669704,0.2020511141877403,0.0875401125793367,0.3494732570430605,0.0529009811580181,-0.4061790108680725,0.25942462682724,-0.0076504051685333,-0.0723692774772644,0.1422843933105468,0.015545692294836,0.0425198748707771,-0.1259915287643205,0.059263989329338,0.1191212137365713,-0.0671781783330719,201
1733108769693294300,-0.6694821463525295,-0.1977858408570289,0.245800222441554,2.9058161345422264,-3.035134588372707,8.860845067170262,-0.072992667555809,0.1763336211442947,0.0303612574934959,-0.9103364851493286,0.2026180443967315,0.0846673603550581,0.3508058835235494,-0.1668375134468078,-0.2236696481704712,0.3405750393867492,-0.0590813755989074,-0.1981443166732788,0.0422664284706115,0.039696455001831,0.0028024949133396,-0.0826436594197992,0.0561282187700271,0.0423906279851915,0.0212806678882217,202
1733108769733025500,-0.1243646308153867,-0.0354524216532707,0.1957704093813896,2.878295090410113,-3.0358591032549738,8.869574901592731,0.0711105093359947,0.0296308975666761,0.0859191641211509,-0.9109077631501464,0.2020036537913045,0.0834988707726901,0.3499562626704508,0.0839430540800094,-0.0234463196247816,0.2166372388601303,-0.0560551583766937,0.0969843864440918,0.1577791273593902,0.0159776397049427,0.0626613721251487,0.0501249896634835,0.0446998439729213,-0.0969504993901587,0.0904086217323318,203
1733108769772757800,0.3810208860531449,0.0694859164193272,-0.1658820515960455,2.848906791101396,-3.037397857129573,8.878531530508399,-0.0089318007230758,0.0296207256615161,0.0476052649319171,-0.9116968864529618,0.2013454346820505,0.0823460713654226,0.348551026896551,-0.3601361215114593,0.3103974759578705,-0.2447504848241806,-0.0989685654640197,0.2062937021255493,0.0986984074115753,-0.0008443078259006,0.0424405634403228,-0.1022675662270747,0.0167603772133588,0.0165342942033952,0.0095056810581067,204
1733108769812489000,0.4889607440292834,-0.1257753743961453,-0.0036731355547904,2.845862601099908,-3.0345708170101044,8.880474481269717,0.0413161143660545,-0.0307477582246065,-0.0203895289450883,-0.9118481563919132,0.2011157213385588,0.082305951731996,0.3482973951314965,0.1698196083307266,0.5535224080085754,-0.3107221722602844,-0.0134633481502532,-0.0194060802459716,0.03590789437294,-0.0020031132735311,0.012718859128654,-0.0679986598365241,-0.0049953018315136,0.0631912686879513,-0.0020678951693495,205
1733108769852377900,0.1747100856959819,-0.2032946674063801,-0.2363695462733507,2.8762510173618794,-3.018103958594799,8.876295149758457,0.0469996854662895,-0.1657980978488922,-0.0609525367617607,-0.9115073212341191,0.2009586528411585,0.0839674180010536,0.3488830987403703,0.3421807289123535,0.0973502993583679,-0.1058599129319191,0.0828798711299896,-0.0014646053314208,-0.109761506319046,-0.0042099999263882,0.0003948024241253,0.0180095669458154,0.0088026961311697,0.0193770376404281,0.0442710668703541,206
1733108769892116200,0.0916930720522999,-0.2083756239324808,-0.2688502586394548,2.9341292058348656,-3.007635463811457,8.860891828921437,-0.0368840359151363,-0.0550197064876556,-0.0336526632308959,-0.9107706650981822,0.2017016739235605,0.0868141175911109,0.349680794935949,-0.8628045916557312,-0.452504962682724,-0.0421176888048648,0.1343276500701904,0.049362301826477,-0.2188369929790496,-0.0301748607307672,0.0195730347186326,0.0083154238148796,0.0306263286620378,0.0441356450216146,0.0995282683231402,207
1733108769931854000,0.2162239993453025,0.0057239306047558,-0.2146031201452016,2.9661189198136326,-3.0379803331926465,8.839864238461852,-0.1040466278791427,-0.0312096029520034,-0.045495580881834,-0.909997697502403,0.203961474870734,0.0877045245275742,0.3501595558493726,-1.2355777025222778,-0.2408244460821151,0.0146731566637754,0.0318623483180999,-0.0492779612541198,0.1987819224596023,-0.0635319724678993,0.0242484044283628,-0.0129508656340069,0.0161965973675251,0.0523035621118498,0.1170344705903902,208
1733108769971591400,-0.2556146372303366,0.0624585020005702,0.3213023304104805,2.931134992454946,-3.080499332231283,8.836818294894695,-0.0944261103868484,0.1975694149732589,-0.0058170105330646,-0.9094053454735876,0.2055219267511156,0.0849023173037279,0.3514743114771035,0.319240540266037,-0.2925639152526855,0.4062438011169433,-0.0681978166103363,-0.0035609006881713,-0.1203669607639312,-0.0518815480172634,-0.0127322264015674,-0.1194263341629877,-0.0047409618273377,0.1711597545369528,-0.0677656136990524,209
1733108770011329000,-0.2470285951927304,0.1107291964337229,0.262342776441574,2.885438824684918,-3.0982439554974435,8.84564925160408,0.0173954851925373,0.089406780898571,0.0411106422543525,-0.9096906587567162,0.2054609607323757,0.0823601614514235,0.3513765896033728,0.0801563113927841,-0.1164814084768295,0.2080267667770385,-0.02229905128479,0.1028867363929748,0.1812795996665954,-7.33428169041e-05,0.0287712216377258,0.1148588070517405,-2.5404850021e-05,-0.068962426834763,0.0145345021132379,210
1733108770051067600,-0.0943377413421869,0.1205024024292826,0.0176730193346738,2.8744547815948724,-3.0861700713440774,8.85344268195927,0.0493519343435764,-0.0218357555568218,0.0362010449171066,-0.9101285285595768,0.2045644780634714,0.0821791522392902,0.3508077833413368,0.4490850865840912,0.3631184995174408,-0.0835118666291236,-0.1098013222217559,0.0513988733291626,0.1584612280130386,-0.0050183273851871,0.075264111161232,-0.0460529727179091,-0.0369772873818874,0.0090108050758513,-0.0287146446807193,211
1733108770090805000,0.1980117585673928,-0.0142915602028369,-0.2683914089560508,2.878088461922109,-3.0794656052693723,8.854597112691401,-0.0117756715044379,-0.045543372631073,0.0114282164722681,-0.9104132348005936,0.2042390410023784,0.0826293908941012,0.3501523465425171,0.2219587117433548,0.5768323540687561,-0.178271934390068,-0.0523707568645477,0.0753364562988281,0.1113819181919097,-0.0443505942821502,0.060968242585659,-0.0699246411967324,-0.0469135120511055,0.0392146876630838,0.0382133605668554,212
1733108770130542600,0.0253045371264219,-0.171377141880989,-0.1257797583103179,2.876467874982953,-3.0908722576856613,8.851148433542251,-0.0470677018165588,0.0220110137015581,0.0506872646510601,-0.9105115818595022,0.2047410748117714,0.0824507436650458,0.3496449463000204,0.1219413056969642,0.4502496719360351,-0.2083245813846588,0.0414860844612121,-0.1259604692459106,-0.0925360023975372,-0.0270152296870946,0.0168810430914163,-0.0652374606280354,-0.0240780245512723,0.0499039444910595,-0.0553822937037562,213
1733108770170281000,-0.0038254035070538,-0.1380176008537411,-0.1927887632220983,2.899612311466038,-3.103133188843727,8.839298421272636,0.0099719241261482,-0.1690322309732437,0.0312324464321136,-0.9105989248486004,0.2057484498724626,0.0835989562121087,0.3485516853601127,0.2514471113681793,0.1078504025936126,-0.2015126794576645,0.1044108867645263,-0.0216792821884155,-0.1127510070800781,-0.013122190721333,0.0396202430129051,0.0504085878112586,0.0114481719210743,-0.0389496709181927,0.079408540822938,214
1733108770210018600,0.2062269214659929,-0.0596709171086549,-0.1352080963909626,2.92030117149055,-3.12910641901195,8.823317008286715,-0.1034028306603431,0.0433774441480636,0.0498691536486148,-0.9104686062015508,0.207429642132864,0.0843148108581265,0.3477223797875152,-0.4972513318061828,-0.4170930981636047,0.0063526425510644,0.0901989638805389,-0.0653476119041442,-0.139868825674057,-0.0494196563959121,0.0455026887357234,-0.0180575434065423,0.0211260206997394,-0.0020043227056245,0.0890184094829484,215
1733108770249752000,0.1764142592653632,0.0227300104632973,0.0419283396691083,2.910010663622617,-3.162874833101034,8.81467192953825,-0.0377455912530422,-0.065977968275547,-0.0300966240465641,-0.9102871238360531,0.2089292320368745,0.0832188010992402,0.3475638291114274,-0.494880348443985,-0.342143177986145,-0.062491338700056,0.0567350685596466,0.0208516716957092,0.0059537887573242,-0.0679701492190361,0.0295446179807186,0.0038881419996061,0.0207701381295919,-0.0561847828927915,0.0623716639673337,216
1733108770289490700,0.005900748476386,0.0089744568333029,-0.1599608448535203,2.9383684508398176,-3.180693106125295,8.798838985112308,-0.0943793207406997,0.02128023840487,-0.0397773087024688,-0.9094741997166774,0.2105220446119043,0.0840507817394474,0.3485292276572465,-1.1525157690048218,-0.1927418261766433,0.119782730937004,-0.0291574895381927,-0.0490092635154724,0.070841908454895,-0.0498719476163387,0.0274663679301738,-0.0505562846196815,0.0173850860446691,-0.0334333597487071,0.064203322674171,217
1733108770329228300,-0.27773674492836,-0.0080780925154685,-0.0716197135776281,2.932008852680027,-3.2052398106217383,8.792050347885489,-0.0888487547636032,0.0489544756710529,0.0180952120572328,-0.9091589597717394,0.2116770627897301,0.0832046125122287,0.3488550959352835,1.3855494260787964,0.0678537636995315,0.4037504196166992,0.0010890960693359,0.0943444371223449,0.1015236973762512,-0.0357644595205783,0.0242980029433965,-0.0477950854111928,-0.0077940416522324,-0.0467206885121762,0.0108889235689421,218
1733108770368965600,-0.4244415101066231,0.2209521969109773,-0.0536158548533916,2.903337761729956,-3.245576789446175,8.786765100958943,-0.1380035728216171,0.0881671756505966,0.0674851983785629,-0.9090577504731082,0.2131348548415197,0.0810751571820616,0.3487323763205209,0.5760805606842041,0.0887358784675598,0.2037189751863479,-0.0603406131267547,-0.0394728779792785,0.0134798884391784,-0.0279238633811473,0.008647546172142,-0.0598627544529037,-0.0362772718071937,-0.0490537391362013,-0.0183992238505277,219
1733108770408703000,-0.1950362498879432,0.159191321785748,0.053100306546688,2.8579870463967323,-3.308763605721295,8.778062154543399,-0.1412954479455948,0.0682801753282547,0.1426500082015991,-0.9093510290610944,0.2153107822734221,0.078004099578575,0.3473290258038861,0.2885244488716125,0.3942258059978485,-0.1293086409568786,-0.1018146872520446,0.0012107491493225,0.1355248093605041,-0.034647099673748,0.0059682773426175,-0.0814126380538102,-0.0480396896600723,-0.0988866550845094,0.0101070456263842,220
1733108770448441900,0.2428603695973754,0.101197105717659,0.007806874358654,2.8263562288582325,-3.366888462431729,8.766194022095203,-0.125625342130661,-0.0196755025535821,0.110533557832241,-0.9098526872037812,0.2174601183837818,0.0758920208144242,0.3451368921215741,-0.1934922933578491,0.4137381911277771,-0.1605667620897293,-0.0437235236167907,-0.0126151442527771,0.0307854712009429,-0.0256696939468383,-0.0063500977121293,-0.1244488658995833,-0.060094516724348,-0.0046587884453852,-0.0861369722951203,221
1733108770488179200,0.2230459543198347,-0.0138563836559653,0.1539022754669189,2.824922396662831,-3.410749523729086,8.749684785842895,-0.0914519354701042,-0.0403219275176525,0.0467267893254756,-0.909873589514558,0.219586971504178,0.0753113162827399,0.3438600143107468,0.914545476436615,0.2298295199871063,-0.1818500906229019,0.0671972930431366,0.0852360725402832,-0.1907352805137634,-0.0063295559957623,-0.0346613526344299,-0.050720233876584,-0.0452415347099304,0.0214523917429149,-0.0716233668394386,222
1733108770527916500,0.2478054247841238,-0.0832943692803382,0.0813502494752407,2.866602022267878,-3.4155320818305013,8.734249900823832,0.033310167491436,-0.1848174780607223,-0.0238196551799774,-0.909748768911427,0.2206284597400974,0.0774614578039534,0.3430453488639162,0.2906483113765716,0.0677238553762435,-0.2091566175222396,0.0929488241672515,-0.0439504384994506,-0.02830570936203,-0.0155840795487165,-0.0186146702617406,0.0243192136002122,-0.0144188115373253,-0.0270888061777106,0.0578986056399298,223
1733108770567655400,-0.0845034528091549,-0.067996262383461,0.0959855085492134,2.880930991871655,-3.422899395728111,8.726647609126568,-0.0649439617991447,0.0612522140145301,0.0301706083118915,-0.9094112843817108,0.2213347411169666,0.0779469530158095,0.3433747656634862,1.251309514045715,0.0953597426414489,-0.092155821621418,0.022854059934616,0.1825987696647644,-0.0551598072052001,-0.0263526998460292,-0.0242128148674964,-0.0312521546685486,-0.0167178288102149,0.0385600870787166,-0.0559557964425068,224
1733108770607392800,0.0727773591801524,0.0586824905931949,0.2074327901244163,2.8794229253962635,-3.4294191528856754,8.724585415899753,0.0302439350634813,-0.0227312669157981,-0.0290553923696279,-0.9094056202271678,0.2216288712350407,0.0777854417228845,0.343236819307713,1.032329559326172,0.1283539235591888,-0.0075261550955474,0.0350732803344726,-0.0520722270011901,0.1140306890010833,0.0060484958812594,-0.0097999833524227,-0.0178537439131527,-0.0044680992141366,-0.0106283969111449,-0.0481636538621038,225
1733108770647130400,-0.2516197223752737,0.1271861179769039,-0.039560441493988,2.89691328164041,-3.414424997371435,8.724676601314544,0.0321164280176162,-0.0384226702153682,0.0015232949517667,-0.9093611422739912,0.221227199870863,0.078891194264059,0.3433614091319,1.416363000869751,0.080565720796585,0.1334184557199478,0.0075105428695678,0.0139875411987304,0.014572262763977,0.0300900768488645,0.0078868735581636,-0.0837425514392554,-0.0141308801248669,0.0447845373844029,-0.0911904928250238,226
1733108770686868700,-0.1369394502282142,0.1876511080726981,-0.1069914712101221,2.890121721804142,-3.414585740891099,8.72686563579142,-0.0216359533369541,0.0580308474600315,0.0383262485265731,-0.9095796390310236,0.2210584534692356,0.0786565032458465,0.3429448034341866,3.22953200340271,-0.0348205231130123,0.0913026183843612,0.0247635841369628,0.0274023413658142,0.0500389039516449,0.0258915182203054,0.0095929903909564,-0.0324987412131391,-0.0218490362167358,-0.0314290364722604,-0.0248150913753546,227
1733108770726606300,-0.0995186511114239,0.1307376729786395,-0.0982879402726888,2.8571900508001447,-3.435035239201784,8.72968420034349,-0.0688257291913032,0.0622290074825286,0.058119349181652,-0.9098457201383672,0.2213917640164833,0.0767832642967183,0.3424482644293495,4.6827592849731445,0.1319943368434906,-0.0920000299811363,-0.0395253300666809,0.1336087584495544,0.0524948239326477,-4.72840620204e-05,0.0273216981440782,0.0322712480336194,0.0100192474201321,-0.107578897442948,0.0422449678702279,228
1733108770766344000,0.0575081861168146,0.0629948008343577,0.1086801549494266,2.829600033085048,-3.455578553275764,8.730562736743687,-0.0357373282313346,0.052638754248619,0.0387940220534801,-0.9100898837056758,0.2218362782984878,0.0751920413178171,0.3418644181096352,2.2777936458587646,-0.1372837871313095,0.0548557937145233,0.0346973538398742,-0.1023600101470947,0.0970082283020019,-0.0114915315061807,0.033011294901371,-0.0463085183815564,0.0298586897552013,-0.089493580113491,-0.0144996682618744,229
1733108770806082300,0.039840135218203,0.0317088512107729,0.1569938117414712,2.8016283225759864,-3.464694756667316,8.735968979701399,-0.0063103209249675,0.049456849694252,0.0333344861865043,-0.910345670546748,0.2217091179775319,0.07371973879626,0.3415865079079105,1.4926306009292605,0.0966008305549621,-0.1127740815281868,-0.0364843308925628,-0.0042245984077453,0.0353288054466247,0.0174844786524772,-0.0208730474114418,-0.1352337788214907,0.0352996662259101,-0.0411406644567148,-0.0036316419213108,230
1733108770845820000,0.0983294413268566,-0.0062801031827926,0.1582575480669736,2.8104762304201723,-3.450498181271553,8.73874545867741,0.0814981162548065,-0.0894698128104209,-0.0157614015042781,-0.9105078320495396,0.221138083509683,0.0744709761476865,0.3413613552515199,2.598050117492676,0.2903574705123901,0.2424715608358383,0.0190528035163879,0.1163743734359741,0.023818552494049,0.0208860114216804,-0.0074602956883609,-0.0617606833289843,0.0497589483857154,-0.1135338785909116,0.0250969359574606,231
1733108770885557500,0.1160243802323937,0.1123518291994929,-0.0100590371996164,2.852935315965116,-3.4117110622376203,8.740216115751862,0.1060314401984214,-0.1275400817394256,-0.0432326234877109,-0.9106412157424196,0.2199845737377809,0.0773291370112688,0.341115408667637,2.315051317214966,-0.0052404194138944,0.0890632942318916,0.0441303849220275,-0.0826744735240936,-0.0288562178611755,0.0105851842090487,-0.0215499512851238,-0.0532414594498928,0.0393973924219608,-0.0780223014957737,-0.0125568567811627,232
1733108770925295900,-0.0202691733077168,0.1017965329155325,0.1370551855623722,2.908424563474953,-3.3641955700859425,8.740345295089483,0.1599500477313995,-0.1731690168380737,-0.0736195668578147,-0.9104940079069934,0.218707019694871,0.0808309576581586,0.3415175580262045,2.4935412406921387,0.170279249548912,0.2281584739685058,-0.0121787786483764,-0.0066665709018707,-0.0035526752471923,0.0242117773741483,-0.0460329204797744,-0.1133161350538488,0.0517794601619243,-0.0548175770596601,-0.0334932937919977,233
1733108770964989400,-0.1840913697645068,0.1389303317844867,0.3699497492015361,3.005209113447368,-3.2597724880591032,8.747170172673464,0.3833523094654083,-0.3317350149154663,-0.0875413790345192,-0.910747857665396,0.2153011706237627,0.0875433441266662,0.341350269266171,1.9986399412155151,0.122101716697216,0.1724967509508133,0.0216580927371978,-0.0080547332763671,0.0359718203544616,0.0503143072128295,-0.0433083176612854,-0.0108647024431382,0.0589408539235591,-0.1031067843970376,-0.04367666290747,234
1733108771004725500,0.0558148262023925,0.2421682956799864,0.3106090869605541,3.1595977111265063,-3.086030662873388,8.755783102717995,0.5061697363853455,-0.4638532698154449,-0.1980775296688079,-0.9110370126669044,0.2095421188005947,0.0983432314860286,0.341221757869669,1.2744295597076416,0.1197414621710777,0.1102513447403907,0.0039180517196655,-0.0103364288806915,0.0625662803649902,0.0775479301810264,-0.0379072800278663,-0.0261890945587423,0.0907910838723182,-0.077894875723822,-0.0111875480392016,235
1733108771044462000,0.8018345610514283,0.5309972202479839,0.1681108335614204,3.3965476876363154,-2.849781528109312,8.747147960841655,0.5652713775634766,-0.6445003151893616,-0.5387974381446838,-0.909664705674896,0.2027359014885492,0.1136561936872814,0.3442247224116363,0.4432261288166046,0.0340499952435493,0.0887240171432495,0.023897647857666,0.0039182901382446,0.0056515932083129,0.0796194300055503,-0.0277912244200706,0.0375898492404958,0.1294633895158767,-0.1255294733436778,0.0727982375713996,236
