time_imu,phone_acc_x,phone_acc_y,phone_acc_z,phone_gravity_x,phone_gravity_y,phone_gravity_z,phone_gyro_x,phone_gyro_y,phone_gyro_z,phone_ori_w,phone_ori_x,phone_ori_y,phone_ori_z,watch_gyro_x,watch_gyro_y,watch_gyro_z,watch_acc_x,watch_acc_y,watch_acc_z,headphone_gyro_x,headphone_gyro_y,headphone_gyro_z,headphone_acc_x,headphone_acc_y,headphone_acc_z,frame_imu
1724723515947695600,3.823928466065228,25.95722829697132,-6.884171484470367,0.0694924648911226,9.596066636890171,-2.0201633264668284,-0.3853053450584411,-0.7709943056106567,0.0011692020343616,0.3254533578032694,0.4059038116276512,0.6619983102983391,0.5395187141393193,0.0773520618677139,1.2704110145568848,-0.5933985710144043,23.531852915394303,-16.60306604412794,3.838454711806774,0.3803843259811401,-0.4484245181083679,16.684737780642507,0.6873937845230103,-2.8998133869960903,-1.5612703884430228,0
1724723515987443500,-0.5792787648687139,24.807331116616723,-6.195653798258304,0.0402839973950292,9.668873514425751,-1.6375756294883788,-1.3947839736938477,-0.0337685607373714,0.0268223937600851,0.3397476099887043,0.4048292896290143,0.6477703052370379,0.5487061609869193,1.5087413787841797,0.7841587662696838,-0.6966438293457031,11.76988367089033,-13.205904316246508,1.7765198436677454,0.6207723617553711,0.4628802835941314,19.727688595724103,0.631050169467926,-3.264864550501108,-1.7651245894283054,1
1724723516027191300,1.5850599909618497,12.480316251790525,-5.585644416093826,0.0498803489863406,9.758225284048914,-0.9720734196174888,-1.9302576780319207,-0.1783636063337326,0.0530743524432182,0.3537628003308932,0.3939686516851783,0.6279734484512632,0.57034191594438,0.7152246832847595,1.1021397113800049,-0.5321573615074158,1.8483435553848744,-3.695113577842712,-3.032111441159248,0.5896444916725159,0.2781829535961151,15.21585648369193,0.4168692529201507,-2.264787783127278,-1.535849385330081,2
1724723516066939400,0.3133579838098957,-2.1324024890720845,1.6753519640445709,0.0891670424397103,9.798187292081115,-0.3974469740666448,-0.8770634531974792,0.2130719125270843,0.1254218071699142,0.3649429128497558,0.385608673634342,0.6095655069436051,0.5886871362915004,1.9775073528289795,1.669559359550476,-0.7081762552261353,-8.147440776982902,3.313676804465055,-0.6369701620653271,0.6733300685882568,1.704306721687317,1.247174482280016,0.7933515906333923,-0.2473583568700589,1.2375355701886117,3
1724723516106687000,0.932467604611814,-13.226924892443416,-1.3706383648633955,0.1733542506402358,9.8042639816463,0.1293946426055394,-1.928747177124024,0.3556385338306427,0.1897386610507965,0.3680084123926429,0.3737568672537566,0.5947339853491375,0.6092348697639383,0.0640050992369651,0.3390568792819977,0.2333740293979644,-13.84210963141918,10.958880591738223,-5.402789602386951,0.4385674893856048,-0.0417652130126953,-13.675038077777623,1.286345362663269,4.034066423495114,1.8748500156469643,4
1724723516146435000,0.2843782105031423,-13.294037357729673,5.87836888679564,0.2487806082255206,9.776505621626972,0.7269338530417532,-0.5284957885742188,0.2041865885257721,0.3064731657505035,0.3727849519055151,0.3608934587017869,0.5767951112842549,0.6309474800880372,-0.3375369906425476,-0.2728436589241028,0.4725873172283172,-9.46995837727785,6.687011082035303,-6.547352435976267,-0.058680459856987,0.6180558800697327,-3.684363343508541,-0.0553512126207351,-0.4216887407997622,0.6247513164833187,5
1724723516186183000,-0.4422630710665136,-12.144122641718386,2.4920763434529305,0.3469436982758343,9.788379599294066,0.4875074399484321,1.1106003522872925,-0.1030521839857101,0.127973660826683,0.3659823164711374,0.3690727101133605,0.5821764108549788,0.6252303966062105,-0.6316290497779846,-0.4055529832839966,0.5329166650772095,-7.863775811049342,7.433181331270933,-4.300928723187744,0.1446090638637542,0.0153104150667786,-9.27096608324051,0.2543839514255523,2.4372207176715133,0.347136298238486,6
1724723516265677600,-0.1879997023146599,-9.32042540293634,-1.0348819771647453,0.3322504619369283,9.800761526483296,-0.0710890316338744,0.555278480052948,-0.1529394537210464,0.0717927291989326,0.355900862178911,0.3790352639316292,0.5999639994409728,0.6080377873370929,0.0641651600599289,-0.1760324388742447,0.1256123930215835,-6.654461396086216,5.792030327513814,-3.8278660977751016,0.0348834469914436,0.1104702278971672,-9.580566869941354,-0.3726575374603271,2.6560452549040314,-1.0583654363438486,7
1724723516305425400,-0.5883531018799171,-9.759067580091951,-1.3151321662187576,0.3526738759582862,9.797823719465732,-0.2205988716949708,0.2190747857093811,0.038651131093502,0.0316618084907531,0.3531448536270612,0.383144153121926,0.6036952629654417,0.6033583868058385,0.5140036940574646,-0.1213434189558029,0.0461699068546295,-6.771875477111339,5.311137739127874,-3.704460959641635,-0.0442482531070709,0.0815700367093086,-9.864635740500688,-0.2900343239307403,2.6315768763408065,-0.9362387206483632,8
1724723516345173200,-0.8252120756380259,-10.08654713783264,-0.7585457466840744,0.401139033517614,9.794902863582967,-0.2633292484619655,0.0706566423177719,0.0622444972395896,0.2045350521802902,0.3498591822929893,0.3844480549280399,0.6046699500510612,0.6034670464326013,-0.0840533375740051,-0.1416092067956924,0.1780044287443161,-7.677731845912337,6.149115918967127,-4.671008236248791,-0.1369347125291824,0.0809485390782356,-9.882885682940485,-0.275831937789917,2.7249618470028043,-0.9862618117067964,9
1724723516384921300,-0.456260178367421,-9.756861594480275,-0.0082137015938758,0.4534169542981311,9.790380417722464,-0.3365511913381517,0.4107317328453064,0.0090708518400788,0.0333785749971866,0.3468752461471964,0.387434182800174,0.6058498898411133,0.6020949376588175,-0.6473063230514526,-0.0744911655783653,0.2663677036762237,-6.074653675439953,4.09833197491765,-2.780458693297207,-0.1831036359071731,-0.0489355213940143,-9.519892328748108,-0.2344511598348617,2.520203244523704,-1.172751474784687,10
1724723516424669000,1.510735840731114,-5.470870035922527,-0.6480255168259144,0.3945997314093634,9.783126501071452,-0.5523673770675436,0.5239685773849487,-0.3031567931175232,-0.4205658137798309,0.3446207483303218,0.3896509119063779,0.6134615438087135,0.594199977203412,-2.11311936378479,-0.9513217210769652,0.3147155344486236,1.7456354605823754,-0.6792559368699789,1.2836097774907946,-0.1405262053012848,-0.1496202945709228,-10.1689448505342,-0.2650417387485504,2.534419693663716,-2.014996445222944,11
1724723516464417000,-2.65569454177022,7.681864415672421,-1.017713400220871,0.3183553171731531,9.78518343360126,-0.5650036808766424,-0.1534246504306793,-0.0478661954402923,0.5236919522285461,0.3497909066688809,0.3907092511743451,0.6133135023142843,0.5906261219151527,1.516484022140503,0.3922584354877472,-0.5034780502319336,11.506708535277845,-11.97850420949459,3.564875086557865,0.1493729650974273,0.979719340801239,10.505666868394613,-0.8452790975570679,-5.659692818123101,-1.1315271917317062,12
1724723516543912700,3.0053833009704944,14.998022711062433,5.168979677468538,0.4705485602324828,9.794983527603744,-0.0853413101390935,0.2538551986217499,-0.1499799191951751,-0.1508973240852356,0.3517454324313575,0.3839304870998414,0.5974517361681898,0.6098557620135951,-0.5650636553764343,0.0640605390071868,0.5711718201637268,9.750863815370202,-9.117221044161916,4.765949496442079,1.1291491985321045,3.853183031082153,35.599001038503644,0.4179165959358215,-8.556464645466209,-1.5011477820441126,13
1724723516583660500,0.857538181964308,10.500311478841304,-0.4706231233060359,0.5233174794003367,9.776630709311366,-0.5603797108704224,0.4567457735538482,-0.0569808632135391,0.1191117316484451,0.3460445669875138,0.3994574183438036,0.607457969110346,0.5930276546008363,0.0833164826035499,-0.1411327272653579,0.5225568413734436,6.709166799741983,-4.417356423524022,4.453895179109275,-0.1385854482650756,0.4061119556427002,11.864613626420498,0.3969635665416717,-2.660729321067035,0.4088641844095662,14
1724723516623408400,-0.1310482002325356,5.798534302580356,2.7959692739009854,0.6495426433905959,9.764523507410289,-0.6344541606564075,0.7153896689414978,-0.2658341825008392,0.574339747428894,0.3403970136505473,0.404381576863616,0.6073085714029276,0.5931117902145088,0.2095053195953369,0.1337573677301406,0.0775685757398605,1.785379441949725,-0.8186948026984929,-0.5381038373827934,-0.2531323730945587,0.5237007141113281,3.053833151362836,0.2589021921157837,-0.3633147681664675,-0.5529381992254406,15
1724723516663053300,0.4381089470617473,-1.2612170361578463,-3.04189984472394,0.8314165563013404,9.732502229249476,-0.8703754517056047,0.0719973742961883,0.0085145784541964,0.2881918847560882,0.3321943861770049,0.4164620865708027,0.6090452608899503,0.5875969767772918,0.4386924207210541,0.2258337140083313,-0.1664362996816635,-3.224973854139447,3.340090179616213,-1.871388038624823,-0.0524816885590553,0.592736005783081,-1.5665204179257153,-0.2185262143611908,0.3061182418147102,-0.6941486047711223,16
1724723516702796300,0.3188686735227704,-5.243825367355346,-1.260570554947853,0.8442644205018878,9.739087452858683,-0.7795878771256655,-0.3441310226917267,-0.0385307632386684,-0.1663691848516464,0.3337507212528388,0.4153166721716216,0.6060197865923922,0.5906457952407562,-0.2303165346384048,0.2672601640224457,-0.1606194376945495,-5.650052298596501,5.62463494874537,-3.1826825263768432,-0.1046825051307678,0.3275347352027893,-4.542925461693108,0.5025067329406738,1.1718865285184237,0.4256836191222071,17
1724723516742540000,-0.3286556888479739,-8.724224181371927,0.7757670767284929,0.7667947387870401,9.751334940013288,-0.7027439991589636,-0.038222137838602,-0.1239382326602935,-0.2352919280529022,0.3385627801374529,0.4124369388806587,0.6047526293105586,0.5912234301230839,-0.3268246948719024,0.0215409304946661,-0.0924448370933532,-7.559267963573336,6.254915550044179,-2.981926729798317,-0.1650314778089523,0.2818520665168762,-7.029258585318923,0.5944323539733887,1.7282099862679838,-0.8738985112652182,18
1724723516782284300,0.1115126018963754,-9.414686571910975,1.2824796044170856,0.6197663676775992,9.760648127281666,-0.7183456190470605,0.1386680603027343,-0.0705164149403572,-0.4815690219402313,0.3440262441349178,0.409532971073802,0.6073781174591482,0.5873844601912785,-1.146359086036682,-0.5917234420776367,0.2871213853359222,-7.105918631151318,5.492189302805066,-3.408825862190127,-0.2461758404970169,-0.093456782400608,-6.804544405525922,0.1295673251152038,1.7761325979158282,-1.2991108596138656,19
1724723516861772000,0.1452014114106073,2.2520587960660454,2.044443635112047,0.2410133352248929,9.694708797428012,-1.4577147369004786,1.7396321296691897,-0.1151905059814453,-0.4696555733680725,0.3420140019489602,0.4131826758957447,0.6352974452723312,0.5556111026140954,-0.8438779711723328,-0.4570062160491943,0.1088439375162124,10.943746150970458,-8.200164066910743,5.359582913345098,-0.1916026324033737,-0.5073307752609253,0.0989796123312786,-0.256525456905365,-0.3856237036734819,-0.5799937447376549,20
1724723516901506300,-0.5365823269039393,14.299827680444716,-5.389601619511843,0.1621890240306966,9.627674658074977,-1.857945934858173,0.1229517757892608,-0.0448327288031578,0.173757717013359,0.3365007381415784,0.4186050167475371,0.6476872088640349,0.5404057614499185,1.058000087738037,0.6781626343727112,-0.5649534463882446,17.420690587246416,-17.007757436364887,7.083953467580676,-0.0677266418933868,-0.4342903792858124,6.143193543180823,-0.3309960961341858,-2.653032044562697,-0.5568365218382328,21
1724723516980994000,1.03540000968948,23.072320510423182,-5.695816270905733,0.3855584929501637,9.762360776418449,-0.8473864980451762,-2.224412679672241,-0.0879724323749542,0.314403772354126,0.3558086956943197,0.4124316750364542,0.6108230525176602,0.5746264915490292,1.1104356050491333,1.4485365152359009,-0.7616175413131714,9.617755321606992,-11.66622689706087,-0.4723778580188751,0.2231935858726501,-0.3154869377613067,19.03475192402601,0.3367058634757995,-2.371605505205691,1.392822578012198,22
1724723517020738000,0.6694166068356484,7.593486459517479,-2.640633750760556,0.5133190498141571,9.793207165580988,-0.0009193598884652,-2.111318826675415,0.0796592682600021,0.3407557308673858,0.370309478431637,0.4013687433137675,0.5821941310253579,0.6023488301447136,1.4286482334136963,1.825618863105774,-0.8642587065696716,-1.952334091213345,0.1490887377053499,-5.352738162016868,0.2659661769866943,0.7301461696624756,12.875711407893895,0.5702788829803467,-2.0551523683920503,1.810381050606817,23
1724723517060482000,1.241278994500637,-9.69788275128901,1.6744529693782328,0.5066376358214766,9.763425190779566,0.7676327970463782,-1.40290367603302,0.8276864886283875,-0.230400413274765,0.3793278350359535,0.3803619546691011,0.5623045455609845,0.6286882635579354,1.598957657814026,0.4775675237178802,-0.2821428477764129,-14.85650528539419,10.53480294650793,-5.553271840277314,0.1259095817804336,1.9315069913864136,-3.071383128839731,0.6604580283164978,0.4079195605032146,1.0294696697924286,24
1724723517100226000,-0.8734916109647601,-16.648659920567273,2.067880186409503,0.4672253340939059,9.737797997570038,1.0617902962259949,-0.3348464071750641,0.1596206277608871,0.1198390424251556,0.3787419470414779,0.3668910730879166,0.5579020520787866,0.6408517130687296,-0.6517902612686157,-0.9503774642944336,0.496432214975357,-13.09467447681427,10.925125621652604,-5.845214220690727,0.2800464630126953,-1.1670732498168943,-13.186882804912328,0.6473694443702698,5.089754165062308,-0.6337308148179203,25
1724723517139970000,-1.3274964116208254,-14.697262817943097,2.6683810048639773,0.5230447999387979,9.744406602054834,0.9712542121890932,0.908607304096222,-0.4830614924430847,0.0502306893467903,0.3789154622704485,0.3735009958730091,0.5576529602326684,0.6371367034970156,-1.002387285232544,-0.4761512875556946,0.7975577712059021,-7.187669278120994,6.448442564412951,-5.605946030366421,0.0981037840247154,0.5122548341751099,-5.309629088130593,-0.2035670131444931,0.5331830033218488,-0.7106409629538655,26
1724723517179714000,-1.2759206842929125,-10.083944846379756,-2.1551684476315973,0.4909219610996544,9.777636671483515,0.5720024171901866,0.7484695315361023,0.1199123188853263,-0.1746080070734024,0.3741245276260646,0.3819684882152586,0.5700316362661613,0.6238547880708027,-0.2681821584701538,-0.2367691248655319,0.538034975528717,-4.419585790011286,4.561714041054248,-2.877364531561732,0.037552636116743,0.0587524212896823,-9.40117710199654,-0.0899804309010505,2.311058535914868,-1.3553167309604583,27
1724723517219458000,-0.3183167021958157,-7.67367877112925,-1.7636936798423528,0.4691512241225689,9.788807469317316,0.3599428440479561,0.553909957408905,-0.1685433536767959,0.0891480967402458,0.3699059828533094,0.384663781903896,0.5776519686411326,0.6176744120778032,0.2569380700588226,-0.0351213365793228,0.0105883413925766,-5.338108163639903,4.902338911572098,-3.274954567360878,0.0100621301680803,0.0338404215872287,-9.7513115591377,-0.4447950422763824,2.336021858388185,-1.8080194360420108,28
1724723517259202000,-0.0998274978648871,-9.259565568304062,-2.6520997321486472,0.5180645273081957,9.790030289110542,0.2393426072673872,0.0045529147610068,0.1141185536980629,0.0970042869448661,0.3668996974435826,0.3892398654150298,0.579904518501458,0.6144815932363114,0.1900623738765716,-0.0332726761698722,-0.0759509429335594,-7.802212796583771,6.902037396028637,-5.127243645501136,-0.0251507889479398,-0.0151077546179294,-9.67358300729096,-0.3697361648082733,2.456570438046753,-1.3454806888617574,29
1724723517298945800,-0.0284208790486678,-11.11340246040821,-0.6140490129441023,0.5110022973043844,9.790606627693773,0.2308268174543976,0.2199171930551529,0.0670272558927536,-0.1038987264037132,0.3649367773836044,0.3872856274735494,0.5815848607198045,0.6152967067712011,-0.6030725240707397,-0.2417113780975341,0.0841985121369361,-9.21764132028818,7.765864302873611,-4.935555536997318,-0.0385843031108379,-0.0517219379544258,-9.66207435580492,-0.3537176549434662,2.279267559378594,-1.154473256098479,30
1724723517339931100,0.7988560566972941,-11.739306161797046,-0.1392307760357856,0.42188758784011,9.797308755680918,0.071594656768185,0.5806688070297241,0.1374064683914184,-0.3422713279724121,0.3640680675825321,0.3871026449736479,0.5886435514120458,0.6091836449681667,-1.1937891244888306,-0.4576174020767212,0.1983363330364227,-9.254901668146251,5.09898259665668,-5.2051130671232935,-0.0444835610687732,-0.0947365835309028,-9.79788392522037,-0.4005455076694488,2.4983964863851664,-0.9030302785295992,31
1724723517379675000,1.0076265982314945,-9.080540542018412,0.5811048112520948,0.2550154840270988,9.79790204539895,-0.3262721912449225,1.4892975091934204,0.0131119387224316,-0.5372552275657654,0.3596165351101824,0.3876665707967699,0.6052684375328764,0.5950131557906471,-2.939402341842652,-1.6577476263046265,1.334290623664856,-3.181516989728808,0.5412450580179691,-0.1727414159715175,0.1497496366500854,-1.454630732536316,-6.481121429699659,-0.6007110476493835,3.180779323104024,-1.1215142586961389,32
1724723517498907000,-0.900195566560328,18.81444562380313,-1.3824432228170334,-0.1210810060348361,9.710970780920984,-1.3611623882487416,-0.2671003341674804,-0.1389352828264236,0.2131577581167221,0.351048082047823,0.3957012380448643,0.6425110887434856,0.5544053213315563,0.5176530480384827,-0.0551006868481636,-0.0792703106999397,11.677110694646837,-13.286177876400949,4.365206549569964,0.4206210076808929,0.2052008807659149,14.25002290831208,0.3874073624610901,-1.973371180153638,-0.5661269127529114,33
1724723517538651000,-0.8502358961269258,13.441613937306403,1.0374505124785005,0.0932194687688257,9.715103350681066,-1.3335825996667146,0.122561439871788,0.0458287671208381,0.7763605713844299,0.3465152390909444,0.4034543710176146,0.636567637816047,0.5585098931006836,0.8704366683959961,0.7918323278427124,-0.2046818286180496,6.78444503582716,-5.968958089259266,2.563856800550222,0.3163529932498932,0.8987795114517212,6.60857467418015,-0.1958263367414474,-0.7352180625885725,0.9211616360910236,34
1724723517578395000,2.2092172870747744,3.876465585771202,-1.5398855089783667,0.3440491824107244,9.71422013810575,-1.2984399746149775,-0.4971503913402557,0.0091036418452858,0.2955563366413116,0.3391943906114704,0.410103930627564,0.6308857133506817,0.5645752333011641,0.9045320153236388,0.9453911185264589,-0.2885379195213318,-0.2220692182421684,1.7871727551072836,0.6312444778949022,-0.013363130390644,0.5481106638908386,0.9493030040785668,-0.1172116994857788,-0.3676276263969019,0.83749733751975,35
1724723517657883000,0.5521721832890063,-6.240595348268747,1.857784752947092,0.2346224286113865,9.78236779165864,-0.6485634961601346,-0.5294215083122253,-0.2447858154773712,-0.294229120016098,0.3596499407923371,0.399051453331861,0.6114126853458075,0.5810201892694579,-0.0396065078675746,-0.0399795807898044,-0.3040506839752197,-6.2946834968090055,4.829347909641266,-2.9016946706980464,-0.053980253636837,0.0173352640122175,-3.717987380690873,0.1177131682634353,0.7298864192370325,-0.1577102711814455,36
1724723517737416000,0.6536769667163491,-9.180299139365554,1.97226219599843,0.0358533260377822,9.782140412643551,-0.6919627851646393,0.6260666847229004,-0.0701319649815559,-0.3120902478694916,0.3667671817658447,0.3958853465734285,0.6152682966986125,0.5746316000922963,-1.03407084941864,-0.888588011264801,0.2209513634443283,-7.264454411637782,5.97178659068346,-3.366538626080751,-0.1064071282744407,0.1457336992025375,-6.80454791265726,0.1800521165132522,1.5998346585065126,-0.2109685813014395,37
1724723517777161700,-0.4276480510629713,-8.967816664636134,0.9547897649265824,-0.0817181420727167,9.748624512010812,-1.062079780691862,1.1817375421524048,-0.2223808914422989,-0.1880947649478912,0.3641080882151116,0.40068465622493,0.6273777203383343,0.5597090708839814,-0.9281145334243774,-1.166104078292847,0.7778264284133911,-4.859550155681371,3.633770343607664,-0.8384054653406142,-0.232505664229393,-0.2084181308746338,-7.180232990640401,-0.069349505007267,1.8190620774514967,-1.3825956368997692,38
1724723517816907500,-0.8542321261562407,-2.138815278723836,-1.3759038841761648,-0.1372667824864387,9.698357967585324,-1.4468603115394711,0.7290425896644592,-0.2631229758262634,-0.0912911370396614,0.3612363190541501,0.4101479254591513,0.6368265258299921,0.5438189443827504,-2.089688301086426,-0.9911357164382936,1.107060790061951,5.59153055152297,-6.502839925032854,0.6781821701586246,-0.2080551087856292,-0.9558280110359192,1.379380766506493,-0.4579231739044189,-0.9516765282768757,-0.5050665140472352,39
1724723517856653000,-0.8574336986765265,14.428406129562854,-0.4579484967805445,-0.1005463593245018,9.63751157695651,-1.8107075060822069,1.3724794387817385,-0.6066020727157593,0.2197840064764022,0.3563228619407227,0.4228135995773712,0.6430777943509856,0.5298242125189329,-0.2632569074630737,0.3242731690406799,0.2942163348197937,16.426554461967942,-17.872135547351835,4.875305358695984,-0.1814449280500412,-0.2965131998062134,9.937734878981113,0.0188250746577978,-1.697558973547071,-1.5325496131323275,40
1724723517896400600,1.4795508672639728,26.178890687978267,-8.877263702529667,-0.0722090669060591,9.570579144412278,-2.1375603102266787,-0.517611563205719,-0.6745515465736389,0.3223975896835327,0.3556966295053524,0.4390465227520307,0.6451537758004231,0.5142903406123435,0.281305193901062,-0.0841747373342514,-0.1733289659023285,19.20790367436409,-19.97414640529156,4.142559823700785,-0.5808115601539612,-2.735788583755493,25.00063484362364,0.043830282986164,-3.370479764921963,1.907739893335849,41
1724723517936146400,0.5483051691299304,24.14099954324961,-3.993526031053066,0.0406686310647521,9.665724695006013,-1.6560418450273573,-1.1957381963729858,-0.7312506437301636,0.3772293031215668,0.3707521898454757,0.4423027568016343,0.6235406235033845,0.5273595316104499,1.1107032299041748,0.977624237537384,-0.0827773585915565,10.44861987004876,-12.714150726628302,-2.052978239223361,-0.0001883499789983,0.3958020210266113,21.565946810424325,0.4839838743209839,-2.749400414949656,2.459284373180568,42
1724723517975892000,-1.9695878622226413,8.861839923426508,-1.693075690653175,0.1119868226788472,9.720755092832446,-1.2902490693747997,-0.8344756960868835,0.6164229512214661,0.3344385325908661,0.3788144504094818,0.439474882317493,0.610447558839812,0.5391800643713334,2.8961689472198486,2.313698530197144,-0.6957624554634094,0.598280950447917,-2.7884534914433954,-3.831849029931426,-0.0299683064222335,2.065774440765381,5.627874369058013,0.3103383481502533,-1.7037570975348353,0.0245438458190765,43
1724723518015637800,-0.984113693762198,-7.961521315008401,-0.9284859876297412,0.3960379840515554,9.751485162138938,-0.9602402854174374,-0.9598355889320374,1.4351956844329834,0.6454832553863525,0.36470099112924,0.4272604110486377,0.6053157614133639,0.5639454745087698,3.867085695266724,1.2298369407653809,-0.0928317233920097,-10.658870055681469,11.03662200306654,-2.8750445641815663,-0.0507419779896736,1.6004866361618042,-11.546005941921472,0.3260382413864136,2.526792559786141,0.8108016382958739,44
1724723518055383600,1.982847156768292,-15.002280368506907,-2.090770502001047,0.5324111421665176,9.786959795624018,-0.3198913676340132,-2.118560075759888,0.351485013961792,0.1119599491357803,0.3631726198709269,0.4079519712077629,0.5915108698324928,0.5931236603726581,-0.9811516404151917,-0.5998757481575012,-0.208953395485878,-14.3682705175519,13.055399282002448,-7.111755082219839,-0.1044743210077285,-0.9390104413032532,-6.510081566724181,0.2703628838062286,2.0138009518280624,0.095053104803618,45
1724723518095129000,0.6630611733943224,-14.309572829389571,3.6870500983744856,0.5666606543034315,9.788123578706385,0.2047243714159354,-0.400158017873764,-0.6201887130737305,-0.0282743629068136,0.3769746838127797,0.40291985719479,0.5720293265478967,0.6069004142852449,-0.5191320776939392,-0.6807872653007507,-0.0844526216387748,-8.831074782806635,6.88974139355719,-6.2453802444577216,0.1731654852628708,0.1930099874734878,-9.888453838461636,0.2089356333017349,3.570480651479959,-1.0888982295125722,46
1724723518134875000,-0.931928383168578,-12.44059682034254,1.3541764748841525,0.5401770999928937,9.79066391083896,0.1465387152958195,0.4429013431072235,-0.0139051778241992,-0.1279340982437133,0.3806257845657833,0.4070908756739006,0.5716691558660737,0.6021588871571268,-0.3417317271232605,-0.507039487361908,0.2223711013793945,-7.45593793748021,6.942488648882508,-3.697566816213727,0.0004681881982833,0.0376032143831253,-9.759787711060046,-0.2099066227674484,2.783910002794862,-1.4143239234633742,47
1724723518174620400,-0.5259704050619155,-10.996063198184968,-0.1099099890053272,0.4873640494223684,9.794473824515938,-0.0337423891652608,0.4239270985126495,0.2397302836179733,-0.1669129282236099,0.3765590783537307,0.4071648763703533,0.5796008510201197,0.5970618485800452,-0.1885842680931091,-0.519544243812561,0.2299842089414596,-6.562392184197902,7.058268406704068,-2.5506352076664567,0.0217064544558525,0.0871999487280845,-9.761289347794651,-0.2609099447727203,2.589517896029353,-0.6967687972068787,48
1724723518214366200,-0.281659252134338,-10.160827010530232,0.288124886218179,0.4263589245678856,9.795410813105104,-0.1962476715043187,0.4926076531410217,0.1174574941396713,-0.1272923946380615,0.3729525408588468,0.4064122841860499,0.587226448808626,0.5923685422654473,-0.1967031806707382,-0.4938021302223205,0.149655744433403,-6.738309307596087,7.239070379534363,-3.2294244038075206,-0.0006681310478597,-0.0355905853211879,-9.627446694537996,-0.0628599226474762,2.6386858315631745,-0.9343275532647968,49
1724723518254111700,0.6355887907095253,-9.783946585282685,0.4387433359751477,0.3300227394174784,9.79232570657134,-0.4145022998943924,0.5827380418777466,0.1321707218885421,-0.4425769746303558,0.3695962590168152,0.4059009916674803,0.5969741372624658,0.5850340106447584,-0.3475339710712433,-0.7373837232589722,0.2660031318664551,-6.880649155563115,7.718617398530244,-2.8299890324026347,-0.0496562123298645,0.0238865353167057,-9.902270766890048,-0.2835332751274109,3.263413767170906,-1.5910959101252258,50
1724723518293857500,-0.676336469226703,-9.43457960538268,0.0534252276521176,0.1430278667638078,9.787277191010118,-0.5993033157655969,0.6195732951164246,-0.0774664878845214,-0.2978456914424896,0.3706813486210357,0.4029800178354221,0.6067644274439291,0.5762286910892586,-0.8219590783119202,-0.6656893491744995,0.2390991449356079,-5.575010209354758,4.087189234134555,-2.351970392017811,-0.0545600466430187,-0.2379460781812667,-9.34933117942512,-0.5389155745506287,2.897880665367841,-1.0946191644426435,51
1724723518337328000,-0.0057362146975938,-1.1743892320543527,-1.2489642883062362,0.109135680164583,9.759248197355866,-0.9568436287164688,0.7780007719993591,0.1350646764039993,0.0593872666358947,0.3644102056824529,0.4088172281240449,0.6177814504805434,0.5642869739149196,-0.845951497554779,-1.304052233695984,0.3330400288105011,5.228747040688991,-6.867536576011776,1.7997563423484564,-0.0344537943601608,-3.508500099182129,1.4466039986908434,-1.0751168727874756,1.1439070730943233,0.2491421167479827,52
1724723518377074000,-1.39037153159827,8.34543704572022,-1.1618470728021115,0.245793299510423,9.73497475684285,-1.1576857884041964,0.4999231398105621,0.0392023622989654,0.3825512826442718,0.3563777196799736,0.4170503371749765,0.6205598806530207,0.5603296888380299,0.1757454872131347,-0.2630530297756195,0.0366782657802104,9.790959678915142,-9.467037521395088,0.5428987435091287,-0.0726164802908897,-2.664246082305908,10.98397060933113,-0.2840234339237213,-1.363024967250228,1.07543669039309,53
1724723518416819500,0.5379711509138345,12.395191159951686,-2.01456053802371,0.3966652856370434,9.70344038541615,-1.3624611958876252,0.3909525275230407,0.2524016797542572,0.1437708288431167,0.3449293816876025,0.4225875634449947,0.6252087197542114,0.5581734508601186,-0.9574639201164246,-0.7776443362236023,0.3943607211112976,10.931823073464631,-8.748103654131294,-0.0421603948593139,-0.1591964066028595,-2.771733522415161,7.188823708853125,0.4628962278366089,2.502742406634986,2.2842469552263616,54
1724723518456565500,1.2848131619311869,15.08869842276573,0.8287234447598457,0.3384554905895143,9.677373047223687,-1.550575245296955,1.0042202472686768,-0.3582201600074768,-0.366347461938858,0.3431044041932989,0.4247444439306571,0.6313869575147528,0.5506559906522699,-0.8846440315246582,0.2277531623840332,0.2108013331890106,9.480570372185111,-7.842289955428242,1.3933411950588226,0.4494598805904388,0.2365701794624328,10.615756890141965,0.0929772704839706,-0.3475914581274613,-0.0499602549552917,55
1724723518496311000,-0.2894697432221844,9.726561148762702,-3.633713937245309,0.120229777766671,9.599882395786048,-1.9995422709815205,0.6966557502746582,-0.3538975417613983,-0.482406735420227,0.3438823902457431,0.4309954185372114,0.6451288525428883,0.5289579768157363,0.473660796880722,0.4765910506248474,-0.2389345318078994,4.412359345889091,-4.221113135933876,1.1320225740332155,-0.0610514804720878,0.3049303293228149,6.765439306584001,-0.2972545027732849,-1.202893149743974,0.2768813702080399,56
1724723518536056800,-0.5252974011711776,3.210373666378856,-2.626461433023214,0.0053066453367791,9.609379122927784,-1.9570877154812216,-0.5612335801124573,-0.0262412447482347,-0.0849543884396553,0.3496674322166223,0.4284168230124682,0.645168758320334,0.5272086774806848,0.6206763386726379,0.677827000617981,-0.4750756323337555,-0.3896142346143722,0.1803115589648485,-0.102664840182662,-0.2640248835086822,0.6942241191864014,0.8299402732037008,-0.1418084949254989,-0.0025741647618764,0.6164751441124826,57
1724723518575802400,0.3055811027307063,-1.6907628836661577,-0.0288755274809896,-0.0091489754332811,9.653280223974583,-1.7275700809292494,-0.6317315697669983,0.0783987715840339,-0.0490649603307247,0.3553899953876169,0.42403208650238,0.638966627168606,0.5344309687220613,0.5613616108894348,0.6467884182929993,-0.3028557896614074,-2.7675316994458434,2.100867533123493,-0.3412877914059907,-0.339210033416748,0.4154824614524841,-2.3551832165844737,0.0262780282646417,0.5468416359160095,0.2629780786704271,58
1724723518655293700,-0.2585423612453043,-4.60966120262146,1.054890161448717,-0.0480651390908053,9.72981109046936,-1.2242802942309527,-0.4969891309738159,0.332762211561203,0.0557717159390449,0.3607720271513113,0.4059010849335362,0.6306070346952702,0.5544570990393972,0.0654930099844932,0.2411381602287292,-0.0406215824186801,-3.463863274279237,2.198765597295761,-1.035249276107177,-0.2366033792495727,0.0807101652026176,-2.7011621614813803,0.0422630757093429,0.7008896034639328,-0.4177916237633675,59
1724723518695039200,0.9938063088022172,-2.451689972528816,1.34003966685161,-0.0205635348781011,9.742334471955894,-1.1211197794858363,-0.1696611791849136,0.8319417834281921,-0.1391483694314956,0.3567329219175151,0.3988079476529354,0.6309622976588685,0.5617655738396254,0.4693238437175751,0.0200250595808029,-0.000246996176429,-1.4420271922945975,0.5864999117612838,-0.9498872337073088,-0.188346192240715,0.0794196501374244,-1.4852753823906182,-0.2071800827980041,0.309491006183438,-0.4241394584201276,60
1724723518734785000,0.2806931287822313,-1.2676643126010894,1.2065361824214458,-0.020623057929438,9.743587102365494,-1.1101699309263378,0.1687683761119842,0.9191036224365234,-0.1157759651541709,0.3460253451306623,0.3863396453768194,0.6382355314200658,0.5689143977357961,-0.1675450354814529,-0.1332571059465408,0.0830154716968536,-0.4520248058199882,1.068109123983979,0.0156967508256435,-0.1993925422430038,0.2234403192996978,0.1975741343351081,-0.2904261350631714,0.0189062463574809,-0.0202834507115301,61
1724723518774518000,-0.1071424696539063,-0.490472317636013,-0.0388273049138486,-0.019151657644537,9.727750066286324,-1.2413228336423634,0.4871396422386169,0.2174224108457565,0.0237059704959392,0.3370571123252366,0.3815291141405458,0.6463167852140492,0.5684211203309023,-0.7153546214103699,-0.1818941533565521,-0.007573751732707,0.3700502869665622,-0.017737901264429,-0.0284229614078998,-0.1239975988864898,0.1227759420871734,-0.6873870016817003,-0.2424857169389724,0.6171379919353872,-0.0070583860874001,62
1724723518814263300,-0.8231083813570439,0.2903442975670099,0.0496587877906858,0.0198538316891877,9.69587024242282,-1.4697200858622788,0.679938793182373,0.0506225228309631,0.1254388988018036,0.3303219910579824,0.3855039414905538,0.6529330621105675,0.562096491035167,-0.5060780644416809,0.2179534286260604,-0.0025486997328698,1.2625088295340536,-0.4060381306707858,0.8487129243433476,-0.1247839704155922,-0.0501462146639823,-0.1541346594506874,-0.2723747789859772,0.0577533108511474,-0.041299366716342,63
1724723518854008300,-0.9083536655094474,-1.2418991722255943,-2.629486918324232,0.1070443704411387,9.65916402131617,-1.6909991766400634,0.3889264762401581,-0.4102288782596588,0.3922872543334961,0.3276089651565215,0.3972185053983018,0.6545490207750846,0.5535841563167729,-0.4764954149723053,0.1400820165872573,0.1020339652895927,-1.0236632485359909,-1.0407803875535726,-2.131635596352816,-0.1295545101165771,0.2400306165218353,0.3196899998430162,-0.3227726519107818,-0.2958001335537992,0.007705049960484,64
1724723518933493800,0.1006548520671203,-0.4415647866040468,0.0462635923944413,0.1618095597264356,9.69036696883142,-1.497000891497731,-0.3010216057300567,1.216822624206543,-0.0455539673566818,0.3023245312747233,0.3637827826475372,0.6663241643253864,0.5764322623905367,-0.7886703610420227,0.0426743403077125,0.0239960923790931,-0.3060954089283943,1.808224895486236,-0.7830635904122144,-0.0911645740270614,0.2333590686321258,-0.4099740453476086,-0.1810399740934372,0.4361781616622582,0.0214440897054504,65
1724723518973239000,0.593657711094059,0.1906511666715145,0.5713875366948544,0.1675487974981777,9.680344171988963,-1.5598936932623386,0.4410587549209595,0.6774161458015442,-0.2057007998228073,0.2914471593585461,0.3538797691616469,0.6740189553617022,0.5792462266454986,-0.5495994687080383,0.0785928666591644,-0.0606244541704654,0.1524666897058486,-0.5020049345195293,-0.3244891437530517,-0.0169838797301054,0.0488824322819709,-0.0723062984691467,-0.1489889174699783,0.0757574253037106,-0.1860512716606259,66
1724723519012984300,0.4927717171521857,-0.3843564602166414,-0.0729949474535882,0.1382501401011366,9.661437811467051,-1.6756692133001982,0.2611967921257019,0.4870413541793823,-0.1257841885089874,0.2823933189252162,0.3453854603321185,0.682747565672106,0.5786350882887177,-0.3862746953964233,-0.096811443567276,-0.2563750445842743,0.1168324817448854,-0.3442541669309139,1.951055741840601,0.0671416223049163,0.1084916293621063,0.1139437928323633,-0.1538971662521362,-0.0983234317111782,-0.0986143500823061,67
1724723519052729300,1.3491859731204807,0.574069469255209,-0.7567128321684896,0.099904399025999,9.64139163326025,-1.7899699846103787,0.1722174286842346,0.2262664139270782,-0.3810080587863922,0.2779098305136472,0.3414079301465181,0.688987442398724,0.575763105514969,-0.3220043778419494,-0.1312355697154998,-0.0604280456900596,-0.0105979663819074,0.8541431326985359,0.6524754819720983,0.1034812852740287,0.0658318698406219,-0.1468301999225281,-0.0709006935358047,0.1072733751577325,0.2116590112510137,68
1724723519092474400,0.0200434793596388,0.5350801056474447,-0.2751997737966478,-0.0601462293030926,9.6437180303812,-1.7791753266125916,0.0390658862888813,0.1313542574644088,-0.438165932893753,0.280115180494592,0.3322037805480239,0.6930752785697988,0.5751719688612897,-0.3408899307250976,-0.0732628628611564,-0.2122881412506103,0.7728951745539904,-1.202412965011597,0.4083639432698488,0.0624766536056995,0.0250605437904596,-0.0920180296903476,-0.0284466557204723,0.0210121234623948,0.2084719787127338,69
1724723519132220000,-0.8972032528765499,-0.1086877537339925,-0.0888251154005527,-0.1046207234907895,9.634168696269391,-1.828182664757222,0.0757985934615135,0.0721605941653251,0.1545353382825851,0.2798279508889402,0.3303826484581413,0.6957432590143102,0.5731361473658823,0.0400116220116615,-0.0581497400999069,-0.1434939056634903,-0.2077174522846937,-0.2409048516154289,0.0223433492332696,-0.0161716099828481,0.0222027692943811,0.0064735936280107,-0.0347314067184925,-0.1013515838933177,0.1494542282831855,70
1724723519171965000,0.2722681590578518,0.3051362085074186,0.0403076065994799,-0.0412275846883421,9.628256257355211,-1.8615468819595875,0.0567392036318779,0.3329280018806457,-0.0211466308683156,0.2753729109361593,0.3307325730567071,0.6967987116309718,0.5738094252091706,0.1078071743249893,-0.1010123044252395,-0.1498982012271881,0.4419213449567556,-0.9615174657464028,-0.0617027151972055,-0.0720651000738143,0.0342525988817215,-0.1252759552403353,-0.0412025451660156,-0.0310292760153533,0.0666154481500852,71
1724723519211710200,-1.2194135649774225,0.5562918205022812,-0.3129857529640197,0.0145314196735853,9.63253261950016,-1.8397013992458584,-0.1779682487249374,0.1357179582118988,0.2394133508205413,0.2717496271043498,0.3296135412650684,0.6965296677616719,0.5765011138087299,-0.110388271510601,0.039198912680149,0.0824659913778305,-0.1039887822628021,1.698530010536313,-0.1675321751569397,-0.0723731070756912,0.0150077817961573,-0.0752949954237323,-0.0625878572463989,-0.0499631912644719,-0.1153069983438122,72
1724723519251455200,0.3699966936158016,-0.0393166958659887,0.0605856938660144,0.0274407340210746,9.656974402317404,-1.7065997736148537,-0.3425964713096618,0.157687708735466,-0.063634380698204,0.2720122228887832,0.3262685709730272,0.6932252112423283,0.5822345014652776,-0.4055714309215545,-0.0324989706277847,-0.017165059223771,-0.1562356868505477,-0.1201046352833509,0.5384294160753488,-0.0325721614062786,-0.0029548476450145,-0.1025312312650959,-0.0990831404924392,-0.0183357004775083,-0.1159986156034749,73
1724723519291200500,0.668830404445529,0.0244733469992876,0.7666120026312768,0.0024439616547155,9.666807229545713,-1.6502223450936375,-0.0233369190245866,0.0011930232867598,-0.0457967817783355,0.2737672790784509,0.3246374683586766,0.6919164946808563,0.5838780853691045,0.1007095873355865,0.0345817953348159,-0.1462396830320358,-0.2301449726700782,-1.159229656845331,-0.1045364792734384,-0.0252972394227981,-0.0124600054696202,0.0065651917472219,-0.0735097378492355,0.0520385453669587,-0.0005874342243361,74
1724723519330945800,0.2821701607985422,-0.2293652204692363,-0.2484054365038871,0.0298242795731872,9.67523895780444,-1.5997684614025056,-0.2865136265754699,0.3143411874771118,0.0730238854885101,0.2717772472020858,0.3225361918045582,0.6910397196940983,0.5870023041114024,-0.0491789765655994,-0.035649012774229,-0.1565674245357513,-0.2246504669070243,0.3535059794008731,-0.2935574143946171,-0.0241172090172767,-0.0086104730144143,-0.0444386374230263,-0.0718179568648338,0.0154901017880416,-0.0612107258626027,75
1724723519370690800,-0.3274250145418569,0.0202495918244123,0.6954021850287914,0.0417669933612458,9.687190676882862,-1.5254427037365734,-0.0053857914172112,0.0789030417799949,0.0301034338772296,0.2700537045406694,0.3188842491816063,0.6899918607663073,0.5910118882006844,0.2164977043867111,0.0859894305467605,-0.1435793191194534,0.414700745075941,-0.2643465174794197,-0.1692465595930814,-0.0510265454649925,0.0309672746807336,-0.0017140580685729,-0.0686951726675033,-0.0962350445971824,0.0428184706089785,76
1724723519410436000,0.0404513304856838,0.0554617749810218,0.0631214959539473,0.0611525979006197,9.685347094842792,-1.5364524657897651,0.0104688052088022,0.1217152252793312,0.0284591987729072,0.2680938435560249,0.3183418140708384,0.690648801793627,0.5914290814287172,-0.1771867424249649,0.0771690905094146,-0.1180719658732414,0.1765951687902212,0.2891916204005479,-0.2492383801966905,-0.0889326781034469,0.0698482915759086,-0.0311680017827427,-0.0721005722880363,-0.0829505790776573,-0.0463110939311329,77
1724723519450181000,-0.1603266459586098,0.027029461222887,0.0013202888183295,0.070095358121139,9.683999771887065,-1.5445321657404305,0.0725782364606857,-0.1608589142560959,0.0123768402263522,0.2683163331581258,0.3195066112603864,0.6904091153901792,0.5909796675262067,0.002605392364785,0.179210290312767,-0.0643817037343978,0.4350941292852163,0.0751449650943279,-0.0867348651230335,-0.0899285227060318,0.0083181010559201,-0.1531155638023279,-0.0802177414298057,-0.0112655086462385,-0.0550101952886208,78
1724723519529671700,0.2748721127448603,0.0479179354727268,-0.6180372057974338,0.2347935473945923,9.698428110212086,-1.4337939092174172,-0.2393086850643158,1.997815608978272,0.4138126075267792,0.2485691820686246,0.3048663837243798,0.6929355206449004,0.604243577944832,0.2940327227115631,0.0614227280020713,-0.0812294632196426,-0.2313461651533842,0.2786959453493356,0.9291185864448548,-0.0333130061626434,-0.0185741744935512,-0.0771212518696673,-0.0675353333353996,0.0158159773081191,-0.0853481326055247,79
1724723519569416700,0.6030904330888762,0.4070610439777374,0.4570378116764128,0.5188923564344644,9.695871411466598,-1.375214586737752,0.1134930923581123,1.4217854738235474,0.4017364680767059,0.2191551750956554,0.2900510527323919,0.6971275477805212,0.617943823699163,-0.3000647127628326,0.0499961152672767,-0.031077878549695,-0.1992471455812454,0.6508996109575033,-0.5263537418236955,-0.0280053541064262,-0.0439934879541397,-0.0449540852650301,-0.0404556207358837,0.0066168945349956,0.0837565160325262,80
1724723519609162000,0.7184910188671201,0.1810351970642805,0.095394118527323,0.6913946298878639,9.680231359264257,-1.409062495803833,0.1307194679975509,1.61464262008667,0.1116041839122772,0.1952925806200094,0.2765394154713881,0.7038239461370468,0.6245146266311076,0.1401254385709762,0.0275856144726276,-0.1487045139074325,-0.1114595565348863,-0.4275508742988109,0.4615033762505278,-0.0693578943610191,-0.0475374720990657,-0.005310480690858,-0.0306058712303638,-0.0456838151785312,0.109166011370765,81
1724723519648907300,-1.0179493278685956,-0.1834171237647533,-0.6092094639584422,0.8508040514037013,9.674629301473498,-1.3594221204526722,-0.0188180319964885,1.895249843597412,0.3210129141807556,0.168281899536878,0.2566230287819627,0.7095462355568817,0.634326252110105,0.1167993396520614,-0.0686754658818245,-0.1520661413669586,-0.4653291085511445,-0.24218963072896,-0.0428273343354463,-0.1077252104878425,-0.0232762806117534,-0.0366904047662974,-0.0725781321525573,-0.056375921550719,0.0603176997127477,82
1724723519688652300,-0.5039802531804889,-0.2609393393844366,0.3247942641794681,1.15684904531911,9.658929043516515,-1.239828941822797,-0.0252623613923788,2.6694626808166504,0.5597343444824219,0.1296428775349435,0.2336825316120271,0.7131662931697478,0.6480579222681663,0.2896448969841003,0.0788939148187637,-0.1638025045394897,0.126533207026124,-0.4261591276794672,-0.2870183680146932,-0.1215229108929634,-0.0483970828354358,-0.0727294649178162,-0.102751649916172,-0.1182608340475708,0.1082799492512364,83
1724723519728397600,-0.3253016291797161,-0.0469487981796264,-0.7783165420155972,1.4803541464708745,9.633182023319602,-1.0866172789685429,-0.2168265134096145,2.1654982566833496,0.5532704591751099,0.0865790465377659,0.2078832276641494,0.7156721491678577,0.6611368826416352,-0.1515612751245498,0.0238999594002962,-0.1239555552601814,0.1501397080630064,0.3133142542660236,-0.2285088593682274,-0.1283749192953109,-0.0763956904411315,-0.1389860166276339,-0.1086731702089309,0.0006619248034752,0.0666084886863362,84
1724723519768142600,0.0968769044309854,-0.0957476081401109,-0.3583505698878317,1.804119213733077,9.604619945701955,-0.8166042601600288,-0.4070041477680206,2.50382399559021,0.6302477121353149,0.0477510311226605,0.1865423923507316,0.7119249725515088,0.6753404813688417,-0.0229055602103471,0.0346701554954052,-0.1325915157794952,-0.1024275242954492,0.0692974081099033,-0.2759569123068824,-0.1328170448541641,-0.1192891150712966,-0.1693549701373092,-0.1725771576166153,-0.0154146059910824,-0.1356699326158967,85
1724723519847575800,0.2418443244226276,-0.1142746139556169,0.2287245844781398,2.24154120144397,9.546829435512423,-0.0624774578627897,-0.48887699842453,1.845648407936096,0.341571033000946,-0.0221359224282392,0.1403756797465867,0.6953273562197813,0.7045029707739975,-0.3709615468978882,-0.0036081506405025,-0.1941989660263061,-0.2190700364261865,-0.2457785951316356,-0.1216144735907204,-0.1109602302312851,-0.1635654866695404,-0.1572075092910788,-0.2268748134374618,0.0535433513061841,0.0198002040890976,86
1724723519887310000,-0.5381164046034217,-0.3638736441582441,0.3318704861760139,2.394969429658353,9.505982461339237,0.2660809035239741,-0.2533508837223053,1.8832095861434937,0.5174425840377808,-0.0535751160133303,0.1193552101713266,0.6871593579625435,0.7146299856779582,-0.1762429177761078,0.0330416895449161,-0.26933354139328,-0.1171218200802803,-0.7972960408389568,0.0996340850514825,-0.0900691300630569,-0.1615701615810394,-0.0841819657698273,-0.2798094451427459,-0.0219649352417793,-0.0762978294904576,87
1724723519927053000,-0.2489776834338903,-0.4409802647143602,-0.2473252400517463,2.5815286508411166,9.447667635014652,0.497669206870161,-0.1115621253848075,1.6609972715377808,0.5729319453239441,-0.0847740411109326,0.1026174127256267,0.6812456230845744,0.7198523644514851,-0.1043207943439483,-0.0718810558319091,-0.2858460545539856,-0.2867886509120464,-0.3880892170041799,0.659784928202629,-0.083581306040287,-0.1220781803131103,0.0283831043215468,-0.320079892873764,-0.0513941145501565,-0.0201266960971057,88
1724723519966796000,-0.4870581252783537,-0.1850058542609214,-0.7836264119267463,2.75601311108768,9.38577319663763,0.6942931278083473,-0.1490102112293243,1.1266902685165403,0.5562781691551208,-0.1130505964859491,0.0886891794190132,0.67582181831277,0.72292369603642,-0.0692434981465339,-0.0781453400850296,-0.3104199469089508,-0.1452677181124687,-0.6472393348842859,0.3718897773534059,-0.0832952931523323,-0.1292229741811752,-0.1169686662120278,-0.3040218353271484,0.0767407555189449,0.0264244468177319,89
1724723520006539000,-0.6456906441375613,-0.3334007644832134,-0.5864911439329386,2.950558654849231,9.310010976427792,0.8878612048398703,-0.2713660001754761,1.03740656375885,0.6423848867416382,-0.1336575141967513,0.0840074917782814,0.6690847608274503,0.7262259278775428,0.2549313902854919,-0.0960940867662429,-0.2971140444278717,-0.2334510284781455,-0.5612310304701328,0.4086076888978481,-0.0525581985712051,-0.1359021365642547,-0.0344048008800367,-0.2989890575408935,-0.0322747779978439,-0.1210382080727256,90
1724723520046283000,-0.7207458851218224,-0.4433148451417684,-0.2367430557608604,3.142630501973629,9.216268278369308,1.163897283330187,-0.2568553388118744,1.7969045639038086,0.7442557215690613,-0.1623899671221506,0.0727078824931355,0.6598267314104113,0.7300491295493929,0.151108056306839,-0.1109461113810539,-0.2539041042327881,-0.2233072356045246,0.0301093070596456,0.0516658898293971,-0.0180308353155851,-0.1095444858074188,-0.1194980111597105,-0.2793245315551758,0.0409004579260945,-0.0542283241959288,91
1724723520125769200,0.4767734626293182,-0.4877420158892869,0.4096832091748714,3.306214505760372,9.0335455666095,1.9064077679492533,0.170114129781723,3.459270477294922,0.4146772027015686,-0.2539370256636465,0.0101739251294616,0.6345839157449112,0.7298737948616769,-0.0563199743628501,-0.0816727504134178,-0.1455011367797851,-0.1941980454981327,0.3065951751440763,-0.1137403609484434,0.0195142887532711,-0.141004279255867,-0.0200994975629262,-0.2790247499942779,0.011532135109615,-0.1398164943687152,92
1724723520165512200,-0.0125590373218059,-0.3656874155819415,-0.3953976403214037,3.1755984133347868,8.975684913793206,2.350113950496167,-0.3605375587940216,2.8744585514068604,0.4453542530536651,-0.3012175302893322,-0.0323891964099812,0.6157340935612557,0.7273860256841638,0.114781729876995,-0.0724904909729957,-0.1080961599946022,-0.103380879497528,0.2243967844069004,-0.1654337233066558,0.0188362505286932,-0.0733825862407684,-0.0119199722332879,-0.2745814919471741,0.0700499754762975,-0.1729000040667131,93
1724723520205255000,-1.3327858963310717,-0.2555687522619962,-0.9217328601077198,3.2173215858206152,8.80137171846032,2.890514520514011,-1.2807141542434692,1.0888420343399048,0.9860044121742249,-0.3346544287140655,-0.0465703207835869,0.5919932223793014,0.7316977713923146,0.0657875537872314,-0.0973622873425483,-0.0838675275444984,-0.3384878584891557,0.1904272947877645,0.1340717858374118,0.0093372771516442,-0.0781684592366218,-0.1451760121078696,-0.2615756094455719,0.1600143468727357,-0.0938458296393975,94
1724723520244998000,-0.7864043522074818,-0.1030003557473421,-0.3498626544624567,3.5318054683879017,8.439460898807644,3.531607023206353,-1.748128890991211,0.9194331765174866,1.380742073059082,-0.3641054683952082,-0.0344559549421481,0.5645803282985751,0.7399250724929461,-0.0259335730224847,-0.0407881140708923,-0.0465887263417243,0.0715127460718154,0.1008025534421205,-0.2268225502490997,-0.0185475684702396,-0.1022260785102844,-0.0681626090934267,-0.2482649236917495,0.1180770201795734,-0.1378945863954257,95
1724723520284741000,-0.3207087484315037,-0.1912941407501697,1.489433086591959,3.7450162573918697,7.963173173868656,4.328178256902098,-1.4655942916870115,2.140260934829712,1.3574403524398804,-0.4021818658028018,-0.0284984021287957,0.5277425106035905,0.7476132407152859,0.1620219498872757,-0.0309872571378946,0.003777839243412,-0.2880921347260475,-0.235723649585247,-0.0336930107653141,-0.0376131311058998,-0.0823709443211555,-0.0253383069652831,-0.2305390238761901,0.0961076188252307,-0.0441877816342283,96
1724723520324484000,0.1105596850857138,0.0874403830438852,1.6862816465988757,3.8448110950961705,7.638348514550924,4.80035796200037,0.0362823903560638,1.2122913599014282,1.2180532217025757,-0.4392663552649437,-0.0341775625087415,0.5040652224738101,0.7428291481164649,0.1906208395957946,0.0049476805143058,0.0001943563111126,-0.0177899237126112,-0.2059627175718545,0.0890238528430461,-0.0516204461455345,-0.0571615286171436,0.0274637335874605,-0.1698986589908599,0.1073804522613994,-0.016738256951922,97
1724723520364227000,1.5189955734238028,-0.0429430696696042,0.5805053475216031,3.941729500581324,7.57285634394288,4.825452363507449,0.6396049857139587,0.8171094059944153,0.7135713696479797,-0.4629416424549576,-0.0431606116279996,0.502103135064073,0.729187592232196,0.0559349283576011,0.0108887664973735,0.0769167020916938,-0.091730189192295,0.2276046405375003,-0.0168301479029003,-0.0362050458788871,-0.0073940325528383,-0.0166352075694012,-0.1608579456806183,0.0998642770781647,-0.0825192567219957,98
1724723520403970300,0.2011132317140698,-0.236976864516735,-0.804904762277007,4.013280240575969,7.55051474827528,4.801425883492827,0.1411503255367279,0.5102483034133911,0.5954719185829163,-0.4786191496968738,-0.050089766832564,0.5026792507506778,0.7181422113901468,0.1653756648302078,0.098030962049961,0.1155683547258377,0.195461781823635,0.2424877368927001,-0.0121790980935096,-0.0182625632733106,-0.009575099684298,-0.0267968192275031,-0.1300777643918991,0.0983769702630117,-0.0155842828775173,99
1724723520443713300,-0.8320163488253951,-0.4188222089201212,0.4447188667207956,4.091871254470944,7.431887199807167,4.918741180318594,-0.0239471234381198,1.0294291973114014,1.0247546434402466,-0.4972111060975457,-0.0537523650627779,0.4963110705581335,0.7096245760435562,0.0699194520711898,0.1178683713078498,0.1335430294275283,0.0513134231299161,0.1133423015415668,-0.2272726503704674,-0.0094807827845215,0.0344758667051792,-0.0246869623505044,-0.1191863492131233,0.090598627879098,-0.0565432318084873,100
1724723520483456300,-1.9992574626907704,-0.8631178817927837,0.9972627328664064,4.203718641279638,7.219722704985737,5.135633872705697,0.3061636388301849,1.8248051404953003,1.796319842338562,-0.5313908217299762,-0.0619508105760197,0.4840636860530409,0.6924364043463735,0.11536655575037,0.1547821760177612,0.0993005037307739,0.1468786604404449,0.0378179817408323,0.0448398432016372,-0.0242026224732399,0.0276493970304727,-0.0462648984355386,-0.1497556418180465,0.0812692657940555,-0.0312518555577378,101
1724723520523199200,-0.7912278268411755,-0.7431131997525692,-0.3761076873093843,4.372055684812366,6.905638635390996,5.419194209221005,-0.1547871232032776,1.8311474323272705,2.0893399715423584,-0.5768881954861622,-0.0704177542754628,0.4676957621236718,0.6659594418270693,0.2016713619232177,0.1447933614253997,0.0805913284420967,-0.1297691202074289,-0.1979062523663043,-0.131719669753313,-0.0611201673746109,0.0228813551366329,-0.1970911000585183,-0.187565803527832,0.2186060721762478,-0.011361402202188,102
1724723520562942200,1.269589727705717,-0.3347340589135885,0.0008154080361127,4.5540062431558965,6.471970154994726,5.791804702064395,-0.5090317726135254,1.2642788887023926,1.7357110977172852,-0.6166282324108985,-0.0677529404500673,0.4473361898760103,0.6442587867151073,0.1030204072594642,0.150417149066925,0.073758989572525,-0.3189391084104776,-0.1146814411908388,0.2003623768141493,-0.0972105637192726,-0.02629423327744,-0.0538211362011032,-0.2173550277948379,0.0577459860612172,-0.0137386938267387,103
1724723520602685200,1.1401298195779324,0.2003279265552759,-0.5681891790449619,4.671495435243845,6.19293869408071,5.999584698191285,-0.4468227326869964,0.3448137640953064,1.1311098337173462,-0.6362866503215797,-0.0621374359102152,0.4361711091207858,0.6332716209077885,0.0333332121372222,0.1248053237795829,0.12916199862957,-0.419445309254527,-0.1726309413343668,0.0020014394829049,-0.1169507354497909,0.0421434082090854,-0.0491058985817013,-0.2849016189575195,0.02793168445935,-0.1041194503046106,104
1724723520642428200,1.1071396963849662,0.4353945735365152,-0.486421580940485,4.820305063746869,5.922108659800887,6.153346688404679,-0.6361582279205322,-0.0146508635953068,0.4837375283241272,-0.6484191630829965,-0.0511950939106111,0.4285390074639371,0.6271252779967815,0.039649698883295,0.134811982512474,0.0988885089755058,-0.4701671962320804,-0.0785065504819154,0.0240630126327276,-0.1265181005001068,0.0145226325839757,-0.0511079088867642,-0.3055727481842041,0.0618313785115955,0.0662363902712007,105
1724723520682171400,-0.5935410624444485,-0.431193030193448,0.0982271499961614,4.9337791749745605,5.624365484154224,6.339930167245864,-0.9727284908294678,-0.0777785554528236,0.6154124140739441,-0.6539476772830222,-0.0356025246179174,0.4189104604695185,0.628966524253671,-0.1765483766794204,0.145613819360733,0.1259013563394546,-0.2316565462768077,-0.1075146183013916,-0.396579908908531,-0.1456821709871292,0.0408315099775791,-0.0717029303150949,-0.3362858593463897,0.0876211373051162,-0.0651172500481596,106
1724723520721914400,-0.6228361305117607,-0.0225017546653747,1.2672311818808315,5.138899011981487,5.277475123500824,6.473821335819364,-0.3237780034542084,-0.0775481909513473,1.0518442392349243,-0.6638679038231389,-0.0182409021923096,0.411818220098599,0.6239811075763881,-0.1445523649454116,0.1790051311254501,0.087243840098381,-0.1255985565245151,0.4870949501574039,-0.1566209233084693,-0.1499084532260894,0.0154923601076006,-0.0097221927609527,-0.3410708606243133,0.0652621566778747,0.0520423082266235,107
1724723520761657300,0.3790127611011266,-0.0377244582384824,1.874428429234028,5.359440290004015,5.086497209092975,6.447816541469097,0.7315600514411926,0.1227987259626388,1.0912635326385498,-0.6785516268599826,-0.0122343452441958,0.413646195155677,0.6068895743384076,0.0758095607161521,0.0904891043901443,0.0877541676163673,-0.1450736568450927,0.0160644150942564,0.1429798994362354,-0.1702013313770294,0.058819655328989,-0.0090228728270914,-0.3150174915790558,0.0423804536510491,-0.0936026228675153,108
1724723520801400300,0.8176356490343809,-0.3229974438905715,0.854646406045556,5.510837304651737,5.194897962579131,6.230094997042417,1.1340125799179075,-0.2527977526187897,0.4655530750751495,-0.6869234189141679,-0.0204495227000909,0.426538827135523,0.5880328285331176,-0.0734140127897262,0.1305245608091354,0.1438161730766296,0.012161562436819,0.5701373905032873,-0.2016635956058278,-0.1816732883453369,0.0374639779329299,-0.0805899052277673,-0.2922449111938476,0.1156193978943861,-0.0261080789115163,109
1724723520841143300,-1.020124553015828,-0.4153156621038913,-0.1801724427551031,5.7163511094123125,5.29350154467225,5.955884672674537,0.5553415417671204,-0.4715710282325744,0.5763584971427917,-0.688077212386461,-0.0226786053556264,0.4425156240023808,0.5746437557366668,-0.5120957493782043,0.1275448650121688,0.2339121699333191,0.2553910576075315,0.3771522279262542,-0.1790179389577358,-0.1960017085075378,0.0136224590241909,-0.061461517719319,-0.223491221666336,0.1557333633515983,-0.0058702317530027,110
1724723520880879400,-1.3658306723207234,-0.5263865115821361,-0.0778068777799606,5.95880728212297,5.174280121964216,5.821497245016694,0.6299622654914856,0.2494271248579025,1.4563747644424438,-0.6986574961838791,-0.0194735518106343,0.4503410235479859,0.5556001026373023,-0.3572049736976623,0.1969819515943527,0.2251372635364532,0.2440852352172136,0.3090039898514747,0.0033732392927631,-0.200563833117485,0.0180219877511262,-0.0340414063611649,-0.1829682290554046,0.0923509697054512,-0.0058562968424841,111
1724723520920627500,-0.1268733987659215,-0.1944634184360504,-0.318912220403552,6.136319565758109,4.983764564371109,5.803280035802722,0.6738290190696716,0.38525390625,1.4053292274475098,-0.7185224434055568,-0.0215357017800496,0.451277381035355,0.528782083677658,-0.2398972511291504,0.1494496762752533,0.2402129471302032,-0.2262491342753171,-0.0199830498427152,0.2610129526099189,-0.2189203202724456,0.0542903132736682,-0.0783242253181058,-0.1985743641853332,0.1165897042312659,-0.0709596148342359,112
1724723520960370400,0.0931143370270729,-0.0006099485918879,-0.2241226436406374,6.328732481405138,4.769560088154673,5.776574984228611,0.4770290553569793,0.2993675470352173,1.396908402442932,-0.7357730321893666,-0.02085592247054,0.4528152601490326,0.5031514825505647,-0.2119388580322265,0.0698873177170753,0.2045394480228424,-0.1310883861124515,0.0220423204600811,0.201379481434822,-0.2223209738731384,0.0171105731278657,-0.2328266312357969,-0.2514026165008545,0.2378528253673575,-0.1109036031525582,113
1724723521039857000,0.6429863536149263,0.2383893616631626,-0.37566812684834,6.615783582645654,4.15526966767013,5.9275219170212745,0.1161850020289421,1.0469801425933838,1.5710818767547607,-0.7732943891188656,-0.0141994086004343,0.444498436715676,0.4519239027147827,-0.2785652875900268,-0.1411359161138534,0.2956947088241577,-0.1936655460566282,0.3570464284867048,0.1960615378150716,-0.2048949599266052,0.0072808810509741,-0.1310982133867219,-0.3223649561405182,0.0648133306315634,-0.0951942303073592,114
1724723521079600000,2.1287954044908286,0.5677309138834477,-1.0674281559824943,6.552879090443253,3.741832074397802,6.263294086810946,-0.1964136213064193,1.245078682899475,1.3786033391952517,-0.7976334698674826,-0.0112301488557626,0.4248938029802649,0.4279252912270188,-0.1967892050743103,-0.1200423017144203,0.3959488570690155,0.126202952158451,0.5694295344948769,-0.3938812444090843,-0.2087897211313247,-0.0049907863140106,-0.161407299068477,-0.2443732321262359,0.0922308687234297,-0.0347862790448707,115
1724723521119344000,3.524018760034442,2.124514073909819,-1.3813187488317489,6.383636622503399,3.428088488803804,6.608160248160362,-0.2325408309698104,1.1447172164916992,0.65941321849823,-0.8158101726548431,-0.0093815159558165,0.4037196819550048,0.4139761979825077,-0.3225505948066711,-0.1752490550279617,0.3409364223480224,0.4167103313326835,0.2467489014685153,0.1491302387595176,-0.2071542292833328,0.0128229074180126,-0.1621664834053255,-0.1958541572093963,0.0716184988680761,-0.1518277159488759,116
1724723521159087600,-1.0699345858454703,1.0314330057546497,-1.5421756657421588,6.177066002166271,3.1872999570444223,6.917756943207979,-0.6961599588394165,1.0335183143615725,0.3932057023048401,-0.8285141637981758,-0.0072909049308598,0.3837178544572781,0.4077643180344131,-0.046459887176752,-0.3569325506687164,0.3107325136661529,0.3873959740430116,0.298574365773797,1.0178554390400647,-0.1944525390863418,-0.0456275232136249,-0.1728118143266067,-0.209259033203125,0.1711540371822193,-0.3526535272900015,117
1724723521198830800,-1.4650374810039997,0.5805217141345143,-0.7100514726281165,6.081656832200289,2.7498127951428293,7.1848700027912855,-1.4370299577713013,0.4497935175895691,0.4998138844966888,-0.8361984673350819,0.0109849557028597,0.3654488950222986,0.4087768340044305,-0.2679187655448913,-0.3864793479442596,0.2362028360366821,0.4890782329291105,0.1494493877112865,0.076890347456932,-0.1302768439054489,-0.0043410146608948,0.0034044204531383,-0.1856181770563125,0.0448380713696591,-0.2053891189349815,118
1724723521238574000,-0.700205201396346,-1.0256251962587235,1.0192653058379888,5.987350655040145,2.17723619479388,7.455310745492577,-1.4184956550598145,0.8504405617713928,0.6619450449943542,-0.84354517057969,0.0360026175632675,0.344367176300614,0.4105443053976987,-0.1507876217365265,-0.3094241619110107,0.3142077624797821,0.1123521214604377,-0.0949964975118637,0.4181295504808425,-0.1040766835212707,0.01569683291018,-0.0517112770408159,-0.0916487649083137,0.0499676573770353,-0.05469764047442,119
1724723521318060300,-0.2193804175496101,0.0618134090300649,1.3901555507600307,5.079011237251758,1.1319954668305814,8.312197039419413,-0.3688331544399261,1.5397385358810425,1.4673008918762207,-0.8823829982017434,0.0516886659551887,0.2711534293767043,0.3810569739492229,-0.2711550295352936,-0.1764913499355316,0.4122636020183563,0.5007096340119839,-0.2392453939706087,0.3853939135055989,-0.0823781415820121,-0.0334101654589176,-0.0725662006475031,-0.0604344233870506,0.1653886055232956,-0.0552990039010532,120
1724723521357803500,2.120670550224185,0.8310993801109492,1.1692401787281037,4.745450898292661,0.8557653270728885,8.53924755320549,0.0398115962743759,0.8591340184211731,0.6395315527915955,-0.8962681281372654,0.0522002703157025,0.2487864183397734,0.3634335281724264,-0.1428790986537933,-0.017608867958188,0.3999727368354797,0.3385486487656831,-0.4793237316340207,0.0609901830136775,-0.0749327465891838,0.0154884159564971,0.0587919149175751,-0.1115026995539665,0.0109440980970801,-0.0908570413532666,121
1724723521397546800,1.1714014484152198,0.4951614983655512,1.2414976056873797,4.485049903568625,0.879409602836892,8.676482771509885,0.6974599957466125,0.8171306252479553,0.6145564317703247,-0.9044060359812592,0.0425644580822928,0.2362430088835475,0.35274255887709,0.1358923465013504,0.0093426425009965,0.3384532332420349,0.3336614612460136,-0.445962144780159,0.2835585829496383,-0.0776586458086967,-0.0092120748013257,-0.1113745816651731,-0.1481004506349563,0.1804253946028649,-0.0937416386125609,122
1724723521477033200,0.6658546035051346,0.0500460335426032,-0.347103711143136,4.073617512638867,1.3490655616112053,8.817938822379707,0.688412070274353,0.5120168924331665,0.051358476281166,-0.9153919314781588,0.0067771217977297,0.224419944161255,0.3341366375877587,0.2182306349277496,-0.1176582351326942,0.090013787150383,0.2321627422332763,-0.6970014369189739,0.5705155031006783,-0.0819353833794593,-0.0031573791056871,-0.279474839033652,-0.1859525591135025,0.1713655245084315,-0.1208330043568275,123
1724723521516776400,0.0895730111584067,-0.2640710615389049,-2.160927741810679,4.03354181509912,1.497982742141932,8.81231922893226,0.1779984980821609,-0.0852822512388229,-0.0564839728176593,-0.9163342581144585,-0.0019926862763433,0.2251505847357967,0.3311112834766032,0.1960994899272918,-0.0455517098307609,0.0687958598136901,0.2175152081996202,0.2518266431242227,-0.2745394101917743,-0.0537563972175121,-0.0419228561222553,-0.0468121661879122,-0.1737704575061798,-0.0116015573588141,-0.1457560861513018,124
1724723521556519400,1.0005375167533754,0.2290885954849421,-1.027435168290138,3.990475119049847,1.5275072350509464,8.826846351456641,-0.1261259317398071,0.2647625803947449,-0.2359915673732757,-0.9154926523098452,-0.003405036858542,0.2234826581565936,0.3345400976620666,0.4800678193569183,0.0351208187639713,0.2057345360517501,-0.3136041771233082,0.6096586690306663,-0.36671270350907,-0.0213601533323526,0.0240961126983165,-0.0748275240424554,-0.1278691291809082,-0.0237172702182666,-0.1269847593190614,125
1724723521636006000,0.1860471800073981,-0.3532492281608283,-0.3535065639227628,3.763936646439135,1.3106306170158089,8.960212619373202,-0.4851818382740021,0.3305611610412597,0.0261882208287715,-0.9186158465003956,0.0032629688181563,0.2077152851238389,0.3361379065282522,0.2178897410631179,0.0496562980115413,0.2354335039854049,0.2603027950465679,-0.3663771514117717,0.4720914057603105,-0.0222640950232744,-0.0207764916121959,-0.0260893742110463,-0.0409178547561168,0.0118608670237706,-0.0215099374662968,126
1724723521675749000,0.4551400152310729,-0.0168470168393105,0.2857861958712339,3.607969547396898,1.1924000319760293,9.040526511538028,-0.2000591158866882,0.5107912421226501,0.0490226224064827,-0.9204475577604138,0.006320591911434,0.197538514088352,0.3372165382883795,0.0264071281999349,-0.0385901555418968,0.2716200947761535,0.033573768299818,0.0916214681208133,0.7101917578816414,-0.043411836028099,0.0399130694568157,-0.0725019717382965,-0.0199522357434034,0.0207471044342149,0.090850072756363,127
1724723521715492600,0.5161074018910526,0.3441784713461995,0.0087678283452987,3.4630557572886347,1.1074559227272869,9.10775354311466,-0.2431846410036087,0.1587171107530594,-0.088059090077877,-0.9218384047002546,0.0080012322955562,0.1885995538778317,0.3384969867219469,-0.1084976941347122,-0.1144041717052459,0.1824384033679962,0.3080377751678228,-0.2503928109288215,0.5311608863770961,-0.0760460421442985,0.005978999659419,-0.1330241947469301,-0.0665396675467491,0.0408367450401186,-0.0549129774252651,128
1724723521755236600,0.4590536815434694,0.2000738787289708,0.300099967905879,3.459506540374458,1.0517943873904645,9.115696611073613,-0.1749327629804611,-0.0371420197188854,-0.1812736392021179,-0.9210088220837208,0.0112121925271778,0.1873581967699506,0.3413414356157133,0.3057072162628174,-0.128035619854927,0.1144878417253494,0.1541506972700357,-0.4870224694430828,0.6718506290495395,-0.069756269454956,0.0210837200284004,-0.0805057523419614,-0.0962772667407989,-0.005891258558011,-0.016463378683431,129
1724723521794979800,0.5142328401908278,0.4119374909076839,-0.0349251829087734,3.457598076404631,1.038649439939484,9.117927731126546,-0.1404051631689071,-0.0179960001260042,-0.3885275721549988,-0.9187943409328808,0.0130486242419459,0.1869352624895982,0.347421810113736,0.7203752398490906,-0.0632132664322853,0.1900110989809036,-0.0679664517670869,-0.1003805286377668,0.3750631466925144,-0.0544598624110221,0.0183483939617872,-0.0505363606430823,-0.0849386900663375,-0.0103025225327117,-0.0723010560384485,130
1724723521834723000,-0.1577183266237378,0.0249725286930799,-0.856886293926835,3.450792780303955,1.0136620790034532,9.123316438427567,-0.3336503803730011,-0.0660353004932403,-0.3220471441745758,-0.9159632624504824,0.015703348732232,0.185993872723874,0.3552056418697855,1.448458909988403,-0.0077203908003866,0.2644708156585693,-0.2052899328768253,-0.3358119172781705,0.5928542492240667,-0.0337521918118,-0.0068043819628655,-0.0890331047285813,-0.1007749214768409,0.0222315639884443,-0.1185288647334557,131
1724723521874466300,-0.3147615304648876,0.1048708257943391,-0.4998538939654827,3.445329838722944,0.8990477847646922,9.137384711268544,-0.4158969521522522,0.0725763514637947,-0.0956252813339233,-0.9144251609355164,0.0221020517967462,0.1833971992610302,0.3601437408612742,2.0532612800598145,-0.0279236640781164,0.1923239827156067,0.070295771497488,-1.24774497564435,0.547559574927017,-0.0245255045592784,0.026132445782423,-0.0616329104971606,-0.0649043470621109,-0.0642816760068526,0.0179894443231052,132
1724723521914211600,0.1801563684031367,0.3107915308553725,-0.8690133695721626,3.400222576756775,0.7113830134928226,9.1707579885602,-0.678387463092804,0.1220803782343864,-0.1259226948022842,-0.913963963216226,0.0308970577048492,0.1773889294657165,0.3636598762456653,1.8062045574188232,-0.0396786965429782,0.3042878806591034,-0.1337520523637533,0.1267944883108138,-0.2349291382066905,-0.0285725463181734,-0.0052812304347753,-0.1807195552438497,-0.0424631349742412,0.0838718129752669,-0.0543464387168409,133
1724723521953954800,0.0754433635190129,0.1252040042489767,-0.5606792418062687,3.3692142750307914,0.4510504078298807,9.198659556442498,-0.8266367316246033,0.0493911057710647,-0.1467034518718719,-0.912469655781198,0.0438173337703889,0.170525476928198,0.3693240423284062,1.608665943145752,-0.227975845336914,0.486649215221405,-0.4164402822196483,0.3840682909250259,0.3167132490545511,-0.0180687122046947,-0.0184104554355144,-0.1284928349276073,-0.0762860551476478,0.0427773577138781,-0.1446160401375498,134
1724723521993693200,0.0868462165430188,0.1756416126587428,0.2317635137826204,3.33596433185786,0.1776528063506819,9.220095727702974,-0.7207481265068054,0.1230388805270195,-0.1226638108491897,-0.911050826698552,0.0571149592068365,0.1632293477282436,0.3742734020323517,0.6747028231620789,-0.2966143488883972,0.5500174164772034,-0.0683043054193258,0.4429962807118892,-0.3327935923703015,0.0090052438899874,-0.0613018833100795,-0.0448344363741576,-0.0787481293082237,0.1195034727861173,-0.0630702498238999,135
1724723522033436200,-0.4102177544429898,-0.3030402591414749,0.1271697513639927,3.306154300005734,-0.0565388250614283,9.232363088601828,-0.6332531571388245,0.0335514433681964,-0.0218325741589069,-0.9098558479777976,0.0683417540230717,0.1568753605577779,0.3779973260272339,0.9525994062423706,-0.1804061383008957,0.5581004619598389,0.0963157634168863,-0.2374742926448583,-0.7414394213214516,0.0129266856238245,-0.059279691427946,0.0961417859563138,-0.0522620789706707,-0.0018233640900609,-0.0238109124516253,136
1724723522073179100,-0.4643246076837182,-0.0418915513226762,0.2862146504163742,3.302949658745527,-0.2864133513262495,9.229239988145231,-0.5881618857383728,0.06929961591959,0.0655159950256347,-0.909183237400106,0.0795102978036468,0.1520454467021357,0.3794024347590815,0.7503054141998291,0.0091547826305031,0.5135432481765747,0.1585880951955914,-0.4818032734900713,-0.8907947010084987,-0.0005670726532116,-0.0373165309429168,-0.0976844579542055,-0.0657676681876182,0.1256033696969505,0.0427697086969623,137
1724723522112922000,-0.2399222703188657,-0.3057197440164163,-0.0438800582587718,3.228634130212664,-0.5265645715627819,9.244946675843,-0.6488428711891174,0.2669843435287475,0.2523128688335418,-0.9099247604289116,0.0893232827431292,0.1437367737108023,0.3786793270391504,0.1825360208749771,-0.0517166629433631,0.4850904941558838,-0.0273398423463106,0.4759399344146251,-0.0446165558397769,-0.050469908863306,-0.0328232906758785,-0.1109987158237956,-0.0885357856750488,0.0532811886720824,0.0446222594947786,138
1724723522152665000,0.2517047703102231,0.3100109018716961,-0.8453519234776496,3.172153241316974,-0.822968753690645,9.242864608871937,-0.8225484490394592,0.0341292209923267,0.1648283302783966,-0.9105988060001096,0.1021036823196721,0.1353509741557352,0.3769146404929819,-0.0490716509521007,0.039042480289936,0.4120763838291168,0.4761328266382217,-0.266498142555356,-0.318960735720396,-0.0724895521998405,-0.0327672325074672,-0.2082954896346665,-0.1116367802023887,0.1385055761669296,-0.0504677843523211,139
1724723522232151300,0.8168082582995295,0.2439664311431348,-0.0136631991714239,3.29508345541507,-1.3924351861298083,9.130932758650182,-0.6581177711486816,-0.5109705328941345,-0.3697165548801422,-0.9054762729548752,0.1329843942936149,0.1294879911392887,0.3816553079590238,0.1042353436350822,-0.0376756228506565,0.3966502249240875,0.2334925295323133,-0.1682300760269165,-0.0020297522619366,-0.060009554028511,-0.033398799598217,-0.1655871603026986,-0.1121400669217109,0.1540492096569389,-0.2258771408914588,140
1724723522271894300,0.0305193491652607,-0.6877345730103552,1.2293892347425222,3.524121635887026,-1.5034088588438927,9.027220455241205,-0.2772474884986877,-0.5625295042991638,-0.4434866607189178,-0.8992558039655899,0.1446379145334116,0.137184951334765,0.3893573167556812,-0.007061350159347,-0.0272997394204139,0.3768205940723419,0.1687786498203873,0.2225947034209966,-0.1744514347597956,-0.0534631460905075,-0.0809789597988128,-0.1287328085627872,-0.1099086850881576,0.1555393751494586,-0.1503681647903285,141
1724723522311638300,-1.0944868432998656,-0.4142930410578846,1.2507634466826916,3.7091046937942505,-1.5136376996524632,8.951079464846849,0.0029557892121374,-0.3649349212646484,0.0397055558860302,-0.8958704150140261,0.1498373458734513,0.1455015964713676,0.3921661399635701,0.1609518975019455,0.0224445424973964,0.3750289678573608,0.1814209815114736,-0.1234960312873125,-0.1271302961364388,-0.027024894952774,-0.0319642573595047,-0.1576912376874126,-0.0842951312661171,0.1545662192683667,-0.2479605788132175,142
1724723522352623000,-0.2306254496634006,-0.1717472903676331,0.2326917345434427,3.7918507815420623,-1.5252926277413963,8.91435570808351,-0.0053898585028946,-0.2183870524168014,0.142060786485672,-0.8961802735532703,0.1518182088090452,0.1498185094578307,0.3890587368154786,0.0036842389963567,0.0583801157772541,0.3098540008068084,0.1422080382809042,0.0551712676018476,-0.3835352069616317,-0.0316611193120479,-0.0510553009808063,-0.174134441232495,-0.0691887140274047,0.1590411727253347,-0.1914382619285956,143
1724723522392366300,-0.5134776379093527,0.3461174765847623,-1.0365297443717718,3.9216237011417743,-1.5686566993020474,8.850455775102972,-0.0570580773055553,-0.5698444843292236,0.1820626854896545,-0.8961724412767639,0.1562455891849321,0.1560117099834779,0.3848669784785728,0.0776114538311958,0.0441258139908313,0.2678671479225158,0.1262543900847434,-0.2038555161595344,-0.1563356400936842,-0.0343985855579376,-0.0010383166372776,-0.1520048808803781,-0.02550545707345,0.0731058102498063,-0.2187626875100657,144
1724723522432109300,1.1433850219815969,0.9456471119195222,-0.0721621498912572,4.129694496908784,-1.5768185245782136,8.75383664482534,0.09129049628973,-0.6228251457214355,-0.0588258579373359,-0.8948763819689175,0.1609011444228202,0.1667014494133973,0.3814679644213739,0.0025457376614212,0.1108366698026657,0.1864102333784103,0.3301867708727717,-0.0740840578645467,-0.1614049061819911,-0.0187973454594612,0.0195433273911476,-0.2320712097586132,-0.0358679220080375,0.1339640146140009,-0.2501187432277947,145
1724723522471852300,0.1103369822457432,0.047433512956649,0.0043728082567453,4.430565741448104,-1.5040056556932628,8.618494108399748,0.1505541950464248,-0.921354353427887,-0.2955777049064636,-0.8907330150355263,0.1645943810567552,0.1829966596320398,0.3821200799362362,0.0355604141950607,0.0644475445151329,0.1128943338990211,-0.0085968556925654,-0.1507709917038679,-0.0106108258634805,-0.0056254444643855,0.0333579815924167,-0.1716287785544991,-0.044921975582838,0.0472494753263657,-0.2305376800484024,146
1724723522511595500,-0.3387216672450304,-0.3693183194302022,0.3760574184268713,4.759614448201656,-1.393412360598892,8.460192721191047,0.2028129696846008,-0.857646644115448,-0.1972390711307525,-0.8858908303706748,0.1673229736291131,0.2016265156593593,0.382814872856815,-0.3259687721729278,-0.0881182923913002,0.030199859291315,0.063854048012197,-0.0989595559239387,0.0978697148606181,0.0106586655601859,0.010740584693849,-0.2022775627857074,-0.0296191629022359,0.0976732789730653,-0.1655594503118656,147
1724723522551338500,0.0647112493634223,-0.3437827500268817,0.7874293113410472,4.96490788820982,-1.2881651027075949,8.358271392852068,0.2553258240222931,-0.3540543019771576,-0.0575891323387622,-0.8831557018989648,0.167133579097314,0.2142734571285159,0.3823470973640601,-0.0341568812727928,-0.2098788172006607,-0.0236197635531425,-0.1780848228260874,-0.2652285610109567,0.4664841238051652,0.0140446936711668,0.0506811663508415,-0.0556710886164568,-0.0033564071636646,-0.0241068563410313,-0.1035320149386301,148
1724723522591081500,-0.1040793831557035,-0.2945085776396096,0.5824515131533146,5.037482126033306,-1.2219186796661463,8.324726850646734,0.167774349451065,-0.1563970297574997,0.1257650256156921,-0.8832571903777915,0.1650645107013961,0.2197970809370671,0.379868115013569,-0.1164451017975807,-0.1800666004419326,0.0656433999538421,-0.2322460366025567,0.281416310223937,-0.2747492535501718,0.0155164580792188,0.0480415523052215,-0.1993804713710211,0.0061329812742769,0.0700037571478169,-0.0862620508463587,149
1724723522630824400,0.4476595963478088,0.227103047690913,0.3963450041741132,5.053916543483734,-1.1948093581400812,8.318698676398396,0.1257141381502151,0.0485814251005649,0.0236240345984697,-0.8840927981451896,0.1635410476111306,0.2216274665128068,0.3775124936773433,-0.7095262408256531,-0.1385877132415771,0.1961182504892349,-0.1976125301167368,0.7589917368859053,-0.3536538634389639,0.0130333434790372,0.0156788099557161,-0.1597368633719161,0.0003298970405012,0.0177030537133337,-0.0608525646412745,150
1724723522670567400,0.1443558639645576,-0.1273768182434141,-0.2392705284118652,5.04148493193388,-1.1530722301941363,8.332121052551269,0.1220178455114364,-0.018727071583271,0.0004781311145052,-0.884615683782671,0.1610716666913521,0.2218918033133352,0.3771937366525494,-0.7851352691650391,-0.2030372619628906,0.2438238561153412,-0.3984101200103759,0.2563490889847278,-0.071382982212305,0.0101517168805003,-0.0091244988143444,-0.221453917621728,-0.0021026222966611,0.0749320347297005,-0.0525078159796772,151
1724723522750054700,0.6845072815269232,0.0205404645297676,-0.2784948698192834,5.022969616556168,-1.1515015468113123,8.34351279965937,-0.0736371576786041,0.0885510817170143,0.0271366722881793,-0.8865524892828188,0.1595814660372827,0.2216596319686724,0.373397296585566,0.0275381729006767,-0.1859099864959716,0.2643863260746002,-0.2859671053960919,0.1573795961886644,0.27107845608294,0.0324859805405139,-0.0130470758303999,-0.0260613217269186,-0.0042457180097699,-0.0286426868394948,-0.0182950373902684,152
1724723522829540600,-0.0601373655766248,0.0548603750217705,-0.0617611673861741,5.070303614661097,-1.198839928830415,8.308139872983098,-0.0508132129907608,-0.0400858782231807,0.0069527155719697,-0.8848763496124559,0.16351056577301,0.2228610619713714,0.374954716660964,0.5870193243026733,-0.304215520620346,0.4769446551799774,-0.0633694793656468,0.0222562554717063,0.2423608956426381,0.0301055815070867,-0.0186409577727317,-0.1125650700913742,-0.0259343534708023,0.0294291770250885,-0.0561711333933519,153
1724723522869283600,-0.2198334220141172,0.02342895251289,-0.0729284580886363,5.08919068596065,-1.2296575302898882,8.292072535279393,-0.0782434269785881,0.0233799461275339,0.0753217563033104,-0.8846802657896604,0.165363228645624,0.2233314767767985,0.3743247460783538,1.3450236320495603,-0.3437440693378448,0.5146028399467468,-0.0008124854266643,-0.2365022327423095,-0.1693129028275609,0.0308562107384204,-0.0302051175385713,-0.0792311110299546,-0.0610252134501934,0.0235943128421669,-0.0443891859578434,154
1724723522909021700,-0.251650702035427,0.0206646023660898,0.0773673173189163,5.072525382363796,-1.2836059780985116,8.294107840499281,-0.1306862831115722,0.0553912781178951,0.107176698744297,-0.8852493165208878,0.1673383742684888,0.2216213942173704,0.3731160188222787,2.616963148117065,0.0024732842575758,0.5644031167030334,0.3819713186457752,-0.5471072280496359,-0.4021726874142885,0.0301170218735933,-0.0173296425491571,-0.1151704485504887,-0.0424552038311958,0.0514651476594852,-0.0067493241339834,155
1724723522948764700,-0.0783124892145395,0.0493089514397084,0.1438759714931249,5.040145792284608,-1.3323017660759389,8.30615951282084,-0.0608029291033744,0.0680219978094101,0.1040808856487274,-0.8859738187707578,0.1687436133694833,0.2191559010170625,0.3722187509882882,1.7923864126205444,0.2911012470722198,0.3830989301204681,0.4734881573483347,0.8903975183844566,-1.248461014959216,0.015828650444746,-0.036581564694643,-0.1525203287223819,-0.0315244831144809,0.0642326081341598,-0.073795450181514,156
1724723522988507600,0.1497206058681011,0.0286180455885827,0.2102647986799478,4.992575647336245,-1.3484214184887706,8.332246724757551,0.028462590649724,0.0833805277943611,0.0605245232582092,-0.8871649345090102,0.1681111346159246,0.2165924624568048,0.3711668458990687,0.0461563318967819,0.0322069451212883,0.2706281840801239,0.0073579615473747,-0.2446341012716293,-0.00673252312541,0.0232650116086006,-0.0453282482922077,-0.1371959274736233,-0.0483767241239547,0.0390206994609441,-0.1062845650497823,157
1724723523028250600,0.1442863058596849,-0.0108835053250193,0.1281406422227621,4.972272279497981,-1.3375006498932838,8.346136133900284,0.0505989901721477,0.012480673380196,0.0229241326451301,-0.8878637272407784,0.16688856907143,0.2159020319367748,0.3704492626616653,-1.773426175117493,-0.1065091267228126,0.1202828809618949,0.2822675202257931,1.133050674971938,0.3310252675235271,0.0187909957021474,-0.0113990185782313,-0.0911149068381637,-0.0503047853708267,-0.0104936543407733,-0.0743550202930346,158
1724723523067956500,0.0742161598116159,-0.096169048422575,0.0230038589686155,4.973209268087149,-1.3126691371060908,8.34951934659779,0.0854915827512741,-0.0096414368599653,-0.0032134233042597,-0.8880753396762844,0.1656023711822334,0.2164921489768552,0.3701745417773574,-1.9815140962600708,-0.2902112305164337,0.2402393072843551,-0.0765801124639809,0.5469914927154779,1.0872753044858574,0.0075545855797827,-0.0085056545212864,-0.123330054470105,-0.0445412658154964,0.0160781422255095,-0.1101701834446284,159
1724723523147440600,0.199939804020524,0.0091705639272928,-0.0959796633303165,4.945498838862776,-1.2854296863943335,8.370190963226555,0.0177597682923078,0.0665829181671142,-0.0132585931569337,-0.8888031602713723,0.1634823493488406,0.2156676764980567,0.3698512121784412,-0.7952406406402588,-0.338019847869873,0.3033506870269775,-0.2943130550675094,-0.0679997695147991,-0.0180675716102123,0.0317949652671813,-0.0512602925300598,-0.1626900688880123,-0.0340639352798461,0.1263796878316905,-0.1465797505591064,160
1724723523187182300,0.0420382297843694,0.1069577150709927,-0.2201537400096654,4.944784553113579,-1.2687439245313406,8.373158580860496,0.0064164847135543,1.19204632937e-05,-0.0557759590446949,-0.8884851374161067,0.1628663203393435,0.2157829501827028,0.3708187832765329,-1.1974281072616575,-0.4007672965526581,0.2738572657108307,-0.0508797078877687,0.2588210320562124,0.0446644866347312,0.0495550408959388,-0.0432946905493736,-0.1552896564383991,-0.0735963210463523,0.1411543188437353,-0.1602003161652013,161
1724723523226924000,-0.266235107704997,-0.0885303702376782,-0.2038876648634672,4.953184132668376,-1.280055153749138,8.366469312354921,-0.0578701347112655,-0.0465840920805931,0.0227089487016201,-0.8882621060169791,0.163655231637197,0.2159762387184337,0.3708930803662487,-1.165434956550598,-0.0647005885839462,0.3177544772624969,0.245043997246772,-0.6720721628457308,-1.008611809876561,0.0587393976747989,-0.0346423014998436,-0.1180675490983296,-0.061358094215393,0.0791346740513108,-0.0860467184620909,162
1724723523266665700,0.0176817871630191,-0.1523965470790863,0.2231844860076904,4.9683922231942415,-1.2953474154271185,8.355090424728393,-0.0358699075877666,0.0485936738550663,0.0179513562470674,-0.8879345816935543,0.1647934923211529,0.2164533306327535,0.3708952112106765,0.3804062306880951,-0.1667650192975998,0.1993718445301056,0.1910395814672112,-2.049132669711113,0.0663122548192739,0.0911389365792274,-0.0487242713570594,-0.1010209728326182,-0.0361305624246597,0.0865234143294394,-0.0216350228674011,163
1724723523306407200,0.2155623205661773,0.0140586282297968,0.1257452715188264,4.943194069051742,-1.3055809324108063,8.368433305904269,0.0065946076065301,0.0238250941038131,-0.0067219105549156,-0.8883513319771131,0.1646662017428922,0.2149736920287561,0.3708143862030326,1.856954574584961,0.1760511994361877,0.0340277515351772,0.5045590029165149,-1.4218161789149044,-0.8066017754532396,0.0785684362053871,-0.0212884508073329,-0.0130306608634593,-0.0108713991940021,-0.0143213434197474,-0.0091475186951342,164
1724723523347391000,0.2568383338063955,0.0911528276957571,0.1610153223425149,4.936035429468751,-1.2958853216961026,8.374163958510756,0.0303498562425375,0.0260686594992876,-0.0537840835750103,-0.8883075244332593,0.1641267670312595,0.2147064654271636,0.3713129018495421,1.348874807357788,0.3366219699382782,-0.0714149847626686,0.3397184231974184,-0.4840910921663046,-1.3465066709086295,0.0514292642474174,-0.0053040944039821,-0.0844138200306333,0.0010000271722674,0.0271626911145402,0.0576693360618548,165
1724723523426874000,-0.2025754132211208,0.0217323777280747,-0.1833405513972044,4.93396680650115,-1.2782393364988267,8.378094283697008,-0.0291036367416381,-0.0057714032009243,0.0095485737547278,-0.8878456754193459,0.1635268502282512,0.2146975700100813,0.3726848640340185,-2.045943260192871,-0.1705527752637863,-0.0351662300527095,-1.0358781485952435,-0.5755073931038379,-0.5388230915680527,-0.0018149834359064,0.0032278466969728,-0.0494655211077537,0.0570568367838859,0.0278071219313424,0.0369552045987686,166
1724723523466615600,0.0876572406649589,0.0190774793051183,-0.2450233928501606,4.9638078180134295,-1.283964143886417,8.35957078501284,-0.0328667312860488,-0.1572910249233245,-0.0886280089616775,-0.8871283897761892,0.164655298355393,0.2160303923469992,0.3731254450078753,-1.0731106996536257,-0.4294984936714172,-0.2221989631652832,-0.2986560527078807,-1.2524731732100247,1.7453092973679305,-0.0162256434559822,0.0115740448236465,-0.0328864162233192,0.0909592062234878,0.0089499491547758,0.1130446611687075,167
1724723523546100000,-0.1709580396860837,-0.0848695096425712,0.0840121621608734,5.015924374219775,-1.2570806670054793,8.332504498910904,-0.0442856922745704,0.0179556459188461,-0.0026820001658052,-0.8854203526908696,0.1651485925857986,0.2188296995135971,0.3753267904777099,0.934101402759552,0.0358824282884597,0.0656452029943466,0.4232569764971733,-2.8591578437417744,-1.1801162313990294,-0.0041610584594309,0.0015679070493206,-0.0888972033892292,-0.0141943553462624,0.0078493646476214,0.0140829247041256,168
1724723523585841700,0.0043184477210044,-0.0602466711699962,0.2743804202377796,4.996120772597194,-1.2842471986114978,8.340255843690038,-0.0922109112143516,0.0930731520056724,0.0186841376125812,-0.88562327129116,0.1660214709114559,0.2172605797854231,0.3753745725948751,3.6323750019073486,0.5925309658050537,0.1045534536242485,0.8227627827897668,-1.1503753192603587,-1.3786895693719383,-0.0216782037168741,0.0470018163323402,-0.0408901968269841,-0.0129092680290341,-0.017688413266628,0.0057312137246684,169
1724723523625583400,0.1544528950870037,0.0988853216439485,0.1879448303222656,4.979164377099275,-1.2920954278938472,8.349179739379883,0.0073108151555061,-0.0086609181016683,-0.088880605995655,-0.8853247065627593,0.1663096480726252,0.2159893701689048,0.3766829129664766,0.9861938953399658,0.5652061700820923,-0.0945746302604675,-0.0278891467921435,-0.1190817219763994,-1.3125976793050764,-0.0244009345769882,0.0182291697710752,-0.1430019286049529,-0.0064206579700112,0.0075945199535839,0.0113443095034919,170
1724723523665324800,-0.1188449906110763,0.0678068772912025,0.0155979666262865,5.00690695502758,-1.248148149617761,8.339268001696468,0.1553931683301925,-0.1306676566600799,-0.0494258217513561,-0.8847903817233223,0.1649566410010122,0.2181856083169865,0.3772668674164512,-0.5500612258911133,0.6363195776939392,-0.4240889251232147,0.115000005620718,2.9747984853535887,0.57745238969177,-0.0390878207981586,0.0065366802737116,-0.0809732237232383,0.0078806299716234,-0.0321371801750385,-0.0047856137124268,171
1724723523744808200,0.2354407409906387,0.0787056532505899,-0.2633352946102619,5.102880773139,-1.136643584897369,8.296928743138908,0.0385215990245342,-0.095668688416481,-0.1412935256958007,-0.8830912483496322,0.1621013896761483,0.2251610291433213,0.3783853010431345,0.1402093321084976,-0.5782497525215149,-0.1069714426994323,-0.6146747436270117,-2.9635832638561723,3.675570088461041,-0.0197044629603624,-0.0212571267038583,0.0160835833023185,0.0079969894140958,-0.0045995405303285,0.0845523243190255,172
1724723523784550000,-0.2237286758869886,-0.2478399115756153,0.0971136357963085,5.085604059645533,-1.1274794507108628,8.308778755408525,-0.0524669513106346,0.1069089248776435,0.0507900454103946,-0.8830067565589872,0.161461602147048,0.2242773451213822,0.3793795258498397,0.4251419901847839,-0.3191868364810943,0.0755438357591629,-0.485102899557352,1.2388485524833202,-1.826221155425906,-0.0199790336191654,-0.0128010092303156,-0.129200279944064,-0.0245818980038166,0.1292934655196964,-0.1386903946819249,173
1724723523824291600,0.1427607037276029,0.2352313360236585,-0.0047638534009456,5.066124283149838,-1.1575975255988538,8.316534191840887,-0.0976497903466224,0.083243690431118,-0.0651522725820541,-0.882910318528745,0.1626542375455963,0.2225272250082375,0.3801245213812435,0.1567398458719253,-0.0635649114847183,0.3407472968101501,0.7804846067696809,0.0199883105397224,0.991578842011094,0.0210165604948997,-0.0296749472618103,-0.0127190147981338,-0.0328199043869972,0.0031759374679968,-0.0169326949619222,174
1724723523864034000,-0.4803694412946701,0.0897634922292083,0.1240530806481838,5.042670342326164,-1.1683512670643628,8.329274430948495,0.0102938506752252,0.0477858148515224,0.0319154746830463,-0.8829131543338324,0.162807590055716,0.2209499268079852,0.38097150686043,1.0001461505889893,0.1894389688968658,0.0342639088630676,0.3304129808440804,-1.0360241329371929,-0.3626853111565112,0.0131286811083555,0.013297208584845,0.0238236920180963,0.0056825755164027,-0.0128311722190061,0.0663614688224391,175
1724723523903773700,-0.2975760023862123,0.1831303427126258,-0.0285837049275636,5.038393980181217,-1.1568221573121844,8.333470713594556,0.0724764466285705,-0.0066073527559638,0.0598922371864318,-0.8833953660236883,0.1619169470297352,0.2211202297864453,0.3801333085257543,0.5689519047737122,0.3893150389194488,-0.2216469645500183,0.5545253953516482,-0.1912982324033975,-1.0060472200855612,0.0072823008522391,0.0196453034877777,0.0301333386724931,0.0043351794593036,-0.0592970194620778,0.0799890167251694,176
1724723523943515400,0.2134048502713441,0.1688254846367985,-0.078973583471775,5.0388750416964285,-1.1485028033867477,8.334330545294284,0.0405511930584907,-0.0696834251284599,0.0424547381699085,-0.8840941193366932,0.1611223864415951,0.2216009566776154,0.3785633876954767,-0.8439645171165466,0.5689464807510376,0.027034692466259,0.2935140136443078,1.1278075136214494,-0.6157672150388359,-0.001642101095058,0.0052976356819272,0.0006314206381794,-0.0018896664259955,-0.0286398281621281,0.1241489239717833,177
1724723523983257000,0.540586886370182,0.1694763497609645,-0.0075789108216762,5.058253695905209,-1.1371826602101325,8.32413765258193,0.0098395682871341,-0.0525945350527763,-0.029852095991373,-0.8839135724395422,0.1609803621001661,0.2228730652448873,0.3782985019155188,-1.1739994287490845,-0.2415031641721725,0.0122243873775005,-1.3159458206892012,-0.8939175092041491,0.9202452518984676,-0.0016681593842804,0.006747159641236,-0.0563984621760901,-0.0119343185797333,0.0392784005490597,0.0388980137961916,178
1724723524062740200,-0.2036141086190938,-0.0887263312011957,-0.1281079089969396,5.088832958564162,-1.1293237634032964,8.30655114248693,-0.0298194792121648,0.0031139506027102,0.0090295979753136,-0.8829064866390415,0.1616562986663762,0.224390276507764,0.3794634491225849,-0.0218946225941181,-0.3646487891674042,0.3817155361175537,0.6297774740822613,-0.0917448022395372,-1.085877420386672,-0.0016062585636973,-0.0233353786170482,-0.0430561518223723,0.0046119382604956,0.0710970277106622,0.040260360791115,179
1724723524102510600,-0.0019850363373756,0.0394168683048337,0.0247170926272869,5.080684723421931,-1.1474833241458982,8.30904938904345,-0.055524043738842,0.1261184364557266,0.0373168960213661,-0.8830040387784388,0.1623379187753731,0.2236130005418835,0.3794040110682033,-0.6401607990264893,-0.1795284301042556,0.0123395025730133,0.7464217397786677,-0.244037888944149,0.0879698137454688,0.0090466868132352,-0.0132504496723413,-0.0330503654802218,-0.0167468022555112,0.0638356995047535,-0.0227820283449022,180
1724723524142253300,-0.5097936886996031,0.0972167308446019,0.123004448378086,5.021517664182186,-1.193013049307838,8.33855313142538,-0.1121811270713806,0.1532875001430511,0.1079146414995193,-0.8841569727401056,0.1629336104394095,0.2197834381656419,0.3787007440873555,1.276479959487915,0.1506702601909637,0.0819369554519653,0.3527094221957028,-1.5437509522348642,-0.5514902654394507,0.038274522870779,-0.0171517804265022,0.0321870951478136,-0.0147272003814578,0.0139317572969826,0.0326002676421427,181
1724723524181997000,-0.0897749634712934,0.1851572454303502,0.1543926893323659,4.991154090100527,-1.2377081502765417,8.350259935832023,-0.0397539883852005,-0.0008137972326949,0.0607144832611084,-0.8847611561751857,0.1642415100280023,0.217439522053066,0.3780773287694554,-0.2902485728263855,0.5267435312271118,-0.2126105278730392,0.6723502491347492,-0.465792634409666,-2.0442799689829347,0.0350326523184776,0.0177279319614171,0.0085273506741534,0.0051258183084428,-0.0281228231172775,0.1020654860500246,182
1724723524221739800,0.3047317193597555,0.21652254390046,0.1905880383074283,4.996330031433701,-1.227773470108956,8.348630873325467,0.107401043176651,-0.061873011291027,0.0075114225037395,-0.8851172728108806,0.1636440272107171,0.2180800433250166,0.3771327714296831,-0.0509385243058204,0.4105069935321808,-0.351356953382492,-0.0438068468920886,1.2911164998590945,1.126327211935818,0.005092576611787,0.0092882178723812,-0.0447702120315283,-0.0066481004469096,-0.0251380168865201,0.0830788268335163,183
1724723524261482500,0.2381196048110723,0.11782872624062,-0.067781742849946,5.007725285673141,-1.1850440431900322,8.347978546896577,0.093500979244709,-0.0235778130590915,-0.0130998054519295,-0.8852947049475046,0.1616878478741497,0.2196101047412488,0.3766719440166465,-0.3689718842506408,-0.3491422832012176,-0.0112947206944227,-1.1006804372429848,0.6607786154150962,2.51952110747844,0.0019770548678934,-0.0112693347036838,-0.0947393809456378,-0.0050493506714701,0.0805611266578547,-0.0112223818905651,184
1724723524342210000,0.095956282454729,-0.06993534068726,-0.0471866985887289,5.046190333145857,-1.168764816301316,8.32708422742784,-0.0744725242257118,-0.0039625675417482,-0.0062644127756357,-0.8841995951846567,0.1621295702121298,0.2216999228728451,0.3778281734567264,0.3347188830375671,-0.2202876359224319,0.4131757318973541,0.4452488819442689,0.2640080793052912,-2.691930515016616,0.0042042788118124,-0.0010504595702514,-0.1549979252165183,-0.000542270601727,0.1355207608030177,-0.0314811297023901,185
1724723524381952800,0.1305465343207121,-0.2378880610775202,0.2937958993256092,5.03943267557919,-1.196238879486546,8.327275366085768,-0.0704955086112022,0.1356254070997238,0.015874957665801,-0.8839302441081993,0.1634874810478321,0.2206784103911048,0.3784707419526539,-0.0525305643677711,-0.4813041985034942,0.103344440460205,0.3620658640839159,1.3920552469015122,1.723664744053781,-0.0069196317344903,0.0014282763004302,-0.0486583511770237,-0.0142073482275009,0.0310467705728486,0.0207071628661826,186
1724723524421695500,-0.2473006901323795,-0.1056306311856955,0.249821148520708,4.995002582222223,-1.2218045517671852,8.3503008523643,0.0002550510689616,0.0940601155161857,0.0830872356891632,-0.8848721687350688,0.1634830660725453,0.2180055416446086,0.3778203110800973,1.178826093673706,0.0462799966335296,0.1340657323598861,0.4561765186719596,-0.4735352113604545,-1.1998287937372922,0.0005688491510227,-0.0102174542844295,-0.0396716559166554,-0.0109702860936522,0.0928042664309032,-0.0286243885644013,187
1724723524461439200,-0.1896376057147979,0.1155235911034047,0.0663099167317152,4.985822081422805,-1.2220937439721078,8.355743335679174,0.1006774827837944,-0.0473725125193595,0.0472608469426631,-0.8855249116316803,0.1629815816631024,0.2177444707472818,0.376656223235368,-0.0774004980921745,0.5938476324081421,-0.1000207960605621,1.0750737022995949,-0.7463420986711978,-2.342531094151735,0.0379297845065593,0.0160034075379371,-0.0661723988240119,-0.0042451359331607,-0.0025878981721733,-0.0320267649033921,188
1724723524501182000,-0.0436772291630506,0.1740558595709502,-0.11072539704144,5.011944949194788,-1.1924896099556237,8.344384906318783,0.1358753889799118,-0.1499951481819152,0.0315998792648315,-0.8859197315772244,0.1617375991935008,0.2199902710452037,0.3749551393592732,-0.1111685782670974,0.5542842745780945,-0.1579515486955642,-0.0770715492427349,1.982697080773115,1.555496919608116,0.030611639842391,0.0249911174178123,-0.1134002879396546,-0.0150819197297096,0.0666930845301365,-0.0431379940200829,189
1724723524540924700,0.1225403379976749,-0.036077056357637,-0.1272147595494985,5.046989374569058,-1.1655129018332808,8.327056170377135,0.056188341230154,-0.0672829523682594,0.0480980202555656,-0.8860364278788768,0.1609009210132947,0.2225964938867095,0.3734984943609531,-0.0261285174638032,0.0234912186861038,0.0217901282012462,-0.9641351008988917,-1.507474939239025,-0.43850013833642,0.0144742168486118,-0.0099339308217167,-0.1706339770971797,-0.0303339194506406,0.1432353811678011,0.0087931631451327,190
1724723524620410000,0.1475619665294885,-0.1372377025224268,-0.1565618500649929,5.028552385124564,-1.2130918146099894,8.331413781064748,-0.0842285677790641,0.0426183678209781,0.0827757269144058,-0.887048464096237,0.1622893619876258,0.2210843093548064,0.3713879978314392,1.2052302360534668,-0.1818275898694992,-0.1388874948024749,0.240624865630269,-0.4656681312471628,0.0896492912650108,-0.0126161333173513,0.0832523182034492,-0.003392619846668,0.0223006065934896,0.0419271523590199,-0.070834527149843,191
1724723524660152800,0.2466758362323045,0.03847498434484,0.201927762967348,5.020418178507685,-1.2520360969670117,8.330558041018246,-0.0939731821417808,0.0343133062124252,-0.0079749319702386,-0.8871180270624742,0.1639776547506801,0.2199342684763622,0.3711629944235672,2.540752410888672,0.0824914723634719,0.041051909327507,0.2085724616788327,-0.5211784215450287,-1.2294991248577831,0.0083629311993718,0.0537155829370021,-0.1925036261377856,-0.0040430971421301,0.1395395771234761,-0.0946346601958386,192
1724723524699895600,-0.1420961023390293,-0.342941038505733,0.3455424531757831,5.015643219190836,-1.2795794990614056,8.329248711985349,-0.0395540408790111,0.0316157825291156,-0.0033967136405408,-0.8867967875583356,0.1654036246725683,0.2190163373768612,0.3718398494366704,1.6716794967651367,0.163859412074089,0.1319149136543274,-0.4482281900160014,0.2673006911098957,-0.1994239634528756,-0.0059368852525949,0.0331523455679416,-0.1025792077258229,0.0234084762632846,-0.0009629872551711,0.0172908596081833,193
1724723524739638300,-0.1118511862009763,0.1696634698309004,0.3158557554423808,5.0255011808604,-1.255882835523039,8.326912962514161,0.1568394154310226,-0.0219556763768196,-0.0153348529711365,-0.8867523243110389,0.1644501653813333,0.220003926764556,0.3717859193235815,0.6426226496696472,0.2236336171627044,0.1500551700592041,1.0200390666894614,-0.3791308345228433,-0.535047664682567,-0.0144359497353434,0.0620575174689292,-0.121140398938721,0.0492488928139209,0.0749247145063476,-0.0249471430900739,194
1724723524779382000,-0.2343015078276395,-0.1624824722856283,-0.035931145080924,5.036920400497317,-1.2062528354354205,8.327350769409536,0.1518135070800781,-0.1004923060536384,0.0332343615591526,-0.8873355227010569,0.1619133318786071,0.221827287211609,0.3704218416654891,-0.6950181722640991,0.2815807163715362,0.1125165671110153,0.2414125088766217,0.685393416711688,-0.9836977333724498,0.0055480375885963,0.0232523865997791,-0.1629456145516596,0.0401791892945766,0.0278752940800157,-0.1323647809901274,195
1724723524819124700,-0.1554436596900224,0.0388539737250655,-0.172227621230483,5.077174084952473,-1.173406431562081,8.30757522483766,0.06613589823246,-0.17829030752182,-0.0107100205495953,-0.8871802921306885,0.1610165974699498,0.2247336274414341,0.3694314644911519,-1.075765609741211,0.2898806631565094,-0.1746690571308136,0.5832992160238325,-1.136508706471324,-0.263689514875412,0.0107531137764453,0.0321259759366512,-0.1212201953098177,0.0141024906188249,0.0082998061206395,-0.1511291300923097,196
1724723524858867700,0.0755336721509695,-0.0265277222458273,-0.1966466076940298,5.13409950274527,-1.1569560128249228,8.274832646664976,0.0539331957697868,-0.1352807581424713,0.0120921228080987,-0.8865532287453323,0.1614096310591246,0.228140034645203,0.368676592298141,0.2698565423488617,0.1514886617660522,-0.3207831978797912,-0.2409106968343257,-1.3135019346684216,-0.3976031875416636,0.0003300025127828,0.0456344373524189,-0.1050088368923869,0.0267125815153121,0.0529524544746382,-0.0736842996909283,197
1724723524938354000,0.3303478066533803,0.0954179377943277,-0.2769862188220024,5.142647550860047,-1.1861263585340232,8.26538969553709,-0.1319715976715088,0.0544042028486728,-0.0152816819027066,-0.8868292620647589,0.1627420718273905,0.2282486169805989,0.367357390375823,0.8526400923728943,-0.1628924012184143,-0.1803358793258667,-0.2864076887704432,0.2787853771984577,0.0483346995800733,-0.033104658126831,0.0458584204316139,-0.1132444671902805,0.0765820369124412,0.0754417241177754,-0.0470305810118326,198
1724723524978096600,0.0440437243878841,0.0333026962734758,0.0442535677462816,5.088077171760797,-1.2423742423914372,8.290860236880183,-0.2061025202274322,0.2279028892517089,-0.0871655121445655,-0.8869847919434249,0.1645629658390766,0.224059804329809,0.3687470405970511,0.8998632431030273,-0.1450364291667938,-0.0342076271772384,-0.1662077764190733,-0.1109749878883361,-0.1536918475866317,-0.0296704564243555,0.034710306674242,-0.1154902185567654,0.0544565692543983,0.0976022504303138,-0.1386834260850213,199
1724723525017840600,0.5815121864765882,0.3338498234249651,-0.4454962808340788,5.0945413993388415,-1.2518763763606549,8.285459254619479,-0.0713072419166565,-0.216061383485794,-0.3152030110359192,-0.885438134180807,0.1660399343100073,0.22358418621772,0.3720753080314416,1.874380707740784,-0.0817846581339836,-0.1450109630823135,-0.0073527008503675,-0.6672066026359796,-0.5160930811047554,-0.0226554870605468,0.0309004299342632,-0.1065951197031419,0.0740165933966636,0.0059696090365818,-0.0379733184330165,200
1724723525057583400,0.3480547282576561,0.4260753949187695,-0.1211836626917123,5.321863715803623,-1.103784102346748,8.162708488741517,0.3115485608577728,-1.0338386297225952,-0.7000572681427002,-0.8798317800160349,0.1656781236371257,0.2374204059070924,0.3769328520546832,1.685356378555298,-0.0574756935238838,-0.165457397699356,-0.0167661336228251,-0.8648486511081457,0.3164847009956836,-0.0031459010206162,0.0236981473863124,-0.0321870951478136,0.1196388304233551,-0.0139317572969826,-0.0326002676421427,201
1724723525097326000,0.51655076174438,0.3855906781867146,-1.3454045548856255,5.849182539799809,-0.8014335059698671,7.830399026626348,0.0750191062688827,-2.056704044342041,-1.4134730100631714,-0.8644300268217414,0.168577720565865,0.268965251292569,0.3898715699437445,1.1038693189620972,-0.0246847812086343,-0.1478905826807022,-0.1399929925799369,0.4206085078150033,-0.9389180959254504,0.0211066901683807,0.034516617655754,-0.063595072849025,0.1389864832162857,0.0158796890524507,-0.0846634748096112,202
1724723525137068800,1.0219383244395257,0.4084601701859384,0.5707587372720241,6.543738337132334,-0.3504007433945313,7.295689507856965,0.3314348757266998,-2.1556625366210938,-1.9289374351501465,-0.8392934760779228,0.1738202776444493,0.3127456929587777,0.4093445981393977,1.0318126678466797,-0.0893308296799659,-0.1009298712015152,0.0853100930169224,-0.1776812104612588,0.0728267512798309,0.0578189417719841,0.0468087047338485,-0.0626040296847932,0.1395257711410522,-0.0126355754400254,-0.1015892011746298,203
1724723525216379100,-1.2059534140974282,-0.7392512636274099,0.1883884824365377,7.369974641251564,1.201481821641326,6.35690994361937,1.2234694957733154,-1.340551257133484,-1.577528715133667,-0.7856012099758934,0.1490258250864755,0.3920192736906743,0.4549097609307419,0.3983138501644134,-0.1851737350225448,-0.0127938808873295,0.0760989048182964,0.6231774912953376,-0.4122410769641399,0.0754197239875793,0.0126489186659455,-0.0721704016963718,0.29291632771492,0.0613752231087768,-0.0534394845063332,204
1724723525256115500,-1.508217282038927,-1.3742276215270162,-0.2683300341576338,7.644406499415636,1.8915248177245256,5.84427606305778,1.558139681816101,-1.3915222883224487,-0.7302754521369934,-0.767774622762958,0.1302342071262603,0.4301905235249431,0.456614992156061,-0.3827167153358459,-0.2828553915023803,0.1122603714466095,-0.1026829603612422,0.806340932559967,-0.3402583752930164,0.1299259811639785,-0.0092541938647627,-0.0625043093370972,0.4062047302722931,0.0771201741574332,-0.1119115928850136,205
1724723525295852800,-1.3842331749737262,-0.4846928574517369,-0.7992787390887737,7.912173638993501,2.348429066149145,5.29648669796288,1.1223064661026,-1.470468044281006,-0.3247523307800293,-0.7545419178783912,0.1173754419474562,0.4649487374549231,0.4480090650898958,-0.5118009448051453,-0.3183468580245971,0.3077365159988403,-0.001238309623301,1.2240882057249545,-0.3397299675047397,0.1776462197303772,0.0200129896402359,0.0288225255019846,0.5295534729957581,0.0153553603593143,-0.0350193594316719,206
1724723525336831000,-1.593155326873064,-1.154095508827269,-1.5768579798057674,8.290036645537615,2.5870249101698395,4.555544120247662,0.301480621099472,-1.296664834022522,-0.1034192815423011,-0.7349865901670831,0.120571944944053,0.5031841606444886,0.4382497394693592,-1.2927953004837036,-0.4365565776824951,0.4054171442985534,0.1087181488722562,0.6726619454324245,-0.4860889879852533,0.2033711969852447,0.0193918719887733,-0.0619009366164682,0.6528236865997314,0.0889838952919934,0.009022433864852,207
1724723525376567300,0.2934878562897444,0.1129053714290261,-0.090642978477478,8.362149695590137,2.657634862183034,4.37970619956553,-0.099299669265747,0.0665323659777641,-0.3420234024524688,-0.728616354643571,0.1220701549270081,0.5116600555245308,0.4386584031686559,-1.206745147705078,-0.5595771074295044,0.5025063157081604,0.0157905665889382,0.5299316368430853,-0.1973053638637066,0.2308720052242279,-0.0128136556595563,-0.0027612014917773,0.7384909987449646,0.0132873264801804,0.0533143968219403,208
1724723525416303600,-1.3266390641391277,-1.061639635708928,-1.0534177508085965,8.092203458407521,2.7098978411227463,4.831467678274214,-0.30430868268013,2.509503126144409,-0.1622033566236496,-0.7380517535822043,0.1115914796793634,0.4911324099827976,0.4490166391144368,-0.9465001821517944,-0.5050752758979797,0.576882541179657,0.42270343426764,1.18562140468657,-0.6085661976188421,0.2494012713432312,0.0290165748447179,-0.0144093824628042,0.7589107751846313,0.0545729089830536,0.1456379670638125,209
1724723525456040000,-2.024889039814472,-0.2813476289018988,-2.9896891804933547,7.738651886299252,2.5134917641863224,5.474122315716743,-1.5100445747375488,0.0148543948307633,0.3767510950565338,-0.754444899633419,0.1079324092429367,0.4574363788315458,0.4581652983842283,-1.9063283205032349,-0.5345518589019775,0.8054956197738647,0.2082587195545434,1.90723062863946,-1.2165531340450049,0.2600337564945221,-0.0198550671339035,0.0399590214906726,0.788288950920105,0.0896977426497731,0.2738808732178062,210
1724723525535513600,-2.0281109244704245,-0.6815345493264496,-2.296125316807628,8.028278975507616,1.7598229758888482,5.3497793122112745,-0.567549467086792,-1.8690803050994875,0.7853934168815613,-0.752402288851607,0.1534328257835034,0.4513264058123812,0.4545916378316449,-3.0634920597076416,-0.3580420315265655,2.023649215698242,-0.2069284938640892,3.437256422382593,-1.986281369000673,0.2638428211212158,0.0436435043811798,0.0245068565432447,0.7651615738868713,0.0656574578720843,0.3134774820037186,211
1724723525575250000,-2.8633687394350766,-1.9546558121591808,-2.0015368057996032,8.379309504705667,1.3252797584846614,4.919469494593143,-0.700048565864563,-0.9566377401351928,1.340531349182129,-0.745939424612146,0.1837485690533883,0.4641264103707578,0.4409052313076831,-3.368669509887696,-0.6245704889297485,2.6059703826904297,-0.5242525682933629,4.719642503297329,-1.021194520334899,0.2860876023769378,0.1038199514150619,0.0687298008223995,0.6803634166717529,-0.0020753546733089,0.1158944337097927,212
1724723525614986200,-2.5827748515099285,-2.116780118656904,-3.439037460580468,8.661503229042887,0.4587956516617908,4.575834628604352,-1.8233991861343384,-1.6064553260803225,2.218151807785034,-0.7463591341992313,0.2290192567488825,0.462868818308969,0.4198223640366228,-1.8114960193634035,-1.3988417387008667,2.810998916625977,-0.5050347306694836,0.3376736194968223,1.5518359128825363,0.3382536172866821,0.0048837624490261,-0.221342310473416,0.6503801345825195,0.225554557873588,0.3331456572109833,213
1724723525654722600,-0.994675054460764,-2.2194147098317742,-0.7212628947332501,8.961530131712555,-0.6081373412149027,3.93592724404335,-1.5761308670043943,-1.7506237030029297,2.118107795715332,-0.7375802122846831,0.2907357173078867,0.4634612133862646,0.3957926381875004,1.2107528448104858,-1.2566372156143188,3.560286283493042,0.0154288936696946,2.0351012217491866,0.6598031945116818,0.3298279047012329,0.0050177248194813,0.1498271258493419,0.6762458682060242,-0.0710855975677724,0.5295154937902465,214
1724723525694459000,-1.0374532889574766,-3.183811822667718,-1.7008727742701768,9.120278093644975,-1.7338786795541643,3.159839410927892,-2.086472749710083,-2.285743474960327,2.846232652664185,-0.7276974514550871,0.3524328129658335,0.4633402015537236,0.3627167515938952,0.5614873170852661,-0.3402446508407593,3.698409080505371,-0.6441935374476015,-0.2429196985691785,-2.498482703363895,0.3035298585891723,-0.0173663422465324,-0.1320692321096546,0.6282706260681152,0.0905609810161404,0.4574266283309087,215
1724723525773932500,1.7758131567031143,-4.645089658877254,0.8152447353098541,8.642105285611748,-4.50839161618948,1.076473924486339,-2.891860246658325,-1.4631495475769043,3.5778017044067383,-0.6888530711944333,0.5104753037462116,0.4295696299034442,0.2834894854440868,0.0567961931228637,0.7084245681762695,5.164135932922363,-1.7049854702860117,3.677073478761315,0.1593362832143902,0.1644050031900406,-0.1299601346254348,-0.1819061712125316,0.5485813021659851,0.0314782915746211,0.9116801065184176,216
1724723525813668600,1.990142136082053,-4.434219880041479,2.49744751509726,7.942652363887428,-5.747421370458603,0.2276028687055222,-2.8199586868286133,-0.0901368409395217,3.480806350708008,-0.6695089258114563,0.582730427627146,0.3857729014890044,0.2517187437536209,-1.130913496017456,0.4198681712150574,5.6611409187316895,-6.056730480736494,1.1315683274596928,0.1774080926083028,0.1064996272325515,-0.1778037399053573,-0.0983512695661745,0.4385287761688232,-0.1060524915932677,0.74729172754623,217
1724723525853405200,2.292339368528128,-4.894638420197367,1.8868167861640448,7.072280565443634,-6.780984666240215,-0.4140830881016328,-2.6201510429382324,0.1509879976511001,3.4797494411468506,-0.6538414162121866,0.6427165568696773,0.3286758112799552,0.2266692596691169,-0.657001793384552,-0.0148478085175156,5.615958213806152,-7.121679094862937,-2.7518302724450825,0.9594484043873844,0.0440598241984844,-0.3312930762767792,-0.2326825283236801,0.3713479042053222,0.1339378024605102,0.8336269988924264,218
1724723525893137400,3.7943443519234656,-4.7845542436689135,1.8411293862223623,6.052707801091671,-7.627136800184846,-1.1670117620889098,-2.183382987976074,-0.7335904240608215,3.5086827278137207,-0.6349849508051331,0.6958602698455528,0.2743711441048103,0.1931144589311358,-0.2898547053337097,-0.2240027338266372,4.882697582244873,-6.428492247796059,-3.441363565440476,0.1585677830599248,0.0158180315047502,-0.375768631696701,-0.0800699182079639,0.3862703442573547,-0.1154398583427071,1.0567864235240965,219
1724723525932873700,6.1632303690373895,-3.638189913615584,2.4212733530856667,4.915488316002488,-8.238246837067603,-2.03460963883996,-1.553241729736328,-1.6382813453674316,3.01183557510376,-0.6130415137270737,0.7402450213664079,0.2361642042851409,0.142981988740426,-0.2010846138000488,-0.2752943634986877,3.163928747177124,-3.365669442030787,-3.7907220697730777,-0.6056301441669464,-0.0101975481957197,-0.3102295100688934,0.0261020304799312,0.507828950881958,-0.3154277027560397,1.3890908441379666,220
1724723525972610300,7.426590262442827,-0.8180658571451902,3.5163752595439552,3.956042980355024,-8.548499365675449,-2.728233708280325,-1.1192134618759155,-1.056397557258606,1.7888020277023315,-0.5927991771030054,0.7703539328471342,0.213672697367261,0.097405961196228,0.2736549973487854,0.323070615530014,1.368175387382507,0.1398848560303449,-3.288623027229309,0.1216851824730634,-0.0173147208988666,-0.2659596800804138,0.0093109935988235,0.6623477935791016,-0.2243120469992049,1.3104641744077206,221
1724723526012347400,6.410898138916492,0.8351637069404124,4.182420709446072,3.507679619652033,-8.609733294317126,-3.1207413262486456,-0.6003312468528748,-0.0822279378771781,0.5848988890647888,-0.5783712872445379,0.7866763374770571,0.2006336523826811,0.0798309855170082,-0.0585314631462097,0.6247902512550354,0.248391643166542,-0.3171580702126026,-2.7049066087067124,0.4891482294254005,-0.0005963578587397,-0.1116501837968826,0.3766564437659457,0.7392599582672119,-0.5835104841543362,0.918412045121938,222
1724723526052083700,4.793387830726802,0.2936398319810628,3.6170083016380654,3.400318730607629,-8.63952812860012,-3.157022015419602,0.4297773540019989,-0.1575678437948227,0.2041011154651641,-0.5772087944634886,0.789105380763939,0.1956425994110234,0.0765948193695978,-0.8232978582382202,0.4708355963230133,0.2832922339439392,-1.0464794759780167,-2.326030041205883,-0.0927139395326376,0.0758989453315734,0.1026316061615943,0.4315564201457426,0.6921305060386658,-0.6408827323991805,0.5089267696719616,223
1724723526091820300,3.8587618790373206,0.7729355065643787,2.4201652457132936,3.161336371487379,-8.814459748092293,-2.9123233244791624,1.3474724292755127,-1.1535987854003906,0.7846921682357788,-0.5900960500276107,0.7807823308645314,0.1971449021110313,0.0574409355086234,-1.5957304239273071,-0.020871827378869,1.076525330543518,-0.2803974885702133,-1.5687933312937616,0.5172042572170495,0.1032934039831161,0.2546816170215606,0.2605671998701058,0.5818400382995605,-0.6859075767789036,0.5422573038004338,224
1724723526131556600,5.789740755271911,2.43174550113082,0.993160265983641,2.680196530342102,-9.068172643354536,-2.599070152750611,1.3061710596084597,-1.8697482347488403,0.8332037925720215,-0.6059528049209354,0.7688751172525956,0.2033390067643867,0.0174776854093449,-2.945074319839477,-0.2086056023836136,1.635317087173462,0.9193149853110312,-1.272878686248511,-0.5002670048110187,0.0127008268609642,0.3366605341434479,-0.2453803165290504,0.4381979703903198,-0.4909273313945159,0.6068016721643507,225
1724723526171292700,8.18946497824192,3.3823066885769366,1.182606148518622,2.305667198265344,-9.24106661953926,-2.336011921516061,1.1343955993652344,-1.612715721130371,0.0779372006654739,-0.6167695961853386,0.7560909132808893,0.2177842793731713,-0.0221751285038977,-3.192941427230835,-0.1229733750224113,1.3537085056304932,-0.0286585237294435,-0.9013196752194316,0.3580336859583855,0.0200029388070106,0.1498812884092331,-0.9046553224481642,0.3079267740249634,-0.2349541995827108,0.613798691444844,226
1724723526211029000,9.226813637781143,3.154342567077279,0.7121776710018515,2.419332009759545,-9.263897460028527,-2.12071672745347,0.6349170804023743,-1.1217899322509766,-1.3470251560211182,-0.6248338100642907,0.741103064553776,0.2426782084744419,-0.0381619595230795,-1.4895139932632446,-0.0580032654106617,1.291937232017517,-0.8942699759036302,0.1910362204663455,1.777929564335197,0.0701274648308754,0.0875691846013069,-0.6505306315146386,0.3177932798862457,-0.3969773472608998,0.9666675419859588,227
1724723526250902500,7.874164518594742,1.3171183715999126,1.1609338304147123,3.0415999849945305,-9.098274936151505,-2.034817290241272,0.4617687165737152,-0.6969249248504639,-2.374918222427368,-0.6287376774468562,0.7240326182563263,0.2819992486225335,-0.0306962902258562,0.5764662623405457,-0.1100272089242935,1.8695536851882928,-0.7727350155562162,-0.594812835945934,2.326277147834748,0.062173593789339,0.0513724759221077,-0.4940024645235389,0.3403139412403106,-0.4045081811571493,0.9560078354794532,228
1724723526290644000,5.954644317224622,-0.507893408036232,1.1267708640500902,3.974260189568996,-8.754376158529519,-1.9330190037600687,0.4122921824455261,-0.1212541535496711,-2.971686601638794,-0.633575596193193,0.7018973477983185,0.3254176665609143,-0.0050517594645641,0.6486430168151855,-0.0745669081807136,2.223968744277954,-0.9575444704622028,-0.9322602454714476,1.2814159207083284,0.1004399880766868,0.0898989886045456,-0.3808939352052286,0.3161520063877105,-0.4655676300147548,0.8704266704361885,229
1724723526330046500,3.5755946334928272,-1.574969681841135,0.8726654623389244,5.036049462881684,-8.22808901566863,-1.762710221762955,0.4627906680107116,0.2692435383796692,-3.175900936126709,-0.6395643481976296,0.6748209147032918,0.3667287036418909,0.0329279325407768,0.2193156033754348,-0.1908016353845596,2.0550224781036377,-1.4822399602174758,-3.7931633254453536,1.368819332742691,0.0999713093042373,0.122157484292984,-0.306129968785122,0.3625834882259369,-0.6357440543364733,1.150667945531383,230
1724723526370126800,1.3619564612358808,-2.2506226257830857,0.2680826352678239,6.04914572469592,-7.558871073210239,-1.562597399263084,0.4378259778022766,0.1455109417438507,-3.069705009460449,-0.6441935496905465,0.6442951759401382,0.4056525902828765,0.0731059413543604,0.5159752368927002,-0.1777422428131103,1.553967833518982,-0.9035340633332728,-6.696704793053865,1.3729310058452189,0.0568152256309986,0.1231526583433151,-0.4961758995724841,0.4129692316055298,-0.5906235310299321,1.1502234166342764,231
1724723526409868300,-0.4434621446579694,-2.7489006487339736,0.0814145468831062,6.885360986515879,-6.8305994687587015,-1.4508976042315362,0.3711248636245727,-0.2027816474437713,-2.740306854248047,-0.6439001791830483,0.6144198502584098,0.4432419630728224,0.1068522355470849,0.8532267808914185,-0.0817913636565208,1.0251893997192385,-0.7671107459336519,-8.380215513634681,1.4025437615595755,0.011718675494194,0.0219554044306278,0.3250817393513396,0.505578875541687,-0.886460252000764,1.2957317385695877,232
1724723526449610800,-1.3995458949178456,-3.7881186092764136,-0.0097135847628116,7.523315191182494,-6.113550684589147,-1.4814246983118355,0.25062957406044,-0.5546016097068787,-2.348634958267212,-0.6379718735975944,0.5878981188457467,0.4794866465512085,0.1321373971781693,0.2922936677932739,-0.112722173333168,0.2039882242679596,-0.616908494028449,-8.97457607576847,0.5511373603485524,0.0309567414224147,0.095165878534317,0.8706884631775319,0.6254687905311584,-0.9224746914509684,1.2366298535205422,233
1724723526489352200,-2.5101994446426628,-4.185479512494802,0.2845477401174605,7.960299664258956,-5.482904172587395,-1.655826302580535,0.1971280872821808,-0.8919286131858826,-1.798751950263977,-0.627448527771053,0.5665494740222222,0.5132692635752089,0.1479346546206051,-0.2058082669973373,-0.0447442419826984,-0.6856529712677002,0.4615168567866086,-9.359919793456791,0.4076977344460785,0.0216396916657686,0.15009506046772,0.9513462734092026,0.5453121066093445,-1.032335945943743,0.9929440659496932,234
1724723526529093400,-3.605668284717202,-3.9273505543559786,1.06019995829463,8.250868418231606,-4.956035430446267,-1.8791664175413547,0.3162776231765747,-0.6445471048355103,-1.7524094581604004,-0.6161029934586149,0.5484328138699746,0.5431687324521238,0.1568639626302619,-0.151476040482521,0.0281209107488393,-1.6083149909973145,0.0058510641157627,-9.609355157530308,0.4690279630690813,-0.1028748750686645,0.4322469830513,1.173003403719142,0.4614062905311584,-0.803255387634784,1.28106360013932,235
1724723526568835000,-8.145082231158018,-5.219227517193556,0.5154042220577597,8.511995389142632,-4.462176100720465,-1.950728117321432,0.5554317235946655,-0.4312662184238434,-0.963921070098877,-0.6106701346626011,0.526942097743121,0.5672666742529069,0.166200736162692,0.4424267113208771,0.2036948651075363,-2.608844041824341,-0.682808660915494,-9.131054923725127,0.7285467681311071,-0.2282441407442093,0.1684319525957107,0.7882790600381792,0.2607378661632538,-0.127640181887336,0.7813886429373175,236
