time_imu,phone_acc_x,phone_acc_y,phone_acc_z,phone_gravity_x,phone_gravity_y,phone_gravity_z,phone_gyro_x,phone_gyro_y,phone_gyro_z,phone_ori_w,phone_ori_x,phone_ori_y,phone_ori_z,watch_gyro_x,watch_gyro_y,watch_gyro_z,watch_acc_x,watch_acc_y,watch_acc_z,headphone_gyro_x,headphone_gyro_y,headphone_gyro_z,headphone_acc_x,headphone_acc_y,headphone_acc_z,frame_imu
1733390641004518400,4.804252631351352,11.511223382353782,-3.694569972485304,0.1173283937693573,9.749587219563129,-1.049840549908951,-0.4244163930416107,0.0065501159988343,-1.1206715106964111,0.3525432524020966,0.3849066346017626,-0.636689763979921,-0.5676145256427193,0.0601149946451187,0.0178614761680364,0.0302471797913312,-0.0018016099929809,0.0009773969650268,-0.0043441802263259,-0.0548107139766216,-0.0267834700644016,-0.0677197835296392,0.0916981548070907,0.0564494708441197,0.1735388499595224,0
1733390641044518400,6.464862368816137,5.518634242138266,-3.3985341852784154,-0.531731635469757,9.759515908381342,-0.7996985719360411,-0.8067592978477478,-0.2240548580884933,-2.0367953777313232,0.3365917884828952,0.3994376505220182,-0.6174324606241638,-0.5881605421845112,0.08004130423069,0.0200976785272359,0.0257928445935249,-0.0054888129234313,-1.2993812561035156e-05,-0.002331256866455,-0.0598378553986549,-0.010871360078454,-0.1044412022054195,0.0725239291787147,0.0374589391700923,0.0803230983845889,1
1733390641084518400,3.0587323215812443,-2.764539531892538,-1.578880133283138,-1.3582508847162127,9.702636667817831,-0.4294065121028572,-1.0965380668640137,0.1691133379936218,-2.22588324546814,0.3178537916984953,0.4178278231270234,-0.5893331401684481,-0.61406464463044,0.0606750547885894,0.0190583001822233,0.0179701428860425,-0.0100353360176086,-0.0057470351457595,0.0058017373085021,-0.0700966715812683,-0.0014736652374267,-0.0874941590577363,0.0301795154809951,0.0404893929071724,0.1166108018182218,2
1733390641124518700,-0.4022320163860917,-9.79762381297946,0.7882020492792129,-2.221064961256832,9.551769230002163,-0.0310357605550671,-0.9450639486312866,-0.0392852015793323,-2.0875368118286133,0.3007183611966973,0.4389566091591109,-0.5557872602832832,-0.6387379153672145,0.0579016394913196,0.0217048432677984,0.0219353232532739,-0.0016033053398132,-0.0063408017158508,0.0105150341987609,-0.0721772164106369,0.0068312799558043,-0.090663436743617,0.0108938999474048,-0.0091866382792592,0.1826866175331175,3
1733390641164518700,-4.192978928339481,-14.252086270582677,2.2920254802733657,-2.685412803685665,9.42851869790852,0.2489711806278675,-0.5308754444122314,0.2754068672657013,-0.1872553527355194,0.2918029301452696,0.4482247313170047,-0.5351640805199022,-0.653869313090873,0.0464164912700653,0.0206936411559581,0.0106443855911493,-0.0050046443939208,-0.0134278684854507,0.0118825510144233,-0.0663396492600441,0.0252292864024639,-0.0875192934989929,0.0004456043243408,-0.0228115512669086,0.1194252747170627,4
1733390641204518700,-0.401409009565413,-12.274524799132346,1.3774965601950884,-2.526999188274145,9.468819728636742,0.3551571076087653,-0.2678441703319549,0.1489681303501129,0.7741101384162903,0.304167498334391,0.4456541592659236,-0.5322446781377244,-0.652372753113443,0.0011395582696422,0.0216097682714462,0.0112075107172131,-0.0057961344718933,-0.0102967172861099,0.0059776976704597,-0.0521737523376941,0.0200303383171558,0.0064589668810367,0.0136316763237118,-0.0463055318400263,0.1280950495153665,5
1733390641244453400,0.6241133108407259,-7.387920047786832,0.7509954774349927,-2.226731608716398,9.54045580882728,0.437875284436345,-0.0903532654047012,0.0076408474706113,0.8541975617408752,0.3162735790987453,0.4357860869141539,-0.5364373777700912,-0.6498433311656443,0.005074911750853,0.0239658132195472,0.0127777773886919,-0.0030231475830078,0.0022612512111663,-0.0005923956632614,-0.0417908430099487,-0.015541180036962,0.028774546757969,0.0617588199675083,-0.0327280747232958,0.0982701214882079,6
1733390641284453400,0.5510607879810034,-3.993018081530928,1.5883219153672457,-1.81100999616012,9.630916416475175,0.3689380879409611,0.4481507539749145,-0.0356373451650142,1.2790943384170532,0.3292071737688028,0.4256058794867968,-0.5477673116443921,-0.6406507851673153,0.0244129225611686,0.0306522119790315,0.0105897244065999,-0.0071408152580261,0.0026666224002838,-0.0028799101710319,-0.075770080089569,-0.0540168844163417,0.015514964517951,0.1126832365989685,-0.0503967466764152,0.0187979317113757,7
1733390641324453400,0.8322770455881953,-0.2732967166543006,-0.3129623720884323,-1.3141098374336957,9.71677566780746,0.1666170330733992,0.4452593028545379,0.0967093855142593,1.2910007238388062,0.3408968132820436,0.4146564650604717,-0.5653007263123881,-0.6263261201473936,0.0143118193373084,0.0264757368713617,-0.0021242063958197,-0.0073388218879699,-0.009163498878479,-0.0009422302246093,-0.1042287871241569,-0.0809092670679092,-0.0266933611363172,0.1272753179073333,-0.0409342140652239,0.0079497899606823,8
1733390641364453400,1.7557029733493923,0.8325888880163431,0.2250736607551574,-0.8315409863986074,9.771329680293798,-0.0052554083398863,0.4657518267631531,0.2550432085990906,1.2033683061599731,0.3548290844051499,0.405612587759281,-0.5794362604348221,-0.6114150223245687,-0.0165811162441968,0.0150960497558116,-0.0037326891906559,-0.0071462988853454,-0.0015743523836135,-0.0050011873245239,-0.115036092698574,-0.0913131758570671,-0.0641185441672801,0.1321876347064972,-0.0086417177475988,0.059082449696213,9
1733390641404453400,1.330710405231267,2.8077468054562806,-1.254358256304264,-0.404154216620326,9.797126384851335,-0.1528331118654459,0.2419549822807312,0.1906439960002899,0.9798724055290222,0.3679203722674356,0.3983905182765689,-0.5908276523910597,-0.5973627636483201,0.0251391660422086,0.0176900215446949,-0.0105347353965044,-0.0125901699066162,0.0026658028364181,-0.0013983771204948,-0.1067357510328292,-0.0900320261716842,-0.0631254414767026,0.1233216151595115,0.0033256372913718,0.1062486900188028,10
1733390641444453000,0.2315444824707694,2.9532202752739187,-0.9729285020768642,-0.0126246213628153,9.803235223120453,-0.2584396315231919,0.267219066619873,0.1742126792669296,1.006403923034668,0.3796249761968738,0.3905385397792064,-0.6005467535966112,-0.5854127066257852,0.0076025174930691,0.0094246352091431,-0.0138389198109507,-0.0069852471351623,-0.000441774725914,0.0009819418191909,-0.0875941440463066,-0.0684919655323028,-0.0724357061356306,0.100113570690155,0.0135164111118763,0.1195871872805059,11
1733390641484453400,1.369064393544942,4.153037378573417,-0.0289454874446615,0.3272275557409971,9.795730546578763,-0.32704277375862,0.1707116514444351,0.1006246954202652,0.6683382391929626,0.3904361115695224,0.3836000232865172,-0.6078861432607837,-0.5752260871298481,0.0068264724686741,0.0023941560648381,-0.02330326102674,-0.004080057144165,0.0021736472845077,-0.0045201629400253,-0.0629015415906906,-0.0535043179988861,-0.0872556741267442,0.0793667882680893,0.0244854027632623,0.1244542087949812,12
1733390641524453400,1.2746473033562302,3.771740890449285,-0.6975052947878837,0.4740175149846822,9.786024560600518,-0.4235791576562449,0.1937036365270614,-0.1659721434116363,0.1238245591521263,0.3922194563180608,0.3802824875322814,-0.6139884013502017,-0.5697081404440669,0.0126063311472535,-0.0030767759308218,-0.0275158490985631,-0.0069632530212402,-0.002311497926712,-0.0036649107933044,-0.0360108315944671,-0.0436013303697109,-0.0671212331146001,0.0748799964785575,0.0476814233031123,0.1362064597785472,13
1733390641564453400,0.2259691482901573,2.374234392404556,0.3672025328526273,0.4906454457132145,9.782772865328193,-0.4764379470646381,0.1243841350078582,0.0499569810926914,0.0269179176539182,0.3912774481002587,0.3803877360119636,-0.6161142309896595,-0.5679879437632946,-0.0034160448703914,-0.0043485951609909,-0.0213700719177722,-0.0046187043190002,-0.0039192736148834,-0.0022183209657669,-0.0099458508193492,-0.041104931384325,-0.0537964721173047,0.0728615969419479,0.048633682526648,0.1413004219166934,14
1733390641604453400,-0.0816018496161326,1.199100479462743,0.1342202543973922,0.5080689837988466,9.778463769957424,-0.5421329102357849,0.1799180656671524,0.0360592417418956,0.0535766631364822,0.3908562075359462,0.3815363067942015,-0.6181190284590682,-0.5653232615337069,0.0136745246127247,-0.0002146763727068,-0.0229740943759679,-0.0058363676071166,6.964802742004395e-05,-0.0033122450113296,0.0020129838958382,-0.0385271869599819,-0.0542664277166128,0.076765164732933,0.0491419973749667,0.143427204812318,15
1733390641644453400,0.2446940147653221,1.0799416005969047,0.0374140771150589,0.528483593459241,9.774171625721454,-0.5972085719760507,0.082111120223999,0.1026807203888893,0.0257692616432905,0.3911360495093427,0.3828337567478693,-0.619586538446649,-0.5626396888761175,0.0273810159415006,0.0027007926255464,-0.022984679788351,-0.0064995288848876,-0.0010136514902114,0.0003489106893539,0.003311192151159,-0.0331024676561355,-0.0604740501850843,0.0745178535580635,0.0579657936912029,0.1249532443583011,16
1733390641684453400,0.4794524725802242,3.558980183300376,-0.1572995166897773,0.5104001301601528,9.77522668773234,-0.5956762478422373,-0.0792528763413429,0.1800329536199569,-0.1320594698190689,0.3923632617435438,0.385265341610417,-0.6180142823160227,-0.5618541591891886,0.0247447527945041,0.0031185359694063,-0.0160500761121511,-0.0051569938659667,-0.0038448870182037,-0.0010408759117126,-0.0068554333411157,-0.030219193547964,-0.0709048433065414,0.0664749071002006,0.0639531975377351,0.1240652094773948,17
1733390641724453000,1.6286448656663297,9.735843356370925,0.415007107611373,0.3818860880477354,9.78393197223544,-0.5469869626708328,-0.0219798311591148,0.2160238623619079,-0.7191875576972961,0.3918458624603461,0.3907540455398832,-0.612535590186341,-0.5644183763563997,0.043642807751894,0.0116401715204119,-0.0158593263477087,-0.0080469846725463,0.0015379339456558,-0.0008973479270935,-0.020519221201539,-0.0276642087846994,-0.0755091222316026,0.0485784187912941,0.0651577510219067,0.115194797540456,18
1733390641764453400,2.789732133077085,10.65008001550436,-3.5287376052498813,-0.0229329217574093,9.792809690696,-0.520306205287762,-0.2530052363872528,-0.2309204936027526,-1.41214120388031,0.3800716559038362,0.4022168923979621,-0.6039452009308467,-0.5736002404984657,0.0567647367715835,0.0179116502404212,-0.0075201704166829,-0.0020051598548889,-0.0009578615427017,-0.0020244866609573,-0.0397889986634254,-0.0198794603347778,-0.0839975491136312,0.0189791042357683,0.0669533292017877,0.0956558382034301,19
1733390641804453400,5.31213317990601,4.835601124817132,-3.5270682107329367,-0.809388337431848,9.768280814117192,-0.3097896968690678,-0.7326674461364746,-0.6867545247077942,-2.4174153804779053,0.356826563974029,0.4179387331799556,-0.5840565851724814,-0.5973943148663129,0.0455070212483406,0.0168665722012519,-0.0127404984086751,-0.0020567774772644,-0.0085379034280776,0.00258219987154,-0.054499614983797,-0.0101059060543775,-0.0891612154871225,-0.0147865321487188,0.0637550446171313,0.1077004962623119,20
1733390641844453400,2.264537169367075,-4.022285092547536,0.7369692901700735,-1.7589117062628268,9.647611530688405,0.0145112730763445,-0.6818469166755676,-0.4430885314941406,-2.3260490894317627,0.3249855124590232,0.4318192581604641,-0.5592783379187706,-0.6285891382501635,0.0449307151138782,0.0088109895586967,-0.0087474212050437,-0.0035105347633361,-0.0113692432641983,0.0056633204221725,-0.0594348162412643,-0.0038260305300354,-0.070521396946907,-0.0293737016618251,0.0500642998516559,0.1169341885536909,21
1733390641884453400,0.0991965795502066,-11.169834541726113,1.9412591549694536,-2.493248602102697,9.481921786794066,0.2174126794069074,-0.285405158996582,-0.1720659881830215,-1.3919721841812134,0.3026562790688453,0.4473814647754263,-0.5373684610887627,-0.6476760185739638,0.0206392221152782,0.0095298299565911,-0.0084580685943365,-0.0032897591590881,-0.0092019438743591,0.0084764957427978,-0.0503182299435138,0.0042063985019922,-0.0428162284195423,-0.0192380975931882,0.0414916287522763,0.1018821653723716,22
1733390641924453400,-0.3223480400711297,-13.880131611299516,0.0755511712750419,-2.762580506779253,9.404918042090534,0.293305430661235,-0.1304546147584915,-0.3129726350307464,-0.2280855923891067,0.2922225411753079,0.4513830485964052,-0.5303762142479617,-0.6554085064001551,0.0127213792875409,0.0088050765916705,-0.0110841458663344,-0.0053706169128417,-0.0070339888334274,0.0025505423545837,-0.0364059284329414,0.007545527536422,-0.0260860428929328,-0.0004942044615745,0.0267032249432057,0.0940624315321445,23
1733390641964453000,-0.4046849624961614,-11.46394842095971,-0.6685147626250982,-2.7656872406229374,9.398501160785557,0.4353792298369109,-0.4668644964694977,-0.208912506699562,0.2191021889448166,0.2913236418395927,0.4459054581918392,-0.5281762581346015,-0.661308429620855,0.0012870974605903,0.0058688884600996,0.0016303178854286,-0.0070731043815612,-0.004217579960823,0.0017447546124458,-0.0197780579328537,-0.0008208095096051,-0.0066407531887292,0.0118546411395072,0.0315717077624052,0.0766084617756307,24
1733390642004453400,-1.3047291378870605,-6.487893700313568,1.6299837130546568,-2.5801623309239745,9.442638408675789,0.5913863686285913,-0.1641259938478469,0.088558442890644,0.7113669514656067,0.301309229886305,0.4381023912217615,-0.5271754746471404,-0.6628462131467238,-0.0090752616524696,-0.0027061703149229,-0.0051813158206641,-0.001616895198822,-0.0018412768840789,0.0030937865376472,-0.0047708274796605,-0.0149694848805665,-0.0185112237244844,0.0246198289096355,0.0276028041314333,0.0565828879654407,25
1733390642044453400,-2.126656638896465,-2.9811475621193644,1.1630449042845517,-2.19727199773714,9.541859830406308,0.543422511654906,0.231093943119049,0.1333090215921402,1.4154067039489746,0.3146136411509677,0.4290509583092399,-0.5368504797244985,-0.6547711177404063,0.0137533545494079,0.0011707531521096,-0.0025116298347711,-0.0035717487335205,-0.0017778277397155,-0.001514196395874,-0.0027036415413022,-0.0103319510817527,-0.0206821380227804,0.0312064550817012,0.002669657600671,0.0489260896019637,26
1733390642084453400,2.1755689922340213,-2.403493804636597,0.3220247994661331,-1.5801611130043864,9.670195118418336,0.4010238096401095,0.4802257418632507,0.2189577370882034,1.606175661087036,0.3354285758482302,0.4166378949428918,-0.5531422422707882,-0.6386973262412878,-0.0191904809325933,-0.0107938712462782,-0.0099102240055799,-0.0033597350120544,-0.0100306272506713,0.0027533844113349,0.0042112777009606,-0.0094837937504053,-0.032106033834815,0.0269883554428815,0.0001321019470691,0.0369629723466932,27
1733390642124453400,1.493686944644153,1.7736515947550535,-0.4994347917705774,-1.023226026162505,9.751436062300204,0.18130535577517,0.5476521849632263,-0.0557023249566555,1.3825812339782717,0.3497109669852672,0.4051562357115545,-0.5714931530318277,-0.6220499835682384,-0.0494615696370601,-0.0243387073278427,-0.0097204074263572,-0.0044862031936645,-0.0031756460666656,0.0034501552581787,0.0163664072751998,-0.0099156079813838,-0.0535761073648929,0.0221068002283573,0.0229934837050735,0.0651300592973828,28
1733390642164453400,2.389815115635097,1.107576626497507,-0.1556780529677867,-0.5298198104990646,9.79232570657134,-0.0060806265256047,0.4237349033355713,-0.0664433389902114,1.0393632650375366,0.360326620096131,0.3929005350291719,-0.5881659589227962,-0.608156831584708,-0.0335015095770359,-0.0157224759459495,-0.0139647535979747,-0.0100836753845214,0.0015971213579177,0.0021529197692871,0.028679184615612,-0.0098805036395788,-0.0481418073564767,0.0140976002439856,0.0300783273994922,0.0614889263160526,29
1733390642204453000,-0.1807402692383155,3.9757401989936825,0.077457333689928,-0.1685139527359045,9.804237093639372,-0.1376111480778548,0.2754897177219391,0.1561947911977768,0.9104117155075072,0.3700096456132274,0.3855830751716501,-0.5986166622292363,-0.5967216263275047,-0.0345950052142143,-0.0226673074066638,-0.0112655069679021,-0.004058301448822,0.001307263970375,-2.384185791015625e-06,0.0355472974479198,-0.0041997809894382,-0.019008067330718,0.0009625069797039,0.0530912464573979,0.0419562505893409,30
1733390642244453400,0.1732937891572713,3.876752586019039,-0.3902981252253055,0.154113379200641,9.802667652365566,-0.2330917484453879,0.1139737069606781,0.2654900848865509,0.669075071811676,0.3803863978402236,0.3800559583458668,-0.606169811213099,-0.5860220059269038,-0.0289264656603336,-0.0289029944688081,-7.725786417722702e-06,-0.0025088191032409,-0.0026627779006958,-0.0025461837649345,0.0296306032687425,0.000268442556262,-0.0455728336513042,-0.0072430111467838,0.0606602934721857,0.0254462836846709,31
1733390642284453400,-0.243146164268814,4.11442678515017,0.2447299628615379,0.4105907159412279,9.794987034735083,-0.2450287266124039,0.0484128072857856,0.2361073046922683,0.6537676453590393,0.3910088503338086,0.3757118949436348,-0.6093714464975024,-0.5784627282704599,0.0206301677972078,-0.0356902182102203,-0.0060296654701232,-0.0034464001655578,0.0031442642211914,-0.0109326988458633,0.0255750194191932,-0.0005642178584821,-0.0284895969033241,-0.0062727220356464,0.0687543872743845,0.0214542914390563,32
1733390642324453400,1.40542180121392,3.242780144464969,0.2113864231210201,0.6226166425421834,9.782876325702668,-0.2794720260220579,0.1354868412017822,0.2027517557144165,0.3434500694274902,0.3991297975131492,0.3725028307429811,-0.6127729994963501,-0.5713549792172656,0.0050892923027276,-0.0304207820445299,-0.0049892351962625,-0.0058647990226745,-0.0029502511024475,0.0050750970840454,0.0212460607290267,0.0032377601601183,-0.0284703076809644,-0.0054034902714192,0.0742637983456254,0.0281055660218,33
1733390642364453400,1.683641653484106,2.710064429861307,-0.112103042070195,0.688114366108179,9.776294024702906,-0.3477328393595293,0.1683732718229293,0.1260006427764892,0.0264490861445665,0.4015417396401295,0.3737961110188846,-0.6148218506758064,-0.5665991689550702,-0.015412519685924,-0.0241747107356786,-0.0081476774066686,-0.0081000328063964,0.0019578337669372,0.010028526186943,0.0215330906212329,0.0052673341706395,-0.0293441679060459,-0.0027595125138759,0.080321052557975,0.0489069465100765,34
1733390642404453400,1.6109893819883463,3.722280401709676,-0.6378361312448978,0.642253582360968,9.778622175389527,-0.3693746527273208,-0.0459432527422905,0.1480847746133804,-0.2930191159248352,0.4013596298302027,0.3773744762218567,-0.6135318819815925,-0.5657539784722205,-0.0228999983519315,-0.0175386443734169,-0.0156918801367282,-0.0054441690444946,0.003999501466751,0.012668952345848,0.0201745331287384,0.0063975960947573,-0.0332867680519819,0.0065316874533891,0.0623929624836891,0.0530288487456738,35
1733390642444453000,0.1828584669686853,9.295499051472545,-1.4230360760986804,0.4608825044058263,9.7918236022681,-0.2795407438767142,-0.5069208145141602,0.5641562938690186,-0.6856307983398438,0.4017251921621442,0.3853358381930198,-0.6047883131117688,-0.5695297745327126,-0.0372381918132305,-0.0127918273210525,-0.0178534351289272,-0.0057986378669738,0.0004278272390365,0.0062125325202941,0.0150615191087126,0.0057296375744044,-0.035246669948101,0.0123623963445425,0.063897741023451,0.059180210982263,36
1733390642484453400,3.547386776140332,11.794197443413733,0.3248831115067005,-0.0090560615689959,9.806589209723471,-0.0332388212740072,-0.4047348797321319,0.2827217280864715,-1.823959827423096,0.398839069800914,0.4007327207656224,-0.5840445143652155,-0.5824368447647923,-0.0347414761781692,-0.0098318830132484,-0.0092901736497879,-0.0060873627662658,-0.0037550777196884,0.0010147094726562,0.0137832760810852,-0.0005631134845316,-0.0217313548147678,0.0070569636300206,0.0711236736889928,0.0738281834073364,37
1733390642524453400,4.569198259329796,7.108629643675685,0.7196575053632259,-0.8836238595310598,9.766748782244324,-0.0132182250330341,0.2143637090921402,-0.1576015800237655,-2.469723701477051,0.3730135325397992,0.4261471233475827,-0.5648650911437071,-0.6001556414850245,-0.0260161627084016,-0.0098537215963006,-0.0028215553611516,-0.0017287731170654,0.0016823559999465,-0.0021020025014877,0.017575666308403,-0.0008655996061861,-0.018685411247611,-0.0165009200572967,0.0692744656257331,0.0656488224744796,38
1733390642564453400,4.548459422683716,-3.2843063330739737,0.0936965390955097,-1.8133828627713025,9.636122168424723,-0.164774254750926,0.6707354187965393,-0.7254418730735779,-2.3253414630889893,0.3349912369433649,0.4506331743668923,-0.5525675440689897,-0.6159379661530163,-0.0248430408537387,-0.01437917817384,-0.0062359273433685,0.0003623366355895,0.0016676932573318,0.0018858164548873,0.0272726118564605,0.0068376050330698,-0.0730669897764921,-0.0387074872851371,0.0812889477420598,0.122510235120356,39
1733390642604453400,1.9534005514010784,-11.437826137709616,-0.8688707462310791,-2.660587574508786,9.434179207888246,-0.2965068935836665,0.1223981529474258,-0.4735337495803833,-1.9240316152572632,0.2954325205322002,0.4694793044149854,-0.542869069871991,-0.6305568657658779,-0.031603742390871,-0.0128754507750272,-0.001196960452944,-0.0058363676071166,-0.0029750764369964,0.0020734667778015,0.0545611083507537,0.030708122998476,-0.086465400531888,-0.0263091288506984,0.0771075704041868,0.1565998439878225,40
1733390642644453400,-0.9324453927800058,-15.620891574800014,0.4330184920549392,-3.1664278494074938,9.278650792524218,-0.2253218085636384,-0.3429732024669647,0.3716703653335571,-0.7430022954940796,0.2802454074648043,0.4829954929307,-0.5274500630552412,-0.640292410555942,-0.0275259092450141,-0.0068656550720334,-0.000828645308502,-0.0105738639831542,-0.0007179081439971,0.0046389102935791,0.0816401019692421,0.0532649010419845,-0.0725227998971939,0.0004462897777557,0.0553317188605666,0.1514559052281081,41
1733390642684453400,-1.8454393583759665,-14.217550379252431,0.2969055557787418,-3.2021362916484475,9.268286634898184,-0.1248227498464286,-0.4256169497966766,0.1342222392559051,0.4675565659999847,0.2857125244663339,0.4858006481592152,-0.5199633827157203,-0.6418755672703721,-0.0289669446647167,-0.0036386493593454,0.0049072708934545,-0.0027649998664855,0.0005315095186233,0.0062595605850219,0.0988171398639679,0.0686756744980812,-0.0459416669636964,0.0219486020505428,0.0466330102287232,0.1215199089087545,42
1733390642724453000,-1.4706237567037344,-9.201563461190462,1.5569617314636706,-2.913309120646119,9.363920261269808,0.003758650422265,-0.1362377703189849,0.0645577237010002,1.0395278930664062,0.2993471129538727,0.4760062886272597,-0.5227106038253971,-0.6407674645946938,-0.0220557767897844,-0.006229905411601,0.0054438314400613,-0.0028576254844665,-0.0005972385406494,-0.00702815502882,0.093321606516838,0.057287186384201,-0.0088373864501714,0.0380687937140464,0.0644170156572014,0.0608064970098435,43
1733390642764453400,0.2881881424464285,-3.850401754710078,1.3771476006269454,-2.412742548366636,9.505056578665972,-0.0543512016569264,0.3214723467826843,-0.0113808820024132,1.5101972818374634,0.3160019289188655,0.4639467267518977,-0.536213180320373,-0.6303741738335565,-0.0258598364889621,-0.0093671083450317,0.0140265338122844,-0.0046756267547607,-0.0030670762062072,0.0009900331497192,0.057749830186367,0.0303998347371816,-0.0347819750458002,0.0651561021804809,0.0479806985106319,0.0337125922486186,44
1733390642804453400,0.112595867088437,1.0791028116852044,-0.2231435694754123,-1.7771645713120698,9.642880410513282,-0.1641182933265343,0.2267384082078933,-0.1033341661095619,1.7946382761001587,0.3332877768986665,0.4469953225894361,-0.5554843703551514,-0.6168886233208067,0.0006279649678617,-0.0052210995927453,0.0186947211623191,-0.0040915608406066,-0.0002194494009017,-0.0037147551774978,0.0176685862243175,0.0260871592909097,0.0039876083314418,0.1023182719945907,0.0470046200200915,-0.0568435847282409,45
1733390642844453400,1.775698298151791,3.649416241028905,-0.1417909819126129,-1.12746812559925,9.737762341734769,-0.2742009172187186,0.4777312874794006,0.1415278166532516,1.4333429336547852,0.3506079207701628,0.4294298252775569,-0.5740822078389585,-0.6025725996054317,-0.0409663505852222,-0.0190739054232835,0.0084010055288672,-0.0056121945381164,-0.0089797675609588,-0.001562014222145,-0.0288272872567176,0.0080830845981836,0.0139653969883918,0.116625890135765,0.0478805260717868,-0.1128770221173763,46
1733390642884453400,2.3763187974631785,4.658472872063517,-0.9547931259274482,-0.6985819110434502,9.7713805336982,-0.4500051730932667,0.3091388642787933,0.126611590385437,0.8708091974258423,0.3612403685666704,0.4212052545028257,-0.5878180087049094,-0.5886948411391213,-0.0576172322034835,-0.0252236761152744,0.0091356383636593,-0.0068464875221252,-0.0038908571004867,-0.0018321871757507,-0.0711745992302894,-0.0133001916110515,0.0071393503606319,0.1162739098072052,0.0249731132149696,-0.0718701812073588,47
1733390642924453400,1.5161897222228349,4.15478509902358,-1.140648875015974,-0.4298207554595544,9.785603704839945,-0.4770831131003796,-0.0752608329057693,0.1708335131406784,0.4725889861583709,0.3702224565234323,0.4151279337660972,-0.5932902056894213,-0.5819028251791213,-0.0485896505415439,-0.0319565199315547,0.0056662717834115,-0.0092234015464782,0.0023649781942367,-0.005558006465435,-0.0813066139817237,-0.0268187746405601,0.0073234747558832,0.1132861971855163,-0.002829085946083,-0.0407721553713083,48
1733390642964453000,0.7671731436453759,3.031836131349206,0.1762941034844145,-0.2781575458900071,9.792706814843417,-0.4426486363179981,-0.0582456961274147,0.1062627211213111,0.3295688927173614,0.3776640086719736,0.4121421108375476,-0.5938919769454127,-0.5786201080020397,-0.0697575137019157,-0.0498647354543209,0.0043137189932167,-0.0013276934623718,0.0041740983724594,-0.0072530657052993,-0.0766866952180862,-0.0387492217123508,-0.0305079509884119,0.0952457264065742,-0.0050071606375277,0.0303439925983548,49
1733390643004453400,0.1122940345976501,2.7235177856743333,0.2041617690971121,-0.1794814465499483,9.795464589118955,-0.4325090081628411,-0.0137908477336168,0.0199655778706073,0.1969299018383026,0.3808580492341731,0.4090226727331418,-0.5956108426527946,-0.5769709260270105,-0.0599427036941051,-0.0524815544486045,-0.0001786341890692,-0.0089274048805236,0.0091902166604995,0.0006860941648483,-0.0494818016886711,-0.0539458058774471,-0.0814753371596336,0.091251328587532,0.0041102848630398,0.1318102706462144,50
1733390643044453400,0.3904756006840616,1.707358629158139,0.5027074567656964,-0.1245697797323577,9.794836228087544,-0.4648494352754205,0.1771552711725235,-0.0852718502283096,0.0726610720157623,0.3816295461514517,0.4078045383981633,-0.5978262159153549,-0.5750290069000661,0.0119514595717191,-0.0324765294790267,-0.0057996353134512,-0.0093926191329956,0.0074368864297866,-0.0070564672350883,-0.0170725435018539,-0.0624908655881881,-0.1050309847921133,0.0784892737865448,-0.0213031925305724,0.1317445119336247,51
1733390643084453400,0.3751051957359537,0.7825923927038908,-0.0253039526045322,-0.1145861915222834,9.791099964168668,-0.5400268413346261,0.173704907298088,0.0252539981156587,-0.0190583914518356,0.3798846732495849,0.4084690393494964,-0.6005720186217339,-0.5728472718331012,0.0296393763273954,-0.0244841165840625,-0.0014227298088371,-0.0015603899955749,-0.0025453567504882,-0.0048206374049186,0.0310009308159351,-0.0324728451669216,-0.1653694258987903,0.0636961981654167,-0.0421612716421484,0.1934492729574441,52
1733390643124453400,0.5657217294855043,0.1325941145002842,-0.7249485244434326,-0.1414991136934142,9.788976396143436,-0.5712118148017674,-0.0737998858094215,0.0275030154734849,-0.1122825443744659,0.3787234354141946,0.4101901005226764,-0.6007227144896308,-0.5722278936473494,0.0542728155851364,-0.0201509408652782,-0.0050152009353041,0.0026748180389404,-0.001226395368576,-0.0088050961494445,0.0919959545135498,-0.0017781257629394,-0.056112347844243,0.0140644051134586,-0.0350298123270273,0.1342325293570757,53
1733390643164453400,0.3236789233487099,-0.0343172801434993,-0.2307283255159855,-0.192746038325224,9.791886146110295,-0.5021969864929094,-0.261698454618454,0.1032577008008956,-0.1507627367973327,0.3794703991867522,0.4112570296129558,-0.5970532442298159,-0.57480195865634,0.0540536381304264,-0.0240768138319253,-0.0075982678681612,-0.0066737532615661,0.0011161714792251,0.0024807453155517,0.152225986123085,0.0431912206113338,-0.0855436095118522,-0.0241607353091239,-0.0332983123593032,0.1092152847394347,54
1733390643204453000,0.1582037720531225,-0.0296679930329322,-0.1354266710450872,-0.2583112741694786,9.795765617892146,-0.3829179883787408,-0.3442056477069855,0.1689578145742416,-0.1959675401449203,0.3819204583108038,0.4128540266970548,-0.5908256395300111,-0.5784577438272203,0.09415765106678,-0.0109960045665502,-0.0127146653831005,-0.0071857571601867,0.0041007995605468,0.005116268992424,0.2124654054641723,0.0535224005579948,-0.0537467877566814,-0.0770954340696334,-0.0465896825436502,0.0905249050557613,55
1733390643244453400,0.092185568276979,-0.041360184392333,0.1077157120977528,-0.3411823948027566,9.797282452195882,-0.2592990796304307,-0.2748167812824249,0.1712476313114166,-0.2342044860124588,0.3839174298965349,0.4147862505249292,-0.5841001112638846,-0.582569151156069,0.0476127825677394,-0.0104056885465979,-0.0211186707019805,-0.0057789087295532,-0.0078400373458862,0.0047811865806579,0.2678487300872803,0.0666425004601478,0.0015033903002738,-0.1188114210963249,-0.0193035431459546,0.1214677403301,56
1733390643284453400,-0.3752748532144352,-0.0491173743903636,0.3504220419108867,-0.4155601383842527,9.795763864326476,-0.2018321753720753,-0.0533977746963501,0.6554852724075317,-0.0897280201315879,0.386657738355414,0.4195801494967225,-0.5781375922145396,-0.5832712642757849,0.0316503308713436,-0.0113625088706612,-0.0230195671319961,-0.0060226917266845,-0.0080830603837966,0.0045350193977355,0.3414890468120575,0.0503796711564064,0.0161766432970762,-0.1646201610565185,-0.0370759312018752,0.2128779037877917,57
1733390643324453400,-0.4077581593964248,0.2746674204856157,-0.7204688217461108,-0.3782882827514782,9.795045486924051,-0.2904821534014307,0.082720048725605,2.208402633666992,0.1574789434671402,0.4093956734188412,0.4437954311481638,-0.5637872676960193,-0.5635465910852457,0.0231593716889619,-0.0180167369544506,-0.0159948151558637,-0.0079476237297058,-0.0062950849533081,-0.0025278851389884,0.4405928254127502,0.0239497274160385,0.0933311946481466,-0.2177699655294418,-0.003295899740234,0.3560308217033743,58
1733390643364453400,-0.0909825491627678,-0.2566349201887846,-0.4982219088494777,-0.2805674931085668,9.79782781111896,-0.3069775620577856,-0.1952205449342727,1.8076951503753664,0.1984973400831222,0.4353343553918549,0.4650344592656538,-0.5471694903695115,-0.5429847902786071,-0.0589077994227409,-0.0501622110605239,-0.0125799095258116,-0.003429353237152,-0.0137445479631423,-0.0064073354005813,0.5900575518608093,0.0205161776393651,-0.1696545558720827,-0.2459354996681213,-0.0445944901384413,0.4140601090848446,59
1733390643404453400,0.1429196023500524,-0.1307937870800495,0.2526864748239517,-0.190204957273975,9.80321827198565,-0.1763709498465992,-0.4137948751449585,1.0852397680282593,0.171984389424324,0.4547899084357252,0.4734857074107529,-0.5336700301956849,-0.5330794454639173,-0.0991052836179733,-0.079024001955986,-0.0081026703119277,-0.0035697221755981,0.0055810809135437,0.0275900214910507,0.7131382822990417,0.032599251717329,-0.1997118404835462,-0.2061683684587478,-0.1033519456639885,0.3520353223264217,60
1733390643444453000,1.0645322884105146,0.0447919124066829,-0.1512473770439624,-0.1667067754497751,9.805103355079888,-0.0504644781503826,-0.3058105409145355,1.205440878868103,-0.0745011419057846,0.4706898264201877,0.4820247927607561,-0.5198317722769545,-0.5252410461953437,-0.0519556179642677,-0.0319699943065643,-0.0185250174254179,-0.0096145868301391,0.0027177482843399,0.0076913982629776,0.7409676313400269,0.0468811281025409,-0.0502449171155691,-0.1907979547977447,-0.0581815553337335,-0.1315913671985268,61
1733390643484453400,0.0964905537282116,-0.1617635103613138,-0.2874398082971572,-0.2142556036154739,9.80411200595498,0.0623849572737468,-0.3180567920207977,0.9603577852249146,-0.1150812432169914,0.4837654691249161,0.4918459534487672,-0.5048829671607408,-0.5187984970479531,-0.0274856947362422,-0.0261773001402616,-0.0134564889594912,0.0016235709190368,-0.026074081659317,0.0065769553184509,0.6582015156745911,0.0502069629728794,-0.0167874686717987,-0.2340043485164642,-0.0493856699377298,-0.3630763563007116,62
1733390643524453400,-0.050872876288183,-0.2502975338608026,0.0485684900696389,-0.2380771173762157,9.8022631632179,0.1712488210598938,-0.2556979358196258,0.789770245552063,-0.0085789151489734,0.4946527444746026,0.498206592730183,-0.4930100717631545,-0.5138577918100845,0.0256076157093048,-0.0159318018704652,-0.0061640888452529,0.0023030638694763,-0.0071005225181579,-0.0023020654916763,0.5192204713821411,0.0324181206524372,-0.0176215814083814,-0.2653204202651977,-0.0172780286677181,-0.3362627297855913,63
1733390643564453400,0.106312165442761,-0.3729138597041368,-0.6912053178608417,-0.2531064538016915,9.799783036839962,0.2656356439745053,-0.347506433725357,0.5212153792381287,-0.0625657066702842,0.5036009116835272,0.5027878071539957,-0.4833847042887487,-0.5098329985363647,0.0411008223891258,-0.011489488184452,0.000217777211219,-0.0005417466163635,-0.000180959701538,0.0053391903638839,0.3931663036346435,0.0148155577480793,0.016943536016345,-0.2950787842273712,0.0591844487659633,-0.2817633700959384,64
1733390643604453400,-0.2816892088811844,-0.439106287536025,-0.7838146279752254,-0.2923206026086583,9.793700502055882,0.4103188767299056,-0.3121947348117828,-0.1308308094739914,-0.0957990512251854,0.5089527774540545,0.5025096968543471,-0.475986937723949,-0.5117494808576387,-0.0237881634384393,-0.0221311599016189,-0.0267474595457315,-0.0187952518463134,-0.0163145512342453,0.005141481757164,0.3028547465801239,0.0104558421298861,-0.0561520953327417,-0.2879872918128967,0.0286577930770814,-0.0980412720352411,65
1733390643644453400,-0.6007539894979447,-0.3762783677011728,-0.4344434833567589,-0.274775666633062,9.787437350007892,0.5486170480906963,-0.4666228294372558,0.4464232325553894,0.2113499492406845,0.513692434579403,0.4991602768958005,-0.4720882690440862,-0.5138987305676528,-0.0807518437504768,-0.0283894818276166,-0.0075962035916745,-0.0133180618286132,-0.0124304294586181,0.0033125132322311,0.24965700507164,0.0115550076588988,0.0450222140312194,-0.233343631029129,0.0893330649226903,-0.0541726119533181,66
1733390643684453400,-0.8181743590209632,-0.478862543863058,-0.505821277937293,-0.1698826290069147,9.777043966287374,0.7422487649429589,-0.666738748550415,0.6381543278694153,0.4988099932670593,0.5266290548548321,0.4963156228188066,-0.4645714684199583,-0.5103978711103768,-0.101319171488285,-0.0387683548033237,-0.0121677201241254,-0.0031865239143371,0.0007781088352203,0.0009801536798477,0.2143494337797165,-0.0026512304320931,0.0160667531818151,-0.205665647983551,0.0757310944192111,-0.1571536784783005,67
1733390643724453000,-0.6458386012408882,-1.134331946954131,0.0453430434834212,0.0393575849988032,9.757347916692495,0.9813207020428032,-0.5603492259979248,0.3916043639183044,0.5880928039550781,0.543407381061144,0.4896519409912735,-0.458483963736055,-0.5047195178369879,-0.0682118162512779,-0.0235258042812347,-0.014973159879446,0.0010871887207031,0.0020670890808105,0.0018833875656127,0.1291163563728332,-0.0213122628629207,0.0066997898995876,-0.1929336190223693,0.0679237451365217,-0.2347812541685998,68
1733390643764453400,-1.1047282513290644,-1.6593319726139306,0.7892465898960829,0.2589763504820875,9.735572722736,1.1497576988186686,-0.2506313621997833,0.6715517640113831,0.729153573513031,0.5581440916642475,0.4842023387223093,-0.4548920394196647,-0.4970880263691594,-0.0365494973957538,-0.0068519660271704,0.0072093070484697,-0.003382921218872,-0.0052814334630966,-0.009233072400093,-0.0062928199768066,-0.0242454726248979,-0.0456190108805894,-0.174614742398262,0.0700279143415391,-0.2926004059307277,69
1733390643804453400,-1.359902743576467,-1.4100047450900075,0.3579777179874479,0.5638303627809509,9.7144440099895,1.2174073397215457,-0.1228510215878486,1.065984845161438,1.086908221244812,0.5758844484191818,0.482920299021548,-0.4524571643577578,-0.4800288920764778,-0.0340437293052673,-0.0104416403919458,0.0100538963451981,-0.0043940544128417,-0.0031145960092544,-0.0056783556938171,-0.1805122792720794,-0.0465066544711589,0.02129822409451,-0.1669343411922454,0.1764320141177624,-0.2861947766721248,70
1733390643844453400,-1.087917036455497,-1.490470028424263,-0.3641944005452096,1.0162404050588607,9.655596684223411,1.380981918092817,-0.5735265016555786,1.5655124187469482,1.559323787689209,0.6032256795760564,0.4793388920121315,-0.4470164897301259,-0.4544550611453953,-0.0117836967110633,-0.0026757034938782,0.0051810438744723,-0.0071806907653808,0.0093726217746734,-0.0056447833776474,-0.3343904614448547,-0.0672286599874496,-0.0252069219708442,-0.2105266898870468,0.1174971561986953,-0.281412510831654,71
1733390643884453400,-0.6065871526308357,-1.1398194384545086,-0.1920557727724313,1.5418224683903157,9.52132031572461,1.7713308967225252,-0.9397013187408448,1.9320693016052248,1.7568494081497192,0.64107858480681,0.4708068110747929,-0.4336221906022485,-0.4234748315873705,0.018615486100316,0.012966213747859,0.0010000807233154,-0.010368525981903,0.0084332674741745,-0.0042289495468139,-0.4595887660980224,-0.0390147194266319,-0.0645902533322572,-0.2630231976509094,0.124422242754139,-0.1845854368917644,72
1733390643924453400,-0.2474085344210267,-0.8598258545100689,0.2093687266230583,2.069246214065701,9.308664237993955,2.2885315006777645,-0.9902284741401672,2.181763172149658,1.9140613079071045,0.6823141459679941,0.4586127367936434,-0.4159227337831845,-0.3887545122230919,0.0527281835675239,0.018066432327032,0.0088536767289042,-0.002102792263031,0.0081821084022521,-0.0145117044448852,-0.5414069890975952,-0.0150711443275213,-0.1101560727208852,-0.2894147634506225,0.142275550559163,0.0379997680485248,73
1733390643964453000,0.3393123266145587,-0.255190566599369,0.2562511815682053,2.513827572011948,9.034727469870449,2.867882125206292,-1.0614529848098757,2.429696798324585,1.8032965660095213,0.7238064495567165,0.4465791368757145,-0.3928686525425401,-0.3497506209193187,0.0824123099446296,0.0094250608235597,-0.0074962684884667,-0.0056777596473693,0.004700481891632,-0.0122841745615005,-0.6106287240982056,0.0133321341127157,-0.1285123981446027,-0.3301191926002502,0.1859828825995326,-0.0202802792236208,74
1733390644004453400,0.6641156508833169,-0.3946212491214275,0.1099094044834375,2.8101699409499763,8.698011881750821,3.552171964590251,-1.247394561767578,2.298569202423096,1.617318630218506,0.7646696113348714,0.4325707019989227,-0.3630044337416517,-0.3104686971102321,0.115251749753952,0.0347867161035537,0.0005899539683014,-0.011744201183319,0.0080590397119522,-0.0032678842544555,-0.6765292882919312,0.0302943419665098,-0.0816138688474893,-0.4525317549705505,0.1465119094872847,-0.2699626037955284,75
1733390644044453400,0.8997276567876339,-0.006613280659914,0.2508411392182111,3.0079090200558305,8.329606439381838,4.211951047573984,-1.2856407165527344,1.851159930229187,1.3599574565887451,0.7975163164659562,0.4136702600362457,-0.337827145608692,-0.2805664275274749,0.1823988258838653,0.0550102293491363,-0.0026366654783487,-0.0107993483543396,0.0161526650190353,-0.0052975416183471,-0.7614604830741882,0.0614483579993248,-0.185247261801362,-0.6304214596748352,0.0108273912236094,-0.1983358028899878,76
1733390644084453400,0.7719900424078107,0.0997135891616344,-0.1192836742892861,3.0808789791986344,7.931635295310616,4.875215634585917,-1.3881728649139404,1.7244237661361694,1.1792365312576294,0.8273258626333342,0.3938218227220403,-0.3103829190495231,-0.2531772081225694,0.2407766580581665,0.0685129910707473,0.0034984587691724,-0.0035916566848754,0.0158546566963195,-0.0227740556001663,-0.7912014126777649,0.1372022628784179,-0.0975076035499572,-0.7762272357940674,0.0037527766622602,-0.1276709423517808,77
1733390644124453400,0.1793248860150575,0.2435422143816947,-0.7176806523323058,3.126917969056964,7.490028423130512,5.503839993110299,-1.5871747732162476,1.1325736045837402,0.9607755541801452,0.8521782571270125,0.3692536778685369,-0.2881561905449759,-0.2332596925689068,0.2505041062831878,0.0215797293931245,-0.0107985213398933,-0.007127821445465,0.009099543094635,-0.0172634571790695,-0.8054503798484802,0.2112797200679779,-0.2172872446626424,-0.853114664554596,-0.1412299870289862,0.1384127924500964,78
1733390644164453400,0.5102382175967097,-0.2043412538498639,0.835942290097475,3.1522917720273136,7.044725034520029,6.0502305973231785,-1.2947596311569214,0.9582732915878296,0.8071722984313965,0.8719267917276282,0.3437166103776419,-0.2708929177783161,-0.21958975159003,0.2250221967697143,0.0074653471820056,-0.031547475606203,-0.0115922093391418,-0.0042087584733963,0.0155477374792099,-0.7824455499649048,0.24752938747406,-0.0521224014252424,-0.7986799478530884,-0.1180292903140187,0.2234587729044258,79
1733390644204453000,0.3154439597710967,0.3965829045832157,0.6450818645894527,3.193557848395407,6.644465487250685,6.467044389030337,-1.1013344526290894,0.5050179362297058,0.7937740087509155,0.8869901331890387,0.3214714636384733,-0.2587056414390954,-0.2073067744611731,0.2001978009939193,0.0200835652649402,-0.0432611256837844,-0.0125620365142822,-0.0123196542263031,0.0330179184675216,-0.7188332676887512,0.2105419635772705,0.0347843131333589,-0.6953151226043701,-0.0658016749486327,0.3375610625004395,80
1733390644244453400,0.5035229378670454,0.0815782130122184,1.3289356506437062,3.222303465886414,6.28430414161384,6.804017751303315,-0.8839085102081299,0.7072181701660156,0.6764715909957886,0.899246208934814,0.3022643800270503,-0.2484509818162917,-0.1956130232194211,0.1757244169712066,0.0238666366785764,-0.0447732657194137,0.0001236200332641,-0.026167556643486,0.0242990851402282,-0.6308526992797852,0.1726924777030944,-0.003209609696269,-0.5262562036514282,-0.1217187194164842,0.208343146434985,81
1733390644284453400,-0.1150906065136194,0.2710626739919185,0.6443500431835651,3.1789205434948204,5.965832650715113,7.104484214434027,-0.7690402865409851,0.7898516654968262,0.7813377976417542,0.9105762993840396,0.2870403284471462,-0.2353294995356884,-0.1818755606074065,0.0880164057016372,0.0062907868996262,-0.0496491827070713,0.0080680251121521,-0.0437860637903213,0.0265223532915115,-0.5635003447532654,0.1578709185123443,0.1110112282454967,-0.44666188955307,-0.1037128148656338,0.0805839412778615,82
1733390644324453400,0.2933256514653563,0.1576613357394933,0.2606505855709314,3.116915338219702,5.6484267432212825,7.385830382031202,-0.7879330515861511,0.8850722908973694,0.6840872168540955,0.92107143017372,0.2721647262003721,-0.2221571512930997,-0.1679282671288847,-0.0161068066954612,-0.0053119137883186,-0.0292203389108181,0.0159806609153747,-0.0497312247753143,0.0321909189224243,-0.4669041037559509,0.0848796889185905,0.1127940200090408,-0.3828214108943939,-0.0920734496720135,0.1128920735560357,83
1733390644364453400,0.3163388627842068,0.3935615109354257,0.524435962036252,3.055743953420221,5.340101967805624,7.636499087291956,-0.6746763586997986,0.5106366276741028,0.6055962443351746,0.9302760561133584,0.2576927606024716,-0.2103362639332658,-0.1547237957504818,-0.0986450910568237,0.0092338994145393,0.0001964720431715,0.0007709264755249,-0.0416831672191619,0.0287587791681289,-0.3549034297466278,0.0525889657437801,0.1095423247367143,-0.3267655372619629,-0.0073693597242236,0.1263843000747263,84
1733390644404453400,0.7800026684716344,0.2984615530490875,0.7751601968765258,2.9667732920691368,5.095375512075424,7.836185208812355,-0.6030770540237427,0.8010643124580383,0.3380561470985412,0.9371826277228325,0.2461675201353645,-0.1996679955230464,-0.1456814323968155,-0.1415938884019851,0.0113397678360342,0.0195209681987762,-0.0025897622108459,-0.0141706019639968,0.0016352981328964,-0.2287921905517578,0.0249165426939725,0.0339320802181959,-0.2675597667694092,0.0220781954910606,0.2048907774914056,85
1733390644444453000,0.3596750234246254,0.1264665715306997,0.6858364843040704,2.711038243329525,4.866491060860454,8.070806450113654,-0.5738040208816528,1.163462519645691,0.3017942607402801,0.9448378383234768,0.236417519989748,-0.1805827913670466,-0.1370328764916592,-0.134149819612503,-0.0307185221463441,0.030159430578351,0.0060346722602844,0.0055058598518371,-0.0192613750696182,-0.1011937260627746,0.016842994838953,0.014996493601799,-0.173202782869339,0.046097807373479,0.0925835911512374,86
1733390644484453400,0.4621953405700624,0.2539046184420585,0.2003390324711799,2.387503185430914,4.671866314382851,8.285160563933848,-0.4841710925102234,1.0167672634124756,0.1928912848234176,0.951777513451093,0.2288038758927829,-0.1588180484640105,-0.1286283430661315,-0.14003486931324,-0.043321669101715,0.017638511955738,5.984306335449219e-05,0.0057434737682342,0.0034921616315841,-0.0315027013421058,0.0256859101355075,0.040852819392085,-0.1735531389713287,0.0327186858404427,-0.1448440858729183,87
1733390644524453400,0.123730862956494,0.0182020116448402,-0.0935813700169324,2.151059989399463,4.508185572223365,8.43916980690658,-0.4484278857707977,0.5151134729385376,0.1457863897085189,0.9566012349330072,0.2218264756766517,-0.1432309500492821,-0.1232556402273717,-0.1299012750387191,-0.03410654515028,0.0330262593924999,0.0013553500175476,0.0033877193927764,-0.0014228820800781,0.0065882541239261,0.0186598636209964,0.0166951142132282,-0.2022226303815841,0.0236214794103056,-0.1849466714195907,88
1733390644564453400,0.0124370183773338,-0.1182794656828045,0.1363794782578945,1.9971958539858456,4.340154818160832,8.564149354749917,-0.4755953550338745,0.7312161326408386,0.2023974061012268,0.9604840123502948,0.2139984003889425,-0.1324937596092626,-0.1188302595039944,-0.1250098496675491,-0.0440790690481662,0.0323318392038345,0.0022439956665039,-0.0014951825141906,-0.0094483494758605,0.0192323494702577,0.0332475900650024,-0.0606400544017553,-0.200480580329895,-0.0025939620159566,-0.1501842778570949,89
1733390644604453400,1.0057176958702505,0.0655932928949594,1.8673481155842544,1.634488184867054,4.213443624219298,8.703201851609348,-0.1298643201589584,1.471843719482422,0.0473736450076103,0.9649204856254332,0.2097083938454216,-0.1108268084460094,-0.1125532077233464,-0.1513479799032211,-0.070775605738163,0.0257574915885925,-0.0041525959968566,-0.0125619322061538,0.0012998729944229,0.0223615951836109,0.0470987521111965,-0.0920879165887832,-0.1912115514278412,-0.0307147256068885,-0.1418048643074929,90
1733390644644453400,0.1933604256302118,-0.313112009692192,1.9266005150198933,1.2403174559921026,4.217306437127292,8.766203374445437,0.2304533123970031,0.851658046245575,0.0021069385111331,0.9671846337557872,0.2124536110397881,-0.0889464409497157,-0.1072659735188355,-0.1972180008888244,-0.0772546008229255,0.0292653422802686,-0.0133694410324096,-0.0113684982061386,0.0128283500671386,0.0230333004146814,0.0436483472585678,-0.1102753151863813,-0.1730958819389343,0.0214515149600803,-0.0775794987648725,91
1733390644684453400,-0.55865781898126,-0.1058005078598856,0.0261538474321365,1.1504744687858968,4.2944560200423,8.740963134726881,0.1622576117515564,-0.0126592479646205,-0.0539483837783336,0.9665374501043692,0.217145851745807,-0.084750119551909,-0.1070998626623084,-0.2559854686260223,-0.0673181861639022,0.0251072160899639,-0.0104519128799438,-0.0129135102033615,0.0215048938989639,0.0392750576138496,0.0333193242549896,-0.0683545743018388,-0.1512258499860763,0.0834176303338259,-0.1211994447827339,92
1733390644724453000,0.0204088009741157,0.2445294718533754,-0.1400865160822868,1.1280598078820854,4.355929018136859,8.713423385894298,0.1340327113866806,-0.087063044309616,-0.0340814925730228,0.965667488259159,0.2205237044208921,-0.0843109950657971,-0.1083844554982682,-0.2385172396898269,-0.0433451533317565,0.0468382760882377,-0.0188520550727844,0.0077763944864273,-0.0058082789182662,0.0395054630935192,0.0263510793447494,-0.075206339892745,-0.1507699787616729,0.1406430539865046,-0.1555874520748853,93
1733390644764453400,0.3459695194814354,0.560510607241094,0.5364315202564001,1.17240317280367,4.429603910678625,8.67032074174881,0.3005097806453705,-0.1849444508552551,-0.0257921125739812,0.9644152279115216,0.2242642876197071,-0.0874195872990327,-0.1093926132722384,-0.1447984725236892,-0.0311626866459846,0.052671130746603,-0.0148929357528686,0.0323074609041214,-0.0241955518722534,0.0408262498676776,0.0203487649559974,-0.0151180741548538,-0.1206130161881446,0.1830490211047232,-0.1537991073533892,94
1733390644804453400,0.1734016334459185,-0.4033288717120886,0.4429425046980381,1.2321443786695598,4.531082171425223,8.609384334748983,0.2495067715644836,-0.1475466936826706,0.0346932485699653,0.9627965703888942,0.2295636339155633,-0.0913459960910206,-0.1094499494512625,-0.1335753798484802,-0.0670652389526367,0.0399866960942745,0.01594740152359,0.0335425734519958,-0.0254891067743301,0.0378080904483795,0.0155593492090702,0.0532511131942272,-0.0935926735401153,0.1689078291580081,-0.2127963629841804,95
1733390644844453400,-0.2787288247056305,0.0010328501790761,0.1209662205487489,1.2742678025193512,4.616783601847291,8.557565884706378,0.3067717254161834,-0.0811185464262962,0.0197611451148986,0.9615362259810358,0.2342056600128217,-0.0939854665444647,-0.1084553355261871,-0.0998586937785148,-0.0670753121376037,0.0109102362766861,-0.0057094693183898,0.0197376906871795,-0.024013340473175,0.0230373106896877,0.0535797290503978,-0.0548854363977909,-0.0280792191624641,0.1221747926209121,-0.0646811464861035,96
1733390644884453400,0.1911100163549184,0.1588195658639073,0.0939718306392431,1.2811743670374154,4.744205866667628,8.486547644153237,0.4198139011859894,-0.0208331141620874,-0.1318380683660507,0.959530871116428,0.2411771278226307,-0.0956038262549079,-0.1095174770338081,-0.0737445354461669,-0.0429736971855163,0.0436377525329589,-0.0426891446113586,0.0104616433382034,-0.025806188583374,0.0059177614748477,0.0919629782438278,-0.0341506914049387,0.0437589883804321,0.0801451114691793,0.0305840849645435,97
1733390644924453400,0.0147420804493129,0.3292731631591916,-0.0444213255286216,1.2618163172252477,4.896670218285918,8.40242968353033,0.4028668403625488,-0.0968096256256103,-0.0326629132032394,0.9570653386451268,0.2496419993073226,-0.0963026066896233,-0.111492291591409,0.0025134831666946,-0.00109660893213,0.0510233007371425,-0.0080437064170837,0.0284605622291564,-0.0069811195135116,-0.0209980010986328,0.1015400290489196,-0.0137695821553468,0.0699129477143287,0.0584508737944066,0.0642583910293877,98
1733390644964453000,-0.248101777382195,0.025944004073739,0.3234849351465702,1.3171125263810155,5.042730548080802,8.307012914779781,0.5170788168907166,0.0701289027929306,0.1618131101131439,0.9549225542482804,0.2579918722962648,-0.0995007371457659,-0.1079934971441559,0.0494628809392452,0.0162127651274204,-0.0015745966229587,-0.0195156931877136,0.033218041062355,0.0026242136955261,-0.062193140387535,0.0958190783858299,-0.0286813200831413,0.0601443871855735,0.021525895370543,0.045779316008836,99
1733390645004453400,0.3375435633763671,0.6450777729362249,-0.079639353904128,1.2634288669884204,5.190189638757706,8.224114851340651,0.3299385607242584,0.2671127617359161,-0.1986105144023895,0.9528055541920348,0.2667609431653889,-0.0975984094422407,-0.1071197219371012,0.0207113940268754,0.0262030288577079,-0.00336290942505,-0.0263845920562744,0.0056146085262298,-0.0102076381444931,-0.0921940505504608,0.0876214355230331,0.0031488194197416,0.0493311062455177,0.0428109677225351,0.0464583843141794,100
1733390645044453400,0.3176447577510028,1.3158335924863815,-0.8637041572481393,1.1751399773564188,5.234253236889839,8.209264488211273,-0.2434594333171844,-0.0412798002362251,-0.2342608422040939,0.9519894182256544,0.2693602867676435,-0.0942816875357696,-0.1107798992066982,0.0095836427062749,0.0258629973977804,0.0103564318269491,-0.0132140517234802,0.0128252506256103,-0.0196288228034973,-0.0988381206989288,0.0610433295369148,0.0230810158580541,0.0288509987294673,0.0533840919241309,0.0387207757994532,101
1733390645084453400,-0.8611138484939932,1.1117565425306557,-0.7338999657273292,1.1675715148635208,5.054809108409286,8.322022852385043,-0.8902413249015808,-0.034542292356491,0.2446624040603637,0.9547834873039924,0.2589655446565432,-0.0929072274067776,-0.1126663576575058,0.059388481080532,0.0084459763020277,-0.0085038086399436,-0.0022640824317932,0.020283430814743,-0.0255590677261352,-0.08321513235569,0.0386215224862098,0.0156610949903726,0.0215076096355915,0.0369742243930697,0.0317890768401324,102
1733390645124453400,-0.7811408787213265,0.6428150887012481,-1.0276374128639698,1.3111569789774715,4.637746018116176,8.540641637912392,-1.3154709339141846,-0.2075617164373397,0.7635678052902222,0.9614813586477696,0.2355420749070616,-0.0952280724912772,-0.1049053031632458,0.1074542850255966,0.0161750558763742,-0.0129816476255655,-0.0111268162727355,0.0111308246850967,-0.0192354321479797,-0.092661328613758,0.0358456447720527,-0.034189269849658,0.0375806838274002,-0.013310440210998,-0.0491419243097305,103
1733390645164453400,-0.7157711654491722,0.1453419523924589,-0.8009463800400495,1.561223626691848,4.143421116705238,8.750144220048188,-1.1983777284622192,-0.2996971011161804,1.1515766382217407,0.968424193411193,0.2085738129482687,-0.101802590769066,-0.0910365565540109,0.1366992592811584,0.0353072583675384,-0.0210469644516706,-0.017178475856781,0.0138455778360366,-0.0111929774284362,-0.1268022060394287,0.0303937532007694,0.0117576578110456,0.06181650608778,-0.0078017597921192,-0.0874153947331011,104
1733390645204453000,-1.0227749213941395,-0.5682771495893597,-0.9571832359343768,1.898753453803808,3.6713118464946746,8.893063913729787,-0.8196260333061218,-0.169212207198143,2.207525491714477,0.974431545985515,0.1849662600165093,-0.1112088339117133,-0.0624757813457479,0.1655008047819137,0.0539706908166408,-0.0236864890903234,-0.0134319067001342,0.0132962167263031,-0.0079753398895263,-0.162960335612297,0.0242935717105865,0.0081657707989215,0.093083843588829,-0.0104151571609079,-0.0250135913558304,105
1733390645244453400,-1.412234403838217,-0.5565127697765827,-1.4352175122797488,2.320385021056235,3.203901255494356,8.973361439281701,-0.5403670072555542,-0.0340976677834987,3.268833637237549,0.9784756993196564,0.165697700309571,-0.1225975922076764,-0.0099702660977881,0.1689317524433136,0.0672667399048805,-0.0379160940647125,-0.0178406238555908,0.0051063001155853,-0.0056610107421875,-0.1848038583993911,0.0273425951600074,-0.0085521397680044,0.1315800547599792,-0.0306808233372867,0.0208991417743265,106
1733390645284453400,-0.3794210496410727,-1.1257730851843952,-0.8759995751976967,2.59645178694576,2.7147747995093465,9.05863266159296,-0.2774728238582611,0.569852352142334,3.476025581359864,0.9791098722068964,0.1486895398694754,-0.1266084587902221,0.0566186818151701,0.1786538958549499,0.075105220079422,-0.0346545204520225,-0.0178673267364501,0.007965549826622,-0.0072914808988571,-0.1784423142671585,0.0216116663068532,0.035257775864005,0.1719288676977157,0.0167171799145638,0.1962611155077815,107
1733390645324453400,-0.21262918972373,-0.5423107875533402,-1.3950351394951344,2.7711329388082024,2.307884728184342,9.119477883177996,0.1348959654569625,0.5061904191970825,3.5000791549682617,0.9741577711297078,0.1372998965209413,-0.1272193851578891,0.1264145788428132,0.1763404011726379,0.0653708353638649,-0.0551129207015037,-0.0044922828674316,0.0112437009811401,0.0016572475433349,-0.0848269835114479,-0.0053184255957603,0.0506815549671649,0.2239794284105301,0.0097685298204421,0.2972429710395634,108
1733390645364453400,-0.1545209918871521,-1.1253015221498903,0.0566775805115699,2.7808105754747987,2.107672390832752,9.164889388787746,0.6830567121505737,0.9981582760810852,2.88027286529541,0.9646640345573084,0.1352521287365508,-0.1201147711798887,0.1915791162872495,0.1426639407873153,0.0642635449767112,-0.0620259568095207,-0.0026172995567321,-0.0063948780298233,0.0052534490823745,0.0194526985287666,0.0008204416371881,0.0017915595918893,0.2361184954643249,-0.0527064849235117,0.2454382572613656,109
1733390645404453400,0.0550868041887879,-1.3620700046129524,-1.096181372258067,2.6620330971419808,2.119984467656165,9.19726196460426,0.767703652381897,0.6315186023712158,1.9384937286376955,0.954011253972192,0.1403898212877915,-0.1065872150763376,0.2424713307631998,0.122242547571659,0.0650852844119072,-0.0518196560442447,-0.0076597929000854,-0.0107196420431137,0.0056947916746139,0.1276380121707916,0.0028444465715438,0.0008697685718536,0.233443796634674,0.015072043056041,0.2534828858986497,110
1733390645444453000,0.5763987889856099,-0.8697948753386735,-1.353585523253679,2.605495217362046,2.2521472050018607,9.182026401549578,0.8310546875,0.5422510504722595,1.1534154415130615,0.94535498670956,0.1495646708930256,-0.0973516270659758,0.2728681636783169,0.124402105808258,0.0627871379256248,-0.0474946834146976,-0.0002001523971557,-0.0080668479204177,0.0047461986541748,0.2308317422866821,-0.0105954855680465,0.004393851044774,0.2265053987503051,0.0313978855654597,0.1805909604281187,111
1733390645484453400,-0.7085546581991017,-1.3439429579004645,-1.2762713974267244,2.3910800210043788,2.4955542486965654,9.177436151149868,1.1961015462875366,1.1696354150772097,1.360595941543579,0.9366308941080445,0.1610448575383211,-0.0783934971449864,0.3010675447955677,0.1090324744582176,0.0648356974124908,-0.0406378433108329,-0.0047312974929809,-0.0172921419143676,0.0042629987001419,0.2923227250576019,-0.0138462092727422,0.0077548519104719,0.2125538736581802,0.0558621724754571,0.1153261688351631,112
1733390645524453400,1.1350307428732511,-0.9104895815595984,-1.4513111534684895,2.380555119858682,2.806248383592069,9.090011550197003,0.9411603808403016,-0.2878681421279907,0.4796189367771148,0.9267180049942092,0.1783765795251453,-0.0687036185364008,0.3235046575565493,0.0976466611027717,0.063096597790718,-0.0203448887914419,0.0024344325065612,-0.0101309120655059,0.0042184591293334,0.3215968906879425,-0.022616034373641,-0.0336965178966522,0.1943541467189788,0.0933165816009044,0.092710286270827,113
1733390645564453400,1.221515432627499,-0.845851105171442,-1.1485726537525651,2.178849475209415,3.0757503841385243,9.053328709965944,0.2290832847356796,1.5471137762069702,-0.4478659629821777,0.9253738592276868,0.1883973158525124,-0.0539921503288583,0.3244604809034424,0.1024331599473953,0.0536707118153572,-0.0282325726002454,0.0005709528923034,-0.0081743597984313,0.0064729005098342,0.3242347836494446,-0.0233588963747024,-0.0747346307277679,0.1412959992885589,0.1230604163490235,-0.0065988868083804,114
1733390645604453400,-0.1578989438876509,-1.202990472638607,-0.0492079752832651,1.386872583566606,3.004178016833961,9.231569892397522,-0.4010680317878723,2.222081661224365,0.0038212528452277,0.9295385575845448,0.1704669560853096,-0.0161846532409162,0.3265533836702568,0.0742483958601951,0.046846468001604,-0.0066758152097463,0.0006563067436218,-0.0159551501274108,0.003987967967987,0.2677031457424164,-0.0230481270700693,-0.1134101060807704,-0.005668357014656,0.1310617903664708,-0.268674975137785,115
1733390645644453400,-0.3079666096277534,0.1330611474901437,0.8542810798645019,1.711567332894355,2.455968672761321,9.338583575439452,-1.5122523307800293,-1.164331316947937,0.2551549673080444,0.931237959543456,0.148966010703576,-0.0409131076808867,0.3300471628300421,0.0663734227418899,0.0200348291546106,0.0016630082391202,0.0121374726295471,-0.0004522800445556,-0.0024386793375015,0.1734199523925781,-0.020619586110115,-0.1161035829484462,-0.2561873197555542,0.1828470687918365,-0.3233191501256078,116
1733390645684453400,0.8157571418114006,0.4738457386143505,3.147549838197231,1.990396695365012,1.9972695037439463,9.392529685160516,-1.0730944871902466,-0.455954760313034,-0.1695163995027542,0.9342422168383512,0.1309532845716703,-0.0629720858452475,0.3256948431587625,0.1212316155433654,0.0105791678652167,-0.0084138605743646,0.006922960281372,0.0004358142614364,-0.0090675354003906,0.1001466363668441,-0.0239671859890222,-0.1012941363513469,-0.4684151411056518,0.1290605335466563,-0.1839383711598813,117
1733390645724453000,-0.5964939209006727,0.5480392482027411,2.062241157609224,2.0515699798606333,1.623800786636025,9.451175350874662,-0.96488618850708,-0.1238825172185897,-0.0010608292650431,0.9367875443358176,0.1133947884008834,-0.0725657241644961,0.3229627145460287,0.1206132248044014,-0.0020330296829342,-0.0055870483629405,0.009438931941986,-0.0153822004795074,-0.0018407255411148,0.0318819135427475,-0.0015447065234184,-0.1421463712215423,-0.6174187660217285,0.0976682009391486,-0.1264915598414838,118
1733390645764453400,0.1180224221818149,1.2929175579316914,2.1729922736138105,2.146892202195525,1.3217002925626933,9.47704336710274,-0.679696798324585,-0.3334153890609741,-0.3235575556755066,0.939108564304495,0.0997954046233557,-0.0827414614720123,0.3182293308193065,0.1028419509530067,-0.0185762662440538,-0.0106563754379749,0.0052495002746582,-0.0141169130802154,0.0122030973434448,-0.0103901997208595,0.0238471068441867,-0.1006400563567876,-0.6488735675811768,0.044886897213757,-0.1107616373986005,119
1733390645804453400,-0.6235504162609576,0.7035835187230258,2.843591441297531,2.2020774983227254,1.1628463129725306,9.48520037007332,-0.2801060080528259,-0.0279559791088104,-0.2565979659557342,0.9417753758237868,0.0922568217354074,-0.0887583508146584,0.3109176708659906,0.1043999046087265,-0.0071784164756536,-0.0019557615742087,-0.0181062817573547,-0.0087469965219497,0.0145424753427505,-0.0341862216591835,0.0178024657070636,-0.012081482937932,-0.5610737800598145,0.0177332250893115,-0.0756181355640292,120
1733390645844453400,-0.2607527307711541,0.7494980784840881,1.878635233274102,2.1644423258028924,1.1106470469187943,9.500107431825995,-0.1796540468931198,0.2062643319368362,-0.30203378200531,0.9438192618900652,0.0885885073049572,-0.088212295135277,0.3059018030074086,0.1336302310228347,0.0231655873358249,0.0169731229543685,-0.003540813922882,0.0015190541744232,0.0222909450531005,-0.0585306957364082,0.0239026099443435,0.0145019880831241,-0.3791782259941101,-0.0365675432883203,-0.0973912836939096,121
1733390645884453400,-0.4420309428110718,0.3441692651264369,1.424364694353938,2.010083392609656,1.0706542784221469,9.53853506989777,-0.1067854017019271,0.4736122786998749,-0.2149416655302047,0.9464079115791072,0.0836615239485477,-0.0816750551659405,0.3010680760430978,0.1225634589791297,0.0369764193892478,-0.0018339219968765,-0.0020616650581359,-0.0029160231351852,0.0164593905210495,-0.1018559634685516,0.0249000918120145,0.0210597391635179,-0.2000828832387924,-0.0931705972589552,-0.1815288258001208,122
1733390645924453400,-0.2068446149729192,0.1583410616319626,0.5147270534485578,1.827419863691181,1.0775159078199417,9.574438742449878,0.0260830949991941,0.4309901893138885,-0.1725995987653732,0.9481868836802744,0.0808608454455231,-0.0728079244880984,0.2985000660840202,0.1306903660297393,0.0392144881188869,0.0022494364529848,-0.003925621509552,-0.0218184739351272,0.0112667232751846,-0.171012207865715,0.0264126732945442,-0.0432481900960207,-0.074555680155754,-0.1032617831625044,-0.1676834019295871,123
1733390645964453000,0.1628973366968333,0.1767724250532686,-0.0387725059866905,1.6432283945530652,1.0957457573197782,9.605703064763546,-0.011672468855977,0.4991815984249115,-0.2595406472682953,0.9500938708740598,0.078607491816438,-0.0637676926600032,0.2950868923190435,0.0521004758775234,0.0291969012469053,-0.005285445600748,-0.0055012106895446,-0.0223943591117858,0.0157977193593978,-0.1897150427103042,0.0323182754218578,-0.0257435130655765,0.0165644511580467,-0.1104920266769826,-0.066033291747421,124
1733390646004453400,-0.0979144307851791,-0.3052875996768474,-0.2102981164276599,1.4260978017568589,1.1051005917727947,9.639262804538012,-0.0008113652002066,0.5211899876594543,-0.1349750906229019,0.9519411264693278,0.0755138170991863,-0.0532170028578763,0.2920167677396283,0.0138020906597375,0.016870567575097,-0.018638402223587,-0.0071104168891906,-0.0173368006944656,0.025610476732254,-0.1570088416337967,0.0177322551608085,-0.0264192203700542,0.0802918896079063,-0.0909627119511365,0.0689225834481418,125
1733390646044453400,-0.1783468347631394,-0.32637598041296,-0.6640045917242765,1.278632135208696,1.113020936443284,9.659020228931308,0.0140325641259551,0.2194487303495407,-0.0789956301450729,0.9528627571162308,0.0735806419270904,-0.0459665208297418,0.2907328581291311,-0.0250638164579868,0.0244045425206422,-0.0144538432359695,-0.0037539005279541,-0.0113241821527481,0.0278624892234802,-0.1100326031446456,0.0074752941727638,-0.0106090722978115,0.1259748190641403,-0.079879154009372,-0.0128634270958602,126
1733390646084453400,-0.0202804253540933,-0.376651365732029,-0.4183446545362472,1.2193265442810952,1.1309745262850075,9.664601828455924,0.0608749017119407,0.096221923828125,-0.0496905520558357,0.953344733960335,0.07351219059177,-0.0428767087598255,0.289639937088742,-0.0916465669870376,0.0203020498156547,-0.0250433702021837,-0.0084292292594909,-0.0135635286569595,0.0161020159721374,-0.0779421925544738,0.0002041948027908,0.0045107554227113,0.1530037075281143,-0.0516413399100303,0.0494565432168543,127
1733390646124453400,-0.2608056300021708,-0.3806992528833449,-0.4390753078758716,1.201128332028538,1.1546249395288526,9.664083942061662,0.0570712424814701,-0.0255656540393829,0.0575605817139148,0.9533053232419924,0.074404282528342,-0.0416275702121711,0.2897241346247338,-0.1342981606721878,0.0178186520934104,-0.021211614832282,-0.00456303358078,-0.0021068751811981,0.0072256922721862,-0.0478048026561737,-0.0240090750157833,-0.0261158535093069,0.1782779842615127,-0.0143083652071654,0.0493729565866291,128
1733390646164453400,-0.2028109755426645,-0.3080283497523516,-0.0977618705719709,1.2332152227714657,1.1706890623621642,9.658107790261507,0.0617914237082004,-0.0700680240988731,0.1149342134594917,0.95254852451907,0.0757699365610472,-0.0428071028784844,0.2916808388684924,-0.129869058728218,0.0108809042721986,-0.0250044204294681,-0.0042725801467895,0.0015576183795928,0.0035088807344436,-0.0281309057027101,-0.0438429042696952,-0.0552764815419912,0.1653407216072082,0.0239735807836055,0.0721966366827488,129
1733390646204453000,-0.1364436295352876,-0.1009438616089522,-0.0404091672778129,1.2593240620180963,1.1924003973022104,9.652080785056947,0.0567902773618698,-0.0709991231560707,0.0992253795266151,0.9517900922839452,0.0773268340369215,-0.0436048792632398,0.2936233765744521,-0.1103451550006866,0.0111123332753777,-0.0240129940211772,-0.0100151300430297,0.0026294440031051,-0.0077145621180534,0.0105322655290365,-0.0580112673342227,-0.0600303980708122,0.1426123678684234,0.0651947950966656,0.1313069972991943,130
1733390646244453400,-0.1582768372893333,0.0108655312769114,-0.0504068296790123,1.292978786599636,1.1965603665258735,9.64711527160406,-0.0055880798026919,-0.0597478225827217,0.1247161552309989,0.9510951678106252,0.0781359582775965,-0.0450419720153229,0.295438519684023,-0.1064175218343734,0.0048837857320904,-0.0110440645366907,-0.0040163397789001,0.0056346505880355,-0.0088004320859909,0.0430550575256347,-0.0654221102595329,-0.0645949295073747,0.0792480781674385,0.059362143420428,0.1104877888932824,131
1733390646284453400,0.1032803417325019,0.0716760468747466,0.1048006831675767,1.3115430556856096,1.1935099659793078,9.644987027403712,0.0322442837059497,-0.002036067424342,0.0844277665019035,0.950303608998549,0.0783874889377302,-0.0458030918778814,0.2977929996849213,-0.0978448092937469,-0.0051586749032139,-0.016558339819312,-0.0031108260154724,0.0074203312397003,-0.0074637979269027,0.0690286457538604,-0.073007620871067,-0.0250192904442548,0.0357866361737251,0.0843552765101194,0.119319330124557,132
1733390646324453400,0.1570239146187901,0.0017005933728069,0.1113742163389921,1.297603231529891,1.2073712450060994,9.645147186401486,0.0451465360820293,0.0609063431620597,0.0606702230870723,0.949976360581484,0.078900746248024,-0.0448221122215182,0.2988489380616366,-0.0623749680817127,-0.0032128633465617,-0.0149143701419234,-0.0041683316230773,0.0077095031738281,-0.0078516155481338,0.0863950103521347,-0.085742749273777,0.0064274026989936,0.0254804193973541,0.116261549989134,0.1001198318749666,133
1733390646364453400,0.1335387018740177,0.0005072188697755,-0.0894920548766851,1.288168317577988,1.222929829470068,9.644451605352758,0.0604787245392799,0.0021627161186188,0.0756660923361778,0.949428510868532,0.0795950836352831,-0.0439821893251992,0.3005255793249361,-0.0446303263306617,0.0092942994087934,-0.0049807797186076,-0.0074025392532348,0.0049063563346862,-0.0019838809967041,0.0966943800449371,-0.102414496243,-0.0207189629018306,0.0620288103818893,0.1077246077902615,0.0580757568717002,134
1733390646404453400,0.2831616925865411,0.0178618199050426,-0.2251934877425432,1.2868358999304472,1.2350536902450024,9.643084408652784,0.0225623697042465,0.0415341332554817,0.0243628211319446,0.949092171727777,0.0802130768723499,-0.0436506353375357,0.3014707235767753,-0.0103711560368537,0.0210268571972847,-0.008749951608479,-0.0039572119712829,-0.0016890466213226,-0.0004413127899169,0.0783056989312172,-0.0719500482082367,-0.0792091457933187,0.0977582857012748,0.0569359391868114,-0.0620759324237704,135
1733390646444453000,0.3334191769227385,-0.0075993690878152,-0.1406599320560693,1.2669548491574822,1.2403139488607644,9.645041972461344,0.0007248758338391,0.0632250532507896,-0.0299846231937408,0.9491059161394054,0.0801623787590398,-0.0425877788710864,0.3015929822351724,-0.0268225688487291,0.0272302646189928,-0.0086879665032029,-0.0074931979179382,-0.0048079490661621,0.0037846565246582,0.0530959293246269,-0.0516499429941177,-0.0811754774302244,0.1146006360650062,0.0850772341091185,-0.1058503383509814,136
1733390646484453400,0.0361178998246789,-0.1230820436589419,-0.1137859536558389,1.2302651407942176,1.2336923387639225,9.65063935407698,-0.0208200626075267,0.1092175096273422,0.0057363444939255,0.9492693026511524,0.0792553845341128,-0.040901420612935,0.301551826309731,-0.0420649051666259,0.025503097102046,-0.0069255530834198,-0.0057041049003601,-0.0086000263690948,0.005519151687622,0.0280784927308559,-0.017996396869421,-0.0659936903893947,0.2149044573307037,0.0824324186887592,-0.1131903258502483,137
1733390646524453400,0.0291410465493798,-0.1251584115415811,-0.1238093350201845,1.2091101245626807,1.240557109966874,9.65243266723454,0.067396841943264,-0.0099928500130772,0.006122606806457,0.9492629558577708,0.0792653859496395,-0.0397479287475556,0.3017234202139512,-0.0265874117612838,0.0452010594308376,-0.0041037341579794,-0.0112771987915039,-0.0056753158569335,0.0084321349859237,0.0179731138050556,-0.015277387574315,0.0102729722112417,0.3729942440986633,0.1045280767712742,-0.0892420256383717,138
1733390646564453400,0.1060751600828021,-0.1020461237624287,-0.1288338851839303,1.2128307525210082,1.26966834589988,9.64817968596518,0.055490456521511,0.0104668932035565,-0.0132863614708185,0.9491379611021056,0.0807547963420064,-0.0394766757975768,0.3017572624769112,0.0055633354932069,0.0516482554376125,-0.0005508109461516,-0.0006567239761352,-0.0040761530399322,-0.0030127763748168,-0.0054503045976161,-0.0094665819779038,0.0111895025342702,0.5711677670478821,0.0911058467488735,0.0119759767368435,139
1733390646604453400,-0.0057584173962473,-0.1075923597127199,-0.0910802008509635,1.1977715689465402,1.2774591459065674,9.649032503402232,-0.0051246252842247,0.0659349858760833,0.0009037411655299,0.9492033221270776,0.0808938303380205,-0.038632257406031,0.3016235999901182,0.0170471519231796,0.0530561618506908,0.0053485566750168,0.0012109875679016,-0.0030727088451385,-0.0033510327339172,0.0189852099865674,-0.0262628085911273,0.0788812290132045,0.8939869403839111,0.1728471413683146,0.0693957539178431,140
1733390646644453400,0.0844364519875496,0.0109472182109951,0.1636976932942867,1.1515701550681143,1.2867100815936925,9.653426938968895,0.0510908141732215,0.1812664121389389,-0.0207885410636663,0.9492946110731842,0.0806217056226539,-0.0362264310162496,0.3017076294619904,-0.0175222773104906,0.0762629508972168,0.0060937087982892,0.0159552693367004,-0.0047634243965148,0.0031216591596603,0.0642526373267173,-0.0725017189979553,0.0079851535350084,1.1042101383209229,0.1489149885736405,-0.1647366078879684,141
1733390646684453400,0.35887605506666,0.4305035866245627,0.0488777204155921,1.0553488650016487,1.306938630630076,9.661704353448748,0.0065475441515445,0.323012501001358,-0.187958687543869,0.9499129131161534,0.0800563988528023,-0.0313230651306549,0.3004586163695263,0.0048168511129915,0.0791935920715332,-0.0280825700610876,0.0196306109428405,0.0087502300739288,-0.0166144520044326,0.0552334301173687,-0.0484804548323154,-0.0311637845486402,1.3284801244735718,0.0158711575444787,-0.1892500311693176,142
1733390646724453000,0.1782643441114574,0.2772697119385003,0.0617845482617616,0.8741369231309741,1.3058961358398198,9.6799227317065,-0.0492069721221923,0.512891411781311,-0.2790713906288147,0.9516673985653642,0.0770733238550994,-0.0228253218805974,0.2964250558746436,0.0800737887620925,0.0627531558275222,-0.0363092087209224,-0.0097393989562988,-0.0047111511230468,-0.0156407877802848,-0.0128377117216587,-0.0706323683261871,-0.0809334853678941,1.3459926843643188,-0.0191474758014082,-0.3484044915433973,143
1733390646764453400,-0.070884604236111,-0.0754576843053102,-0.3009966244846582,0.667789005633816,1.2827337253086268,9.699434656906128,-0.1354802995920181,0.4419821798801422,-0.2883394062519073,0.9536993004995786,0.0726965210765905,-0.0134784288739799,0.2915324397121612,0.068307414650917,0.0462589226663112,0.0049238493666052,-0.0226180553436279,-0.0128114223480224,-0.0094837099313735,-0.1238902509212493,-0.0767913088202476,0.014839841735363,1.1853407621383667,-0.0580220539230853,-0.4189428396251052,144
1733390646804453400,-0.325034064284712,-0.5585983438789844,-0.014548749834299,0.5066941152490675,1.2288251711189746,9.716153151994943,-0.1167090758681297,0.3474008440971374,-0.0835796743631362,0.9551003923016586,0.0676018347786444,-0.0066364422794017,0.288390727255993,0.0192213561385869,0.0315607227385044,0.0383431240916252,-0.0356041193008422,-0.0068631470203399,0.0056257247924804,-0.1909225285053253,-0.1071912348270416,-0.0285398657858371,0.981120467185974,-0.0572468317668884,-0.2646021727409213,145
1733390646844453400,-0.0377962813656777,-0.517279952801764,0.0519108045011758,0.4066529746335,1.2104013334169983,9.723165661105512,0.0106341298669576,0.1754795759916305,0.0720577090978622,0.9551642080648418,0.0652117269396685,-0.0019896734483603,0.288798783942865,-0.0075668478384613,0.0026100319810211,0.0355247035622596,-0.0184696912765502,0.0275097489356994,0.0144327953457832,-0.2226939648389816,-0.1613264828920364,-0.0838759685605764,0.7199157476425171,-0.041120018960908,-0.1578084891252219,146
1733390646884453400,0.1392404937122017,-0.3655376318477094,0.0789314978957176,0.3478299065258354,1.2316400824092328,9.722780461180207,0.0965141206979751,0.2675894796848297,0.2457615137100219,0.9542496678017998,0.0653772009319866,0.001405190350721,0.2917728475369947,0.0328314416110515,0.0020689840894192,-0.0129554159939289,-0.0182223320007324,0.0254969745874404,0.0228641033172607,-0.2021015733480453,-0.1788379251956939,-0.084697221815586,0.5015356540679932,-0.0442437770046293,0.0114487379923462,147
1733390646924453400,0.3640776422977447,-0.2269077443145215,0.2047977654457092,0.161449603840243,1.2547682984098791,9.724704122719167,0.0218127835541963,0.6772070527076721,0.4013405442237854,0.9519896439116392,0.0636329053036844,0.0113542475939842,0.2992282783398651,-0.0049518896266818,-0.0051104724407196,-0.0195285640656948,0.0043907761573791,0.0003137588500976,0.0121932104229927,-0.1897419393062591,-0.1580992490053177,-0.129979548087716,0.3663809895515442,0.0199592305757105,0.0693814331315457,148
1733390646964453000,0.3351758843969553,0.4137688710533082,-0.4216290830343961,-0.0121082876048225,1.2566356997169554,9.725796009609102,0.0278864614665508,0.2439494431018829,0.1515696346759796,0.950162086437803,0.0609403316784335,0.0202161364074776,0.3050730930464093,-0.0122228525578975,-0.0101513564586639,-0.0274228379130363,-0.0059779286384582,-0.017767310142517,-0.0069240257143974,-0.1438405513763427,-0.1188503950834274,-0.2539659932404756,0.326784998178482,0.0293763896752148,0.2743682914085686,149
1733390647004453400,-0.0472971047272207,0.2373638180077076,-0.3687099782735109,-0.0501169844535412,1.2771183696448802,9.72300550210774,0.0693020746111869,0.0180790890008211,0.0322878919541835,0.9495841391947843,0.0613100165821717,0.0224888906664991,0.3066356843753272,-0.0098289363086223,-0.0314071103930473,-0.0052731949836015,-0.0066715478897094,-0.0115980505943298,-0.0201116204261779,-0.0976182371377945,-0.0814294219017028,-0.1066243914633989,0.2290848195552826,0.0799387021768838,0.0714477180115878,150
1733390647044453400,0.052227528600418,-0.1279997724473476,-0.1023445221871137,-0.0532750009598908,1.3096879293382166,9.718655490204693,0.087806612253189,0.0117369433864951,0.0254494845867156,0.9492724517390176,0.0628355042868872,0.0231985528992146,0.3072383733816723,-0.0014295929577201,-0.0244933310896158,-0.0081088617444038,-0.0089706778526306,0.0001609325408935,-0.0018364787101745,-0.0610342174768447,-0.038917563855648,-0.1790378857672214,0.0722184777259826,0.0422321449212729,0.0780874482870101,151
1733390647084453400,-0.1147062559716869,-0.1786591155827045,-0.2855471264183521,-0.0483987321264576,1.329372288495302,9.7160081905663,0.0185220539569854,-0.0318702384829521,0.062054019421339,0.9490212621133084,0.0638594269391915,0.0233115948877616,0.3077940322539702,0.0591511949896812,-0.0232002064585685,-0.0125049417838454,-0.0067068934440612,0.0111200809478759,0.0007252097129821,-0.0078233741223812,0.0069726109504699,-0.1913169371038675,-0.1029087156057357,0.0020272680439054,0.0765333507128059,152
1733390647124453400,0.1471367633873596,-0.037848376879096,-0.0592056376844644,-0.0296712444359436,1.342538790190965,9.71427274507582,0.0539446212351322,-0.0570512078702449,0.0334599763154983,0.9486544086526966,0.0647737483352031,0.0226780532663892,0.3087797653569105,0.0184796657413244,-0.0274085346609354,-0.0340861342847347,-0.0067411065101623,-0.0034446418285369,0.010517880320549,-0.0055680274963378,0.0106277465820312,-0.0178892924338579,-0.3366203308105469,0.0529611172717064,0.210861303268373,153
1733390647164453400,0.1155899800036568,-0.0122569856353104,-0.1719078877568244,-0.0042596193602337,1.353458974264562,9.71280150347948,-0.0079805674031376,-0.0471843928098678,0.0016831492539495,0.9485693494412116,0.0657054170038468,0.0216271702214959,0.3089195925216179,0.0193236209452152,-0.0345800556242466,-0.0295977741479873,-0.0017086267471313,0.0011126697063446,0.0035477131605148,0.0722733289003372,0.0743277221918106,-0.2766799293518066,-0.3307844400405884,0.0460633936472237,0.4736236202962696,154
1733390647204453000,0.1385979671581182,-0.0676116469800472,0.0970873323112726,0.0034081459239518,1.3498561274670065,9.713303023260831,0.0203108601272106,-0.0154465995728969,0.009772278368473,0.9485729259031608,0.0656502614336634,0.0211990743011361,0.3089497980989426,0.0350008532404899,-0.0458641350269317,-0.0444213934242725,-0.009692907333374,-0.0018171966075897,0.0055707097053527,0.0987006276845932,0.0937258675694465,-0.1987427031904459,-0.2069379389286041,0.0696877226017415,0.4442231921583414,155
1733390647244453400,0.1903095866922289,-0.0715031014606356,-0.0481160883933305,0.0137961265273333,1.3749962678119538,9.709767250350115,0.0819514542818069,-0.0458819009363651,-0.0045959651470184,0.9484537994212014,0.0670401627514038,0.0211012916681744,0.3090238161298472,0.0155571140348911,-0.0295096077024936,-0.0265535824000835,0.0013089776039123,-0.0132583081722259,0.0120319575071334,0.0926885902881622,0.0702876821160316,0.0852671306580305,-0.1071880757808685,0.0888780876968056,-0.0258422972649335,156
1733390647284453400,0.1612144981764257,0.0725995183952152,-0.4719470653861761,0.0413948081811424,1.3887613199226558,9.707729607042667,-0.0145644349977374,-0.0972611382603645,-0.0519292131066322,0.9485883976469562,0.0681615691111126,0.0199384119311103,0.308442048918728,-0.0024546438362449,-0.0056525850668549,-0.0299212168902158,-0.00474214553833,-0.0140662491321563,0.0121508240699768,0.043556734919548,0.0169316940009593,0.1393061793595552,-0.0618488267064094,0.0842035200145095,-0.0986238942287862,157
1733390647324453400,0.0527136316169286,0.0773394063986837,-0.3282067029714584,0.0662482862049713,1.3747439004860815,9.709586633086204,-0.0543262213468551,-0.0786825194954872,-0.0611339919269084,0.9490614127282784,0.067895462247072,0.0184134753791223,0.307137485701965,0.0170583371073007,0.0216311272233724,0.0044765714555978,-0.0028117895126342,-0.0076653361320495,-0.0070005655288696,0.0052125304937362,-0.0032350402325391,0.0760223324507474,-0.0006408877670764,0.0470581037729978,-0.090847122747451,158
1733390647364453400,0.0534231635591946,0.0696948829948902,-0.1857850219398736,0.1101307738828472,1.3514134399116038,9.712463065305352,-0.05803207680583,-0.1234645545482635,-0.0938292369246482,0.9496493481138288,0.0674733559202941,0.0157971001429704,0.305554869628052,0.044804748147726,0.0077596269547939,-0.0054020918905735,0.0062317252159118,-0.0027130544185638,-0.0060846805572509,-0.0366966389119625,-0.0180702377110719,0.0324544088810682,-0.005849533714354,0.0193148682575672,-0.1016305286988615,159
1733390647404453400,-0.1274582403160166,-0.0703100922837853,-0.0887567263394594,0.1382321477867197,1.3242733579210937,9.71584160182774,-0.0759292542934417,-0.077860340476036,-0.0654350742697715,0.950284761099271,0.06661237204627,0.013882937896636,0.3038568007842777,0.0278622489422559,0.0034176621120423,0.0017480961978435,-0.0120414495468139,-0.0077241361141204,-0.0005726218223571,-0.0452667698264122,-0.0338147245347499,0.0513210219144821,0.0013577044010162,0.0727153998598456,-0.005326455719769,160
1733390647444453000,-0.0336535738040693,-0.0904689370848238,0.1818336539655923,0.1725172700931318,1.3050772206723689,9.717890351051093,-0.0230843853205442,-0.0869577080011367,-0.0560049265623092,0.9507182022380248,0.0662231520989378,0.0118309044057315,0.3026704122021469,0.0457293950021266,0.0143139325082302,0.0150165641680359,-0.0031283497810363,0.0059344470500946,0.0077135041356086,-0.0590251497924327,-0.0503818541765213,-0.0037613983601331,-0.0138831678777933,0.0313281082648783,-0.0302509074874222,161
1733390647484453400,-0.1293538356711156,-0.0792266814500093,0.166289463353157,0.1847197490622289,1.2968280093736946,9.71877064101696,-0.0158542357385158,-0.0029503416735678,-0.0311178416013717,0.9509964633091768,0.0660185577804106,0.011052502893014,0.3018693209791647,0.0537838600575923,0.0201753359287977,-0.0091999592259526,-0.0086171627044677,0.0029249191284179,0.0069118738174438,-0.0608400963246822,-0.0236453618854284,-0.0027221184402704,0.0220388751477003,0.0200350722908973,0.0425375576086342,162
1733390647524453400,-0.1057161175120621,-0.0438376804217696,0.0588327127188444,0.1935534091853536,1.2998955802507697,9.71818904173672,0.0215320251882076,-0.0558988936245441,-0.0230341758579015,0.9511721771952864,0.066312229279068,0.010628096168196,0.301266097673507,-0.0119890263304114,0.0090246815234422,-0.0096410457044839,-0.0093284845352172,-0.0084904134273529,0.0010594129562377,-0.0598042607307434,-0.0195626262575387,-0.0106727851837873,0.0430867671966552,0.0247153390616178,-0.0248956640645861,163
1733390647564453400,-0.0239933266636915,0.0112283732399344,-0.0136748896092176,0.2114892441746778,1.303188338185847,9.7173742182225,0.0046047680079936,-0.0258280429989099,-0.0192961804568767,0.9512510122449404,0.0667539921276838,0.0097834634581077,0.3009479960234094,0.0158378109335899,0.0136385019868612,-0.0062232110649347,-0.0097396969795227,0.0084964334964752,-0.0026143640279769,-0.0593386739492416,-0.0269519761204719,0.0302431625723838,0.0339009054005146,0.0148623458281159,-0.028694033434242,164
1733390647604453400,0.0106914898842573,0.0460448350772261,-0.0858978297770023,0.2064326549048535,1.3077265661373734,9.716873282963038,0.008565317839384,-0.0017864701803773,-0.031654454767704,0.9514849320313356,0.0669062594330967,0.0100451404293324,0.3001652788624223,0.0407098717987537,0.0175405107438564,-0.006001635454595,-0.0056298971176147,0.0044634640216827,-0.0030514001846313,-0.055131759494543,-0.0338376425206661,-0.0389899481296539,0.0642297193408012,0.00437098162584,0.1150830077290534,165
1733390647644453400,0.076321260598395,0.0160480484813451,-0.1135311021119356,0.2174173555820248,1.3140806113392114,9.715776135376096,0.0075340075418353,-0.0582426600158214,-0.0537502169609069,0.9517206219383076,0.0673950908079089,0.0095487606615471,0.2993237646917546,0.0184245388954877,0.0101163107901811,-0.0036244317889213,-0.0057576298713684,-0.002666413784027,-0.0049784108996391,-0.0475437939167022,-0.0489900335669517,-0.0160012867301702,0.1104834228754043,0.0289773073550313,0.0106757077932357,166
1733390647684453400,0.1094068252561613,-0.0511982723176479,0.066696285700798,0.2253324760881252,1.316533849710226,9.71526350967884,0.0118865855038166,-0.0020571767818182,-0.0543003045022487,0.951956210683726,0.0676445437980443,0.0091444802786741,0.2985296796458085,0.0195065811276435,0.0227954089641571,-0.0068459250032901,-0.0138716697692871,-0.0027910470962524,0.0023618936538696,-0.0646411329507827,-0.0680448859930038,-0.0072270286440849,0.0996234491467475,0.0339868060801178,-0.0054337154865264,167
1733390647724453000,0.0092086491816677,-0.0056168169684708,-0.0822644417107105,0.2165944948918186,1.3207817164130509,9.714885908538102,-0.0033459037076681,0.010500811971724,-0.0656474083662033,0.9523068797762864,0.0677303082314659,0.0095538361910515,0.2973769071119343,0.0423093661665916,0.0231261737644672,0.0076547879725694,-0.0013003945350646,0.000832587480545,-0.0032657384872436,-0.0659333020448684,-0.0800057202577591,-0.0330371772050857,0.0759110003709793,0.0801101132210344,0.0388132763884961,168
1733390647764453400,-0.0271146735546179,0.0116454296082258,0.0477799883067607,0.196205147536844,1.3041180202513931,9.717570033055544,-0.0623535960912704,0.0965118706226348,-0.0425579696893692,0.952826333444594,0.066617909427886,0.0101919959467371,0.2959396543384438,0.062498789280653,0.0238634422421455,0.009684981778264,-0.0055044889450073,0.0047071576118469,0.0006880611181259,-0.0612866170704364,-0.0780802220106124,-0.0819604903280735,0.0490273535251617,0.0808594702836126,-0.015170827255398,169
1733390647804453400,-0.0301451181585434,0.0164401165388524,-0.0088823946356773,0.136387798561668,1.276129504738003,9.722308167493344,-0.0921606570482254,0.1907253563404083,-0.0287235919386148,0.953093867536326,0.0643440239971208,0.0126523882547705,0.2954859681814953,0.0483590029180049,0.0284908972680568,-0.0049983565695583,-0.0066460371017456,-0.008878082036972,0.0020667761564254,-0.0717428103089332,-0.0426760204136371,-0.0488788894593715,-0.0005797520279884,0.0647270314544439,-0.025250176590681,170
1733390647844453400,-0.1120351827320642,-0.0909057210668921,0.01393149471879,0.0593627325088949,1.2327902753576636,9.728673610872027,-0.105806827545166,0.1735394299030304,-0.0064423033036291,0.9532689853453136,0.061054556106109,0.015749120255413,0.295470249070808,0.0170556735247373,0.0195500254631042,0.0030217531602829,0.0012141466140747,-0.0061600804328918,0.0055564194917678,-0.0569517612457275,-0.0285952761769294,-0.0413280356884002,-0.0724302977323532,0.0879533740673214,0.0056169630989432,171
1733390647884453400,-0.1521420699945185,-0.0890343742370605,-0.017737901264429,0.0168696624959586,1.21311205368042,9.731313311725854,0.0038070126902312,0.0330362953245639,0.0006995010189712,0.9533081028192376,0.0594460936572687,0.0175289328410201,0.295571769846856,0.0398968085646629,0.0194667242467403,-0.0035010608844459,-0.0062800645828247,-0.000266283750534,0.0052526444196701,-0.0491873770952224,-0.0105952713638544,-0.1369160693526268,-0.1290890574455261,0.0804931211892515,0.0469596118345856,172
1733390647924453400,-0.2680778677611611,-0.2230648782160133,-0.1197112520515918,0.0117486456708167,1.217406755199656,9.730784319415688,-0.0009758220985531,0.0444021560251712,0.0283550284802913,0.9533228498067438,0.0595806553336327,0.0178384261326812,0.2954783457824245,0.0123733049258589,0.0020128979813307,0.0006355608347803,-0.0052918195724487,-0.0087135136127471,-0.003130629658699,-0.0232349094003438,0.0203419420868158,-0.0341354938358068,-0.1679222583770752,0.0943662367843091,7.26268447935e-05,173
1733390647964453000,-0.0256015724277938,-0.0739851275347173,-0.1448527075707912,0.0064479340303689,1.2281399653337894,9.7294405035913,0.0709782913327217,-0.0567614324390888,0.0126027772203087,0.9531277713750682,0.0600162399613967,0.0182929837566869,0.2959916180766501,-0.0189121812582016,-0.0097243450582027,-0.0097583578899502,0.0012012720108032,-0.0018058717250823,0.0084226131439208,-0.0352011062204837,0.0357628539204597,-0.0166121121048927,-0.2027864158153534,0.1043670409906655,0.0430858391411602,174
1733390648004453400,-0.1066667327677831,-0.0527997161649167,-0.2320972757816314,0.0436693198512308,1.256634238412231,9.725705408716202,0.058080568909645,-0.0947524756193161,0.0222637616097927,0.9530110688880116,0.0619748375227702,0.0169156937118964,0.2960452957529321,0.0057156682014465,-0.0018351568141952,-0.004372114315629,-0.0090022087097167,-0.0041642785072326,-0.0044171810150146,-0.0233935005962848,0.0535565912723541,-0.0761626177042722,-0.1176975071430206,0.0985322704225778,0.2353966095879673,175
1733390648044453400,0.0147621916555799,0.0064737260587513,-0.2112298443198204,0.0784619989541359,1.275022566409409,9.723093180391192,0.033846341073513,-0.0830186456441879,0.0289787407964468,0.9527860577374662,0.0633951544630781,0.01553237465139,0.2965444121386602,-0.0328112170100212,-0.014754150994122,0.0036912050563842,-0.0033878087997436,-0.0082451701164245,-0.0012335106730461,0.0009880531579256,0.0602387189865112,-0.0076975687652826,-0.0257148742675781,0.0889960149880498,0.0918904943205416,176
1733390648084453400,0.0532143522472586,0.0160480484813451,-0.0290945770591497,0.1009123522258363,1.2759230223804712,9.722768186220526,-0.0079930843785405,-0.0250045210123062,0.0260087288916111,0.952656217582674,0.0637745601978513,0.014477100999837,0.2969334191409621,-0.0226102471351623,-0.0077170673757791,0.0077719669789075,-0.0043678879737854,0.0043765902519226,0.0007503181695938,0.0093172900378704,0.0537846162915229,-0.028545711004734,-0.0013292990624904,0.0605405395500361,0.0562865353673696,177
1733390648124453400,-0.0471658475969452,0.0183827750392258,-0.0935322701781988,0.1263241491190157,1.280920538406819,9.721814246496558,0.0367063730955123,-0.1043130382895469,0.0331083051860332,0.9524936363892792,0.0644000463540238,0.0133439991731862,0.2973726637074199,-0.0300314128398895,-0.0101312231272459,0.0093965614214539,-0.0063175559043884,0.0012029707431793,-0.004207544028759,0.0268662683665752,0.0566689372062683,-0.049139001700282,0.021245677024126,0.0482421989910304,0.0557641189284622,178
1733390648164453400,-0.0317125044725835,0.0102272333733737,-0.0965723685264587,0.1650396094225347,1.2886271672613918,9.720215579128263,-0.0178697127848863,-0.0530511178076267,0.0558099523186683,0.952227905893498,0.0653593241624228,0.0116232653536827,0.2980856393922046,-0.016536908224225,-0.0082850139588117,0.0108836703002452,-0.0085435509681701,0.010814219713211,-0.0033495351672172,0.030823478475213,0.0425423197448253,-0.0053530514657497,-0.0166571736335754,0.056265200318396,-0.0524091094121336,179
1733390648204453000,0.1247197278633713,0.1076683475583791,-0.0914566329479217,0.162285196147859,1.2618150020509955,9.723778824567797,-0.1317425072193145,0.0881906077265739,-0.001522839302197,0.9520960486475196,0.0639956050037014,0.0113941576150224,0.2988107472225628,0.0050522745586931,-0.0014307823730632,0.0030742839444428,-0.0062806010246276,0.0084001421928405,-0.0023705959320068,0.0187589973211288,0.0404838323593139,-0.0429886623769998,-0.0693716630339622,0.0567520339872688,-0.0584738162785768,180
1733390648244453400,0.2548157602039165,0.2248538074593991,-0.5170101959496736,0.0486493002208881,1.1346038226980717,9.740672091701626,-0.5835502743721008,0.5374919772148132,-0.0696334317326545,0.952665372747364,0.0560392143188467,0.0149514823788896,0.2984371521821627,0.0104739377275109,-0.0035166766028851,0.0105787385255098,-0.0080712437629699,-0.0041075944900512,-0.0076693445444107,0.08517637103796,0.0431127324700355,0.0683855539619922,-0.1522571891546249,0.1658039448585361,0.20548633223176,181
1733390648284453400,0.1467851917370222,0.2336513002905994,-0.1484042625725269,-0.19287357369503,0.8600498725242912,9.7669597946465,-0.6589788198471069,0.5330885648727417,-0.0847634226083755,0.9535627899609996,0.0389642323009783,0.0224819913521706,0.2978160791912046,-0.0251642186194658,0.0100139388814568,0.021087372675538,0.0053467154502868,-0.0058927536010742,0.0102873891592025,0.2658633291721344,0.0160772278904914,0.1081453174203634,-0.4092977643013,0.0224056008145213,0.1273833941146731,182
1733390648324453400,0.1106258091244846,-0.0554360560178756,0.6176765557914972,-0.2979721072980202,0.733294401049614,9.774655025324224,0.0015503852628171,0.0220479313284158,-0.1039291247725486,0.9542077548764047,0.0312233848537033,0.0256203471264185,0.296405552644366,0.0378131493926048,0.0217621531337499,0.029115404933691,-0.0017725825309753,0.0119681060314178,-0.0171247124671936,0.3564954102039337,0.0302726291120052,-0.2761719798296689,-0.6091954708099365,-0.1703355969388038,0.3279251095511019,183
1733390648364453400,0.1655170724748633,0.0113143710229545,-0.054088733062148,-0.2974974207246676,0.7584214627172797,9.772751822051406,0.02054881490767,0.0373346917331218,-0.1212267056107521,0.9548778235821624,0.0325195498435425,0.0258999930207647,0.2940748466672257,0.0584803447127342,-0.0125387208536267,0.0141337262466549,-0.0144109725952148,0.0076188147068023,-0.0195661187171936,0.3463923335075378,0.0984633564949035,-0.1891840167284011,-0.572773277759552,-0.0556838202338665,0.2338444847751408,184
1733390648404453400,-0.1271248527763411,-0.129211194063723,-0.0766126995593309,-0.3274741509132087,0.7488605112329125,9.772530288255217,0.0059290146455168,0.0310283303260803,-0.0426683016121387,0.9553617527247494,0.031648566079225,0.0271657331530485,0.2924798423814006,0.016523040831089,-0.0219392534345388,0.0008315693121403,-0.0169922113418579,0.0023034512996673,0.0168652534484863,0.2290125787258148,0.0789473578333854,-0.0166699797719717,-0.5293341279029846,0.0355789706423878,-0.0802322052307426,185
1733390648444359200,-0.1718449420558288,-0.0405384196806699,-0.1098649808198213,-0.306396839560382,0.7782518062163144,9.770917592361569,0.0930839627981185,-0.0970929637551307,-0.001611788989976,0.9554825472799168,0.0334135128343345,0.0265591084329007,0.2919439558144975,-0.014424487017095,-0.0061360020190477,-0.0194922778755426,-0.011204719543457,-0.0040282309055328,0.0242215394973754,0.0702452808618545,0.0417154878377914,-0.0108447807498276,-0.4919483363628387,0.0799759471810422,-0.1801810461866669,186
1733390648484359200,-0.1783199650225229,-0.0268760972920805,-0.1579401526808738,-0.2750819743695669,0.7985572198811918,9.770210905396938,0.0181103888899087,-0.0591379813849926,0.0361400246620178,0.95535512926132,0.0348625579336721,0.0253471963012748,0.2922991594694061,-0.0020759424660354,0.0128851998597383,-0.0088738556951284,-0.0085643529891967,-0.0054522454738616,0.0007693842053413,-0.0130438953638076,0.04378517344594,-0.0625841742068529,-0.4330589473247528,0.0465256773967295,-0.1306284769831225,187
1733390648524359200,-0.0204228294994682,0.0670267597641795,-0.1315197632670402,-0.2652353195453062,0.797429531025514,9.770575062534212,-0.0413772091269493,-0.0166453123092651,-0.0151897286996245,0.9553438597565888,0.034952518975565,0.0248520105489062,0.2923674224702269,-0.0163832437247037,0.0034309779293835,-0.0252993013709783,-5.125999450683594e-05,-0.0011675655841827,-0.0012154504656791,-0.0578521750867366,0.0546824000775814,-0.0772697021633386,-0.4018332958221435,0.0597886252041906,-0.1046026124453637,188
1733390648564359200,-0.2340312395188957,-0.2035304489236324,0.2680482946068048,-0.2603713850370608,0.795796157670021,9.77083926642835,0.070315234363079,-0.0252177007496356,0.0667300820350647,0.9552264390849564,0.0349347906008292,0.0246048953767553,0.2927740546519757,-0.0221628360450267,0.0042636953294277,-0.0295051634311676,-0.0115606784820556,-0.0003242492675781,0.0027525424957275,-0.1026604622602462,0.0655796229839325,-0.0895750569850206,-0.3706076145172119,0.072654901844263,-0.0784975817241706,189
1733390648604359200,-0.0975319342736154,0.0205445561829954,-0.1307055242747068,-0.2286780236563645,0.8448097063597291,9.767516844007371,0.1280145794153213,-0.1016457229852676,0.0763987451791763,0.9546741415555836,0.0377651971958749,0.023854163477771,0.2942820172802257,-0.0157438181340694,0.0168820191174745,-0.0196177121251821,-0.0124545097351074,0.0002804696559906,-0.0020073056221008,-0.0837496519088745,0.0590583533048629,-0.0143961896210908,-0.3132967054843902,0.0618978724431246,-0.003117940224288,190
1733390648644359200,0.0717556697159074,0.0135379653565585,-0.1190963350236415,-0.2095718845123425,0.8643858559019864,9.76623264941573,-0.0144433369860053,0.0230819787830114,0.0493776388466358,0.954326231586786,0.0389835317744909,0.0232592717320634,0.295297543339551,-0.0085713919252157,-0.0081544118002057,-0.0211396422237157,0.0119827985763549,0.0038259923458099,-0.0182899832725524,-0.0554336085915565,0.0615145154297351,0.0281599265575408,-0.2639966309070587,0.0455151851799339,-0.089297938810382,191
1733390648684359200,0.0084097721552476,0.0382958283856511,-0.0411824897378683,-0.2150592846811748,0.8692561653520912,9.765680860751866,0.0463108010590076,-0.0160146635025739,0.0505270659923553,0.9540307847548508,0.0391162334560531,0.0236379485132774,0.2962033210687657,0.0165137201547622,-0.0099530573934316,-0.0178224090486764,-0.0047646760940551,-0.0082177221775054,-0.0090881362557411,-0.0352077670395374,0.0438122004270553,0.084089319050312,-0.1866261661052703,0.0772877492766827,-0.0179017865892499,192
1733390648724359200,0.0360557761075906,0.0807522835820913,-0.260405086377263,-0.1961679755979217,0.8869540268670767,9.764487267053129,0.0303987823426723,-0.0605873428285121,0.0378708019852638,0.9537025441142436,0.0402428239131665,0.0230262399029297,0.2971560962056384,0.0071465848013758,0.0016277516260743,0.0071266833692789,0.001658022403717,-0.0068211555480957,0.0024348348379135,0.0075182393193244,0.0476363971829414,0.0333931510359048,-0.0792406052350997,0.050391485979408,-0.0349567836234346,193
1733390648764359200,0.0336085838848724,-0.0344642143335193,-0.0709755704551935,-0.1865382149273529,0.8872489181604236,9.764649179616567,-0.0183111000806093,0.0211508255451917,0.0497982576489448,0.9534812434047956,0.0403861456610416,0.0225919468193198,0.2978792688164153,-0.0021443858277052,0.0089768506586551,0.0055634737946093,-0.0064166188240051,-0.0076944231986999,0.0050398781895637,0.0315084308385849,0.0217474959790706,0.0208504803270101,-0.0470271408557891,0.0628144027661532,-0.1129507814733311,194
1733390648804359200,0.0273132100677117,-0.0058395198084414,-0.0729378104388713,-0.1901188864257186,0.8879531209070235,9.76451649314761,0.0192595664411783,-0.0133184539154171,0.0268634296953678,0.9532347165212056,0.0403475001734626,0.0228101068776995,0.2986559196905207,-0.0146074471995234,0.0089454790577292,0.0119167119264602,-0.0041931271553039,-0.0030131638050079,0.0005819201469421,0.0295409299433231,0.013709370046854,-0.0499924036592245,-0.0739528611302375,-0.005977320843935,-0.1186921381369233,195
1733390648844359200,-0.018568287673965,-0.0894013078533113,-0.1393318983227014,-0.1835921150054782,0.8914589370708912,9.764321847358346,-0.0086703579872846,-0.0032598010729998,0.0365709252655506,0.9530673529234251,0.0406057759256122,0.0225679219677783,0.2991731284620709,0.0201270971447229,0.0092894528061151,0.0066371941938996,-0.0084077715873718,0.0088094770908355,-0.0033832937479019,0.0097426287829875,0.0127882352098822,-0.0610761077314615,-0.1220883876085281,0.008449775372073,-0.1178895530497655,196
1733390648884359200,0.1299206940399482,-0.0799716545984148,0.0374216758996248,-0.1801989471695385,0.8908579024378209,9.76443992078006,0.0141843892633914,-0.0007415271829813,0.0195479001849889,0.952888478543082,0.0406146554733568,0.022418079646739,0.2997524089584442,0.0458018332719802,0.0087949037551879,0.0016372422687709,-0.0061603784561157,0.0050655305385589,-0.0062357187271118,-0.0307803973555564,-0.0152234369888901,-0.0816910257369279,-0.1799095422029495,-0.0066210255749523,-0.1049922602169215,197
1733390648924359200,0.0342289990718476,-0.0692636519707739,-0.0789572168588638,-0.178928561907541,0.8948143119134009,9.764101482605934,0.0097899036481976,-0.0024299123324453,0.0279998872429132,0.952745583816048,0.0408170381145805,0.0224353387549469,0.3001773961265558,0.0380246043205261,0.0059382375329732,-0.0020821287762373,-0.0097668766975402,-0.0011363327503204,0.0022886991500854,-0.05818547680974,-0.0432569347321987,-0.0478641594588756,-0.2266421020030975,0.0295521846335381,-0.0295544496558606,198
1733390648964359200,0.3627052214333787,0.090747315634787,0.1544406201273203,-0.1855342620491981,0.9092807172264904,9.762641346925497,0.0724071785807609,0.0629718005657196,-0.0446644499897956,0.9527091704061186,0.0414214501824062,0.0229797828365349,0.3001690014782763,0.0360450781881809,0.0044649769552052,-0.0064282077364623,-0.0091984272003173,0.0014039278030395,-0.0018336921930313,-0.0631450861692428,-0.0816241651773452,-0.018774843096733,-0.2596000432968139,0.0251047767706215,-0.0553876502988859,199
1733390649004359200,0.2112640753829851,0.1210151742570102,-0.1203045417696237,-0.2263774550964124,0.933331308769062,9.759509478640556,0.0093149943277239,0.1471868306398391,-0.0928723588585853,0.9530410595690502,0.0420036908297559,0.0252819089176606,0.2988465752678522,0.0387023799121379,0.0021751376334577,-0.0102503765374422,-0.0016922354698181,0.0033890902996063,-0.0027876421809196,-0.0314668864011764,-0.0601297318935394,-0.1030810197681188,-0.2811530232429504,-0.004712707735598,-0.03867321033068,200
1733390649044359200,0.0896627352684736,0.0743937814008444,-0.0383452204853296,-0.3174111681908368,0.902739771150425,9.759851423946024,-0.1056418567895889,0.2640688717365265,-0.0710114762187004,0.9534840735360606,0.0391654557988788,0.0291914699363973,0.2974594819412016,0.0545852072536945,-0.0065880473703145,-0.016366658732295,-0.006648302078247,0.0022396445274353,-0.0099741965532302,-0.0006842911243438,-0.0087700523436069,-0.0918815803617238,-0.2771406769752502,-0.0122396691743284,-0.0686980539772659,201
1733390649084359200,0.1127734521450474,0.0367920727591961,-0.0203805247277021,-0.4042674312038347,0.8807856404304504,9.7586455552876,-0.0125399325042963,0.1678237915039062,-0.0889947190880775,0.9538566381204612,0.0368211146913236,0.0330414340201092,0.2961585572962368,0.0694576352834701,-0.0106454258784651,-0.0172310546040534,-0.0079259276390075,-0.0017052590847015,-0.0084587931632995,0.0094234691932797,0.0332746915519237,-0.1165215160995721,-0.2075844407081604,-0.0185492907125502,0.0343104120112955,202
1733390649124359200,-0.0122618444735184,0.0022580080598592,-0.1937695909529924,-0.4525125162716955,0.8659392958890646,9.757856450736522,-0.0657014027237892,0.0818816199898719,-0.0823182687163353,0.9543536186586208,0.0354291612995031,0.0351076118526542,0.2944850652742612,0.0811731442809104,-0.0094926506280899,-0.024121118709445,-0.0077577233314514,0.0009346902370452,-9.959936141967772e-05,0.0182035006582736,0.0930495262145996,-0.0837105488657951,-0.0686269253492355,-0.0077832012221217,-0.1009262528870254,203
1733390649164359200,-0.0651999827284365,-0.1018484092332422,-0.018263970965147,-0.4848678486924618,0.8497371528245509,9.757726686877012,0.0075816782191395,0.0264397375285625,-0.0398466512560844,0.9546701071761522,0.0341915390531124,0.0364049845950809,0.2934459702683908,0.0433969981968402,-0.003195286495611,-0.0303455926477909,-0.0119901895523071,-0.0044581890106201,0.0109582990407943,0.0065604485571384,0.0843238160014152,0.0653057081252336,-0.0966789871454238,0.0562481761183589,-0.2646941618733108,204
1733390649204359200,-0.0812685260085389,-0.0921961992688477,-0.2052116069436073,-0.4676022045822813,0.8638773949231952,9.757328042948243,0.0431337505578994,-0.1010979562997818,-0.0185496844351291,0.9548706312627708,0.0351665111729373,0.0357497206929737,0.2927580831036147,0.0609280578792095,0.0310167446732521,-0.0116932764649391,-0.006166934967041,0.0047283470630645,0.0073572993278503,-0.0210208389908075,0.0343104153871536,0.0581295328855514,-0.0649404674768447,0.0730902975868433,-0.0706264647565782,205
1733390649244359200,-0.0294525967165827,-0.0477466705590486,-0.1900274818152189,-0.4194601780300959,0.8807791376244276,9.758004919296502,0.0426407232880592,-0.1424252241849899,-0.0120668150484561,0.9549694137559452,0.0367206643684017,0.0336420454574319,0.2924948892387169,0.0944308936595916,0.0250478014349937,-0.0218146219849586,-0.0045651197433471,0.0019416809082031,-0.0061869397759437,-0.0569292828440666,0.0060446821153163,0.0487421113371849,-0.0380127504467964,0.0083525255426764,-0.1566316273655742,206
1733390649284359200,0.0262894199779257,-0.0688756025012582,-0.1317144090563058,-0.3734486241679638,0.8893385108508169,9.759097975230215,0.0002741345670074,-0.0707996934652328,-0.0054470989853143,0.9550844842041072,0.0378348117773474,0.0315118214839345,0.2922142314492248,0.0676096677780151,0.0182349048554897,-0.0115337539464235,-0.0016332268714904,-0.0041675567626953,0.0010068267583847,-0.0620996803045272,-0.0311379581689834,0.0137882868558168,-0.0150515064597129,0.0490282348021864,-0.1333028472915291,207
1733390649324158500,0.184830351563543,0.0374378963820636,0.0213093300104141,-0.3652932651652023,0.8921108981736003,9.759154089331629,0.0277586169540882,0.0098293246701359,-0.0587298944592475,0.9552464537531562,0.0381090280298872,0.0311341230536804,0.291689072585811,0.0787118524312973,0.0155932083725929,-0.0140344621613621,-0.0092528462409973,-0.0047827363014221,0.0061634182929992,-0.0769874826073646,-0.0387553945183754,-0.049233671413525,-0.02688779681921,0.0213205044249771,-0.0970119655201211,208
1733390649364158500,0.1639538234798237,0.0447877476882189,0.0324275208741426,-0.3852678394405171,0.9037650956101716,9.757313429901004,0.0345636270940303,0.0732619985938072,-0.0894587188959121,0.9556353857804254,0.0384301199994188,0.0322273251455729,0.2902509685613715,0.0606870390474796,0.0152710722759366,-0.0113669075071811,-0.0040539503097534,-0.006441444158554,0.008115716278553,-0.0973043292760849,-0.0282790903002023,-0.0602501783013343,-0.0932040140032768,0.0508907407384365,-0.0806700121261179,209
1733390649404158500,0.1463659982105717,0.0348933264657855,0.0434095181375741,-0.4202028496235608,0.9162032830312848,9.75471113844812,0.0294517185539007,0.0895192548632621,-0.1051163375377655,0.9561076263942684,0.0385850714759989,0.0340491942674816,0.2884616169801346,0.0618716143071651,-0.0019335872493684,-0.0176444426178932,-0.0001698732376098,-0.0008031129837036,0.0054934024810791,-0.0769439339637756,-0.0179723035544157,-0.0780816030681133,-0.1150413006544113,0.0753141841813921,0.03598521335572,210
1733390649444158200,0.1008455523336306,0.006782426681742,-0.0328179814964532,-0.4661109431112185,0.9283029592130332,9.75148107048571,0.041597731411457,0.1046373322606086,-0.1068185865879058,0.9566180219490706,0.0385773716111761,0.0363954841364985,0.2864770366464363,0.039560716599226,-0.0043108314275741,-0.0190453324466943,-0.0115043520927429,-0.0128953456878662,0.0044059008359909,-0.0243297293782234,0.0086198169738054,-0.1064385135024786,-0.0827680677175521,0.0636504882641136,0.0034563509989529,211
1733390649484158200,0.1516058350928127,-0.0265546102527528,-0.2065098300606012,-0.5002614153204485,0.9329095762256532,9.749348734632134,-0.0030122776515781,0.0750330165028572,-0.1264387518167495,0.9572127662458332,0.0383909042044202,0.0380484624426321,0.2842923297924715,0.0215913038700819,-0.0389811396598815,0.0069489171728491,0.0013239383697509,-0.0104858577251434,0.0124947428703308,0.0081179141998291,0.0461228117346763,-0.1231008944898843,-0.0905050858855247,0.0663490066330879,-0.1634530708834528,212
1733390649524158500,0.037099458207935,-0.0791317697081714,-0.1081733744710683,-0.5343452155016363,0.9251827813658864,9.748276721486448,-0.0175534952431917,0.0817931517958641,-0.1075821071863174,0.9578171604967431,0.0376063282996295,0.039521893950385,0.2821526301662458,0.0658317357301712,-0.0282519031316041,-0.0178566984832286,-0.004618763923645,-0.0149649679660797,-0.0047954246401786,0.0188086442649364,0.074406087398529,-0.112536245855689,-0.0769996121525764,0.0536208963546901,-0.1416102185182273,213
1733390649564158500,-0.0147312667943537,-0.0299774243082851,-0.2480909637272357,-0.5713993001978844,0.915532763358578,9.747086050397158,-0.0473436564207077,0.0641895234584808,-0.123438648879528,0.9584487189151631,0.0366968907348343,0.0411126884006745,0.2798915021538816,0.0153336748480796,-0.0179789196699857,-0.0268803518265485,-0.0010181665420532,0.0091287195682525,-0.0059483796358108,0.0197797268629074,0.0914871916174888,-0.0356540817052125,-0.048906110227108,0.0281740281481295,-0.1810952566884457,214
1733390649604158500,-0.1595064886821433,-0.185483627840504,0.0572147561281919,-0.5885318559803069,0.8970104337181896,9.74778864570856,0.0060401051305234,-0.0024836268275976,-0.0743213146924972,0.9590054947632812,0.0356236930216134,0.0416177572519725,0.2780420249329941,0.0695375278592109,-0.0184353329241275,-0.0244391001760959,-0.0020366311073303,0.0107537806034088,-0.0011951476335525,-0.0020557716488838,0.0785718485713005,0.0374801280885934,-0.0402641147375106,0.01668466588445,-0.2133833690918982,215
1733390649644158500,-0.1200992649884894,-0.1060114471968263,0.0524824669092893,-0.5770623674608767,0.9146530579145996,9.746835290506482,0.0528654940426349,-0.0275413431227207,-0.0340223908424377,0.9592554435063742,0.0366935803669759,0.0412710090957137,0.2770906453738873,0.0537287332117557,-0.0087696025148034,-0.0313353575766086,-0.0033071637153625,0.0025916397571563,0.0107600539922714,-0.0284726880490779,0.0461993105709552,0.0452507620900869,-0.036801803857088,0.0157547646231949,-0.1561547305688262,216
1733390649684158200,-0.1366490889795124,-0.0437760864276438,-0.0735655869483947,-0.5765236940069124,0.9239444717425852,9.745990656375884,0.0156722925603389,0.0017501852707937,-0.0132349012419581,0.9593862876747762,0.0371804727376259,0.0413567991519017,0.2765596179637036,0.0326040089130401,-0.0106434551998972,-0.0362271144986152,-0.0018327832221984,-0.004472941160202,0.0140178278088569,-0.0298705231398344,0.0144521556794643,0.0218377377986907,-0.035519540309906,0.0121605395235121,-0.0737108406379818,217
1733390649724158200,-0.041740708142519,-0.0665627224490046,-0.0873790082454681,-0.5609995598018169,0.9407456036135554,9.74528923010826,0.0622976571321487,-0.0685699209570884,0.0035733496770262,0.959407059303854,0.0382307369190541,0.0408281967390015,0.2764226889308053,0.0101178735494613,-0.0146146537736058,-0.0209526885300874,-0.0083649158477783,-0.0208300948143005,0.0166012644767761,-0.0177504234015941,-0.0012831538915634,-0.023321838876605,-0.0511070452630519,0.0100721158768981,-0.058553603516519,218
1733390649764158200,0.054722939312458,-0.0614428221520036,-0.1331166770696639,-0.5408955139279366,0.9621115591820328,9.74433996655941,0.0405529029667377,-0.0285892970860004,-0.0035507690627127,0.9593793124602986,0.0395636829661895,0.0401453873917275,0.2764317657925213,-0.0297208875417709,-0.0121488338336348,-0.0038701747544109,-3.361701965332031e-05,-0.0191304683685302,0.0153250694274902,-0.0010220203548669,-0.0118298409506678,-0.0327010771185159,-0.068252183496952,0.0276268425941467,-0.0191797706358134,219
1733390649804158500,0.1003285427222028,-0.0318699600566178,-0.1392845520496368,-0.5408616481909528,0.9693495476115496,9.743624511766432,-0.0026648023631423,0.0176363829523324,-0.0169542152434587,0.9594511382266696,0.0399330889862062,0.0402338784982873,0.2761161568833844,-0.0215319320559501,-0.0095053808763623,-0.0128459595143795,-0.0053819417953491,-0.0041248202323913,0.0073236227035522,0.0299161076545715,-0.0122659169137477,-0.0371522113084793,-0.0581968799233436,0.0315491306044161,-0.0021796821266412,220
1733390649844158500,-0.0115661903595551,-0.0474951069507747,-0.1084942769885063,-0.5422425446227193,0.9667188337817788,9.743808636161685,0.0072047058492898,-0.029014304280281,-0.0016428485978394,0.9594867002840036,0.0397888198641979,0.0402598315863434,0.2760096143735627,0.0031550386920571,-0.0052175307646393,-0.0028999187052249,-0.0040884613990783,0.0003055930137634,0.001711368560791,0.0411026328802108,-0.0099311806261539,-0.0473299064517021,-0.0489782094955444,0.0339059228636324,-0.0445262472078204,221
1733390649884158500,-0.0440289652101695,0.0009155074097216,-0.0755517923295497,-0.5305794697599485,0.9688858025573194,9.744235921663046,-0.0031230291351675,-0.0054536433890461,-0.0136344423517584,0.9595823737626116,0.0400716472036925,0.0397052250085335,0.2757163801296363,-0.0467672497034072,-0.0159849040210247,-0.0070984587073326,1.7344951629638672e-05,-0.0083333551883697,0.0029928237199783,0.0414660573005676,-0.0086962468922138,-0.0567582445323467,-0.0312736108899116,0.0370049848575145,-0.0448038951054215,222
1733390649924158200,-0.0822491345437243,-0.0514504935130476,-0.0611947656750678,-0.5312650043386966,0.9684296562876552,9.744243520447611,0.014302896335721,0.0022801542654633,0.0034966748207807,0.9596072030818974,0.0400431506322188,0.0397288432841939,0.2756303558197872,-0.0033768967259675,-0.0066854120232164,0.0008353642188012,-0.0069400072097778,-0.0069996714591979,0.0036586597561836,0.0324742048978805,0.0013973005115985,-0.0285702609241008,-0.0182209573686122,0.0289076761849224,-0.0591702741101384,223
1733390649964158200,-0.048000827983208,-0.0660777154110372,-0.1999894883811473,-0.524063731190376,0.9715349288266152,9.744324768990278,-0.0126196723431348,-0.0333010554313659,-0.0033432531636208,0.9595903601211968,0.0402942911954728,0.039421847424044,0.2756968986327645,-0.0579874105751514,-0.0074454247951507,-0.0081692487001419,-0.0063032507896423,-0.0100718140602111,0.0033839792013168,0.0294112265110015,-0.0043166503310203,-0.0235217453628778,-0.019668998196721,0.0301969853430986,-0.0407284623600542,224
1733390650004158200,-0.0268840979354456,-0.1099013673074543,0.12564531827569,-0.5219865961227566,0.9668758509743958,9.74489935400784,0.0100829508155584,0.0149593716487288,0.0239159855991601,0.9595691532384628,0.0400892965156227,0.0392587538244594,0.275823755394305,-0.0446505658328533,-0.0058799656108021,0.0010972863528877,-0.0056624412536621,0.0042060017585754,-0.0022778511047363,0.0345639511942863,-0.0074381912127137,-0.046712651336193,-0.0166724938899278,0.0311842428147792,-0.0213927705101668,225
1733390650044158500,-0.0499774618184193,0.0534586184650659,-0.247178525057435,-0.5216381845438852,0.9767962834209204,9.74392846314907,0.0084438463672995,-0.028546966612339,0.0178183875977993,0.9594387552260496,0.0405669029810359,0.0393982453187774,0.2761871752813224,-0.02448963932693,-0.0056205736473202,0.0003329589962959,-0.0030238032341003,0.003662109375,-0.0057386308908462,0.0369612798094749,-0.0091172270476818,-0.0309077639609575,-0.0264868959784507,0.0353947731819003,-0.0445326769486069,226
1733390650084158500,-0.0117984647454693,-0.03994374172315,-0.0963514192521572,-0.5098382219610735,0.9709889123164116,9.745133747285603,-0.0092786587774753,-0.0308503471314907,0.0341471955180168,0.9593222374732568,0.0404268822958075,0.0387573010257041,0.2767026693016553,-0.0351036675274372,-0.0138790365308523,-0.0057588219642639,-0.0027316808700561,-1.558661460876465e-05,-0.0025243759155273,0.0321881584823131,-0.0104077430441975,-0.0160883804917335,-0.0423594191670417,0.0495657026797533,-0.0575160771623253,227
1733390650124158500,0.0755489427853375,-0.0714589700579643,-0.0280687411427497,-0.4990233614254742,0.9710802438616752,9.745684366905689,-0.0101332357153296,-0.0001939111389219,0.0195870604366064,0.959212266661069,0.0405667915565677,0.038245513074292,0.2771344455094535,-0.0373111627995967,-0.0176785681396722,0.0004193785134702,-0.0037964582443237,-0.0018188953399658,-0.0068937093019485,0.0209165886044502,-0.0219182260334491,-0.0198474407643079,-0.0496900379657745,0.0624091099008917,-0.0653876873202621,228
1733390650164158500,0.0924512700084596,-0.0252329331949353,0.0342453839510679,-0.5094912716869264,0.9692965753152966,9.745320209768414,0.0086302226409316,0.0271313972771167,0.0210483726114034,0.9590797723215488,0.040314028681827,0.038752101470622,0.2775592245061258,-0.0304343476891517,-0.0145370494574308,0.0046353624202311,-0.0093660354614257,0.0002597272396087,-0.0088080689311027,0.0130463037639856,-0.0334957987070083,-0.0322854820549488,-0.0412765853106975,0.0699539723224937,-0.072930065523833,229
1733390650204158200,0.0987262220920994,0.0627639146879315,-0.1267635086506605,-0.5078354673039168,0.9776662711884826,9.744570852705836,0.0224954467266798,-0.014588470570743,0.014668945223093,0.9589287926085132,0.0407303549415559,0.0388098839565429,0.2780116299967592,-0.0014884488191455,-0.0087890960276126,0.0103924516588449,-0.006644070148468,0.0086311101913452,-0.0042228698730468,0.0108288470655679,-0.0238229930400848,-0.0518318940460681,-0.0382986590266227,0.0530433156624436,-0.0942483094930648,230
1733390650244158200,0.0602870762456208,0.0723855103183537,-0.118435240766406,-0.506356736520864,0.9764243813686072,9.744771928235888,-0.0173073690384626,0.010257608257234,-0.0059901690110564,0.9589181071862046,0.0406881012068906,0.0387217747360615,0.2780666266745044,0.0202328246086835,-0.0180078949779272,-0.0004209153121337,-0.0028969645500183,0.0087286233901977,-0.0077178627252578,0.0100669180974364,-0.0089891478419303,-0.0516635517418384,-0.0265541858971118,0.0364963777482509,-0.0716067079655826,231
1733390650284158500,0.0203701494641602,-0.0106343528695404,-0.0116477676957845,-0.5128275034375488,0.9740012458749114,9.74467606664598,-0.0008260528557002,0.0202967263758182,-0.0094769820570945,0.9589725505384186,0.040485266484999,0.0389965172927568,0.2778705435838373,-0.0061761448159813,-0.0164689067751169,-0.0001698458800092,-0.0070675611495971,-0.0084491670131683,-0.0001525804400444,0.0091174142435193,-0.004340345505625,-0.0482739093035459,-0.0132076414301991,0.0367671575136482,-0.0533916907086968,232
1733390650324158500,0.0214634611262008,-0.0644864276316016,-0.0736345605313777,-0.5181105949396267,0.9768268246896564,9.7441137565881,0.0101542193442583,0.0116095319390296,-0.0079645924270153,0.9590286556138586,0.0405592641598926,0.039286153349182,0.2776248084768895,-0.0089753931388258,-0.0102265644818544,0.003558779368177,-0.0077625513076782,-0.0030153095722198,0.0020339637994766,0.0074294572696089,-0.0079312017187476,-0.0536918426990509,-0.0160885117948055,0.0179817930229008,-0.0537805438958108,233
1733390650364158500,0.0590245454965159,-0.0314709508016705,-0.1211550211191177,-0.5188609018502757,0.98301647311002,9.743451493287086,0.0088639808818697,-0.0065545798279345,-0.0037569971755146,0.959025858874106,0.0408548281847281,0.0394095442876932,0.27757378136685,0.0173531491309404,-0.007533895317465,0.0012823091819882,-0.005264937877655,0.0051686465740203,-0.0016156584024429,0.0182261560112237,-0.0008403742685914,-0.0767500622034072,-0.017614297568798,0.0072233753822743,-0.0116391459979116,234
1733390650404158500,0.0410601785324513,0.0150667092937976,-0.1092336971789598,-0.5204990609787404,0.9801730663776396,9.743650815251469,-0.0085600167512893,0.0055217901244759,-0.0135214766487479,0.9590571879541476,0.0406956392150188,0.0394454530577046,0.2774837313993382,0.0055851731449365,-0.0170819666236639,-0.0057095540687441,-0.0059515237808227,-0.0025104284286499,0.0023370832204818,0.0296832844614982,0.0097759822383522,-0.0585328529894351,0.0029876884073019,0.018219620366767,0.0243859609767794,235
