frame,pose_x,pose_y,pose_z,ori_x,ori_y,ori_z,ori_w,phone_acc_x,phone_acc_y,phone_acc_z,phone_gravity_x,phone_gravity_y,phone_gravity_z,phone_gyro_x,phone_gyro_y,phone_gyro_z,phone_ori_w,phone_ori_x,phone_ori_y,phone_ori_z,watch_gyro_x,watch_gyro_y,watch_gyro_z,watch_acc_x,watch_acc_y,watch_acc_z,headphone_gyro_x,headphone_gyro_y,headphone_gyro_z,headphone_acc_x,headphone_acc_y,headphone_acc_z
0,-0.026733,0.213339,0.704544,0.101936,0.047713,-0.683049,0.721649,0.9563196048423648,13.967194977724551,-5.312888966709375,-0.1173016427597496,9.65414882350266,-1.7187310870438812,-1.131603121757507,-1.0599194765090942,0.3655796349048614,0.161683183812332,0.2020066210827933,-0.7394756390114535,-0.6214721784750576,0.3321675956249237,1.4519802331924438,-1.0909419059753418,-1.2985210418701172,0.8540496230125427,-0.8807655572891235,0.1253328174352646,0.2639713585376739,0.7750415389329195,-0.1241660639643669,0.1475523219183087,-0.4439328309096396
1,-0.027205,0.203282,0.710938,0.102594,0.059076,-0.680698,0.722935,1.230777620361,6.150558518990874,-5.28934325594902,-0.1026597621487453,9.759510647684335,-0.9548848227988928,-2.487366437911988,-0.0009329090826213,-0.1998539417982101,0.1619571283606528,0.1861272659611442,-0.7169673765644486,-0.651984909065498,1.3010916709899902,1.031866192817688,-1.650590896606445,-0.6814872026443481,0.7507190704345703,-0.0647084712982177,0.0598553866147995,0.1376280188560485,1.0939210261106491,-0.3209553956985473,0.4093787463355809,0.1966645817421376
2,-0.026473,0.141048,0.704896,0.078069,0.045536,-0.693315,0.714945,-0.8183516883492469,-5.552558139050007,-4.174114068871736,-0.2083118197149597,9.804359843236208,0.0387290413042996,-2.4863200187683105,0.6059334874153137,-0.170652836561203,0.1728411936804602,0.1866589124546953,-0.6805760933740423,-0.6870956759836576,1.988730788230896,0.7303146123886108,-2.129953145980835,0.2512598037719726,0.4237551689147949,0.5681348443031311,0.0627147853374481,0.0741252303123474,0.3163017456442117,-0.1428768783807754,0.2130908889513462,-0.046333150499314
3,-0.022536,0.104319,0.698467,0.053687,0.027585,-0.705745,0.70589,1.3187033027037978,-13.65102708759308,-3.274079538092017,-0.3439640979431569,9.758505270034076,0.9075606885008514,-2.181072235107422,0.2713207006454468,-0.5981279015541077,0.1830094175250825,0.1896739025269468,-0.6463366704987453,-0.7160868456153268,1.7551674842834473,0.5992045402526855,-1.482173204421997,0.9463593363761902,-0.3453158736228943,0.8444402813911438,0.0655741840600967,0.0106224492192268,-0.4612871396839618,0.0352016240358352,0.0167849844537675,-0.2893048715166747
4,-0.0211,0.075093,0.689784,0.022313,-0.003501,-0.707512,0.706341,0.3174982619524001,-17.804963460832834,0.5575410899110138,-0.5946273233111947,9.63564929021597,1.723684763928503,-1.674136519432068,0.557917594909668,-0.4242326319217682,0.1875277419501824,0.1950529950285098,-0.6116133309543474,-0.7434493560636497,0.7913349270820618,0.3336270153522491,-0.7001873254776001,1.4254662990570068,-0.5411382913589478,0.9931719899177552,0.1150063574314117,0.0622743107378482,-0.8186544706881046,0.0069530643522739,-0.0813909468118101,-0.2824048828698695
5,-0.021533,0.039664,0.679013,-0.018815,-0.051419,-0.69862,0.713395,1.0909007284414023,-17.56378739106059,1.5302758229814468,-0.6984011476490646,9.569697100880742,2.025712485026568,-0.0508834905922412,0.3902603983879089,0.0325588807463645,0.1940095336855911,0.2013017022511595,-0.5968207712508068,-0.7520923360608804,-0.0923749059438705,0.7452198266983032,0.95658141374588,1.494162917137146,-0.5650956630706787,0.91788250207901,0.1929191350936889,0.0319173783063888,-0.6598989099711179,-0.0530004352331161,-0.0516658167641609,0.0329109204769134
6,-0.022108,0.031073,0.677155,-0.026327,-0.057794,-0.697729,0.713541,-0.425870373865962,-11.099766733765602,1.618991194397211,-0.6259324890919029,9.608927287507056,1.8566415742613367,0.8852357268333435,0.2136078774929046,0.4805015027523041,0.1990549671785077,0.2039758843291416,-0.6031015336645275,-0.7450097872105713,-0.715202271938324,0.3081573843955993,1.592178225517273,1.146129846572876,-0.4867078959941864,0.5727859735488892,0.2097266763448715,0.0734819769859314,-0.5352016862004995,-0.0365140214562416,-0.4217517960986122,0.6357795640412718
7,-0.022038,0.026155,0.676194,-0.031104,-0.060621,-0.699385,0.71149,-2.535986796849966,-0.3048544689565897,1.8501859683811663,-0.3581541705328971,9.704190911522508,1.3677708466030656,1.5996971130371094,0.2000997811555862,0.9809299111366272,0.2068657622212791,0.2029144876227368,-0.6237698354354171,-0.7259087595113399,-1.460807204246521,-0.8322122693061829,1.9952791929244995,0.2392741441726684,-0.1202958822250366,0.1491165161132812,0.2364819645881652,0.1669411063194275,0.3584527881532907,0.0815249755978584,0.0525321147372946,0.6770603265218437
8,-0.021548,0.022428,0.676218,-0.035412,-0.063756,-0.700672,0.709747,3.197704446680844,7.220792380043864,1.9394740251183509,-0.0918263156436849,9.79105729407072,0.5451088573066517,2.6944682598114014,0.1275311559438705,0.0457448102533817,0.2117739564280192,0.2064678104104904,-0.6554221740590183,-0.6949421592434712,-1.7418311834335327,-0.458514541387558,1.4920475482940674,-0.7695562839508057,0.3988555669784546,0.0437333583831787,0.2531746029853821,0.0074976235628128,0.1708440579175949,-0.1141492798924446,-0.0498126631781458,-0.1052509111531078
9,-0.02149,0.017071,0.677468,-0.037919,-0.064115,-0.702812,0.707464,0.0006769859461113,6.924765945187211,-2.0244179151713846,-0.227976378193032,9.793045837539434,-0.4633075761282816,2.16890549659729,-0.1997062712907791,-0.4104772210121155,0.1938860671364601,0.2193807048228539,-0.6895608888098329,-0.6624092537634768,-2.25775146484375,-0.869047999382019,0.8313431739807129,-0.5691074132919312,0.129027247428894,-0.4487326741218567,0.1512691378593444,0.0492198131978511,-0.001801496464014,-0.2758486866950989,-0.0764887809187173,0.0616571224898099
10,-0.02176,0.014232,0.67807,-0.038994,-0.061095,-0.703634,0.706857,0.5678527866974473,5.321173979973793,-2.2217583503484724,-0.3706304614746943,9.739401925635338,-1.0849336367305369,1.0261605978012085,-0.0214059650897979,-0.2559573352336883,0.180529495383453,0.2288738975827056,-0.7091776643669017,-0.6419446739583515,-1.075556755065918,-0.7044267654418945,0.5343913435935974,-0.4751944541931152,0.3730683326721191,-0.4816891551017761,0.1081302165985107,0.0392416417598724,-0.0408627562642097,-0.2941184937953949,-0.1430874879965558,-0.1179603167310357
11,-0.022004,0.012916,0.67807,-0.039333,-0.061374,-0.703496,0.706951,-0.3651721960688009,3.5418174515753984,-1.2308417716383933,-0.3955853814458474,9.709041274163129,-1.3222741469278931,0.3372984230518341,0.092816948890686,0.080776035785675,0.1775498422712881,0.2327053831964677,-0.716425449913537,-0.6332920393997753,-0.3573210835456848,-0.4101034104824066,0.339322954416275,-0.3162262439727783,0.289456844329834,-0.2999221980571747,0.0560386143624782,0.1165772378444671,-0.0085609075963497,-0.3192834854125976,-0.2062430140842683,-0.2505311964862048
12,-0.019781,0.03542,0.67764,-0.018238,-0.064935,-0.704478,0.706514,-0.075543572490476,1.8599948302119969,-0.4513420842528343,-0.3322188612222671,9.693823831287023,-1.445613672479242,0.3112295567989349,0.0725942328572273,0.1398627758026123,0.1793334472374339,0.2328651563299729,-0.7207493352840825,-0.6278007113267784,-0.1675524860620498,-0.0520146302878856,0.3044711053371429,-0.1959916949272155,0.1557183265686035,-0.0995066463947296,0.0467903465032577,0.1052640303969383,0.1132061079412698,-0.2301470786333084,-0.0535787742460146,-0.1105763439595699
13,-0.020912,0.071403,0.682329,0.016142,-0.048748,-0.701107,0.711205,0.2306611785639077,0.5583867469549179,-0.522548540854454,-0.2924614906503818,9.678471363854408,-1.5530752454191443,0.1975360065698623,-0.0168984606862068,0.0862112790346145,0.1797747391565395,0.2328971867420904,-0.7245299859918731,-0.6232946698384502,-0.137329876422882,0.0301570426672697,0.2051365226507187,-0.0653232932090759,0.0095448493957519,-0.0525292456150054,0.0430853851139545,0.0557035319507122,0.0267506442815065,-0.11426492780447,-0.1021100558441132,-0.1817231793284416
14,-0.024111,0.12011,0.69293,0.058575,-0.008509,-0.689711,0.721662,0.2386980805524624,-0.4381844965159893,-0.0844642898425459,-0.2532127089214511,9.676808399078247,-1.5702284786634146,-0.0936531424522399,0.1434424370527267,0.0996435582637786,0.1813253248684602,0.2321621665697869,-0.7253689406520134,-0.6221427739807882,0.0773691236972808,-0.0297308973968029,0.1650739312171936,0.031450867652893,-0.0187640190124511,-0.0103057920932769,0.0200708117336034,0.0361008420586586,-0.0430319169968366,-0.014124147593975,-0.109973683624994,-0.1736893643461167
15,-0.029284,0.208919,0.723151,0.133365,0.09152,-0.671515,0.723122,0.4085198644839227,0.0938186859041452,0.2901240789450705,-0.2153375353669747,9.68350117471516,-1.5342111166037615,-0.0375819839537143,0.1477697044610977,0.0302683822810649,0.1852498163348953,0.2330517886140402,-0.7238161805518067,-0.622462390049459,0.0272124782204628,-0.1605782359838485,0.0710431784391403,0.0203005671501159,-0.027532935142517,0.0101452469825744,-0.001039907336235,0.0168359577655792,-0.0760953976869583,0.0502593591809272,-0.1923837626177817,-0.1842132425785064
16,-0.029175,0.229767,0.735863,0.160731,0.115665,-0.667951,0.717376,-0.1554203701459802,2.809635980203748,-0.1316344756878912,-0.2161299461199901,9.682261988309024,-1.541912338630855,0.0097245369106531,-0.0883178934454917,-0.0081402594223618,0.1853315207746033,0.2333876044531066,-0.7239791973096745,-0.6221226965861644,0.1510055214166641,-0.0385619364678859,-0.1249467059969902,-0.1724207401275634,0.1244601011276245,-0.1714949607849121,-0.0170672070235013,0.0078518372029066,0.025768647506833,0.0900651812553405,-0.1288247337630949,-0.0479272878229618
17,-0.027897,0.231879,0.741968,0.172339,0.112608,-0.669429,0.713781,-0.6502279222410172,11.43924068068266,-1.4610476807154715,-0.2082431566592305,9.688393038409949,-1.5040214377842842,-0.2831463813781738,-0.5716295838356018,0.1330691426992416,0.181891203430118,0.2279181240434207,-0.7243873818753701,-0.624685463530395,0.3743549883365631,0.7075884938240051,-0.629060685634613,-0.8450661301612854,0.535822331905365,-0.6488595008850098,0.0295937228947877,-0.022411722689867,0.6966741046607494,0.1719603240489959,0.1875215634088963,0.0716860568121075
18,-0.022341,0.185326,0.738357,0.148766,0.098612,-0.679112,0.712005,1.2956046050585803,16.401714619743824,-5.14905800242424,-0.2554735665255226,9.745061851093173,-1.0671879174858332,-1.996928572654724,-0.8573168516159058,-0.174685925245285,0.1743792387327861,0.2132796671049187,-0.7133885504234316,-0.6443449618812535,1.3489694595336914,1.2265946865081787,-1.1295647621154783,-1.1682522296905518,0.9115045070648192,-0.8960817456245422,0.0763835683465004,-0.2689926624298095,0.9191139097809792,0.0524340867996215,0.4240018400477245,-0.0742963854409754
19,-0.019613,0.146875,0.730319,0.119561,0.089909,-0.688904,0.709248,1.170784631691128,8.535832776325941,-4.928340783312916,-0.4793094839129597,9.794774853289129,0.0552421956798993,-3.648967027664185,-0.0532951802015304,-0.8602731227874756,0.1712874033946441,0.2035646309256274,-0.675088788835078,-0.6880968864753318,2.833648920059204,1.024067521095276,-1.940476417541504,-0.7467305064201355,0.8484548330307007,-0.2376010417938232,-0.0369387865066528,-0.281477153301239,0.439652815502882,0.0762096121907234,0.1750472817610949,0.2479525781698524
20,-0.017202,0.111211,0.721519,0.093925,0.062328,-0.700455,0.704738,-1.029565823643282,-3.838799579721689,-3.5025714828580616,-0.7304715987138449,9.653117726889253,1.5665604576751588,-3.8645389080047607,0.546464741230011,-0.2811311185359955,0.1830350454134693,0.2028275722681462,-0.6156205199781444,-0.7391688165956458,2.8354172706604004,0.1895986348390579,-2.24970817565918,0.2024762630462646,0.3678208589553833,0.4179862737655639,-0.1589004546403885,-0.236274316906929,-0.1681289537400007,0.2679837346076965,0.1725310246238484,0.1809865356169641
21,-0.016022,0.082122,0.712772,0.064297,0.028611,-0.707837,0.702862,0.586093084526062,-14.287964224171638,-2.499327629755437,-0.7824178398545831,9.343490636703372,2.873571569019556,-2.945151805877685,0.0872546657919883,0.0511381588876247,0.2001192219529035,0.1955112162851491,-0.5614837395468066,-0.7787578712802142,1.707810878753662,-0.235822394490242,-1.4545199871063232,1.0923508405685425,-0.4088218808174133,0.9404193162918092,-0.2289404273033142,-0.1681592911481857,-0.9742220490187404,0.3054398894309997,-0.0937298385769128,-0.1520942031316459
22,-0.017611,0.046281,0.701905,0.022699,-0.007353,-0.697858,0.715839,0.649229047396779,-17.58165388714075,-1.9563114704117173,-0.6938208341214805,9.094508277094365,3.602623802454769,-0.8176463842391968,-0.722454845905304,0.1164485439658165,0.2057397358954029,0.1809751709446176,-0.5325084936340212,-0.8008456228241321,-0.1151358783245086,0.4177559018135071,-0.3263940513134002,1.4470973014831543,-0.6269857287406921,1.2774298191070557,-0.1933313608169555,0.0210389345884323,-1.1506979753434656,0.1726345717906952,-0.2671219370095059,-0.2915643408812582
23,-0.019063,0.037015,0.701284,0.015594,-0.009532,-0.693761,0.719974,0.1639151719698682,-17.279381251370907,-3.0116090436175464,-0.5802069490969181,9.107820178610083,3.589059972004592,0.591796875,-0.239437535405159,0.0947649106383323,0.2008282403737771,0.171266502410762,-0.5363549647645691,-0.8016602355286784,-0.9282844066619872,0.9753046035766602,0.9432075619697572,1.420625925064087,-0.4630195796489715,1.0004963874816897,-0.0885781273245811,0.160461738705635,-0.7484849559187888,-0.0031892359256744,-0.1491290697157382,-0.1068487017385661
24,-0.019979,0.031898,0.701102,0.010992,-0.009256,-0.692532,0.721244,0.2506201168786734,-11.843135954105854,-0.3343976665660739,-0.5129348728021607,9.22088658581972,3.2988682346507905,1.0264517068862915,0.6497806310653687,0.4202120900154114,0.2039093325905019,0.1744501360420231,-0.5489732903418048,-0.7915911150166746,-0.823695957660675,0.6560499668121338,1.2517975568771362,0.9531229138374328,-0.4089387655258178,0.6896699070930481,-0.005685731768608,0.1261848360300064,-0.2862812859117984,0.0298656560480594,-0.1643543305721133,0.3037064679652452
25,-0.020871,0.026733,0.701318,0.006305,-0.013999,-0.694552,0.719279,1.015200394486636,-2.499246673473716,0.9378794005274772,-0.4069235352031886,9.401281146892904,2.7605639062598346,1.7658793926239014,0.6123029589653015,0.7107228636741638,0.2175162805168816,0.1876632726788691,-0.5692388905036294,-0.7703481411881512,-1.1876763105392456,-0.0130998818203806,1.844851970672608,0.3701985478401184,-0.1869643330574035,0.1213765144348144,0.0772066637873649,0.0919079333543777,0.1763607755124568,0.0629205480217933,-0.1795611059237271,0.7142130492869764
26,-0.020426,0.022838,0.700347,0.004157,-0.017819,-0.696524,0.7173,0.9383809203088282,5.186721670386195,1.887265114453435,-0.1604151462259702,9.612287703850864,1.936125445342809,2.602980136871338,-0.4326425194740295,0.554940402507782,0.2188224898840415,0.1892603294444076,-0.6045375091397591,-0.7421803584268385,-2.153260469436645,-0.4668313860893249,1.4112155437469482,-0.4543941617012024,0.3029348850250244,-0.1434937715530395,0.0982177332043647,0.0651083514094352,0.3202250565677881,-0.0109358429908752,-0.0280039322782307,0.2675223710365593
27,-0.020843,0.020672,0.699835,0.001099,-0.022267,-0.698278,0.715479,1.3819361500777303,7.605739207369089,-0.5757623177129775,-0.0542015640531666,9.761948688486218,0.9336955389715732,2.198208808898926,0.2184510082006454,-0.1889510601758957,0.2110760182963794,0.1954272979306149,-0.6435860052962372,-0.7092616205942357,-1.7886731624603271,-0.6746028661727905,0.9400889277458192,-0.5562646389007568,0.2926086187362671,-0.2559652328491211,0.0705908238887786,0.0235361456871032,0.1601455537706613,-0.0542570017278194,-0.0236307952279224,0.2635283329643308
28,-0.017178,0.035832,0.696256,0.006895,-0.032725,-0.700357,0.713009,1.1900527381975203,5.831395538696646,-1.3117606439590452,-0.2684347001085058,9.79959891244471,0.2572642128019593,1.3695156574249268,0.0959035828709602,-0.66764235496521,0.1988083334696173,0.2119427306722905,-0.6648033203686489,-0.6881802498915581,-0.9819271564483644,-0.7103320956230164,0.4521158337593078,-0.3625387549400329,0.3966200351715088,-0.4510549008846283,0.0438300296664238,0.0498987361788749,0.0667243427515029,-0.112892560660839,-0.2766219338205642,-0.1492915668010711
29,-0.015641,0.067298,0.698642,0.030167,-0.015831,-0.707043,0.706349,-0.4233285073634237,4.616732748442888,-1.5516986963689323,-0.4665663221959024,9.795313782471418,-0.0673800758470315,0.2763778269290924,0.2396287620067596,-0.3292059004306793,0.1905587892062321,0.2241554296670945,-0.6731937100199872,-0.6784187272725354,-0.4271624684333801,-0.5645140409469604,0.1928110271692276,-0.348401129245758,0.3161479830741882,-0.3874704241752624,-0.0376988425850868,0.1336835026741027,0.1345481711775064,-0.1609788835048675,-0.2487624697806313,-0.1829239334203302
30,-0.015517,0.112867,0.705394,0.062422,0.014373,-0.706563,0.704745,-0.3322817338580265,2.2929268130272624,-0.0955751924489624,-0.5329230737440288,9.791208685240148,-0.1365131876401603,0.2327556759119033,0.2032465785741806,-0.0588032566010952,0.190525577324658,0.2301557963444819,-0.6737867206305904,-0.6758253417783943,-0.0804628506302833,-0.294511467218399,0.1076039150357246,-0.1621567010879516,0.226976990699768,-0.180966317653656,-0.0790449380874633,0.1215991973876953,0.1448521230489015,-0.1067074984312057,-0.1355745002842508,-0.0251318109080195
31,-0.015647,0.163304,0.715347,0.091419,0.040199,-0.700513,0.706618,0.0301429170683026,0.9300853856503964,-0.3505647017845884,-0.5237974814696237,9.789953716742993,-0.2298799467920325,0.1768604516983032,-0.0264006331562995,0.0861403420567512,0.1910510789153611,0.2320666216831149,-0.6766577408219392,-0.6721450471443815,-0.1793806552886963,-0.0443249158561229,0.1367690563201904,-0.0602661371231079,0.0484466552734375,-0.1134993731975555,-0.0743263438344001,0.0558590441942215,0.1409001705527305,-0.0526510551571846,-0.0363684405196458,-0.0433515043400228
32,-0.015163,0.232632,0.73466,0.114831,0.098398,-0.689941,0.707894,0.2160420303745195,-0.0044587329745292,0.2728700156748295,-0.4729697229648009,9.7907580188632,-0.2962130800025537,0.2177066057920456,-0.0705705434083938,0.1668364405632019,0.1910933289287983,0.2300267482727865,-0.6798458346243926,-0.6696123382410727,-0.1937033981084823,-0.0779643133282661,0.1243083253502845,0.0210715532302856,0.008383572101593,-0.0024164021015167,-0.0352521799504756,-0.0205626934766769,-0.0105570498496294,-0.04363664239645,0.0017050503522157,-0.0404758027732372
33,-0.010833,0.238372,0.739337,0.118806,0.109877,-0.689768,0.705714,0.256046233580634,0.1631838985532522,0.3193220067808404,-0.4109210804067552,9.789960731005667,-0.3977321111509576,0.2906316518783569,-0.044464461505413,0.1519248485565185,0.191373408196749,0.2281952319068799,-0.6842555303855489,-0.6656557029778778,-0.2088147103786468,-0.026042154058814,0.0583763159811496,-0.0196595788002014,-0.013237714767456,0.0128553509712219,0.0380612201988697,-0.039149984717369,-0.1936369044840335,-0.0282867737114429,-0.0097896456737071,-0.0576215833634138
34,-0.008599,0.22373,0.7397,0.11865,0.092336,-0.695051,0.703065,0.1730613321082666,3.851977041202783,0.7325145757835358,-0.3642983358437195,9.784648596072197,-0.5462165262876079,0.4712919890880584,-0.1311251521110534,0.0508528426289558,0.190254647388029,0.2269989671047365,-0.6901599534920533,-0.660268134839606,0.133364737033844,0.8053768277168274,-0.0367988683283329,-0.3599494695663452,0.1879271864891052,-0.3077597022056579,0.0352970883250236,0.0510455071926116,-0.2107943755120039,0.0260257273912429,-0.2819055367792956,0.0892076849773526
35,-0.000881,0.15927,0.731651,0.088397,0.05426,-0.714181,0.692233,-1.3486561040274798,14.398380409133434,-1.2022189037442206,-0.3584094970008358,9.78245722350776,-0.5877464777562766,-0.6374981999397278,-0.7020059823989868,0.166846364736557,0.1845366261983124,0.2214878612602623,-0.6934766461408202,-0.660287378992748,1.207131266593933,1.3146092891693115,-0.0865698903799057,-1.17104172706604,1.1959278583526611,-1.210846185684204,0.1195138171315193,-0.0008873082697391,0.9429577267050744,-0.0293739885091781,0.5380926218690351,-0.2393447626918554
36,0.000909,0.127003,0.725975,0.069864,0.02727,-0.721009,0.688855,0.0075762804731726,15.180787508398293,-3.993245460546016,-0.1654439341734163,9.8052500700742,-0.0085131994220369,-2.2718517780303955,-0.1826077550649643,0.5476694703102112,0.1924925862877377,0.2041157160979156,-0.6773262336655743,-0.6800827208755751,1.9542020559310915,0.9305084943771362,-1.2142525911331177,-0.9762065410614014,0.8589053153991699,-0.4630886912345886,0.1062331348657608,-0.0736813992261886,0.6703595137089491,-0.0795923918485641,0.1927372887631878,0.0495762240737676
37,0.001007,0.101882,0.720824,0.049879,0.00565,-0.721594,0.690494,0.4465751986445859,5.663675165757536,-2.225788044255972,-0.12590177725479,9.754982941126825,0.9974133933834732,-2.499673366546631,-0.118534617125988,-0.2401874214410781,0.2023832460272235,0.1910529167462466,-0.6423743868000114,-0.7140692758432359,1.4082438945770264,0.1236962080001831,-1.8526930809021,-0.2601580619812011,0.4411806464195251,0.2341833114624023,-0.0161269903182983,-0.0763812661170959,0.3376116601765155,0.1277034133672714,0.2306698733270168,0.1952664053820073
38,0.001191,0.076128,0.714433,0.021748,-0.008356,-0.712009,0.701784,-0.2997661328416317,-6.40571693688631,-2.519990770816803,-0.2194763339384458,9.631603814217447,1.8315083020485936,-1.9294904470443728,0.2320827692747116,-0.2119814455509185,0.205737024175534,0.1842646580606677,-0.6104634331545706,-0.7423295925747381,1.2173980474472046,-0.3962262272834778,-2.0604147911071777,0.5749039053916931,-0.1043643653392791,0.8743846416473389,-0.1230341643095016,-0.1541624218225479,-0.5024421568930149,0.2766623497009277,0.1506214636979624,-0.0517868858605623
39,0.000703,0.070188,0.714012,0.018816,-0.010936,-0.708584,0.705291,-0.0795334093116223,-15.393727663767336,-2.918276095403731,-0.3382546707877889,9.477654776999351,2.4959984853327275,-1.536267638206482,1.1830991506576538,-0.0582457743585109,0.2197880559402273,0.1902395564461119,-0.5801279215692515,-0.7608900011051024,1.4889425039291382,-0.1811958402395248,-1.0220797061920166,1.1805682182312012,-0.4864417314529419,0.911704957485199,-0.1314465701580047,-0.0310185104608535,-0.6288000073522328,0.0909975469112396,0.0977654507685452,-0.1205589549221098
40,0.001162,0.067876,0.711985,0.01827,-0.012015,-0.707267,0.706608,0.4821661519857123,-19.996582693505285,-1.824150778892636,-0.3944784796498715,9.362736019921302,2.890318997941911,-0.2816129326820373,0.0089075025171041,0.1728011220693588,0.2322760474601122,0.1952134479185193,-0.5608265800923192,-0.7703331258283045,-0.6543312072753906,0.0111717414110898,0.3098258674144745,1.6263315677642822,-0.9032062292099,1.065657138824463,-0.1398589760065078,0.0921253934502601,-0.7548603361696005,-0.0946672558784484,0.0451952690431848,-0.1895396982982754
41,0.000624,0.06517,0.71471,0.02028,-0.009056,-0.703377,0.71047,0.3532499953458085,-16.335969935679433,-1.4433277534991502,-0.2362333892056718,9.43797567756176,2.6531474876359105,1.218096137046814,-0.8244708180427551,0.3125661313533783,0.2251583924051378,0.1850477854797625,-0.5748777679272391,-0.7645760491259004,-1.7294410467147827,0.5914440751075745,1.019562840461731,1.2413963079452517,-0.5827572345733643,0.720259964466095,-0.0519543215632438,-0.0023398771882057,-0.3680482994943857,-0.1334678381681442,0.2691463555091992,0.1175768703714013
42,0.00038,0.063965,0.712875,0.019422,-0.010095,-0.697997,0.715766,0.3804643116163089,-6.494499382188915,0.2942880667567253,0.0044034939434874,9.5680557634145,2.1500420445285737,1.460395574569702,0.0322752110660076,0.6797590255737305,0.2244222267141815,0.1793130622482031,-0.5985191624254573,-0.7478344620962459,-1.5934631824493408,-0.0165565572679042,1.4631340503692627,0.5304555892944336,-0.1591740548610687,0.3635802268981933,0.0224875062704086,-0.0953009873628616,-0.043915129572153,-0.054923228919506,0.3322539325356483,0.6410076008878648
43,-0.000457,0.062956,0.712543,0.014938,-0.01211,-0.692353,0.721303,1.226562925275415,4.722148348638415,1.370650055301189,0.2235752023583277,9.68959890706837,1.494012377206236,1.9071191549301147,-0.4164454638957977,0.3721374869346618,0.2251171432110678,0.1786818051198835,-0.6260186768581776,-0.7249108165871829,-2.0973939895629883,-0.6793320178985596,1.2469251155853271,-0.2794094681739807,0.0468583703041076,-0.0582916140556335,0.1052755862474441,-0.0598538629710674,0.0685100571244955,-0.0166247300803661,0.0789644137846306,0.3466517295919358
44,-0.00164,0.062286,0.711761,0.008944,-0.013008,-0.685842,0.727579,1.7732384839095174,6.794381323429942,0.1524058994293212,0.2860742738313041,9.773045252040028,0.7590365258757025,1.68188738822937,0.0283554028719663,-0.1919863522052765,0.2155234569926337,0.1803582920952075,-0.6548059202228369,-0.7016051494780549,-1.3435359001159668,-0.6812766194343567,0.977423369884491,-0.4744718670845032,0.4326050877571106,-0.1778994798660278,0.1589045226573944,-0.0461585633456707,0.0144224931061267,-0.0925132930278778,-0.0739928724497556,0.2354839956104755
45,-0.001966,0.061575,0.702994,-0.00539,0.00395,-0.680791,0.732447,-0.1086886579162906,6.592413228452205,-0.7352063721507788,0.1365212522156071,9.801882639467715,0.2735741453561932,0.8861278295516968,0.3778467178344726,-0.4711618721485138,0.209774419884774,0.1946976244448549,-0.6694359082978834,-0.6855239408030366,-0.9770106673240662,-1.2107555866241455,-0.3145208060741424,-0.508550763130188,0.2910202145576477,-0.3087228536605835,0.120944395661354,0.0967242866754531,-0.029114450803399,-0.1277575641870498,-0.1673985936388373,-0.0224818809211254
46,-0.001181,0.060127,0.70244,-0.006521,0.009866,-0.68325,0.730089,0.610184300339967,4.3224663089960815,-0.953674351030588,-0.0599667125842999,9.806464706560968,0.004223700090537,0.4502662420272827,0.1141067296266555,-0.4499315023422241,0.2039526387911176,0.208000342636157,-0.675663014150032,-0.6772138176675131,-0.4054324030876159,-0.4911928474903106,0.031391505151987,-0.4268542528152466,0.3705067634582519,-0.373998761177063,0.0640018135309219,0.0647088438272476,0.1787362724721431,-0.2248616069555282,-0.0563149577442556,-0.2204208665132522
47,0.000493,0.058211,0.698663,-0.010921,0.013618,-0.684377,0.728919,-0.1793183832090348,2.5802421181619164,-0.5207669181346893,-0.1672423801638186,9.804963069826364,-0.0716477660617558,0.0613694712519645,-0.0459499172866344,-0.138215884566307,0.1995342381766487,0.2125758653510037,-0.6771000818376705,-0.6756723642402638,-0.5153927206993103,-0.3646818399429321,-0.0203846078366041,-0.2214837670326233,0.1820297837257385,-0.1884133517742157,0.0026344507932662,0.0739958733320236,0.0769891316562891,-0.2104684561491012,-0.0930788273222744,-0.0958357248149812
48,0.001432,0.055717,0.696843,-0.022783,0.016536,-0.684448,0.728518,0.2700958565200679,1.0554670845538376,-0.8584136496245861,-0.2078465220244601,9.804032510977985,-0.0901391114754136,-0.0479051694273948,0.0675495490431785,-0.0918487384915351,0.1981035161648954,0.2143353849323899,-0.6772415805296303,-0.6753955360589945,0.1259707361459732,-0.1180868595838546,-0.0093949399888515,-0.0688977837562561,0.1806045174598693,-0.0946007966995239,-0.0146348923444747,0.0433278158307075,0.060161330974102,-0.1569491922855377,-0.0509315842054784,-0.0833466839894652
49,0.001709,0.054405,0.6927,-0.026779,0.016029,-0.68514,0.727743,0.5406386530900373,0.3192138336986303,0.094624741590023,-0.265006150431931,9.803021872630715,-0.030280186097545,-0.1358449757099151,-0.0440556481480598,-0.2431192994117736,0.1970200759859884,0.2159347039134764,-0.6744746573764072,-0.6779669930817377,-0.2699454128742218,-0.0434689745306968,-0.0332510694861412,-0.0218756794929504,-0.0407367944717407,0.026461899280548,-0.0069644022732973,0.0293575190007686,-0.0276964006990194,-0.1002770811319351,-0.0869254557916894,-0.0288927708767354
50,0.00221,0.053197,0.691837,-0.032027,0.017794,-0.686452,0.726251,0.5163644453920424,-0.0750993723869323,0.7147276477456093,-0.4222426483554765,9.797504570513963,-0.0319318691445747,0.1265552043914795,0.0158564820885658,-0.523881196975708,0.1910736522171189,0.2208762071426409,-0.6729351924939859,-0.6796049704381852,-0.2132166475057602,0.0503114238381385,0.023928727954626,0.0085850358009338,-0.0260977745056152,0.0381684899330139,-0.0006446684710681,0.0245270915329456,-0.0384293916374444,-0.0761089846491813,-0.0517976995155215,-0.055002633036673
51,0.004599,0.05081,0.686589,-0.042127,0.011057,-0.690112,0.722391,0.2370166120052337,0.1317670160263776,0.7735153522789477,-0.6266729321956634,9.785764448359608,-0.1284281630604062,0.3318119049072265,0.1068120673298835,-0.5072836875915527,0.1841686584690046,0.2301089785315637,-0.6734967498410022,-0.6778893270651869,-0.0981049612164497,-0.0333826765418052,-0.0193144157528877,0.002623975276947,-0.0159701108932495,-0.0130973756313323,-0.0084057338535785,0.0214438214898109,-0.062706923803687,-0.0895619764924049,-0.0589835924316197,-0.0981656290672719
52,0.005485,0.04855,0.685002,-0.050397,0.003449,-0.691095,0.720996,-0.1042151383645832,0.2137748526275157,0.0640986704230308,-0.8292243069540709,9.768848969393968,-0.2288494347005151,0.068434938788414,0.4863820075988769,-0.4916183352470398,0.1794461619691092,0.2414979610851824,-0.6733103363396947,-0.6753747694398174,0.098952978849411,-0.1144592016935348,-0.1234512031078338,-0.0232360959053039,0.0282668471336364,-0.0213878750801086,-0.0270117111504077,0.025762852281332,-0.0549058946639299,-0.1403877437114715,-0.0760924020122736,-0.1723781356170773
53,0.00544,0.046625,0.683957,-0.060554,0.011768,-0.689201,0.72194,-0.5521021867927164,-0.3990899189680814,0.0065875799630768,-0.9236235692251472,9.760417241135238,-0.2270034780402667,-0.2022054493427276,0.7571114301681519,0.0047924076206982,0.1856204153923284,0.2540852323708429,-0.6685915427743967,-0.6737736600765267,0.4548785984516144,-0.1740030646324157,-0.0894771292805671,0.0044059753417968,0.111246645450592,-0.1041194200515747,-0.045262411236763,0.0269641317427158,-0.0568295562028884,-0.159432515501976,-0.0743121309993788,-0.1068861111395061
54,0.007842,0.043326,0.682903,-0.058414,0.01708,-0.690269,0.720989,0.0309675313241779,-0.4640110116899013,-0.551582912158966,-0.862952681293711,9.7674303347677,-0.1517138072456233,-0.2144161313772201,0.2132463008165359,0.2166222780942917,0.19552082672552,0.258024744440368,-0.6641976232926388,-0.6738222373033351,0.1050798445940017,-0.1523976325988769,0.0378374233841896,0.0224827527999877,-0.0626751780509948,-0.0148961842060089,-0.041927583515644,0.02188959158957,-0.0417915615469217,-0.1164442747831344,-0.0459244235679507,-0.0235905728153884
55,0.007734,0.042126,0.684778,-0.05161,0.015785,-0.690181,0.721621,0.4601387003012001,0.5401572627812624,0.4921019646644592,-0.8001152629781514,9.773015441423654,-0.1355156919022556,0.0642062649130821,0.5127560496330261,-0.014861986041069,0.2014521552264242,0.2592273164536517,-0.6631067605466858,-0.6726868738851846,-0.0518000498414039,0.0049794130027294,0.1058548167347908,0.0037372708320617,0.0502014756202697,0.1030974090099334,-0.0385927595198154,0.0168150514364242,-0.0264841022998094,-0.0734560266137123,-0.0176426972616463,0.0596583498880267
56,0.007116,0.042258,0.684039,-0.049561,0.021156,-0.690342,0.721474,0.2125227336745709,0.0941980406105518,-0.2373848607957362,-0.8049381530899554,9.771558812874556,-0.1977614005355164,0.1869796961545944,0.3146009445190429,0.0435177870094776,0.2066741157186443,0.2661926995085831,-0.6627401241188589,-0.6687322893708947,-0.1224140301346778,0.0483924522995948,0.018760398030281,-0.0218634605407714,0.006056010723114,-0.0234498083591461,-0.0086288936436176,-0.0054800845682621,0.0175245507746934,-0.0450816452503204,0.0679093878176063,0.0441167896240949
57,0.007234,0.041513,0.683901,-0.056303,0.023828,-0.692758,0.718574,0.3635444852691143,0.0594704261004924,-0.1700783342421054,-0.7856720193449407,9.770971952897307,-0.2849691621336154,0.192802220582962,0.1284577697515487,0.0433668754994869,0.2086150877017265,0.2689317135762628,-0.6649850501569834,-0.6647934458235882,-0.1975609809160232,-0.0481526218354702,-0.0117690153419971,0.0171875357627868,-0.0036519169807434,-0.0339968800544738,0.0213250201195478,-0.0236924178898334,-0.0759293934702873,-0.0462678968906402,0.0498986974937841,0.0125312725320458
58,0.00886,0.040692,0.681784,-0.075681,0.029341,-0.697595,0.71188,-0.1321361415997147,-0.087435122346878,0.067473663281463,-0.7466857975423336,9.771982006722688,-0.348193698336929,0.1134695038199424,0.2896879613399505,0.1351901739835739,0.2116261815608146,0.2708550900395602,-0.666626175755798,-0.6614087750805806,-0.2640726268291473,-0.0944449678063392,-0.050353892147541,0.0167819261550903,0.0263998508453369,-0.0005567967891693,0.025299098342657,-0.0269160643219947,-0.0964484498858451,-0.0854566246271133,0.0453493636263534,-0.1117500639140605
59,0.008901,0.040186,0.681476,-0.082902,0.034128,-0.697152,0.711296,0.2103895941033959,-0.2849555902659892,-0.0301940992662683,-0.705690354809165,9.772280112886428,-0.4182696896038949,0.2058309614658355,0.2629249095916748,0.0640777423977851,0.2164477586754653,0.274692786854641,-0.667734746289884,-0.6571336859269264,-0.4046584963798523,-0.0753911659121513,0.0357967726886272,-0.0023946166038513,-0.0373526215553283,0.0303267240524292,0.0164462514221668,-0.0121261132881045,-0.1189946282148361,-0.098293513059616,0.0330737098231911,-0.1129104859955608
60,0.008441,0.039794,0.681728,-0.083326,0.034619,-0.695277,0.713055,-0.1899136461772024,-0.7315379127711057,-0.070377568029426,-0.6155854287311434,9.771444246584176,-0.5570526122743263,0.551727831363678,-0.2265066057443618,0.3553550243377685,0.2180030910433674,0.2736421768920856,-0.6734402266416554,-0.6512087276094293,-0.6927579045295715,-0.0618401505053043,0.0912704840302467,0.0583385825157165,-0.0119842290878295,0.0348091721534729,-0.0001735277473926,0.0067557236179709,-0.0782300716280937,-0.0784904658794403,0.0357804480312392,-0.0624107173360884
61,0.007127,0.039109,0.679342,-0.092777,0.030747,-0.692818,0.714458,0.8113831645108759,0.3641507075339555,0.5987948182541877,-0.5477216336209326,9.75793477666974,-0.8081381912402809,0.464523047208786,0.5316417217254639,-0.0840016528964042,0.216571000273091,0.2739128118257195,-0.6827703521858459,-0.641789218059694,-0.705411434173584,0.0439368784427642,0.093892902135849,-0.0329410433769226,0.0142467021942138,0.0768807232379913,-0.0032905784901231,0.008843052200973,-0.0547317071408033,-0.0396881848573684,0.0598027267947793,-0.0656277796864509
62,0.006717,0.038147,0.678102,-0.101367,0.032121,-0.692158,0.71387,0.5549946202985943,-0.0415963312357664,-0.7552244933068751,-0.5841740260969847,9.753675365659594,-0.8336269988924264,-0.2079832553863525,0.5762373208999634,-0.1718706041574478,0.2248567606152678,0.2859497528410358,-0.678775284644966,-0.6379155642284163,-0.3875176012516022,-0.0677334666252136,0.066534511744976,-0.0008355975151062,-0.0218071937561035,-0.104211688041687,-0.001118951011449,0.0221236646175384,-0.0789706608623266,-0.022599209100008,0.0178644502535462,-0.0853778975561261
63,0.006117,0.038422,0.677169,-0.108939,0.034001,-0.692184,0.712641,0.132900440503098,0.1406067405641078,-0.5025391875267029,-0.5966272649567574,9.758070385748148,-0.771027042594552,-0.1454396545886993,-0.1878590285778045,0.1110972762107849,0.2275920597558933,0.2880122279710754,-0.6755445175719259,-0.6394453977831507,-0.364851176738739,-0.151883915066719,0.0917384028434753,0.015205442905426,-0.0371253490447998,-0.1224982738494873,-0.0112950075417757,0.0164648573845624,-0.0199514856606721,-0.0100466962903738,0.0412938776904717,-0.0258621710091829
64,0.005862,0.036344,0.676037,-0.109887,0.029827,-0.693557,0.711346,0.6525213669404387,0.7449936066716909,-1.0546469272773713,-0.5848851335084065,9.76375486112535,-0.705240857475996,-0.2014715820550918,-0.3892861008644104,-0.0651271045207977,0.2245748665086418,0.2822473125040874,-0.6754951756048185,-0.6431242189337981,-0.6161438226699829,-0.1248461753129959,0.0543027445673942,0.0193093419075012,-0.0454048514366149,0.0365798473358154,-0.0285194050520658,0.0109762735664844,0.0144961428642272,0.0129911880940198,0.0876692598963156,0.052026978226751
65,0.005525,0.036716,0.674206,-0.101606,0.018485,-0.695629,0.71094,-0.1833558220315724,0.3462415413558483,0.676086220792681,-0.602241268913634,9.771353645691274,-0.5729850350193679,-0.2634972631931305,0.2669588625431061,0.041218314319849,0.2254316553152378,0.2808261346194146,-0.6710818041753427,-0.6480480942617894,0.053008921444416,-0.066027708351612,-0.0234164167195558,0.0273523926734924,0.1631497144699096,-0.0658172369003295,-0.0162716452032327,0.0010557686910033,-0.0735831226050853,0.0137780616059899,0.0286763151144608,0.0743171359680592
66,0.004821,0.035939,0.672898,-0.095417,0.009213,-0.696638,0.710989,0.4842619917538017,0.1956365538686514,0.7985223677635193,-0.5285547955319285,9.773519883814451,-0.6077339115131646,0.3554964661598205,0.4957165420055389,0.1483370512723922,0.2323812311267426,0.2839122648512987,-0.6711032945687824,-0.6442152288452311,-0.0436792708933353,0.0139155965298414,0.0032337699085474,-0.0313076972961425,-0.0053328275680541,0.0293396115303039,-0.0272810533642768,0.0215305164456367,-0.0529430701583623,-0.0252268686890602,0.0174849128840491,0.0130193483099341
67,0.003455,0.035439,0.671047,-0.095849,0.003078,-0.6951,0.712488,-1.1049639597810803,-0.2768845120131969,0.0016390724439173,-0.4464787160001695,9.76884604678452,-0.735312170612812,0.2026758939027786,0.5787752866744995,0.3397559523582458,0.2390333864807045,0.2887499522385626,-0.6738797748773542,-0.6366887393463305,-0.2642728984355926,0.0177129451185464,-0.028277950361371,0.0060707926750183,-0.008306860923767,-0.0174479782581329,-0.0382904633879661,0.0420052632689476,-0.0322843130111694,-0.0642317980527877,0.00628266046606,-0.0482727402597665
68,0.002467,0.036994,0.666491,-0.104401,-0.008376,-0.691178,0.715055,0.303408361801505,0.1406815593659877,-0.2513526689369231,-0.2854520320134237,9.768172093045711,-0.8196040995631366,0.1328728049993515,0.5683793425559998,0.246700718998909,0.2513052552881718,0.2931117769291836,-0.6751841728867994,-0.6285361047076184,-0.0829648897051811,0.0451641716063022,0.0602656304836273,-0.035877525806427,-0.1166566014289856,0.0861511826515197,-0.0526633411645889,0.0375004671514034,0.0139215578466653,-0.0655054822564125,0.0504679487491026,-0.0071554247125983
69,0.000901,0.037266,0.664961,-0.103979,-0.012293,-0.68942,0.716755,0.7618896502844988,-0.2125152079552412,0.55541043455787,-0.2481834825825877,9.767323951783776,-0.8415178982727229,0.0648377239704132,-0.0787119567394256,-0.0711167454719543,0.2561096281251879,0.2963475559962967,-0.6745988423038856,-0.6257014481938429,-0.022107932716608,0.132142961025238,-0.0332909524440765,-0.0142118334770202,-0.0276854038238525,-0.0111028999090194,-0.0469969250261783,0.0228284336626529,-0.0083048870086669,-0.0514474175870418,0.0618729206649586,-0.0091007135614752
70,0.000279,0.037517,0.663577,-0.104879,-0.004318,-0.687821,0.718251,0.1007759759624488,0.0172205993920564,0.3362275123417377,-0.2795928759227506,9.75920260464847,-0.9220582196045668,0.2971700131893158,0.1218369230628013,-0.0573668405413627,0.2536105528742325,0.2981953549297502,-0.6768245093368931,-0.6234339486273214,-0.1909448951482772,0.0449189469218254,-0.0741859823465347,0.0142880678176879,0.014582872390747,0.0265889167785644,-0.0413305088877677,0.0081563983112573,-0.0304921688973903,-0.0373893529176712,0.0732392776034772,-0.011055647021532
71,-0.001192,0.037048,0.661717,-0.097348,-0.000474,-0.689347,0.717861,-0.1678672157975844,-0.2120113500863313,0.1327414870817214,-0.2644358762633055,9.745422501099108,-1.061691950418055,0.3276150822639465,0.459969699382782,0.0725110918283462,0.2557518214717008,0.303662696577864,-0.6796471068872991,-0.6168141985378891,-0.5211315751075745,0.0465374551713466,-0.0781139433383941,0.0004224181175231,-0.0523476004600524,0.0208848118782043,-0.0416327081620693,0.0047558564692735,-0.0710877986580133,-0.0261109825223684,0.0297692249177023,-0.0079901219710707
72,0.000346,0.036227,0.661155,-0.093064,-0.00366,-0.690298,0.717505,-0.2724021241684444,-0.0901519800901412,0.0998738942898809,-0.2040440062026493,9.734294373363255,-1.1714293593354523,0.2544092237949371,0.5227823257446289,0.1289258003234863,0.2621351452630474,0.3099026086919605,-0.680945407425848,-0.6095562521079512,-0.162385955452919,0.036156665533781,-0.103097066283226,-0.0034883618354797,0.0713937878608703,-0.0161635279655456,-0.0572713613510131,0.0192954465746879,-0.0665320350497961,-0.0223933272063732,0.0408718163534998,-0.0431733712941408
73,0.000222,0.035532,0.661388,-0.09116,-0.001315,-0.691258,0.716834,-0.3708290162540972,-0.0847901607960462,-0.2701801920689642,-0.1129494023669976,9.724595401647688,-1.2609114773400127,0.1458890587091446,0.4563145935535431,0.2239459753036499,0.269561354363234,0.3147101111495712,-0.6820895411820744,-0.602534811017217,-0.2193347215652465,0.0617957189679145,-0.0526083223521709,-0.0014703273773193,-0.027735412120819,-0.0110369026660919,-0.0648204088211059,0.0049220947548747,-0.0132961194247007,-0.0238018482923507,0.0691928882895037,-0.0235024561405181
74,0.001653,0.031694,0.661273,-0.089015,-0.002699,-0.696451,0.712056,-0.2769738342644646,-0.1697755519032478,-0.7259585052035749,0.020345316417003,9.718149878770111,-1.3143494914084672,0.1404416561126709,1.5706372261047363,0.3051085472106933,0.284530050785878,0.3241801065587728,-0.6796472869631406,-0.5933206595220432,-0.2146070748567581,0.0228584911674261,0.0105354245752096,0.0152408480644226,-0.0389319062232971,-0.0265419334173202,-0.0620084553956985,0.0007213540375232,0.0188444012016057,-0.0225449707359075,0.1281387059940025,0.0376531465679407
75,0.001639,0.029884,0.659875,-0.090001,-0.010653,-0.698891,0.709463,-0.2163083348941989,0.0327946006208658,0.1268332128860056,0.3038462965610436,9.70696622145474,-1.3611938063003122,0.2071016281843185,2.179306983947754,0.5981079339981079,0.3156311395839924,0.3420794802332828,-0.6725943772846735,-0.575304544797395,-0.6039196848869324,-0.0867548733949661,-0.0167850125581026,0.0313373804092407,-0.0454429984092712,-0.0804511457681655,-0.0351482108235359,-0.0229534655809402,-0.0118587800979614,-0.0194237530231475,0.1307873573392629,0.0680202277809381
76,0.000799,0.028182,0.65832,-0.092209,-0.017802,-0.698113,0.709802,0.1232391339167952,0.3205816149204969,-0.0124197749815881,0.6276422156192362,9.685085813558102,-1.4055463043764234,0.1134000271558761,1.4143508672714231,0.5421190857887268,0.3443621765398886,0.3554129126228715,-0.6673414243683841,-0.5565534936153214,-0.4532385468482971,-0.0461754351854324,-0.027258027344942,0.0035334229469299,0.0482178926467895,0.0070911645889282,-0.0183286685496568,-0.0157533884048461,-0.0578881253451108,-0.0229945890605449,0.0953746831744909,0.0369610726505517
77,0.00166,0.02317,0.660818,-0.093379,-0.034499,-0.696175,0.710936,-0.2201876422792673,-0.0099234281212091,-0.1881410835467278,0.9080715606324374,9.664092125368118,-1.396820269346237,0.0186051242053508,1.2638152837753296,0.5561790466308594,0.366597804989716,0.362687231251864,-0.6630806770617341,-0.5425753623539709,-0.6080475449562073,-0.0475239045917987,-0.1001622006297111,-0.0188071131706237,0.0293012261390686,0.030788242816925,-0.0162793416529893,-0.0024498598650097,-0.0422165089607238,-0.03349394723773,0.0918880101025104,0.0279012756213545
78,0.000576,0.020408,0.659929,-0.096271,-0.048232,-0.693695,0.712174,-0.0676474489457905,-0.1338087509870529,-0.1060709953643381,1.2188096077349035,9.64163362532258,-1.312942693350464,-0.1144591644406318,1.6322588920593262,0.6205907464027405,0.3927147138876298,0.3700176308057066,-0.6557655092976394,-0.528047188566743,-0.889374315738678,-0.0622491613030433,-0.1266948580741882,0.0027978420257568,-0.0001518726348876,-0.0468713641166687,-0.0142300138249993,0.0108536686748266,-0.0265326176166534,-0.043993305414915,0.0883941401047632,0.0188353411123156
79,0.002243,0.016202,0.66041,-0.098598,-0.063037,-0.690639,0.713668,-0.046068362083286,-0.0039075288325548,-0.0524409658551216,1.5194003548324106,9.61617828154862,-1.1793754229690878,-0.2101491093635559,0.9785465598106384,0.6224761009216309,0.4173291542610178,0.3743838864214502,-0.6480494706752123,-0.5154657780708131,-1.1856943368911743,-0.1282857060432434,-0.1253936439752578,0.0247052907943725,-0.0379598736763,0.0007546618580818,-0.0071517983451485,0.0056452490389347,-0.0025718963146209,-0.0475023947656154,0.093761073965393,0.0202285490363836
80,0.001249,0.01268,0.659499,-0.102828,-0.078373,-0.688475,0.713643,0.2831969100303947,-0.3030401130110025,1.6255201577745375,1.8510843785256144,9.570846270915863,-1.0690180555224418,0.1920235306024551,1.904684901237488,0.768484354019165,0.4431815462199702,0.3797108587285569,-0.6405656999163294,-0.4990846475787453,-0.5123950839042664,-0.1701246500015258,-0.129450112581253,-0.0057187676429748,0.0689617395401001,-0.0295933485031127,-0.0019987183623015,-0.0010964917019009,-0.0200683900386095,-0.0633102059364318,0.0885259132582694,-1.60743519663e-05
81,-0.000586,0.003378,0.661574,-0.107162,-0.097358,-0.68524,0.713781,0.8810754171572626,-0.0129594348162412,0.8356208761233835,2.193229005956649,9.497888002210855,-1.072497349005565,0.4912789463996887,1.4125412702560425,0.543056309223175,0.4697118647763632,0.3917553587925124,-0.6334113094268208,-0.4740133025445134,-0.4644922614097595,-0.1232072636485099,-0.0257686525583267,-0.0017841458320617,-0.0058689713478088,-0.0151228904724121,0.0022530052810907,0.0001632482744753,-0.0601981558531522,-0.0735547915101051,0.0682610873321071,0.0007803367227315
82,-0.002415,-0.000436,0.662555,-0.110403,-0.103746,-0.68333,0.714218,0.5718197906322777,0.0730833563894033,0.5965780920527876,2.3669131096057594,9.447161439058185,-1.1485912123225628,0.4507618844509125,0.7563055753707886,0.1766309291124344,0.4819792837942661,0.4008887071894709,-0.6307535958765905,-0.4573119116169828,-0.4278626143932342,-0.0355747789144516,0.0462249815464019,0.0009312033653259,-0.0516713261604309,0.0626220107078552,0.008033431135118,0.0081948544830083,-0.053139469513297,-0.0922772735357284,0.061798540254496,-0.0481792167574167
83,-0.004913,-0.003688,0.664351,-0.11015,-0.107976,-0.680975,0.715878,-0.3674582246467471,0.1775637215614318,-0.2035973036147653,2.4529575082466004,9.41031727078557,-1.2646470106065273,0.3991188406944275,0.7282167673110962,0.1653137356042862,0.4880714269238748,0.4101286299157859,-0.6295026296213361,-0.4441928783192938,-0.382599800825119,-0.0020055258646607,-0.05599120631814,0.0018602013587951,0.0409553050994873,0.018270194530487,0.0092652775347232,0.0162942074239254,-0.07402209854424,-0.0886535197496414,0.0462104739677161,-0.0129293319389224
84,-0.008807,-0.011464,0.67135,-0.103884,-0.120511,-0.677867,0.717761,-0.5644438550367951,-0.0491682277947664,0.1354137019656598,2.6110373616591094,9.360518928393722,-1.3166532383061944,0.4861189723014831,1.2102346420288086,0.4376403391361236,0.4993527380832836,0.4188061292006736,-0.6258850200759061,-0.4283880457596716,-0.1515255868434906,0.0286051668226718,-0.0464293882250785,0.0076830983161926,0.0250416994094848,0.0413752794265747,-0.001096798107028,0.0450367182493209,-0.0668219579070806,-0.0901818946003913,0.0324786665394902,-0.052048459406197
85,-0.011189,-0.014824,0.675236,-0.09832,-0.125021,-0.677701,0.71793,-0.310652049319446,-0.0853700065106153,-0.8756232892312109,2.889356874911487,9.27416809415221,-1.3460466521814465,0.356289267539978,1.115117430686951,0.6556468605995178,0.5159336911800695,0.4267473882828395,-0.621704063743926,-0.4064274731585724,-0.0861992985010147,-0.0233289767056703,-0.0793796181678772,0.0070688724517822,0.0242543816566467,0.0027042622677981,-0.0138660306110978,0.06782066822052,-0.0112684129893779,-0.0928345397114753,0.0405635541219264,-0.0148883570522069
86,-0.012198,-0.019413,0.682458,-0.095806,-0.129174,-0.679017,0.71629,0.5565314744770526,-0.0737146400302648,-0.2917487575374543,3.1607655858621,9.194724555081129,-1.2794453512877224,0.1614850014448166,1.3564051389694214,0.4597570598125458,0.5337083379706561,0.4319658474220885,-0.6153365463952113,-0.3871973998036741,-0.1506832242012024,0.0270310789346694,0.0529141090810298,0.0313478708267211,-0.0858237147331237,0.0381561517715454,-0.0089980475604534,0.0575194619596004,-0.0384048417180776,-0.1072241216897964,0.0188005985924974,-0.0071779288053512
87,-0.014606,-0.025892,0.692719,-0.084865,-0.131881,-0.682322,0.714032,-0.1038686630144715,-0.3139741794794797,0.2564578831214457,3.3902094245254992,9.124785341936349,-1.189598272428289,0.2440579384565353,1.2420629262924194,0.4750791490077972,0.5505495390647197,0.4377698167270046,-0.6074621132194836,-0.3691104453245176,0.0321904569864273,0.1054133996367454,0.0229727197438478,0.021119475364685,0.0362335443496704,0.0469714403152465,-0.0013633370399475,0.0536786802113056,-0.0177320560455322,-0.0938599333167076,0.0454794562794268,0.0667287266656756
88,-0.01456,-0.028542,0.701179,-0.078253,-0.136099,-0.683581,0.71279,0.0939446503713727,-0.1671855354100465,0.0324760361909866,3.637418636982143,9.034410659006236,-1.1484732850313186,0.4784760177135467,1.3040376901626587,0.5556764602661133,0.5663425398242452,0.4449968417360925,-0.6004445440618277,-0.3474194360027658,0.1411118805408477,0.1600279659032821,0.0179312229156494,0.0125088691711425,-0.0215723514556884,0.0776697397232055,0.0139004299417138,0.0592325776815414,-0.0428898781776428,-0.0802373588085174,0.0121286465479061,0.0653267509132623
89,-0.015032,-0.031021,0.70723,-0.070368,-0.140337,-0.684345,0.712058,0.0126584060430526,-0.2165373030781745,-0.6846036545734853,3.897521525542438,8.931281123921275,-1.1008716489661483,0.2773917913436889,1.272529125213623,0.5919986963272095,0.5816157468981273,0.4512019250611617,-0.5937555517993462,-0.3249526885769988,-0.1376787424087524,0.1397982090711593,0.0367722883820533,0.0386162400245666,-0.000917911529541,0.03719162940979,0.0254220161586999,0.0698345378041267,-0.0615980857789516,-0.1038512364029884,-0.0102857586275786,0.006799743142724
90,-0.014037,-0.034414,0.719331,-0.050806,-0.154229,-0.682241,0.712867,-0.4086255168154835,-0.5774293010771274,0.1280360128045082,4.1775481349736445,8.821563442617654,-0.9479000054128468,0.2437511533498764,1.661470890045166,0.6648879051208496,0.6005223045254373,0.4557116115050742,-0.5836577554518178,-0.3017343005590073,-0.1050630062818527,0.0515338107943534,-0.03700552880764,0.0098094344139099,0.0040082931518554,0.0131551027297973,0.0289349630475044,0.075720727443695,-0.0615881489068269,-0.1306279301643371,-0.0219535096654668,0.0074789575785398
91,-0.014286,-0.035679,0.725268,-0.035329,-0.163655,-0.679804,0.714028,-0.2537435826614499,-0.4164724309235811,0.5253413133781403,4.498663418379426,8.681706059116125,-0.7486006181877106,0.4928442239761352,2.148721694946289,0.7895711660385132,0.6231861659954544,0.4626747999106855,-0.5692978468681062,-0.2710554673806317,-0.2068889737129211,-0.0112711424008011,-0.017097333446145,0.0337898135185241,0.0108596682548522,-0.081459641456604,0.0462700650095939,0.0661951676011085,-0.043560909307003,-0.1449170559644699,-0.0123708395396359,-0.0374646382585167
92,-0.01483,-0.037133,0.730856,-0.017492,-0.171404,-0.678228,0.714368,0.1580690397575497,-0.1584270594149827,-0.1170703456213697,4.78356318680495,8.540975984433294,-0.582785421282798,0.5563788414001465,1.400606989860535,0.5264568328857422,0.6427827187831819,0.4712519697808337,-0.5546488689346015,-0.2389907642953185,-0.2280698865652084,-0.0011576821561902,0.0207108296453952,0.0373516678810119,-0.0126881599426269,-0.0035432577133178,0.0507590994238853,0.0562066286802291,-0.0461415734499692,-0.1503205001354217,0.0124051254017278,-0.0654287499830126
93,-0.013846,-0.039774,0.736962,-0.004464,-0.174846,-0.677905,0.71404,-0.0500368273228406,0.1440472364068031,-0.0666950801244005,4.961591311007738,8.441111004102229,-0.5483149964042008,0.7062574625015259,1.1760599613189695,0.4227210283279419,0.6525619129231216,0.4797640712896554,-0.5456947128732125,-0.2149574069079333,-0.2233781963586807,0.0056737521663308,0.0359104201197624,0.0134045481681823,0.0151856541633605,-0.0091221313923597,0.0552481338381767,0.0462180934846401,-0.0483382067114114,-0.1557239294052124,0.0372430131307803,-0.0935465909644961
94,-0.013953,-0.045635,0.741936,0.002852,-0.182218,-0.677522,0.712568,-1.0876771632850168,-0.0027273791372776,-0.7150128944277763,5.153330857437849,8.328412845683097,-0.5010912172080949,0.4796281456947326,1.473203182220459,0.5982029438018799,0.662163991757,0.4875722585800846,-0.5364902925685378,-0.1897109656266529,-0.2513381838798523,-0.0572795942425727,0.017054509371519,0.0578022599220275,0.0110481977462768,-0.0425922870635986,0.0554019659757614,0.0359389185905456,-0.1417787069529295,-0.1934753209352493,-0.016570300523471,-0.1543722310662269
95,-0.012059,-0.048797,0.74477,0.002339,-0.18278,-0.67879,0.711218,-0.1306149233818054,0.1876478932023048,-0.6661772595882416,5.374663578099012,8.196696098539233,-0.3123032140599563,0.4177034199237823,1.2780685424804688,0.5842021107673645,0.6765206142691468,0.4920832121583908,-0.5232371781501438,-0.1624708008240482,-0.2473317235708236,-0.1043924540281295,0.0244725458323955,0.0426665544509887,0.0376482009887695,0.0063261985778808,0.0355211719870567,0.0406148359179496,-0.064232525935769,-0.2051857411861419,0.0496664231078699,-0.0985904303506016
96,-0.011429,-0.052301,0.746322,0.001594,-0.180806,-0.681627,0.709008,0.5098001184403896,-0.1767664337038993,-0.8149626304328441,5.579552528959512,8.063565977466107,-0.1337391289500985,-0.0173306800425052,1.260688304901123,0.5826320052146912,0.68807201654928,0.4925537848009631,-0.5140131973248061,-0.140492443423309,-0.2120358049869537,-0.0626300945878028,0.0573093891143798,0.0016257166862487,-0.0017623305320739,-0.0119789838790893,0.0049611814320087,0.043024443089962,-0.1071224041134119,-0.2121756225824356,-0.0175334282008931,-0.1845952276334166
97,-0.009189,-0.058302,0.752873,-0.000659,-0.179147,-0.687301,0.703934,-0.1905973906576633,-0.2890817302852869,-0.0568950591871514,5.776568554487824,7.9210472658008335,0.2421461569134146,-0.4998014271259308,1.0395777225494385,0.7467307448387146,0.7050657865273908,0.4848358926694095,-0.5025814750945578,-0.1234025030182244,-0.1288948357105255,-0.0034616889897733,0.1158223003149032,-0.0227932333946228,0.0191165208816528,0.0197535753250122,-0.0207162797451019,0.057686973363161,-0.0862397750824689,-0.1856786906719207,-0.0136830820488277,-0.1782297842547297
98,-0.008593,-0.060959,0.755108,-0.000155,-0.177563,-0.689709,0.701978,-0.0559749852001667,-0.2273486199498176,0.6632317807208746,5.983718436017632,7.742148496243357,0.6516331859290599,-0.2886734008789062,1.5267109870910645,0.7251573204994202,0.722675033035702,0.4750766079477615,-0.490997118426438,-0.1047128662550073,-0.1228209659457206,0.1000965014100074,0.1914378255605697,-0.0387259721755981,-0.0382397174835205,-0.0088168308138847,-0.0463937446475029,0.0723495036363601,-0.0648000966906547,-0.1591817587614059,-0.0099914061903487,-0.1720329754412174
99,-0.008162,-0.063437,0.756994,0.001365,-0.176281,-0.691206,0.700826,-1.1430746408581731,-0.5230161583662033,0.2475636519175022,6.187208041474223,7.526055429801344,1.1168317269030958,-0.4389638304710388,1.3397423028945925,0.9857758283615112,0.7416762272562395,0.4640905122908724,-0.4771555570290191,-0.0828181628459285,-0.0872443243861198,0.0964711382985115,0.1906351596117019,-0.0210890173912048,-0.0061503052711486,-0.0074243582785129,-0.0637900233268737,0.0698309242725372,-0.0716197135776281,-0.1335972249507904,0.0034905911952722,-0.1692953671708703
100,-0.007888,-0.065321,0.759856,0.000534,-0.177427,-0.687912,0.703773,-1.719364124250412,-0.5585042358547448,1.8572678894661363,6.480981728968024,7.200019056606292,1.5254399272575974,0.3294432759284973,1.541632890701294,1.5742510557174685,0.7583911160947623,0.4525894887127729,-0.466247748613255,-0.051172299219021,-0.1384494602680206,0.1406156420707702,0.1603995561599731,-0.055510401725769,-0.0065574049949646,0.0053616724908351,-0.081186294555664,0.0673123449087143,-0.078111998206377,-0.1080126762390136,0.0167955423804,-0.1666387151822447
101,-0.008853,-0.066341,0.760064,-0.00031,-0.179388,-0.685569,0.70556,0.0889373436033725,-0.4425596428602933,-0.2261287227660417,6.8458677650392055,6.795723385688662,1.767097058545053,0.1450088918209076,1.0881484746932983,1.483607530593872,0.7680713593238805,0.4434268317611856,-0.4618178944166261,-0.0127799566789771,-0.2507725358009338,0.131138414144516,0.1135612726211547,-0.0380282402038574,-0.0257326364517211,-0.0345112085342407,-0.130926102399826,0.0781415104866027,-0.1277595339506864,-0.0967447757720947,-0.0390536610156297,-0.1887532240957021
102,-0.009186,-0.065695,0.760492,-0.000136,-0.175246,-0.686009,0.706173,-0.4255991557091474,-0.559809473234415,0.3610466040387749,7.148517417427897,6.394927831846475,2.0430311379656194,0.3569020628929138,1.030576229095459,1.5783663988113403,0.7769515702221469,0.4329458024408856,-0.4565000919347103,0.0226228820750776,-0.319012314081192,0.1593036353588104,0.1095132753252983,-0.0553810000419616,-0.0480121374130249,-0.0258469618856906,-0.1929434686899185,0.096443623304367,-0.0950473509162664,-0.090568870306015,0.0022065244677942,-0.155554426588118
103,-0.008558,-0.067843,0.761772,-0.000252,-0.165982,-0.690102,0.704421,1.0526491045236588,0.104102764031291,-0.8882261656947433,7.449459681376815,5.9803118424445385,2.216259752932191,-0.1297258585691452,0.8395932912826538,1.259774684906006,0.7811311406089383,0.4215150617180337,-0.4575229558993868,0.0532159266193349,-0.2011967301368713,0.0595541894435882,0.1469892710447311,-0.0004218816757202,-0.0341706871986389,-0.1041758060455322,-0.1980639398097992,0.079526200890541,-0.0624357056468725,-0.0889092907309532,0.0575650217374321,-0.1206190145462751
104,-0.005966,-0.072312,0.763423,0.000891,-0.147952,-0.702304,0.696332,-0.7688140427201986,-0.0303074599802494,-0.1612894631087779,7.634037665614485,5.54594953456521,2.671011645628512,-0.3119396567344665,1.698990821838379,1.6126750707626345,0.7931627786304662,0.4040044247447316,-0.447880271863349,0.0841219146683254,-0.0639683008193969,-0.0149386888369917,0.1314319521188736,0.0041511058807373,-0.013961911201477,-0.0421637222170829,-0.1759991943836212,0.047022208571434,-0.0421048652797937,-0.0821290090680122,0.1138019092767965,-0.0625008798375725
105,-0.005265,-0.074634,0.764761,0.002704,-0.145295,-0.706085,0.693056,0.7500953137248754,0.1276373688757419,0.22334376822263,7.760243540382385,5.005979318788647,3.2998736123010515,-0.3381277918815613,1.9934897422790527,1.5315009355545044,0.8084313521456146,0.3805283960550935,-0.4323787786873627,0.1211834879151736,-0.1332152932882309,-0.0796601623296737,0.1087277680635452,0.0157720446586608,0.0051537752151489,0.0292620733380317,-0.1548674404621124,0.0418810918927192,-0.1045002389162778,-0.061601735651493,0.0550965127320494,-0.0739183459088206
106,-0.005073,-0.076408,0.766033,0.004927,-0.142986,-0.707927,0.691643,0.5518769266694784,0.1572992244288325,-0.676482380503416,7.7904194829374545,4.507653072781861,3.8936911535993217,-0.7079191207885742,1.1247702836990356,1.1826624870300293,0.8218954720219871,0.3566754508234043,-0.4174441632688149,0.1516935654160331,-0.2814763784408569,-0.1097794994711875,0.1510317623615265,-0.0013630986213684,-0.0132871866226196,0.0416234731674194,-0.1670739352703094,0.0638085529208183,-0.1076344452887773,-0.0524889454245567,0.0650574598520528,-0.1216100714102387
107,-0.00459,-0.079789,0.765471,0.007929,-0.133445,-0.713337,0.687953,2.2247096013695,-0.5464978639796376,-0.6993938850134611,7.762702623972296,4.109069934292138,4.361923874637484,-1.4722832441329956,1.106437921524048,0.1707144379615783,0.8346211261176769,0.3300602819294939,-0.4106872136744237,0.1606356690485549,-0.2642843425273895,-0.1614302843809127,0.1738792210817337,0.0149438381195068,-0.0012525916099548,-0.0119322687387466,-0.1672722846269607,0.0845887586474418,-0.0773030199110507,-0.0453327782452106,0.0620226404671091,-0.0622597645580768
108,-0.0046,-0.081601,0.765868,0.007812,-0.134237,-0.712242,0.688934,1.5646487788349388,-0.7442629543095827,-0.1184662204265594,7.436352362522482,3.8610648952826856,5.095412921476364,-1.653541088104248,1.638203740119934,-0.4812720417976379,0.8582771215638978,0.2983087881819012,-0.3888677203053353,0.1521650828602583,-0.1859181821346283,-0.1654062122106552,0.1860072463750839,-0.0161440968513488,0.0169439315795898,-0.0066950395703315,-0.167470633983612,0.105368971824646,-0.0469341851323842,-0.0381766110658645,0.0588441382951568,-0.0029097499668598
109,-0.003476,-0.083388,0.76356,0.007996,-0.136013,-0.713658,0.687116,-0.1421890413194894,0.1279056644231081,2.298205630213022,7.058439671617746,3.797837162475288,5.650244021776318,-0.4169711172580719,0.9830428957939148,-0.3747744262218475,0.8762703788297898,0.2802590237607107,-0.3652021292481119,0.1422414522136486,-0.1306730359792709,-0.1384084224700927,0.1563532799482345,-0.0169256925582885,0.0312843322753906,0.0190917402505874,-0.1530929505825042,0.0745842903852462,-0.0006909048736095,-0.0501260384917259,0.0962508906202856,-0.0174108612671494
110,-0.001878,-0.086995,0.765672,0.011271,-0.133418,-0.718108,0.68293,-1.3753268149405715,0.648326545599103,1.8521102144420143,7.00768563593626,3.7394963249266144,5.751424760881066,0.2517517507076263,-0.1319519281387329,0.7307036519050598,0.8783238700456834,0.2775974215824698,-0.3601369483187672,0.1476082473307188,-0.0979129448533058,-0.1303344666957855,0.1469808220863342,-0.0231509208679199,0.0098642110824584,-0.0128215625882148,-0.1211999654769897,0.060815405100584,0.0035761049211025,-0.0494615919888019,0.0745464420787524,0.0426020011469721
111,-0.00098,-0.087862,0.766464,0.01417,-0.13055,-0.722231,0.679072,-0.6753226890742778,-0.6372805431887507,0.312699921759963,7.126050149554014,3.526633034186065,5.740440425530076,0.2241447120904922,0.5006115436553955,1.160730481147766,0.8743033859828995,0.2753954304866544,-0.3625966697592191,0.1681507979931894,-0.0899450331926345,-0.091407410800457,0.1592164486646652,-0.0226455330848693,-0.0257714390754699,0.0050801038742065,-0.0723098516464233,0.046637438237667,-0.0186176067084074,-0.0613193921744823,0.0711931404623203,0.0510056723549962
112,0.00024,-0.090151,0.768227,0.017769,-0.126428,-0.726702,0.674984,-1.5748989546924828,-0.1494303907498717,-0.0813829827010631,7.160272152629494,3.181537155734002,5.897347728031874,0.0611931607127189,0.7075694799423218,1.45595383644104,0.8733416430169979,0.2657631951801524,-0.3587323265137077,0.194821612586971,-0.2186204642057418,-0.1171070858836174,0.1128196492791175,-0.0155686140060424,-0.0149019360542297,0.0201397985219955,-0.0145013593137264,0.0501973964273929,-0.0263192671269178,-0.0648296996951103,0.0405536629155743,0.0197387196928262
113,0.00103,-0.094331,0.771499,0.023872,-0.118295,-0.732012,0.670518,-0.8241518990606069,-0.3370435048997402,-0.9337924234747886,7.147687396344542,2.707752061265707,6.144024148786068,-0.1519913971424102,0.7257761359214783,1.8365944623947144,0.8724968437040883,0.2503056299407613,-0.352262756620352,0.228051184933006,-0.1636807769536972,-0.1116663441061973,-0.0040811346843838,0.0049718022346496,0.063791811466217,0.004965528845787,-0.0042181648313999,0.0677095651626586,-0.0420610261380672,-0.0564587749540805,0.0076501631267135,-0.0427180287420749
114,0.001005,-0.096128,0.772958,0.029201,-0.120267,-0.730377,0.671738,-0.7138175471633672,-0.4661442243263125,-0.0354044908583164,6.972709599623084,2.062029268424213,6.580254004102945,-0.5908976793289185,1.8707513809204104,2.032556772232056,0.8752106900640273,0.2223112019206833,-0.3392317001853354,0.2636395915318722,-0.0978836566209793,-0.1441263407468795,-0.0016843563644215,0.0034963488578796,0.0058101415634155,-0.0268252044916152,0.0150075834244489,0.0506325215101242,-0.0247878197759389,-0.0314963907003402,-0.0106435111402417,0.0195429048597812
115,0.000786,-0.097814,0.77331,0.027786,-0.121244,-0.728085,0.674107,0.2278314350306987,-0.2659266262777149,0.6306921047091484,6.494188416543603,1.296480511110276,7.232913025948405,-0.5908979773521423,2.6048243045806885,2.353189945220948,0.87949861915349,0.1845477371331839,-0.3117149180723336,0.308638965731266,-0.0230634752660989,-0.1321898400783538,0.0832668170332908,0.0130926966667175,-0.0094251632690429,-0.0009806156158447,0.0244227014482021,0.0601871572434902,0.0045972646623849,-0.0018167793750762,-0.0149334771188558,0.0739028560787439
116,-0.001238,-0.101964,0.771671,0.02598,-0.122293,-0.724373,0.677977,-0.0397048184007406,-0.3187099758297205,0.695389910069108,5.878564117106795,0.5630681827694177,7.82916510091722,-0.4825316369533539,1.9896833896636963,2.1917271614074707,0.88021526459272,0.1456690392026226,-0.2821421852424228,0.3527002679758954,0.2752686440944671,-0.0822961032390594,0.1298586875200271,-0.0015786886215209,0.0265796780586242,0.0183381885290145,0.0069560334086418,0.0087247900664806,0.0698112028509378,0.0273032244294881,0.0232129853743826,0.0376350263893604
117,-0.002119,-0.106374,0.771152,0.021881,-0.125916,-0.717459,0.684776,0.7226087563842535,-0.1303921748760622,1.4247241753160953,5.283096470513939,0.0037987218523383,8.261916466468572,-0.0236647315323352,1.599313735961914,2.040067911148072,0.8753982507565231,0.1152684115634559,-0.2558763120650714,0.3935967504385771,0.159714326262474,-0.0965280383825302,0.151759535074234,0.0041640400886535,-0.0258986353874206,-0.0011379718780517,-0.0367110036313533,0.0086353383958339,-0.0097708679080009,0.0218599382787942,-0.0241330730610992,0.0240919464662671
118,-0.003624,-0.108978,0.769134,0.020354,-0.128947,-0.715169,0.686652,1.963466895124316,0.5538081504603848,0.7717670473068952,4.960115393236279,-0.2828144500514492,8.455037238124012,0.308042824268341,0.5986208915710449,1.3872642517089844,0.8652466912375487,0.1026126973046748,-0.2416272085604634,0.4271241679897208,0.1439931541681289,-0.1124293431639671,0.1155761554837226,-0.0030746459960937,0.0151770710945129,-0.0193976163864135,-0.0434779077768325,0.003082544542849,-0.0457481902182102,-0.0119398962706327,0.0061006503960816,0.0631818478390574
119,-0.003365,-0.112787,0.768732,0.018009,-0.132289,-0.713495,0.687823,0.6920859000876546,0.4905022743828594,0.3552092761874199,4.70579138033837,-0.4468080940850079,8.592221603024006,0.1361942738294601,0.7272700667381287,1.1494464874267578,0.8577710324123228,0.0942098436399344,-0.2303109074387317,0.4497891514180434,0.1389717608690261,-0.1553061753511428,0.0389605388045311,-0.0128976106643676,0.011936604976654,-0.0179407596588134,-0.0320319347083568,-0.0047702128067612,-0.0376484703928232,-0.0635426640510559,0.0426125545070273,0.0572428131788969
120,-0.001506,-0.123162,0.770065,0.018335,-0.136029,-0.715579,0.684913,3.572333293609321,0.6350083604730665,-0.3147124306261539,4.53518171569854,-0.5577954665308817,8.677060279136896,0.2077701687812805,0.1915539503097534,0.5485993027687073,0.8507692899314732,0.0890431274922805,-0.2228550446481307,0.4675452270741392,0.3148567974567413,-0.2066669911146164,-0.021502936258912,0.0222031474113464,0.0644727349281311,-0.0100441128015518,-0.0222794450819492,-0.0049707680009305,-0.0544733484655618,-0.1021086722612381,0.0215053526227246,0.0507569582909345
121,-3.4e-05,-0.128891,0.771824,0.01985,-0.135752,-0.71747,0.682945,-0.7359256263360381,0.3888011281332001,0.3031120092034339,4.364188604699075,-0.5759978435019031,8.763131127393246,-0.133523941040039,0.8285724520683289,0.3404976427555084,0.8498990248564613,0.0849833782729106,-0.2144352672413393,0.4737793786461685,0.4187174141407013,-0.1873736828565597,0.186316967010498,0.0143185853958129,-0.0312583446502685,0.0440989732742309,-0.0010003820061683,0.0121063832193613,0.0067950669676065,-0.0796941965818405,0.0841862857519183,0.1153410741433501
122,0.001336,-0.134469,0.773944,0.022082,-0.133048,-0.71918,0.681609,-1.057589191274345,-0.1085999293200671,-0.6893354323357344,4.386427324514091,-0.723834060395509,8.741035615441202,-0.2621558606624603,-0.5151785612106323,0.5748263001441956,0.8449254563544449,0.0808806410106809,-0.2186081749930981,0.4814247134549832,-0.0746414512395858,-0.1145168393850326,0.0482232831418514,-0.0016018152236938,0.1056196689605712,0.0091224759817123,0.0135854128748178,0.0092628262937068,-0.0229635269582271,-0.069325067102909,0.0366608407450956,0.0770434921920299
123,0.00315,-0.143713,0.776692,0.028888,-0.133152,-0.717275,0.68334,1.7119716759115458,-0.2981766716931015,0.0927799905061721,4.467911721763015,-0.8710914910204708,8.686158946871757,-0.2080163955688476,0.0467542707920074,0.1612609326839447,0.8407701817678391,0.077760383787979,-0.226014339086367,0.4857741252314429,0.3405994176864624,-0.0422171279788017,0.0603423938155174,-0.0125093460083007,0.036259651184082,-0.0041386932134628,0.028171207755804,0.0064192693680524,-0.052660161563754,-0.0589559338986873,-0.0108330777539464,0.0387198990166187
124,0.003433,-0.147276,0.776368,0.025214,-0.135359,-0.715483,0.684928,1.4929843493327497,0.0431011828407645,0.2568868491232395,4.412313753181696,-0.9280579714760184,8.708649595621228,-0.1488068103790283,0.3096743524074554,-0.1187080666422844,0.8418110572157788,0.073419803791644,-0.2249266029558276,0.4851511043937186,0.4774115979671478,-0.0404815450310707,0.06807541847229,-0.0001407265663146,0.0099335312843322,0.0002549886703491,0.0321981534361839,-0.019570143893361,-0.0073065236210823,-0.0637595951557159,0.080752868103981,0.053559156230092
125,0.003075,-0.153349,0.774401,0.020828,-0.138702,-0.713359,0.68662,-0.0156260236769914,-0.0284239112559705,0.1398246502757072,4.384595140650868,-0.919829583769664,8.72350989562273,-0.0926201194524765,0.0403478108346462,-0.2365549653768539,0.8448291376334838,0.0717977160961336,-0.2237629642232561,0.480665153161772,0.470748633146286,-0.0330947898328304,0.1257078796625137,0.0155314803123474,-0.0057374238967895,0.0199635028839111,0.0725335851311683,-0.0456881895661354,-0.0594815320163965,-0.0879261717200279,0.0775649405165575,0.0802294287517666
126,0.003156,-0.160418,0.774108,0.015543,-0.142931,-0.710363,0.688995,0.0685337302610278,-0.0050851212445646,0.3367927450090646,4.329913994653523,-0.9077041886247694,8.75204566975534,0.0730418190360069,0.2729264497756958,0.0458514280617237,0.8462751192379252,0.0705117222786136,-0.2209025921413867,0.479633808567894,0.4215470254421234,-0.0779879614710807,0.1612602919340133,0.0198968052864074,0.0053779482841491,0.005014419555664,0.1004387810826301,-0.0524237900972366,-0.0366319868266582,-0.0995535925030708,0.0942710693141445,0.024153613525629
127,0.002984,-0.167866,0.774721,0.01568,-0.143132,-0.710224,0.689093,0.1937304279863834,0.1659966909516602,-0.737072750544548,4.274448420280218,-0.9055056556671858,8.779495402216911,-0.075242705643177,0.039557822048664,-0.0160891711711883,0.8467234319767571,0.069207994961399,-0.2181297037392252,0.4803012525271843,0.2443421185016632,-0.1292257905006408,0.1060069501399993,0.0083847045898437,0.0382943749427795,0.0018166229128837,0.0901248157024383,-0.0493025295436382,-0.0645224487930536,-0.0907283276319503,0.0954659233882092,-0.0029629414588212
128,0.003283,-0.171781,0.775294,0.015763,-0.143288,-0.710375,0.688903,-0.0547922051563858,0.1179223958734422,-0.4117845653682947,4.26933502278924,-0.967863985228911,8.775328930187225,-0.2567278444766998,0.1267018616199493,0.0899626985192298,0.8470464587148951,0.0660511897817114,-0.2195904639080811,0.4795096876958938,0.7166529297828674,-0.1638969033956527,0.2006041705608368,0.0146957635879516,0.0342355966567993,0.0149157121777534,0.0668703690171241,-0.0350522212684154,-0.0593248801499605,-0.096603438258171,0.0789837395396083,-0.0327545608714222
129,0.003627,-0.175088,0.775602,0.014863,-0.144444,-0.709884,0.689188,-0.5207382765620947,-0.2116847484804689,-0.2736398310035467,4.201972966656089,-1.0883667529843748,8.793705713877081,-0.2171166539192199,0.1283448189496994,0.3257622420787811,0.8456631036740232,0.0596122534877191,-0.2192992359353163,0.4829161626363558,0.5759320855140686,-0.2018900364637375,0.1353162378072738,0.0189041495323181,-0.0428554415702819,0.0182446241378784,0.0564625114202499,-0.0311717502772808,-0.052492403781414,-0.0850831642746925,0.0697920232264324,-0.0373921575441956
130,0.003997,-0.183104,0.774869,0.012091,-0.146991,-0.71013,0.68845,0.4465934284210204,0.2511760702610016,-0.7662199345737696,4.1335143474578855,-1.2269627382479606,8.807894398227333,-0.3664333522319793,0.1717427968978881,0.1894489824771881,0.8441863684442585,0.0523292309825984,-0.2195085660286942,0.4862375934151424,0.636505663394928,-0.2540154159069061,0.1767196655273437,0.0110628604888916,-0.0442985296249389,-0.00981080904603,0.0460546538233757,-0.027291277423501,-0.0455570515602827,-0.0735628902912139,0.0606862727302359,-0.0420727165758609
131,0.004606,-0.185464,0.774394,0.009795,-0.147909,-0.710771,0.687627,0.2077627527311444,0.0885764013364911,-0.562215365332365,4.078157494156063,-1.4190043363645672,8.804853130835294,-0.5496793389320374,0.104796677827835,0.1036310121417045,0.8438719763914552,0.0422894385337599,-0.2220113145605692,0.486623671842432,1.0890827178955078,-0.2633505165576935,0.2043843269348144,-0.0098382830619812,0.0387318730354309,0.0107172727584838,0.0358117967844009,-0.0307107977569103,-0.0132698159396648,-0.0717365518212318,0.0590804038695991,-0.0267097277492284
132,0.004115,-0.185631,0.77259,0.007058,-0.150978,-0.710387,0.687391,-0.0535711389288306,0.0586880435511469,-0.5271095651596784,4.049044504657387,-1.634072589803487,8.7809695664227,-0.5819849967956543,0.0842954367399215,0.1619237065315246,0.843424180699874,0.0317534526539806,-0.2264660268043742,0.4861486213710103,1.0118976831436155,-0.2825470268726349,0.2975110113620758,0.0155277252197265,-0.0404993295669555,-0.0248734336346387,0.0255689434707164,-0.0341303199529647,0.0190811325669288,-0.0699102208018302,0.0575176663312129,-0.0113718733638525
133,0.004824,-0.187493,0.771831,0.002599,-0.151036,-0.711403,0.686358,-0.2817386740460991,-0.1087877069771289,-0.3566834403932094,3.989907840555906,-1.8812429315544663,8.758535616296529,-0.5781320929527283,0.0837950929999351,0.2817399203777313,0.842030900161463,0.0194212881336645,-0.2303514425508772,0.4873857808715372,1.0201311111450195,-0.2357268929481506,0.3437860310077667,0.000638723373413,-0.0164170265197753,0.0368534922599792,0.0275138672441244,-0.0045270361006259,-0.0408370373010635,-0.0385544784367084,0.0020981139235664,0.066873395833373
134,0.003615,-0.185141,0.769138,0.00051,-0.150947,-0.712005,0.685758,-0.2110892668053507,0.098929160785675,-0.7662304559677838,3.9779163739889856,-2.1329532548226413,8.706151349064708,-0.658954381942749,-0.1067043170332908,0.3218835592269897,0.8390256005266119,0.0085816728657454,-0.2367195954056838,0.4898225277994714,0.8711032271385193,-0.1637248545885086,0.3896631002426147,-0.0031227469444274,-0.0404432415962219,0.053071029484272,0.0303479377180337,-0.0302419923245906,0.0035264205604791,-0.0307115502655506,0.0692091590042924,0.0273664380922913
135,0.003736,-0.185849,0.768349,-0.002638,-0.150524,-0.71302,0.684791,-0.1953288030937313,0.224754657933861,-0.3576736204743385,4.00136125472337,-2.414700988958031,8.621410288107395,-0.6424683928489685,-0.202706441283226,0.2693887948989868,0.835503297783844,-0.0027729415303186,-0.2458103541505351,0.4914304161827675,0.6617723703384399,-0.1194538623094558,0.4304455518722534,-0.0066921114921569,-0.003415822982788,0.0212106704711914,0.0102395545691251,-0.0219619274139404,-0.0285790287524461,-0.0226895883679389,-0.0148008111994946,-0.0720475836008787
136,0.002727,-0.181265,0.76487,-0.005607,-0.151057,-0.713423,0.684235,-0.3814168996334076,0.2051131150051951,-0.4550526292085647,4.014318643712997,-2.6873016861721872,8.53428613140583,-0.7052260041236877,0.001857018447481,0.4550186991691589,0.831348845773896,-0.0136968180537059,-0.2543322622351706,0.4939499712015297,0.904217004776001,-0.0340221561491489,0.4509394466876983,-0.0180287361145019,0.0040318369865417,0.0118642002344131,-0.0066200830042362,-0.0703957676887512,0.093804072856903,0.0134748853743076,0.0527832673536147,-0.0738347592785954
137,0.002705,-0.181171,0.764052,-0.006982,-0.151503,-0.713373,0.684176,0.462191395047307,0.1315118722215294,-0.0662999798595905,3.935657779452205,-3.02969298184067,8.45588187225461,-0.8086908459663391,0.1333751678466797,0.4684562087059021,0.8264966000921803,-0.0297854328164338,-0.2607351644543379,0.4980294379228139,0.6993333697319031,-0.0456487163901329,0.424140453338623,-0.0275413990020751,0.0065820217132568,-0.0031104683876037,0.0300227031111717,-0.0753518491983413,-0.0082528645604848,0.0176932215690612,0.0851345263874623,0.0148249364271759
138,0.002884,-0.181699,0.76327,-0.008599,-0.152586,-0.713325,0.683967,0.3816340495154261,0.0345844066470861,0.4571551544457674,3.81555109834224,-3.3734482593387365,8.38044172360599,-0.7945964932441711,0.2247382551431656,0.5009923577308655,0.8219831957677607,-0.0472281614105288,-0.2654917788403715,0.5016247089928418,0.1622571051120758,-0.1589004844427108,0.2773564159870147,-0.0323988795280456,-0.015453815460205,0.0002999752759933,0.0666654929518699,-0.0803079381585121,-0.1101876369029283,0.0219115577638149,0.1174623862794134,0.1035100588351488
139,0.003395,-0.179283,0.762047,-0.010137,-0.153787,-0.713152,0.683858,0.7038017645835876,-0.2695537307336926,1.009440661916137,3.666513798563182,-3.748814188370108,8.286944524741171,-0.5753284096717834,0.0602891035377979,0.2577871084213257,0.8170478057511855,-0.066965413762085,-0.2701833377514669,0.5049252528491004,-0.0253479350358247,-0.192421019077301,0.2403707504272461,-0.0118497312068939,0.0045483708381652,0.0005782693624496,0.071489043533802,-0.0489995740354061,-0.1180892038077116,0.0060220342129468,0.1233603765431325,0.0718918085172772
140,0.003426,-0.17892,0.761642,-0.010448,-0.14946,-0.713405,0.684548,0.2713978972956538,-0.0912690014213323,0.9289245251774788,3.670505498547852,-3.890138429553807,8.21976834656894,-0.2168092727661132,-0.0959454774856567,0.0944494977593422,0.8147313607215997,-0.0729372670311253,-0.2749337884017442,0.5052765163743305,0.0434092916548252,-0.1345382183790207,0.3426186442375183,0.0005677938461303,-0.0045247077941894,0.0124848037958145,0.0439011566340923,-0.0086447671055793,-0.0908002148658037,0.0210837312042713,0.1116195876684971,0.0527022471398115
141,0.003424,-0.174827,0.760746,-0.008272,-0.145502,-0.713446,0.685387,-0.0823833919152617,0.0284948576003313,0.2370031680017709,3.680269644454121,-3.94615666937381,8.188641386899352,-0.1517050713300705,-0.1331843435764312,0.1604716628789901,0.813149467140142,-0.0747788175314589,-0.2773150192067817,0.5062532992067056,-0.0435048341751098,-0.1253030747175216,0.2956630885601043,0.0061647593975067,-0.0071504116058349,0.0163013935089111,0.0426709167659282,-0.0047404784709215,-0.0655459466218948,0.0004831310361623,0.0632357243176083,0.0212239898145198
142,0.003248,-0.174372,0.76071,-0.007089,-0.142284,-0.712664,0.686888,0.3159814276486635,0.1668997042059898,-0.0503852023690938,3.712861123718321,-4.045955014209449,8.124979354327916,-0.2287046015262603,-0.1162087321281433,0.0890879333019256,0.8101114679143552,-0.0776201403117005,-0.2823410169756212,0.507915337790334,-0.0920175090432167,-0.1272733807563781,0.3140230178833008,0.0025380551815032,-0.0159711241722106,0.0043087601661682,0.0414406768977642,-0.000836189603433,-0.0402870022028684,-0.0201174691319465,0.0148404536567162,-0.0102609895125031
143,0.003478,-0.173284,0.7557,-0.009561,-0.14242,-0.711047,0.688504,-0.0515837645038962,0.1430941734656691,0.2029214501798152,3.7224934599384665,-4.118815667758882,8.083859408432245,-0.0997993648052215,-0.1306411474943161,0.1356959193944931,0.8082830341172865,-0.0802268203491679,-0.2853095237394342,0.5087638753283265,-0.1159404218196868,-0.0818582251667976,0.2659418284893036,-0.0174298584461212,0.0054737925529479,0.0181818008422851,0.0595513023436069,-0.0085238963365554,-0.0958218424201011,-0.0634478479623794,0.0298947053277399,0.0230523742854595
144,0.003812,-0.173416,0.754807,-0.010378,-0.142151,-0.71112,0.688472,0.1006517467945814,0.0140595050126314,-0.1339537124156951,3.757903503754735,-4.164258445289731,8.044096722364426,-0.092590793967247,-0.1555387526750564,0.1350444257259369,0.8057232620713358,-0.0804223636132197,-0.2887861491658973,0.5108275501088094,-0.0618476197123527,-0.0941028520464897,0.2361256629228592,-0.0175749957561492,0.0309851169586181,-0.0101390331983566,0.0709215328097343,0.000946907326579,-0.0743985306411981,-0.0589272230863571,0.0496367677551228,0.0032531565770506
145,0.004318,-0.17343,0.754555,-0.009938,-0.141199,-0.711553,0.688227,-0.0461672924131155,0.1748836886972188,-0.2377431727141142,3.7701980449214574,-4.229164632703363,8.00438313613534,-0.166002869606018,-0.0676809102296829,0.1906393319368362,0.8031590264429238,-0.0821420338075431,-0.2917922370550432,0.512879564922031,-0.0121905878186225,-0.0869424641132354,0.2209751605987548,-0.00579434633255,0.0020573735237121,-0.0032042860984802,0.0779663324356079,0.0078654959797859,-0.0695318013876676,-0.0382389277219772,0.0474552315981127,-0.027264439022541
146,0.00637,-0.172663,0.748997,-0.010218,-0.140509,-0.711678,0.688235,0.182723880803585,0.0003641571372747,-0.1219043781816959,3.7276056883856654,-4.335964088472724,7.967104668098687,-0.2843663692474365,0.0065332944504916,0.205359861254692,0.8007007385212921,-0.0873529546922905,-0.2935305444022907,0.5148665990627748,-0.0469440408051013,-0.0415349341928958,0.2231835722923278,0.0024479031562805,-0.0225970745086669,0.0283779054880142,0.0832820832729339,0.0030117430724203,-0.0675029259085655,-0.0296157859265804,0.0480134134701453,-0.0342556130841374
147,0.007177,-0.173058,0.748308,-0.010594,-0.141069,-0.711609,0.688186,0.6328627267464995,-0.1477399534448981,0.5330003767639399,3.656798460234701,-4.453017811752855,7.935290895208716,-0.2312107384204864,0.2514452934265136,0.26280477643013,0.7985690999569837,-0.0939549742946522,-0.2942536649070129,0.5165990953331248,-0.0872757509350776,-0.0785815268754959,0.1808281987905502,-0.0014495551586151,-0.0179935693740844,0.016209676861763,0.0913987979292869,0.0016375909326598,-0.0636421588271856,-0.040860217064619,0.0485181115892715,-0.0261924258768558
148,0.007718,-0.172143,0.745409,-0.010969,-0.141864,-0.71193,0.687685,0.7020005603805184,0.0559217937082052,0.6872142023980617,3.5430686206802724,-4.533976723822951,7.941039667993784,-0.0860152468085289,0.1078397035598754,0.1428506523370742,0.7972292549454469,-0.1000667693288991,-0.2917298456374171,0.5189469691299151,-0.0646561905741691,-0.1407121121883392,0.0902498960494995,0.0006501674652099,0.0289033651351928,-0.0026430338621139,0.0980745628476142,0.0026602775324136,-0.0673030194222927,-0.0601681023836135,0.0394068081351229,-0.049280748258531
149,0.009302,-0.173165,0.74393,-0.012592,-0.143526,-0.711869,0.687375,0.3218935743018984,-0.1655743008211255,0.6566098052978515,3.529479071266949,-4.557736661855876,7.933486476135253,0.0197446160018444,-0.0435483455657959,0.0374870635569095,0.7964363505972311,-0.1012026725921123,-0.2919979278966104,0.5197927643960746,0.0298463460057973,-0.138561874628067,0.0838348045945167,0.0086358487606048,0.023486852645874,0.0006923079490661,0.0972849652171135,5.00807072967e-05,-0.0625794980317354,-0.0727386474609375,0.011424841093528,-0.055661096945405
150,0.009538,-0.172702,0.74197,-0.013633,-0.143897,-0.711888,0.687258,0.0411333898991346,-0.1321671212598681,0.5770873557716608,3.5830893731623887,-4.521113442857564,7.930408968386054,0.1926638334989547,-0.3261886537075043,0.0132833644747734,0.7954530904705205,-0.0974808063813297,-0.2935288097491994,0.5211455353602539,0.0115600153803825,-0.1160540133714675,0.089734710752964,0.0035423338413238,-0.0082243680953979,0.0010397583246231,0.0969627499580383,-0.000440958479885,-0.0502899253010749,-0.056335724890232,0.0096155860147438,-0.0491544915303587
151,0.010233,-0.173203,0.741289,-0.014676,-0.143896,-0.711852,0.687274,-0.1427566120743751,-0.1266764148890972,-0.0464157142162323,3.753961195869744,-4.469891497403383,7.880243546247482,0.1254857927560806,-0.7366838455200195,-0.0747459232807159,0.792689237778256,-0.0893479570982511,-0.300393653051384,0.522900122145541,-0.0273940414190292,-0.0914641991257667,0.1411353200674057,0.0070765614509582,-0.0100321173667907,0.0091370940208435,0.0862716734409332,0.0052166883833706,-0.0411170232862234,-0.0436223670840263,-0.009924863168114,-0.0602054623767733
152,0.010724,-0.173968,0.740779,-0.017141,-0.142235,-0.711762,0.687655,-0.7158288869857787,-0.1219055472254753,0.9098439771324396,3.939920697593689,-4.395354435074329,7.831236646494269,0.4126719236373901,-0.3465851545333862,0.2052763253450393,0.7893137860466756,-0.0792869034417425,-0.3072973271823922,0.5256097392262472,-0.1393086016178131,-0.1080853566527366,0.14504936337471,0.0085305273532867,-0.0281388759613037,-0.0036641806364059,0.0755805969238281,0.0108743356540799,-0.031921324917674,-0.0309090055525302,-0.0294214252601843,-0.0713341746345162
153,0.010872,-0.170724,0.740038,-0.010726,-0.136149,-0.709548,0.691296,-0.7486985986694693,-0.0469222024336457,-0.1773755055129528,3.918471959112584,-4.319802350483834,7.883861736744642,0.4035285711288452,-0.0090548563748598,0.5898738503456116,0.7843701212532193,-0.0729259813921718,-0.304494225869866,0.5354704380561888,-0.1132951006293296,-0.1085524186491966,0.1485586017370224,0.0063433051109313,-0.0146681666374206,-0.0131946131587028,0.0648572519421577,0.0106051703914999,-0.0263707050532102,-0.01685082167387,-0.0438622942732181,-0.0291866392567753
154,0.011796,-0.171061,0.739847,-0.002197,-0.13838,-0.707982,0.692537,1.180416529519856,0.3982698347568512,-0.6251356396257877,3.8117934993743896,-4.307701870584488,7.942563516560196,0.1613202095031738,0.1326036602258682,0.313601553440094,0.7800019721279874,-0.0723543631302787,-0.2996778153680473,0.5445685701999442,-0.0100142527371644,-0.0964141562581062,0.1040069833397865,-0.0029049217700958,0.0233656167984008,0.0035852193832397,0.0620076581835746,0.006434550974518,-0.034903555598855,-0.0070731518790125,-0.0415323854543501,0.0063765492945909
155,0.014721,-0.17103,0.738844,-0.004945,-0.136719,-0.712116,0.688603,1.2446990320771931,0.3065601038306951,-0.7449024212568998,3.7222219495207054,-4.308468178781867,7.98451932875812,0.0079802945256233,0.087539367377758,0.0218885652720928,0.7793079522820547,-0.074173837320538,-0.2956367028357897,0.5475182314614543,0.03657828271389,-0.0931386277079582,0.06898795068264,0.0029310286045074,0.0122472047805786,0.0022874474525451,0.0693831816315651,0.002092313952744,-0.0255932909399271,0.0055030491203069,-0.0297148461156524,0.0367749024286866
156,0.015407,-0.171401,0.738566,-0.002872,-0.134278,-0.70848,0.692833,0.620470862685144,0.0046042789250612,-0.9989239440768956,3.773188458909094,-4.335266169336438,7.945999336227774,-0.3253958225250244,-0.1048166304826736,-0.2336808890104293,0.780175293408989,-0.0747965323466454,-0.2987846353391302,0.5444813127025083,0.1334094852209091,-0.0649691000580787,0.0274143405258655,0.0230444371700286,0.0448610782623291,0.0120327547192573,0.0812270939350128,-0.0075646173208951,-0.0194815300613641,0.0095312939956784,-0.005132481217361,0.0213677821993827
157,0.015176,-0.169831,0.737311,-0.000925,-0.13267,-0.70665,0.695013,-0.5190788189172745,-0.2940148027732968,0.2204781496584415,3.830110077309608,-4.401762840811908,7.881949181121588,-0.1918675899505615,-0.0944257751107215,-0.0642274022102356,0.7810412284926409,-0.0773854482542708,-0.3035521665644003,0.5402241904623689,0.1736817955970764,-0.0633075013756752,0.0331249572336673,0.0227039158344268,0.0317475795745849,-0.0006040930747985,0.0818553641438484,-0.0124962460249662,-0.0502121838897466,0.0025876406580209,-0.0164439707300625,-0.0213745042011141
158,0.016544,-0.169448,0.737453,0.00111,-0.129403,-0.708149,0.694103,0.2651537422090769,0.0006914893954992,0.289458162382245,3.85152608256489,-4.428467892386019,7.856513711091876,-0.0436846204102039,-0.0405570603907108,-0.0376843027770519,0.7809029294012799,-0.0782064021027625,-0.3054718527672192,0.5392228973034833,0.0754657611250877,-0.0935050323605537,0.0973625928163528,0.0160372853279113,-0.0322231650352478,-0.0074847340583801,0.0740549266338348,-0.0075854449532926,-0.0717079763829708,-0.0121878692880272,-0.0039875352662056,-0.0308718158647418
159,0.018912,-0.168627,0.737857,0.005231,-0.125105,-0.709941,0.69304,0.1311094289004802,0.0841594616770744,0.0391413392990827,3.867207343560457,-4.440559019935131,7.841971975520253,-0.0650848671793937,-0.0404268205165863,-0.0124251963570714,0.780904087731682,-0.0784781449430402,-0.306613572331902,0.5385332121078394,0.1167900338768959,-0.0443236865103244,0.1324674636125564,-0.0042507052421569,0.0009552240371704,0.016695037484169,0.0662544891238212,-0.0026746438816189,-0.0932043533980846,-0.0269633792340755,0.0084908837005961,-0.0403998149275779
160,0.019538,-0.168666,0.736928,0.004707,-0.124994,-0.708898,0.694131,0.0221560099676251,0.054860886478424,0.2391606382966041,3.886976750652492,-4.4488194832801815,7.827502720662951,0.0244218464940786,-0.0719692930579185,0.0156453195959329,0.7804651976132793,-0.0782045687721562,-0.3078838445597607,0.5384846545898966,0.1624232828617096,-0.0172765180468559,0.1339122951030731,-0.0076200366020202,-0.0095324516296386,0.0094889253377914,0.0582436546683311,0.0038601872511208,-0.0557347467035055,-0.0420548543334007,0.0312777937165927,-0.0351639601007103
161,0.020711,-0.168936,0.73616,0.005693,-0.125804,-0.708346,0.694541,0.0693579061254859,-0.0379942150905728,-0.0664805971235036,3.8882574381127952,-4.439910785159468,7.8319240442365405,0.0344566032290458,0.0299199651926755,0.062457300722599,0.780007131766678,-0.0774440764250536,-0.3077099547626741,0.5393570218223461,0.4245406687259674,0.0055702086538076,0.2471236735582351,0.0147916972637176,0.0098993778228759,-0.0182409733533859,0.0502328164875507,0.0103950183838605,-0.0182318222612142,-0.0571463257074356,0.0541028346527367,-0.029970483110845
162,0.024329,-0.169034,0.73234,0.00787,-0.129158,-0.712209,0.689938,-0.0339797187522053,-0.021898820336163,-0.0373749141484498,3.853479554720223,-4.468426393286884,7.8328955196172,0.0150780342519283,-0.0246620140969753,-0.012863639742136,0.779486149789405,-0.0794577148661822,-0.3071155374656554,0.5401555002541613,4.030632972717285,-0.1127025336027145,0.7531448602676392,-0.0501341819763183,0.081973910331726,0.0977925062179565,0.0275098476558923,0.0254397187381982,-0.0788832931061275,-0.0514513105154037,0.063046357491659,0.0907598189233336
163,0.025059,-0.169138,0.731379,0.009284,-0.130233,-0.710472,0.691508,0.0106105336025357,0.0434746923282742,-0.1409656370043754,3.852583482663333,-4.465714796240627,7.834882309520244,-0.0039108311757445,0.0203658826649189,0.0247532445937395,0.779438145985679,-0.0793086450112317,-0.3069891089711327,0.5403185343384578,1.8496761322021484,0.1460626125335693,0.570238471031189,-0.0667681694030761,-0.029723048210144,0.1259901523590088,0.0520281121134758,0.0312185697257518,-0.0495932939395774,-0.0685519203543663,0.021445071519562,0.0440626939498353
164,0.024302,-0.168036,0.729725,0.006746,-0.127225,-0.709543,0.693049,0.0732455612137913,-0.0057929041877388,-0.069857380080223,3.8390295890852806,-4.477948254869878,7.834552639174461,-0.0255226157605648,0.0371579565107822,0.0224818214774131,0.779299354924037,-0.0801904207100102,-0.3067873662286557,0.5405029758121305,-0.0130526516586542,0.1358030587434768,0.2029711157083511,-0.0408597737550735,-0.1139851808547973,0.1083846092224121,0.03391695022583,0.0145366750657558,-0.0242494751155376,-0.0571511425077915,0.037615481438674,-0.0070677464291453
165,0.024428,-0.167843,0.729213,0.00728,-0.123226,-0.708793,0.694532,0.1601911464780569,0.0635328532338142,-0.1475719034016132,3.815679693157971,-4.4949008509755135,7.83625125978589,-0.033980056643486,0.0401641204953193,0.04523241892457,0.7789381864809439,-0.0814249668620152,-0.3063206540842471,0.5411034130445975,-0.6721184253692627,0.2754305899143219,0.0649188384413719,-0.0260559469461441,-0.0254892110824584,0.0909992456436157,0.0158057939261198,-0.0021452195942401,0.0011515081226825,-0.0457503646612167,0.0538068747803103,-0.0582408843055367
166,0.023514,-0.167622,0.726458,0.00594,-0.122773,-0.709197,0.694212,0.3529737722203135,0.0148345810383558,-0.21986557071805,3.803060742342472,-4.51309058766067,7.831929889455437,-0.0630338937044143,0.0224328618496656,-0.020275305956602,0.7788233083612845,-0.0826141585560272,-0.3063618830595042,0.5410651640842851,-1.9810911417007449,-0.0341058336198329,-0.3418754935264587,-0.0002937763929367,-0.0582018494606018,0.0259975790977478,0.0035905931144952,-0.0148834995925426,0.0080728318184614,-0.0273466743528842,0.0526151351119391,-0.0392991602092981
167,0.023584,-0.168461,0.724211,0.003167,-0.124539,-0.707931,0.695208,0.0617518150359392,-0.125095283177495,0.3287222512781619,3.789321555325389,-4.520254487940669,7.834457946628332,0.0247024539858102,0.0848635584115982,0.0080546904355287,0.7792577688934029,-0.0835601215208205,-0.3058946346784127,0.5405585561214903,-0.1220049709081649,-0.4301585853099823,0.0863723307847976,0.0802801996469497,0.0649417638778686,-0.2050724029541015,0.0073377392254769,-0.0068518575280904,-0.0111567693084478,-0.0222601257264614,0.0361527519423514,-0.061380935896933
168,0.024743,-0.170275,0.722198,0.004555,-0.128277,-0.707338,0.695124,0.3835743699282407,0.1980631964936852,0.0133452192634344,3.7787452162534,-4.5047830703035,7.848464844670891,0.045200165361166,-0.0118268420919775,-0.0525791831314563,0.7796910034307513,-0.0832376457743546,-0.3048133123395709,0.5405943978979891,-0.0541622713208198,-0.3743748068809509,0.0069229137152433,0.0195231586694717,-0.0079106092453002,-0.0280033946037292,0.0110848853364586,0.0011797845363616,-0.0303781871289014,-0.0171735771000385,0.0196978944920934,-0.0834706026300787
169,0.028577,-0.170179,0.71861,0.007606,-0.134211,-0.711693,0.689509,0.5632677969947457,-0.0327633286997675,-0.5192974301040172,3.8194682717859743,-4.490332520146668,7.837025166767835,-0.1012685224413871,-0.0822064280509948,-0.1793588697910308,0.7807728020728412,-0.0821362545432234,-0.3060662435003049,0.5384895996797909,-0.2935564815998077,-0.2927641272544861,0.1394891440868377,0.0166103690862655,-0.0739786028861999,-0.0346587896347045,-0.0023657949641346,0.0012338927481323,-0.0375415028870105,-0.0077484855428338,0.0224099481960758,-0.070467328672111
170,0.029535,-0.170771,0.716668,0.006037,-0.133623,-0.712021,0.6893,-0.2272016126945614,-0.0484115642085671,-0.0201619135409593,3.871924435210228,-4.498476371374726,7.806554040658473,-0.0829269811511039,-0.0438564382493495,-0.0735463351011276,0.7816351267924874,-0.0818495464267617,-0.3086699721168564,0.535789029306327,-0.4904122948646545,-0.1081988140940666,0.1236416772007942,-0.0081819295883178,-0.0461139678955078,0.0345994234085083,-0.0052032498642802,-0.0030753009486943,-0.0369558119535446,-0.0011235903948545,0.0413088560638949,-0.0443503061190247
171,0.027399,-0.170903,0.715404,0.002827,-0.131833,-0.710768,0.690957,-0.4356052936777472,-0.0668333560839295,0.2640133400022983,3.846744108985364,-4.523150501643121,7.804745529931783,-0.0391615554690361,0.0887885242700576,0.0905081927776336,0.7815174756400891,-0.0836701437023898,-0.3083310291939924,0.5358747734813333,-1.845743656158448,-0.1237764358520507,-0.0248302221298217,-0.0012397766113281,-0.123543381690979,0.0102052092552185,0.0093245422467589,-0.0112014142796397,-0.0753062931358814,0.0006895527476444,-0.0100827103361487,0.0076721420630812
172,0.02736,-0.171435,0.711931,0.001156,-0.127019,-0.710382,0.692258,0.7219432782128453,0.1414323777332901,0.2041091986596584,3.834222481064498,-4.524916050010919,7.809882308298349,0.022409813478589,0.0365625955164432,-0.0431934930384159,0.7816987494932406,-0.0841558762809887,-0.3077736360123319,0.535854781540315,0.274723470211029,-0.0714081376791,0.2941001057624817,-0.0203637033700943,0.2511800527572632,-0.1222387552261352,0.0332066491246223,-0.0091855302453041,-0.0505383471041917,0.0025148480199277,-0.0003205737238749,0.0050216275542974
173,0.02735,-0.172006,0.708347,0.0001,-0.128014,-0.71077,0.691678,0.2803305608138441,0.1356312902390956,0.1940349638909101,3.846973826088011,-4.498165990251303,7.819058717444538,0.0833204835653305,-0.0310358218848705,-0.0886140540242195,0.7824412077672492,-0.0828688641822975,-0.3073625003436714,0.5352071953459973,1.2760525941848757,0.1266753226518631,0.3140950798988342,-0.065723180770874,0.0272265672683715,0.1342250704765319,0.045970395207405,-0.0158794149756431,-0.0372375515043735,0.0123592149466276,-0.0005883212819695,-0.0214414319574832
174,0.027751,-0.172754,0.704757,-0.002016,-0.129289,-0.709967,0.692262,-0.0986684640228748,0.0876812060624361,-0.0792640908509492,3.872528830844164,-4.459044524696469,7.828845951965451,0.083325371146202,-0.0288186017423868,-0.0337938666343688,0.7831407269397329,-0.0806107710539324,-0.3071511664089833,0.5346501558537194,0.5345603823661804,0.3705068826675415,0.1003260314464569,-0.0513986200094223,0.0675615668296814,0.0074323117733001,0.0216591265052557,-0.0172356590628623,-0.0307838453203439,0.0183100048452615,0.0201375828173011,0.0200903096094727
175,0.029654,-0.173486,0.701649,-0.000788,-0.131426,-0.711267,0.690526,0.1447279121473431,0.0279629426807165,-0.2862543979048729,3.8778298598617313,-4.446462106499076,7.833376581132412,-0.0147270057350397,0.0040173316374421,-0.017914593219757,0.7833715272459767,-0.0799558648815835,-0.3069462396586063,0.5345278741309563,-0.1813780218362808,0.3178713917732239,0.0087923863902688,-0.0069956630468368,-0.0847340822219848,0.058674931526184,-0.0026521366089582,-0.0185919031500816,-0.0243219558298587,0.0242607928812503,0.0408559611972421,0.0616205898717045
176,0.030362,-0.172762,0.693944,0.004234,-0.137902,-0.708348,0.692249,0.1786146919190883,0.1361976919502019,-0.0059001639544963,3.879407484441996,-4.445760387970507,7.832994303816556,0.012225804850459,-0.0085473200306296,-0.0167033839970827,0.7835601777318887,-0.0799909616093637,-0.306968858904677,0.534233253488151,-0.0642125084996223,0.2405057102441787,-0.2265780568122863,0.0337141454219818,0.0446114540100097,0.046061098575592,-0.0065593966282904,-0.0016828197985887,-0.0164408471912145,0.0372814759612083,0.0472552520466037,0.1267147010728716
177,0.032208,-0.173792,0.688762,0.001197,-0.140357,-0.710061,0.690009,0.2380377717465162,0.0743009154856205,-0.2387298456639051,3.89195979976207,-4.442970464991033,7.828348523837327,-0.0209620036184787,-0.0005339804920367,-0.0231785979121923,0.7836920170623324,-0.0796327499548611,-0.3074474304785587,0.5338177791996619,-0.3105642199516296,-0.3186661005020141,-0.1288747936487198,0.1102076917886734,0.043953537940979,-0.3292257785797119,0.0032635801471769,0.002529437188059,0.0343318931907415,0.0298354178667068,0.0693377583866007,0.1417693546026945
178,0.035358,-0.173984,0.683057,0.00048,-0.141847,-0.712678,0.687,0.2748044908687472,0.2023223152428865,-0.2594084765553474,3.897840382233262,-4.453825913265347,7.819249856102466,-0.0684786438941955,0.0157051160931587,-0.0142250470817089,0.7837000072194303,-0.08007908435835,-0.3080853009341496,0.5333715705213926,-0.9582058191299438,-0.2236520051956176,-0.0496847704052925,-0.0219811201095581,-0.144912302494049,0.0440326631069183,0.0130224358290433,-0.0056771175004541,0.0215372935473918,0.0252201538532972,0.062801853811834,0.1594423739373683
179,0.038229,-0.172955,0.672977,0.004987,-0.142198,-0.711664,0.687961,-0.0586821983322501,0.1413090436145663,0.0854670371443033,3.8742914566025135,-4.476609407481551,7.817942280635237,-0.032847311347723,0.0496344268321991,0.0469467863440513,0.7836627199857348,-0.0818030145059828,-0.3077403771641729,0.5333638432631188,-0.3285677134990692,-0.3797212839126587,0.1824958622455597,0.0443773865699768,-0.0405787229537963,0.0871893167495727,0.022781291976571,-0.0138836726546287,0.008756137907505,0.0206048898398876,0.0562559027670882,0.1771110093578696
180,0.038927,-0.17298,0.667542,0.003916,-0.138605,-0.711374,0.688999,-0.130067226371169,0.1256651920199394,0.234531809452176,3.846317408005893,-4.491341989450157,7.823303515407442,0.0038671009242534,0.0464415550231933,0.084807701408863,0.7833631686528821,-0.0830511890423398,-0.3069609476186713,0.5340597086598349,0.5242438316345215,-0.1061075329780578,0.2296535223722458,-0.0491139590740203,-0.0151624679565429,0.0276383161544799,0.0344818532466888,-0.0141214020550251,-0.0103957218080759,0.0078822774812579,0.0526990140031091,0.1611278428062796
181,0.039083,-0.173733,0.661049,0.000272,-0.137754,-0.710742,0.689833,0.169224932283163,0.2007011437818407,0.0808674343943595,3.832533505064249,-4.492457257215678,7.82942521315813,0.0507092103362083,-0.0371339842677116,0.0663171038031578,0.7826144841627053,-0.0829969589450384,-0.3064668000785154,0.5354477325619903,0.5053127408027649,0.4063107669353485,0.0029651231598109,-0.1211771965026855,0.0322880744934082,0.1199826002120971,0.0397119671106338,-0.008060174062848,0.0032855975419282,0.0013631796464323,0.0457682100929319,0.1288473291873932
182,0.040159,-0.172253,0.649997,-0.0006,-0.137741,-0.710039,0.690558,0.3029603257730603,0.1464145500600338,-0.2317337031662464,3.837512170259654,-4.489496361583471,7.828685208445787,0.0121631138026714,-0.0498178675770759,0.0467426106333732,0.7817971453622532,-0.0822579366317454,-0.3067275275924876,0.5366052077579226,-0.0686117857694625,0.5678386092185974,-0.0047413990832865,-0.0580707639455795,-0.0003407001495361,0.1003061532974243,0.0420937426388263,-0.0185638628900051,0.0321744228959083,-0.0082535678520798,0.0819510283799841,0.1008563294559717
183,0.04056,-0.172614,0.643908,-0.001456,-0.135963,-0.71035,0.69059,0.0840460644304752,0.0865726602986454,-0.192358555111289,3.8373566874369978,-4.503725085683167,7.8205843195766205,-0.0320853069424629,-0.0435178950428962,0.0627969428896904,0.7809931483980476,-0.0825551389273866,-0.3073203686515692,0.5373906001982832,-0.1996363848447799,0.3978529870510101,-0.2210353463888168,0.0322388708591461,-0.0581942796707153,-0.0574339032173156,0.0408776849508285,-0.020062843337655,0.0079962594509124,-0.0029701245948672,0.0413493707373738,0.1153273378789424
184,0.040592,-0.173625,0.6369,-0.004092,-0.134744,-0.710665,0.690494,0.4219833032995462,0.118968616990745,-0.4368149617284536,3.872615924605727,-4.512029388169944,7.798386516293883,-0.0302834250032901,-0.1293539106845855,-0.0402263812720775,0.7799270319808098,-0.0815692033329444,-0.3094178734151275,0.5378856893469102,-0.1326403170824051,-0.2867147624492645,0.0479162186384201,0.1713533103466034,0.0584216117858886,-0.4850473999977112,0.0311383605003356,-0.0134449703618884,0.0294306771457195,0.0097629334777593,0.0837823537266813,0.1235182431191205
185,0.039095,-0.171789,0.622817,-0.008884,-0.131227,-0.710424,0.691374,0.1491717398136854,-0.1616556660726666,-0.4475421074479818,3.877576177361608,-4.545943348209559,7.776193389186263,-0.1788149923086166,0.1745128035545349,0.0886664539575576,0.7794007873337174,-0.0829524868670088,-0.3108751388847033,0.5375964586974636,-0.0428390428423881,-0.1285527646541595,0.035252422094345,-0.0595667958259582,-0.075480580329895,0.1819496750831604,0.0326461941003799,-0.0146438647061586,0.0182125330388546,0.0017372565343976,0.1236821284439414,0.1192854278549551
186,0.037316,-0.171676,0.615457,-0.010225,-0.126043,-0.710556,0.692184,0.0519438299879431,0.1941641432285308,0.4199579349517822,3.7961367882981896,-4.614758233499527,7.77584326057434,-0.1085510775446891,0.1129397451877594,0.0515442825853824,0.7794092571003505,-0.0885031261085527,-0.3093695792488049,0.5375675142601762,-0.4075410962104797,-0.0123386969789862,0.5217569470405579,0.1041715294122695,-0.1539749503135681,0.0955435931682586,0.0354651622474193,3.78703698515e-05,-0.0090852237313985,-0.019073411822319,0.0912954875694587,0.1172998069956898
187,0.034413,-0.170448,0.609125,-0.01098,-0.121545,-0.709933,0.693615,-0.0516182512953877,0.0995104678049683,0.4806359832763671,3.784777482154965,-4.623952762824296,7.77591866389811,0.022548483684659,0.1019682735204696,0.0666266605257988,0.7794244639471336,-0.089265574201905,-0.3091442296676888,0.5375491348818783,0.217080682516098,-0.2074027359485626,0.5796815156936646,-0.0748013854026794,0.0744861364364624,-0.107465386390686,0.0400331206619739,0.0147328274324536,-0.0107873514741659,-0.0425466895103454,0.0605761862521525,0.1139738774433732
188,0.031738,-0.170385,0.600337,-0.013551,-0.118254,-0.710024,0.694045,0.1951809190556407,0.309395034995675,0.0746077894777059,3.742233640936017,-4.627487366691232,7.794384879437088,0.0292109940201044,0.0184634886682033,0.0735736042261123,0.77898131928179,-0.0901889028407901,-0.3073482108622735,0.5390652111055092,0.696056604385376,0.4244799017906189,0.132836103439331,-0.1253108084201812,0.0783531665802002,0.0996898412704467,0.0427521951496601,0.0244761239737272,-0.0124742816478013,-0.0524097271263599,0.027975272439327,0.1282455639019608
189,0.025176,-0.169803,0.580949,-0.018438,-0.114683,-0.708252,0.696338,0.5052478619635105,0.2623889536708593,-0.0436357281088829,3.727850310796499,-4.624923653683066,7.80279439586401,0.0465444400906562,-0.0123647004365921,0.0616357177495956,0.7783199515979716,-0.0900130112154787,-0.3067015967237071,0.5404163474907893,-0.0238786675035953,0.5393593311309814,0.0136143723502755,-0.1096131056547164,0.041109561920166,0.1194226145744323,0.0311709288507699,0.0312377698719501,0.0333159941464662,-0.0558840334415435,0.0241233645178377,0.0860235019832849
190,0.021823,-0.171002,0.568305,-0.023541,-0.116295,-0.707112,0.697076,0.5882347727298736,0.1670674619883299,-0.4107143057882785,3.724620242834091,-4.634049501685798,7.798921353822946,-0.0766616761684417,0.0026298160664737,0.0318170934915542,0.7777550360173174,-0.0902533947031821,-0.3069527713312932,0.5410465320276735,0.1667179018259048,0.5545994639396667,-0.6235744953155518,0.0045918822288513,0.0665127635002136,-0.0613297820091247,0.0131775103509426,0.018894400447607,0.060064300340414,-0.0427044034004211,0.0246068554521538,0.1001452585771679
191,0.018023,-0.172785,0.553982,-0.029148,-0.119699,-0.705628,0.697791,0.4435401783302426,0.1708116169527173,0.1192155774891376,3.725812375228106,-4.658293716104328,7.783894465082883,-0.0221812836825847,-0.0597967021167278,0.006399446632713,0.7773302389935574,-0.0912739013707559,-0.3078975795252319,0.5409491137880801,0.2536467015743255,-0.0299808084964752,-0.1892381310462951,0.1157533824443817,-0.1312258243560791,-0.1478732824325561,0.0089149437844753,0.0105591071769595,0.0697106650859117,-0.0190959218889474,0.0574829786103218,0.1614677422851324
192,0.008397,-0.175121,0.523221,-0.039156,-0.114987,-0.706956,0.696749,0.4348173581704497,0.1873933339193463,-0.1904921767175197,3.744261639632284,-4.658564934261143,7.77487412328124,-0.0289599858224391,0.0017586119938641,-0.0229897759854793,0.7769828034756365,-0.090657218574133,-0.3088252143683704,0.5410232225294895,0.4508566856384277,0.0812065973877906,-0.2397614419460296,0.0453529208898544,-0.1761988997459411,-0.0706439018249511,0.0150164440274238,-0.0021460438147187,0.0652308893233537,0.0004613529890775,0.0526317939857952,0.1436377788230776
193,0.002795,-0.174206,0.509118,-0.031667,-0.106101,-0.706887,0.698606,-0.0323515330284833,0.305709916742146,0.1149544129133224,3.723013392159343,-4.674379758508503,7.775585486420988,-0.0369926169514656,0.0064641823992133,0.0249013155698776,0.7773387871243915,-0.0922021344549676,-0.3083086483117879,0.5405451439055506,0.2677641212940216,0.0692847445607185,-0.042436446994543,0.0505403578281402,-0.1882809400558471,0.0527468919754028,0.006279376335442,-0.00396947003901,0.0204337162196636,0.0214566942304372,0.0118095341287553,0.1689484534293413
194,-0.002205,-0.171581,0.49273,-0.027542,-0.094724,-0.710128,0.697128,0.3529667579576372,0.3919546602606773,-0.1144768585294485,3.761917707832157,-4.676977081525325,7.7552721817106,-0.0283911135047674,-0.1848659813404083,-0.0666432529687881,0.777030096787923,-0.0912542968372122,-0.3102640997275964,0.5400306906763281,1.2498841285705566,0.1091484799981117,0.0953940525650978,0.0174927711486816,0.0915331244468689,0.0698339939117431,0.003783909138292,-0.0165606401860713,0.0430202265590429,0.0162535645067691,0.0255376700288616,0.1870788611426949
195,-0.015613,-0.169646,0.453755,-0.016514,-0.08255,-0.70808,0.701096,0.6950704688563942,0.3797741008624434,-0.0208440505862236,3.8169524895727633,-4.675420791994035,7.72927557066679,-0.0247233733534812,-0.0415610820055007,-0.0856746509671211,0.7767367282871208,-0.0897229535572938,-0.3128360701754644,0.5392249304716574,1.6785523891448977,0.150554671883583,0.1936414688825607,0.0129313617944717,-0.0532825589179992,-0.0332087278366088,0.0012884417083114,-0.0291518103331327,0.0656336249053478,0.0110504366457462,0.0392632669120095,0.205195240330696
196,-0.022376,-0.169182,0.43036,-0.014016,-0.079874,-0.70719,0.702357,1.837748511612416,0.9380693701416254,-0.4838356561005115,3.903248086495697,-4.647286292138696,7.703101264968514,-0.0850959718227386,-0.2387143820524215,-0.4857896268367767,0.7787475540538674,-0.0874111150383964,-0.3156111893539011,0.5350712078392089,3.0054714679718018,0.2729403376579284,0.5090824365615845,-0.0268355906009674,-0.0772072076797485,0.0804868340492248,0.0309830848127603,-0.0395728312432765,0.0923491978734731,0.0019112881273031,0.0158552293229848,0.2544169518783688
197,-0.028684,-0.167415,0.406462,-0.007649,-0.080548,-0.706529,0.703044,0.5142550520226359,0.4410574216037988,-0.1024602575212717,4.077823732157051,-4.607267585483193,7.636414331617951,-0.1666869670152664,-0.2218678295612335,-0.5198221802711487,0.7825651098444755,-0.0836737279164393,-0.3219471037156613,0.526251476447561,3.989317417144776,-0.1065002456307411,0.6504086256027222,0.0337549895048141,0.0796761512756347,0.0345575213432312,0.0580230876803398,-0.0414945147931575,0.1113514199852943,0.0098935896530747,-0.0378333254404366,0.2822998150601983
198,-0.040835,-0.165123,0.354674,-0.0067,-0.084227,-0.707344,0.701802,-0.1864230275824666,0.3288219122603535,0.3057300827473402,4.2023970372870565,-4.582720004203916,7.5834636626750225,-0.1620898246765136,-0.1130842864513397,-0.374697208404541,0.7860178836435651,-0.0818411782656967,-0.3265776882999792,0.5184832408533951,3.3937017917633057,-0.1966054737567901,0.5144771933555603,-0.019349455833435,0.0945184826850891,-0.1054314374923706,0.0729318633675575,-0.0390824526548385,0.1145493392437696,-0.0022349264472723,-0.0707755361047573,0.2491273210376501
199,-0.046688,-0.163776,0.332666,-0.001108,-0.079953,-0.70912,0.700539,-0.5575967656210065,0.1228530572086572,0.53210488922894,4.308412941463291,-4.57083082896769,7.530967167240381,-0.1204137355089187,-0.1894065588712692,-0.2682487964630127,0.7881879475444291,-0.0804201403876271,-0.330998709197186,0.5125739725374203,2.7843337059021,-0.0341662839055061,0.3991183638572693,-0.0137763917446136,0.0008157789707183,0.0990722775459289,0.1007141396403312,-0.059653028845787,0.0808762022227048,-0.013146842829883,-0.070263202668447,0.3305170257404446
200,-0.052818,-0.162692,0.312698,0.008473,-0.075335,-0.708723,0.701402,-0.796139272019267,0.0798106188178062,0.8307482285857201,4.387142194785177,-4.559810837781429,7.4920952925324436,0.0189843755215406,-0.1113112494349479,-0.0433579012751579,0.7886882979241848,-0.0785851147615569,-0.3344156572546751,0.5098639568941477,2.0996203422546387,-0.2457149624824524,0.1639325618743896,0.0598009675741195,-0.0314407348632812,0.0202937722206115,0.1349884271621704,-0.0745713114738464,0.062988663354516,-0.0221907496452331,-0.0800974364025518,0.3494359534829854
201,-0.057464,-0.1635,0.291083,0.0138,-0.074203,-0.707885,0.702284,-0.6405450979426502,0.2115440248355269,0.6992968543797731,4.408120393145084,-4.53472374279797,7.495007380586862,0.2159086465835571,-0.1431739330291748,0.1414044797420501,0.7837023405151111,-0.0735224633232273,-0.3353437141153066,0.5176385514230492,0.9987930059432985,0.0390036925673484,0.1037838757038116,0.0173476338386535,-0.1167893707752227,0.0235660076141357,0.1431061774492263,-0.0774539709091186,0.143301386475563,-0.0276851393282413,-0.0759936543455347,0.3597039572581648
202,-0.064515,-0.166796,0.244769,0.009168,-0.08709,-0.706949,0.701823,0.0797676564589142,0.5371650952279567,0.2558744572103023,4.439287977086007,-4.483407689319551,7.507473478928208,0.2591918110847473,-0.2144089192152023,0.1069351062178611,0.7734993544698873,-0.06354192936327,-0.336433949902838,0.5333603710790037,1.358938455581665,0.0811743661761283,0.0993021726608276,0.0401258468627929,-0.0336533188819885,0.0648859143257141,0.1512239128351211,-0.0803366303443908,0.2236041727244853,-0.0331795290112495,-0.07187613602411,0.3699509182453155
203,-0.068009,-0.168036,0.22117,0.009388,-0.093925,-0.706763,0.701125,0.5053665199071169,0.635340222775936,0.1008843865066766,4.491930602993071,-4.426408914029598,7.509983415922522,0.1741724163293838,-0.1616534292697906,-0.0312550775706768,0.7664342929056858,-0.0549079217316014,-0.3377610686793385,0.5435817011537506,0.7804282307624817,0.0673771202564239,0.1055321097373962,0.0164944976568222,-0.1341703087091446,-0.0280108451843261,0.1528297364711761,-0.0729857608675956,0.2424661095827817,-0.023722942918539,-0.0990801866289228,0.465641535501182
204,-0.071149,-0.168453,0.198644,0.014065,-0.097246,-0.705732,0.701632,0.3134115771606564,0.6674211221694946,0.1302414138942957,4.549062357012927,-4.355089936964213,7.517287016934156,0.2407665848731994,-0.1907371580600738,-0.0829085111618042,0.7588544526703422,-0.0451774585333077,-0.3386502788417928,0.5544500967388193,0.949722170829773,-0.0111918337643146,0.1114300861954689,0.0129628479480743,-0.0104848146438598,-0.0025460720062255,0.1778226196765899,-0.0549565553665161,0.200049694135785,-0.0354770869016647,-0.1054509820361621,0.5197568643093109
205,-0.074802,-0.17187,0.147826,0.009481,-0.110155,-0.703984,0.701558,0.750875650447607,0.939022725343704,-0.1083797106981277,4.669596908146143,-4.251400722169876,7.502722485008835,0.1844366192817688,-0.3824951648712158,-0.3318608701229095,0.7537972292410006,-0.033895561029673,-0.3410552907554788,0.5606443735975631,1.014485478401184,-0.1308479309082031,0.2296591252088546,-0.0087352991104125,-0.0786725282669067,0.0061089992523193,0.1941076219081878,-0.0480073355138301,0.1744838757246732,-0.0644417032599449,-0.1380858985832892,0.5295695255324244
206,-0.076899,-0.176366,0.119229,0.000123,-0.124872,-0.700549,0.702594,0.6321107393354177,0.699970223596692,0.2527729840636253,4.858242287953198,-4.111857226923108,7.460596576941013,0.2063047289848327,-0.4225932657718658,-0.5612971782684326,0.7514443105173491,-0.0208517470378355,-0.3452254975963044,0.561886220030101,0.6903190612792969,-0.0565587803721427,0.1846647411584854,-0.0219582468271255,-0.0827518701553344,0.0987420678138732,0.196712851524353,-0.0676579549908638,0.1638087524533271,-0.0864964723587036,-0.1490625803507864,0.5267524222850799
207,-0.078864,-0.182057,0.089196,-0.010649,-0.141211,-0.696258,0.703684,0.1102215391725301,0.7718728457689285,0.5826309613734484,5.1188639396905895,-3.903787600199878,7.397841137820482,0.4091920852661133,-0.6952053904533386,-0.5732214450836182,0.753920317279095,-0.0057341798426878,-0.3504028832324991,0.5556879697049784,-0.0431306585669517,-0.0343690030276775,0.2403540313243866,-0.0106692314147949,-0.1099547520279884,-0.0334975719451904,0.176993265748024,-0.0691174268722534,0.119119715899229,-0.0700523182749748,-0.1994762781620025,0.5455865943536162
208,-0.081275,-0.191392,0.025661,-0.034062,-0.160303,-0.69534,0.699746,0.2117792948961258,0.681353785932064,0.3882166427761316,5.421477936244011,-3.6639302118107673,7.304353291305899,0.412189781665802,-0.7287908792495728,-0.5833709836006165,0.7550518246638835,0.0125325629691718,-0.3569657595968876,0.5498319882575229,-0.6402933597564697,-0.1294860392808914,0.4108529984951019,-0.0208158940076828,-0.1436913013458252,0.0208622217178344,0.1623469144105911,-0.0817084312438964,0.1760772823959588,-0.0172903984785079,-0.1742092235017567,0.5608475841104984
209,-0.082802,-0.194312,-0.003591,-0.034721,-0.155142,-0.696496,0.699727,0.6652063687294721,0.9169163997367024,0.8450877195835113,5.719231633284688,-3.3639401340201496,7.221127311086654,0.686004638671875,-0.6784863471984863,-0.7354280352592468,0.756770549410028,0.0330694203015139,-0.3615679311667738,0.5435746920089338,-1.1239495277404783,-0.0581189692020416,0.609370231628418,-0.0253016203641891,-0.206074833869934,0.0178569555282592,0.147700548171997,-0.0942994356155395,0.2330295881956815,0.0354715250432491,-0.1490130055880174,0.5760761329025029
210,-0.086462,-0.192432,-0.035934,-0.033612,-0.142048,-0.696106,0.702943,0.1422165138483047,0.7603463663652539,0.6282452960789203,5.992027414679527,-2.9413144411638377,7.184334580740332,0.9280382990837096,-0.5309675335884094,-0.8928927779197693,0.7606726477440926,0.0574701150900325,-0.3611067318628277,0.5363545543383627,-1.204511284828186,0.1345005482435226,0.4056135714054107,-0.0534685850143432,-0.1916597932577133,0.0990254878997802,0.1012820526957511,-0.0904367789626121,0.2743342430084943,0.1186441779136657,-0.2244100092146545,0.5450394818648696
211,-0.089758,-0.191363,-0.069315,-0.036671,-0.12901,-0.694947,0.706442,0.2297492513507604,0.683985303479433,-0.2745838338553905,6.268413329520821,-2.466169164258241,7.127088844951987,0.801362156867981,-0.5305718183517456,-0.9379249811172484,0.7646801789210623,0.084037221665228,-0.3599407669623996,0.5278680553782976,-1.5048497915267944,0.2393930256366729,0.1875383704900741,-0.099724642932415,-0.0934319198131561,-0.0672682523727417,0.0003644824028015,-0.0792923718690872,0.3719032213568687,0.2301389127969741,-0.301097070918139,0.4989905551344156
212,-0.091643,-0.182031,-0.144931,-0.040445,-0.121064,-0.700691,0.701955,0.8958177898675203,0.7827959524519741,-0.2283873153477907,6.4014101796031,-2.000247496641427,7.154812718179821,0.7577718496322632,0.3524947464466095,-1.038180947303772,0.7722899881048666,0.1044364273805972,-0.352560793602891,0.51803675309316,-0.886979341506958,0.1253410279750824,-0.0615416318178176,-0.10874804854393,0.0198293030261993,-0.1009394526481628,-0.0821447819471359,-0.0549189932644367,0.2641185539424419,0.3635109066963196,-0.3485280448578298,0.5215329340711236
213,-0.090145,-0.17584,-0.181945,-0.040811,-0.124452,-0.706423,0.695566,0.7906120330303907,0.6085727734901011,-0.667461454179883,6.309542627766728,-1.565953870084137,7.342196407487988,0.3129522502422333,0.4920173287391662,-1.0156874656677246,0.7856718754956216,0.1148023257334375,-0.335369346745776,0.5070182783504696,-1.3604904413223269,-0.014463260769844,-0.2821709513664245,-0.1613554507493972,-0.2203921377658844,-0.0520239472389221,-0.1283367425203323,-0.0482956320047378,0.4462310248494148,0.478222131729126,-0.3281803264211863,0.5047364053100347
214,-0.090185,-0.169687,-0.216175,-0.041925,-0.120964,-0.710269,0.692191,-0.2594312729090452,1.2049315237037836,-0.4031424092292785,6.40429947130382,-1.3451418122962115,7.30382955969274,-0.1078292205929756,-0.7168664336204529,-0.703604519367218,0.7932457351973538,0.1222038640312084,-0.3356702732956091,0.4931054501544514,-0.3377135396003723,-0.2740131318569183,-0.3533138930797577,-0.1124854832887649,-0.0229703485965728,-0.1404390335083007,-0.1774843484163284,-0.0282920282334089,0.5736264016628265,0.564211905002594,-0.2710247896669432,0.4179077244237065
215,-0.100572,-0.159961,-0.280587,-0.051856,-0.089879,-0.70978,0.696738,0.0053530514657497,0.3119234574947506,1.2820727771818636,6.716218471819162,-1.1376236819759011,7.054687041085958,0.5295041799545288,-1.1548938751220703,-0.5436832308769226,0.7918934427612673,0.1386734141595751,-0.3479666092059778,0.4822797082201422,0.0701330453157424,-0.3457647562026977,-0.0523386150598526,-0.0363176614046096,-0.1880660355091095,-0.195816695690155,-0.2403722107410431,-0.0315242484211921,0.8103104207128285,0.6130284070968628,-0.0698854188646189,0.3092465664356947
216,-0.10747,-0.158344,-0.311554,-0.062023,-0.079066,-0.707095,0.699941,0.8593792797863483,0.3540764727652072,0.6380524043440818,7.071862047770619,-0.7697696629445999,6.750303696772456,0.8236393928527832,-1.1539263725280762,-0.6591890454292297,0.7867307444773624,0.1661265461360613,-0.3580953147830643,0.4745780977320105,-0.0176444742828607,-0.2054402530193328,-0.192233070731163,-0.0450991988182067,-0.03746297955513,-0.0826678276062011,-0.2259458303451538,-0.0996202677488327,0.4585808033347129,0.6418565511703491,0.2375163234219886,0.2516428109899163
