time_imu,phone_acc_x,phone_acc_y,phone_acc_z,phone_gravity_x,phone_gravity_y,phone_gravity_z,phone_gyro_x,phone_gyro_y,phone_gyro_z,phone_ori_w,phone_ori_x,phone_ori_y,phone_ori_z,watch_gyro_x,watch_gyro_y,watch_gyro_z,watch_acc_x,watch_acc_y,watch_acc_z,headphone_gyro_x,headphone_gyro_y,headphone_gyro_z,headphone_acc_x,headphone_acc_y,headphone_acc_z,frame_imu
1733293524378046700,-0.1050903137639164,10.2150110206604,-1.5152227768868207,-0.8605212163630872,9.766846397399902,0.1964665749520063,-1.0564072132110596,-0.1076908111572265,-0.988522469997406,0.3593219821015177,0.2977422748822414,0.6335081140197354,0.6171747718543615,-0.9902361631393432,0.5101932287216187,0.4240156710147857,-0.0595561265945434,0.0130586922168731,0.0467566847801208,-0.1003734096884727,0.0111790653318166,0.0059703065812587,0.2558520138263702,0.0914942615445703,0.0567541528791189,0
1733293524418046700,2.786608155837655,4.341110219189525,-0.4044300378870218,-1.333627461721748,9.696843471369148,0.6025502617975697,-0.8597553968429565,-0.5299252867698669,-1.4087342023849487,0.3852761075994104,0.2796940738355777,0.6253396764549516,0.6182911199713244,-0.7778290510177612,0.4527011811733246,0.3171404600143432,-0.0037039518356323,0.0931133925914764,0.0128697752952575,-0.0904753878712654,0.0120607623830437,-0.0230529588073492,0.2697944045066833,0.1234957390263676,0.0516579987838864,1
1733293524458046700,3.305441475561261,-2.7226182064861058,-1.3357253107838332,-1.856351359143108,9.584401333537697,0.929309652037546,-0.7632670402526855,-0.2332073897123336,-1.316633939743042,0.4114966589781724,0.2610435681258386,0.6200601991147258,0.6148595008618739,-0.7698484063148499,0.5730517506599426,0.2784686684608459,-0.0302359461784362,0.003800481557846,-0.0472251176834106,-0.1018679067492485,0.0085217971354722,0.0096808515369892,0.31037637591362,0.1558851929124444,0.0861088421791791,2
1733293524498047000,2.88005391677618,-8.599442201927303,-1.3892097943425177,-2.3208583376564085,9.446241401603816,1.2460061691530049,-0.7326101660728455,-0.189575120806694,-1.1767396926879885,0.433911116027021,0.2422156254999942,0.6146567793429227,0.6125763683576047,-0.5568759441375732,0.1752922385931015,0.1094504669308662,0.0741637349128723,0.0425468683242797,-0.101018875837326,-0.1168027222156524,0.0052007967606186,-0.030112229669094,0.3541272282600403,0.1263355655621737,0.1040901968106627,3
1733293524538046700,0.8879042402639985,-11.80168166168928,-0.6365342548660934,-2.664402164360881,9.319344037440418,1.4903661296583712,-0.5033848285675049,0.1504102349281311,-0.5741207599639893,0.4484867463013041,0.2255752794600168,0.6108422608820598,0.6122477351537706,-0.6526684761047363,-0.0089421104639768,0.0739398822188377,0.0372678041458129,0.017475426197052,-0.1034484803676605,-0.1641854643821716,0.022872544825077,-0.0358686012387275,0.3882089257240295,0.0738256991893053,0.0276885096535086,4
1733293524578046700,0.3952946183383464,-12.077711602699756,0.0916879574857652,-2.734728623257577,9.29145883617103,1.5363691714204848,0.0656177699565887,0.3460150957107544,0.2290223389863968,0.4474993725485173,0.2183186386962328,0.6115586195996096,0.6148799192397268,-0.3404706418514251,-0.2325994372367859,0.1873439401388168,0.0410783886909484,0.0860221087932586,-0.0978447198867797,-0.2291936576366424,0.0348434001207351,-0.0636497576117515,0.3638568222522735,0.0552138646345585,0.0373074018701911,5
1733293524618046700,0.3490855326101184,-9.985001657068729,0.2153606605142355,-2.5695582270622253,9.35891850745976,1.4065611805073917,0.463169515132904,0.260135293006897,0.7167232632637024,0.436941782608749,0.223277756481909,0.6151685775141724,0.6170872038875895,-0.2096391320228576,-0.2166161090135574,0.1513435840606689,-0.0321775674819946,0.0071204304695129,-0.036980390548706,-0.2664957046508789,0.0192087981849908,0.0097796357363462,0.3599770367145538,0.0761123488217592,0.1139300383016467,6
1733293524658046700,0.0689559011958539,-5.732758638855815,0.7549784095913171,-2.218500517596304,9.487465392395851,1.1120501917149872,0.959658980369568,0.3274631798267364,1.2356280088424685,0.4178870181846159,0.2375185790986569,0.6220017226438036,0.6181175459595136,-0.0801392048597335,-0.2200726866722107,0.1164939329028129,0.0078286528587341,0.0596170127391815,-0.0064501762390136,-0.2672486007213592,-0.0115034971386194,0.0014969605594873,0.3337912559509277,0.0627097002826631,0.1688289187029004,7
1733293524698046700,0.3007528788566589,0.8231056048780679,-0.3767249424248933,-1.675323906993866,9.637461308073997,0.6950039064262062,0.9818912148475648,0.3697545528411865,1.5433951616287231,0.3912643858945464,0.2604228618723391,0.629876652123814,0.6183426105805124,0.0444298908114433,-0.1324863731861114,0.0521016269922256,-0.0319288969039917,0.0512075722217559,0.0260247588157653,-0.2478723675012588,-0.0084303384646773,0.0204576816171407,0.3021722733974457,0.0555956304937601,0.2099400967702269,8
1733293524738047000,1.4523860892236231,4.515921427172422,-0.0596954670280218,-1.0416307938378304,9.748432788830996,0.2311802157356403,0.938755750656128,0.1542412787675857,0.997497260570526,0.3594360273123391,0.2848869730065068,0.6380066630516765,0.6185407113603523,-0.0046289982274174,-0.0556730777025222,-0.0347874648869037,-0.0185598731040954,0.0177419781684875,0.0175071358680725,-0.201931431889534,-0.0168912783265113,0.0017477204501628,0.2407881617546081,0.0493487719934433,0.2202773663893341,9
1733293524778046700,0.0686898706708103,6.413358391550183,0.0094400467847473,-0.74250770814009,9.776831200319528,-0.1806255020185373,1.0950212478637695,0.0005297733005136,0.6200945377349854,0.3431116519360786,0.30137347772478,0.6468256063431577,0.6107904627088552,0.0183008182793855,0.0132714211940765,-0.0305652935057878,-0.0213866233825683,0.0391001105308532,0.0007312297821044,-0.1617027223110199,-0.0044444687664508,-0.0056306993633508,0.1992252320051193,-0.0017900252219289,0.2115001856938004,10
1733293524818046700,0.2820532929532229,4.52981843509972,-1.0273580114006995,-0.5440686640713364,9.774189745900037,-0.5827426781196147,0.9333765506744384,-0.0806918740272522,0.3733088970184326,0.3310366125117462,0.3153603735786751,0.6559416460756117,0.6005856598442955,0.0529884919524192,0.0301422271877527,-0.0461707487702369,-0.0039498209953308,0.0144660472869873,-0.0127515792846679,-0.1171359419822692,0.0111091528087854,0.0047036476463079,0.1836913079023361,-0.019189342181757,0.2532674895823001,11
1733293524858046700,-0.3034615167608484,3.2192472931861875,-1.9125977086305617,-0.4378434279933572,9.763162740451095,-0.8120037075620145,0.245920792222023,-0.0191651545464992,0.2257997691631317,0.3248032799028973,0.3236291322233772,0.660806214580224,0.5942240811381271,0.0766248404979705,-0.0144467055797576,-0.0717155262827873,0.0026279687881469,-0.0009937286376953,-0.0132935941219329,-0.09083953499794,0.0252001918852329,0.0203752640306949,0.1379322856664657,-0.0212505855605006,0.2048760913789272,12
1733293524898046700,-0.146062192958407,1.3642542167842386,-1.1184931573092938,-0.3664467095166444,9.76399509962201,-0.8369714139495045,-0.0874318480491638,0.021023329347372,0.1232876777648925,0.3220898746708403,0.3263197341109929,0.6604461353659201,0.5946297757366567,0.0282165668904781,-0.0571744590997695,-0.0825025960803031,0.0122246742248535,-0.0073555409908294,-0.0047500729560852,-0.0627572685480117,0.0099045988172292,0.0271516262978315,0.0848625153303146,0.0098787852618843,0.2635369546622038,13
1733293524938046700,-0.0989651088818907,0.2091694046586751,-0.4554067764084786,-0.3334873102555051,9.772256147488951,-0.749773899750784,-0.3271471560001373,0.0512177981436252,0.0729059427976608,0.3221690646409433,0.3255856899220401,0.657435768678057,0.5983135963167584,0.0244860090315341,-0.1755907982587814,-0.1099684387445449,-0.0004922747611999,-0.0174698233604431,0.0358549952507019,-0.0418545082211494,-0.0012086238712072,0.0488496633648872,0.0648684650659561,0.0249696060836315,0.2293269342854619,14
1733293524978046700,0.1485560738670639,-0.4631394895523786,0.5676069221775979,-0.2966975755838677,9.781672795131804,-0.6334479792885482,-0.2382930666208267,0.0652843862771987,0.1194918379187583,0.3223362037477015,0.324208520840574,0.6535944421343549,0.6031605357838117,-0.1090499460697174,-0.3662979006767273,-0.2463689595460891,0.0067922472953796,-0.021022617816925,0.0578857660293579,-0.0221184361726045,-0.0169081930071115,0.0276700972139835,0.0403556153178215,0.0494605618048459,0.1867772478476166,15
1733293525018047000,0.3165134156335145,-0.4243085313767194,0.9544680586915464,-0.242592695104517,9.786536017253994,-0.579027530054003,-0.0527199432253837,0.1345272660255432,0.1509848237037658,0.3203814296645716,0.3238421228549068,0.6516505711027465,0.6064929258090822,-0.0351325795054435,-0.3744853138923645,-0.1916157603263855,0.0215423703193664,0.0124667882919311,-0.0516947507858276,-0.0063927415758371,-0.0101025477051734,0.0091851769745349,0.0432123318314552,0.0332140681419521,0.2004120977073907,16
1733293525058046700,0.1585022800756618,1.036428622084856,0.865625407634303,-0.1800502959464676,9.78760803039968,-0.5837077237594872,0.0251209624111652,0.1956413388252258,0.1420375406742096,0.3163804335202045,0.3238733855518846,0.6518181042420877,0.6083935672691443,0.0283907353878021,-0.2790908813476562,-0.1295004487037658,-0.0063177347183227,-0.0145653188228607,-0.0191771984100341,0.0070846937596797,-0.0158751755952835,0.0467711035251617,0.0483377166092395,0.0615500088535249,0.1846636166945099,17
1733293525098046700,0.1553751792973838,5.706306100738048,0.6841629250686615,-0.1573206690756604,9.7885193000257,-0.574927255128324,-0.0827378034591674,0.3109416663646698,-0.1077561676502227,0.3124560856239774,0.320892748959122,0.6529479120213716,0.6107848414055458,-0.0597119554877281,-0.2649617493152618,-0.1530057191848755,5.614757537841797e-05,-0.0397068858146667,0.0032846331596374,0.012379091233015,-0.0157188009470701,-0.0174076463967561,0.0240236259996891,0.0289358063008636,0.1630170175537467,18
1733293525138046700,0.6936079220231622,10.562259108710288,0.0392505718272179,-0.2883895467700436,9.788756031391024,-0.5171928590402006,-0.2064657360315323,0.0202000141143798,-0.648083508014679,0.3152451188181745,0.3131971620348994,0.6544287850225055,0.611760667179918,-0.0127026373520493,-0.18940269947052,-0.0819560438394546,0.0054392218589782,-0.0206530690193176,-0.0089328289031982,0.0110541386529803,-0.0121952518820762,-0.0175923553138971,0.0061162151396274,0.0643647009480744,0.1992991680294275,19
1733293525178046700,2.997506283985078,10.013451506483554,-2.3118004403233527,-0.6893461729254573,9.77462463018596,-0.3897563099661841,-0.5130683183670044,-0.3083563148975372,-1.3703351020812988,0.3315537810077447,0.2996091231539681,0.6558249881888331,0.6084406929206013,-0.0613828226923942,-0.1113519519567489,-0.0522553399205207,-0.0160364508628845,-0.0384875535964965,0.0248630046844482,0.0161379314959049,-0.0086077069863677,-0.0225642985075712,-0.0071351500228047,0.0654310150053352,0.2299623095795512,20
1733293525218046700,4.679277175161242,2.606851308146119,-2.8952479787766934,-1.3812648266874252,9.70862392553389,-0.0717665564361028,-0.9581820368766784,-0.7659451961517334,-2.0591440200805664,0.364979250335127,0.2784922873771833,0.6527642161472602,0.6026037190440714,-0.0562924593687057,-0.0927160456776619,-0.0281469412147998,-0.004689872264862,-0.0221712589263916,0.0112832784652709,0.028599951416254,-0.033244751393795,0.0535077183037996,-0.0134852081537246,0.1011943292386829,0.2223997653707861,21
1733293525258047000,2.8372993554159995,-5.385691168069839,-1.3681874645799397,-2.19714954040125,9.551451834616064,0.3356880351701751,-0.8589529991149902,-0.5584197640419006,-2.1000008583068848,0.4043492565965849,0.2519707009845547,0.6476074732878755,0.5946570332105148,-0.0350010208785533,0.0039227148517966,0.0070681697688996,-0.0048390626907348,0.0013837218284606,-0.0053876638412475,0.0501307994127273,-0.0089411623775959,-0.0200374103784561,-0.0143582578748464,0.0342573666498065,0.1864414400219917,22
1733293525298046700,0.5827388056620955,-11.278265690350532,-1.193703077398613,-2.867555085209012,9.351530735296013,0.7045372392512858,-1.000892162322998,0.1181714609265327,-1.3920230865478516,0.4325512885626326,0.2237053536005688,0.643455136227509,0.5906104562989974,-0.0672636181116104,0.0442174077033996,-0.0044661136344075,-0.0152505636215209,-0.0212623476982116,0.0062612891197204,0.0535833798348903,0.0051277177408337,-0.0425192912995815,-0.0167109780013561,0.0512022178404033,0.1161067978188395,23
1733293525338046700,0.3949266618087887,-12.957771266943215,0.0345890828222036,-3.22876360181123,9.203363788610696,1.021553416775167,-0.7798004150390625,0.2338073253631591,-0.5808655619621277,0.4452831345616599,0.2011024279176887,0.6383361838738456,0.5948173450393528,-0.0434813238680362,0.0221807621419429,-0.0114497207105159,0.0012314915657043,-0.0071718096733093,-0.0139479041099548,0.0554022714495658,0.0189896337687969,-0.0063093292772769,-0.0135755911469459,0.0488929910499602,0.08179916228652,24
1733293525378046700,-0.2694371186167001,-12.163501880449056,0.9544212969403714,-3.295079656022787,9.165213213914631,1.145293266755715,0.0168043300509452,0.1075021252036094,0.276532769203186,0.4469453651734877,0.193852156711444,0.635631683535707,0.5988601553147562,-0.0465455576777458,0.0078350584954023,-0.0062731350772082,0.0068496465682983,-0.0046398043632507,-0.0113866329193115,0.0451889783143997,0.0089423255994915,0.0158136552035808,-0.0172238480299711,0.0498912083070725,0.0783577896609902,25
1733293525418046700,-0.4804918986305594,-8.874545091220735,-0.0296568871170282,-3.0346450512900947,9.26689488827884,1.0421048410903662,0.3441197872161865,0.0981713384389877,1.1274828910827637,0.4356688966324125,0.2035367938880664,0.6367418725715823,0.6027646504708074,-0.0277106165885925,-0.0172540508210659,-0.0024269979912787,0.0028958320617675,-0.0107410550117492,-0.0125699043273925,0.0542459152638912,-0.0053040059283375,0.0181283618867397,-0.016465613618493,0.042541649261862,0.1227127719551324,26
1733293525458046700,-0.1586445015579461,-2.737209626418352,0.2312683506768196,-2.484254271525145,9.447408691817522,0.8633306477606296,0.5689635276794434,0.0936369746923446,1.7539067268371582,0.4143861925395714,0.2248429322773926,0.6367323171119242,0.6101653087696328,-0.0395984351634979,-0.016527272760868,0.0122706554830074,-0.0011342167854309,-0.0060286223888397,-0.0061228275299072,0.0687248185276985,-0.0109749138355255,-0.0052478375256061,-0.0237555410712957,0.0431043977111577,0.1314575116857886,27
1733293525498047000,0.7970433812521398,2.8037264638990163,1.411009538218379,-1.8243053849324584,9.615894203910232,0.6138868081197142,0.8013724684715271,0.1749282777309417,1.6806927919387815,0.3882560116357896,0.2502777283452387,0.6372295832472502,0.6168927828646014,-0.0399110913276672,0.0980143770575523,0.078447476029396,-0.0148934125900268,-0.0026291608810424,0.0014514923095703,0.0879854559898376,-0.0141433700919151,-0.0022317045748233,-0.0220450963824987,0.0663026102080941,0.1412546830788254,28
1733293525538046700,0.8033487650066614,5.751736311048269,0.8507102356404066,-1.2341558646224438,9.726329678094386,0.213961388175562,1.183521032333374,-0.1102455928921699,1.3162999153137207,0.3643578668435318,0.277920254764068,0.641756446858474,0.614941038552516,-0.0300770998001098,0.1269029676914215,0.0968278124928474,-0.0117498636245727,-0.0305476188659667,0.0203149318695068,0.0853717625141143,-0.0170992370694875,-0.0195797297388315,-0.0365004055202007,0.0692190091114491,0.1004655765727162,29
1733293525578046700,0.7500517668440938,6.04517448297739,0.1087806927144527,-0.8208304264876991,9.76912603276968,-0.2465974372338503,1.1910072565078735,0.0196287259459495,0.8011786937713623,0.3447131319280292,0.3001238314072496,0.6499989664079239,0.6071243134269836,-0.0987339243292808,0.0477000251412391,0.0201751179993152,0.0047661662101745,-0.0176731646060943,0.0126339197158813,0.0795824825763702,-0.0238066781312227,-0.0025900164932012,-0.0331702940165996,0.0849609142530709,0.1105973867475986,30
1733293525618046700,0.2714734102172776,4.508305106949806,-1.7419792761623858,-0.594091974325478,9.76921663366258,-0.6163095782872289,0.5756902694702148,0.0868226215243339,0.4212948381900787,0.331713706023697,0.3139002529627693,0.6579435195962707,0.5987845492617234,-0.0473165400326252,-0.0011741495691239,0.0320883020758628,0.0087243318557739,0.0063253939151763,-0.0145846009254455,0.072187416255474,-0.0247894488275051,0.0039694881528615,-0.0234695859253406,0.0661009501561522,0.1125353690728545,31
1733293525658046700,0.0589394975615665,3.0351714132517573,-0.754885470610857,-0.4444058187162503,9.767971602037548,-0.748073963965103,0.2835511565208435,0.0630953758955001,0.4542461335659027,0.3240363226545504,0.3201054834846581,0.6600557835890049,0.5973770154341479,-0.0260365530848503,-0.0472491793334484,0.0118079315871,-0.0007576346397399,-6.917119026184082e-05,-0.0125048160552978,0.063354805111885,-0.0071630086749792,-0.03011982845366,-0.008028008043766,0.0675351476777344,0.0922854849874973,32
1733293525698046700,1.183266365993023,1.1404290947854518,-0.6423498823422938,-0.3161166348682716,9.765908824288845,-0.8351727670297027,0.1351846903562545,0.0467241145670414,0.1458506137132644,0.3179440707773383,0.3250647679833405,0.6609953526708627,0.5969336251713905,-0.0073574064299464,-0.0306321196258068,0.013747377321124,-0.002432107925415,0.0029739141464233,-0.0051765441894531,0.0457149222493171,-0.0070220753550529,0.0034638767182826,-0.0047278236597776,0.0784206988293677,0.0777852504700422,33
1733293525738047000,0.8342277412645518,-0.0060749359995126,-0.278761923257634,-0.2925395791215822,9.764540458545088,-0.8593811794824898,-0.0053236396051943,0.104090504348278,0.0485535934567451,0.3162206356707095,0.3255918338938527,0.6616692542534678,0.5968150437040722,0.0210145786404609,0.0506821237504482,0.0611748844385147,-0.0101088881492614,0.0060153603553771,-0.001569390296936,0.0303089916706085,-0.0053411438129842,0.0038245267242193,-0.0030186788644641,0.0591440436903387,0.0657750792026519,34
1733293525778046700,0.7526546428188681,0.0845171890735626,0.1317850631397217,-0.259449228690844,9.767623811513184,-0.8346336186517029,-0.1044772788882255,0.2794404029846191,0.0502119585871696,0.3131025396324572,0.3235309413213441,0.6617266816718845,0.5995101263382145,-0.0250165611505508,0.146312728524208,0.1095442175865173,-0.0215036869049072,-0.0143472254276275,0.0190832614898681,0.0386403612792491,-0.028751028701663,0.0536433273822069,-0.0007601235993206,0.106204047159478,0.0880801422521471,35
1733293525818046700,0.507121583413519,3.5296208178251978,0.0131272656638175,-0.2768293477598577,9.77031904194653,-0.7966296128194779,-0.0907018631696701,0.2636782526969909,-0.2449287474155426,0.3102623783452226,0.3179289692445908,0.6629766042936422,0.6025947549766723,-0.0688370168209075,0.098667599260807,0.0010983613319694,-0.0119929909706115,-0.0118970274925231,0.0272068679332733,0.0429443717002868,-0.0095097701996564,-0.0151338562458753,-0.0030047192703932,0.0603507160663604,0.0588686608150601,36
1733293525858046700,-0.6008319866375997,8.463738430973887,-1.5873557006835937,-0.4415435976855456,9.769753224757311,-0.7261909987851977,-0.4065639972686767,0.0946805402636528,-0.6665398478507996,0.3137288906618664,0.3081847522411201,0.6648665981915154,0.6037787426628608,-0.0595292672514915,0.0788290202617645,0.0160378292202949,-0.0038577914237976,0.0068475008010864,-0.0121816396713256,0.0264231227338314,-0.0045052249915897,-0.0278583132624626,-0.0045287832617759,0.0647751814451068,0.0442532754853367,37
1733293525898046700,0.4410175279848277,9.402087787100673,-3.052966013139486,-0.8056841491516679,9.763794608613848,-0.4353853673167526,-1.0145268440246582,-0.1376823484897613,-1.1883299350738523,0.3304841417387766,0.2921314683520583,0.6609521016416104,0.6071092904787054,0.0009085126221179,0.0320662520825862,0.0158303026109933,-0.000203251838684,0.0045852661132812,-0.023177146911621,0.0121671948581933,0.0024371263571083,-0.0290554140925407,-0.0034569492563605,0.0667114102046936,0.053154374821484,38
1733293525938046700,3.3458196631789208,5.4258992598176,-3.07632818402648,-1.3800306087173522,9.709046534860134,0.0178850455170031,-1.2932137250900269,-0.470677375793457,-1.7405648231506348,0.3582251004636389,0.2682727487963556,0.6535425378177769,0.6103987870898117,-0.0001676706597208,-0.0251861158758401,-0.0243932828307151,-0.0039107799530029,-0.0053533017635345,-0.0063802003860473,0.0014809584245085,0.0083492323756217,-0.0115618429780006,0.0007683280855417,0.0578347146574407,0.0446577646329998,39
1733293525978046700,3.115247405007481,-1.523196824505925,-1.6210913815468548,-2.100105754970759,9.559334696820375,0.6156760296240449,-1.4767986536026,-0.427876740694046,-1.9238094091415403,0.3955634423427878,0.239429587007796,0.6413132867586548,0.6123073529767871,0.0237275436520576,-0.0379846841096878,-0.0237230323255062,0.0001823306083679,0.006647378206253,-0.0044869184494018,-0.0040856716223061,0.0078346105292439,-0.0051093058377504,0.0007834318676032,0.0513435990724712,0.0508224247425794,40
1733293526018047000,1.5859464184075591,-7.819718058136105,-0.2925432689160108,-2.7357617656975983,9.347069079712032,1.148171087214351,-1.2267061471939087,-0.0441716127097606,-1.3930628299713137,0.4253187418136758,0.2094312330574084,0.6305538238369631,0.6145278283108253,0.0350169464945793,-0.0190738942474126,-0.0245909560471773,-0.0082635283470153,0.0005358755588531,0.0069391727447509,-0.005542263854295,-0.0044181244447827,-0.0076730188459157,-0.0047217765823006,0.0345810456462204,0.0597156330332159,41
1733293526058046700,1.187816868904233,-12.78728376737833,1.2079573012657463,-3.137445500551164,9.170094556215403,1.4953960866495966,-0.6295839548110962,0.1083402037620544,-0.7828497290611267,0.4417874531697982,0.1870869175676247,0.6235018098813093,0.6173070175588949,0.0163668319582939,-0.0025548920966684,-0.0329829789698123,-0.0079862475395202,-0.0046314299106597,0.010010540485382,-0.009219923056662,0.0012661395594477,-0.0088578447163105,-0.0031078751198947,0.0348417424090206,0.0652142304494977,42
1733293526098046700,0.541989446644485,-12.851525061142445,1.3083778696529569,-3.2933757747143506,9.103850690457223,1.5633175302311777,0.1315611451864242,0.3640078604221344,0.0104769337922334,0.4450009916147712,0.1773587865192895,0.6235678369246498,0.6178034825161309,0.0204513221979141,-0.0066260667517781,-0.0263085607439279,-0.0042508840560913,-0.0042703449726104,0.0060707926750183,-0.0186600871384143,0.0054346667602658,-0.0361164385199546,-0.0077158152125775,0.0100577950906008,0.0729193979993462,43
1733293526138046700,1.1357733779340982,-10.34595210725665,0.3994697120659053,-3.2012209303691983,9.169799957183002,1.3554799586981534,0.6688241362571716,0.2813771367073059,0.554511308670044,0.4348873533188936,0.1804771039719186,0.6311242126759652,0.61642772301528,0.0052028596401214,-0.0078738098964095,-0.0283699817955493,-0.0051799416542053,-0.0072793066501617,0.0053114295005798,-0.025767832994461,0.0099162720143795,-0.0192810390532016,-0.0066383518278598,0.0249905027411878,0.068628422807157,44
1733293526178046700,-0.8486445352822541,-3.75899422160089,-0.2599147455770522,-2.883017442756891,9.316085327905416,1.0339895583696663,0.8296974301338196,0.3982624411582947,1.3468483686447144,0.4169440792404591,0.1946107560961115,0.639849872659135,0.6155293361628499,-0.0023613166995346,-0.0022815985139459,-0.0230768825858831,0.0002760887145996,-0.0051050782203674,0.0020384788513183,-0.0233807824552059,0.002361920196563,0.0079722940534353,-0.0076194871217012,0.0510565257593989,0.0822580119699239,45
1733293526218046700,-0.7563952906519175,4.338889036008715,0.2493820995163172,-2.2879816117100416,9.506030392134187,0.7555843395952135,0.4710520505905151,0.303826242685318,1.7529008388519287,0.3893815148291121,0.2157031627413922,0.6441646252509103,0.6220177707152037,-0.0001594149507582,-0.013694361783564,-0.0215898398309946,0.0021320581436157,-0.0021537840366363,-0.0007347166538238,-0.0218507256358861,0.0042363214306533,-0.0129629419475793,-0.0044365767389535,0.0416460886616259,0.0819753956362605,46
1733293526258047000,1.0665465508423746,6.641569765809178,-0.0998959965238347,-1.6544724037535488,9.655610128226876,0.4497486045163124,1.004744529724121,0.1648809164762497,1.4768807888031006,0.3624341326838177,0.2402622264195043,0.6475671904660922,0.625757270248511,-0.0035043451935052,-0.0258302800357341,-0.03100211545825,-0.0015005469322204,-0.0065715014934539,0.0035746097564697,-0.019474571570754,0.0039551188237965,-0.0105780926376581,-0.0056444946676492,0.0661192895304411,0.0657990446001291,47
1733293526298046700,2.086599499926716,6.479575953823328,-1.0260878453344109,-1.2540157264769076,9.72542717629671,0.117787827974651,0.5894575715065002,0.2726985216140747,0.5934460163116455,0.3421426149548513,0.2564792400266064,0.6543797761169133,0.6236535955740713,0.0121542429551482,-0.016884509474039,-0.0239370837807655,-0.0016221404075622,-0.000168353319168,0.0033972859382629,-0.0175658017396926,0.0008254090789705,-0.0018622867405414,-0.0019077975302934,0.0731729343689978,0.0792547385007143,48
1733293526338046700,0.998264164993912,4.4381724170595405,-1.736988628268242,-1.1589747322361916,9.737744806078076,-0.0589618007249198,0.2388741374015808,-0.0879409983754158,-0.0332336127758026,0.335565639279326,0.26150798980497,0.6592569957508239,0.6199914923620141,0.0016954767052084,-0.0102537712082266,-0.0098236612975597,-0.0014365911483764,-0.0087164342403411,0.0062545835971832,-0.006905872374773,-0.0179691612720489,0.0505213959693908,0.0074488939717411,0.1194334580235183,0.1045627827584743,49
1733293526378046700,-0.2168015069723129,2.030920721194148,-0.6690835024237632,-1.1932333409950135,9.733735570436716,-0.0307718329388531,-0.2466706484556198,-0.1253784596920013,-0.0732204988598823,0.3386797152197234,0.2616095084914845,0.6581256657470457,0.6194570158367956,0.0116066969931125,-0.0081545608118176,-0.0070686880499124,8.869171142578125e-05,-0.0050869882106781,2.002716064453125e-05,0.0028296690434217,0.000816885381937,-0.0306833075553178,0.0220353193581104,0.0445160911399871,0.1032265657186508,50
1733293526418046700,0.1198323942132294,0.312975816091895,-0.5331903463780879,-1.2011140112422405,9.73249696855247,0.0790404655623715,-0.3044522404670715,-0.1089076250791549,-0.0412109419703483,0.341817365215055,0.2609171631823755,0.6541347657690246,0.6222467322710706,-0.0029275044798851,-0.0088639743626117,-0.0001311533851549,-0.0032194852828979,-0.0089648365974426,0.0057253837585449,0.0016046233940869,-0.0110193528234958,0.0097866499990224,0.0224087592214345,0.0904025938503444,0.0844321411386132,51
1733293526458046700,0.3670424834527075,-0.6319950040012597,0.0619791940510272,-1.2473605063714086,9.724574358859655,0.217094754297845,-0.3220827579498291,-0.1626673638820648,-0.1991215944290161,0.3469030391281704,0.2587637992013729,0.6495941378461866,0.6250816144558636,-0.0062471348792314,-0.0029478680808097,0.0112617164850234,-0.0034681558609008,-0.0062262713909149,0.0012879967689514,0.0043845847249031,-0.0054270355030894,-0.0182756614029407,0.021150030195713,0.0818204242702573,0.0996010686978697,52
1733293526498047000,-0.4491954276129603,-0.9631687400847672,0.2379529795398935,-1.3082980824150143,9.713376673018931,0.3302208923380821,-0.2181085348129272,-0.1551190763711929,-0.062452245503664,0.3523005704581511,0.2567016373127064,0.6459626062021285,0.6266744565652953,0.0002690877299755,0.0043295924551784,0.0093343202024698,-0.0034026503562927,-0.00467249751091,0.0032471120357513,0.0183041766285896,-0.0067201340571045,0.0035182372540235,0.0166792050004005,0.0886426715057343,0.1154673308715224,53
1733293526538046700,0.2620893862023949,-0.522755461603403,0.6526034922659397,-1.287705376241356,9.713944828295707,0.3891736512400209,-0.0399110801517963,-0.0962938591837883,0.1072172820568084,0.3542395571990034,0.2581854241525866,0.6430380648991506,0.6279781821181284,0.0021639266051352,0.0051056905649602,0.0086610736325383,-0.0021350383758544,-0.002937763929367,0.0005601048469543,0.0239048823714256,-0.0077647799625992,-0.019106851530075,0.0069070942699909,0.0711037268795072,0.0856345026656985,54
1733293526578046700,0.7864391312599182,-0.0467325250804424,0.0660159022212028,-1.2600421471595764,9.717810856074092,0.3831959650699049,0.008603642694652,0.0103651341050863,-0.015060368925333,0.3539016137002444,0.2598601902328896,0.642600284071125,0.6279261489907411,-0.0033272448927164,-0.0071779265999794,0.0091775935143232,-0.0034507513046264,-0.0060740113258361,-0.0001121759414672,0.0201930571347475,-0.0077706347219645,-0.0224678523957729,0.0005260598845779,0.0692285806573927,0.0826285988479852,55
1733293526618046700,0.5561902598239481,0.4024953434973955,-0.0402899248123168,-1.300188571847975,9.71300667066276,0.3706893885876983,0.0575556941330432,-0.0029447067063301,-0.1791669875383377,0.3553039348767541,0.2590400213832005,0.6434270503325417,0.6266251490300041,-0.0125215416774153,-0.0128600476309657,0.010513168759644,-0.0067687034606933,-0.0072380304336547,0.0013075768947601,0.0183439813554286,0.0049538728781044,-0.0139560446381568,0.0042209695093333,0.0663872928168624,0.0711789840728044,56
1733293526658046700,-0.0697916213676333,0.4468506180524825,-0.6654021835625171,-1.3751090805366637,9.703516957783698,0.3481702443961054,-0.0307392627000808,0.1491754949092865,-0.1619654595851898,0.3564502387132706,0.2559671808229583,0.645545552701527,0.6250559842107507,-0.0288640297949314,-0.0041224816814064,0.0148011250421404,-0.0064348578453063,-0.0068496763706207,0.001127004623413,0.0205428507179021,0.0085329115390777,-0.0300520239144563,0.0014394524041563,0.0463178067997097,0.0778910489320754,57
1733293526698046700,0.2239718369930982,0.5248246690928936,-1.502085062894225,-1.4194266534298658,9.694375035429,0.4179604409916326,-0.3827594518661499,0.1115734726190567,-0.1248643845319747,0.3570105288240612,0.2513733067466477,0.6445939870971464,0.6275774694460946,-0.0183325596153736,-0.0113004464656114,0.0133641483262181,-0.0063060522079467,0.0016613602638244,0.0016449093818664,0.0184185802936553,0.0104144588112831,-0.0117851303398609,0.0001625795848667,0.0452326419115066,0.0687093790888786,58
1733293526738047000,-0.1123649809420108,0.4117395571827888,-0.4700935464739799,-1.4776841966092586,9.674583124244212,0.623921003139019,-0.5659786462783813,0.081174112856388,-0.1240229085087776,0.3610879257438436,0.2451582365683512,0.6388163439482492,0.6335823940427847,-0.0210047774016857,-0.0078816404566168,0.000110728200525,-0.0054232478141784,0.0021767020225524,-0.0001953840255737,0.0190237108618021,0.0040083327330648,-0.0012713351100683,-9.5261639216e-06,0.0311116890352219,0.0648673167079687,59
1733293526778046700,-1.8021314009167253,-0.0262017782270908,-1.955600984054804,-1.4357269231066108,9.670195702940225,0.7722668135225772,-0.5732665657997131,1.0851116180419922,0.5976308584213257,0.3546185698891419,0.2368736874738741,0.6360158851314175,0.6431332328631016,-0.0099697010591626,-0.0056322277523577,0.0048195300623774,-0.0063748359680175,0.0002240240573883,6.520748138427734e-05,0.0230207536369562,0.0010520173236727,-0.0076467153608798,-0.0025138000492006,0.028810134094581,0.0742319419026374,60
1733293526818046700,-1.0884201636720447,-0.818815798729658,-0.3458867365688085,-1.1401325960569082,9.686340197533369,1.022398343166709,-0.8081104159355164,1.5515329837799072,1.0770143270492554,0.3300037965163956,0.2250875296663753,0.6302442343147404,0.6657516981754023,-0.0189152583479881,-0.0137744173407554,-0.0013773130485787,-0.0072688460350036,-0.0037706494331359,0.0011270642280578,0.028369728475809,-0.0049658804200589,-0.023780688560009,0.0033999828156083,0.0262559926323592,0.080749068711698,61
1733293526858046700,-1.2836954099476336,-2.3700989000350234,-0.769542356994748,-0.7640951244395225,9.704436410716175,1.1876298218995331,-0.4124130606651306,1.3782237768173218,1.189662218093872,0.2978704863711194,0.2151856734870502,0.6270110505520398,0.6868955252138068,-0.0147852292284369,-0.0027235767338424,0.0021247440017759,-0.0088454484939575,-0.0024840533733367,0.0010816156864166,0.0215251985937356,-0.0069874236360192,-0.0188525845080614,0.0037073362618684,0.0111715284861624,0.0667947776392102,62
1733293526898046700,-1.7473856652505697,-2.6316566635787484,-0.2295961066156625,-0.337963944212906,9.713106623905896,1.308333592119813,-0.3337109088897705,1.5363000631332395,1.4400475025177002,0.2637366285352111,0.2090338072718521,0.6241781957440292,0.7050882793679315,-0.0133511172607541,-0.0067191706039011,-0.0060554882511496,-0.0028020739555358,-0.0024274289608001,0.0026217103004455,0.015504278242588,-0.0061760796234011,-0.0091845924526453,0.007508588489145,0.044761078877002,0.090148765219748,63
1733293526938046700,-2.157054992030561,-2.751696416932344,-0.2226221759498119,0.2232882386431098,9.70041782272458,1.4221169154271482,-0.346619576215744,1.8789093494415283,1.972642183303833,0.219751644875821,0.2042387971632034,0.6211108862699192,0.7240283082654106,-0.0160321220755577,0.0093199824914336,-0.0098771909251809,-0.006975769996643,-0.000632107257843,0.0051695704460144,0.0114136198535561,-0.0203961879014968,-0.0284562791556119,-0.0070734280161559,0.0088862670931965,0.0704620679751038,64
1733293526978046700,-2.044033008484542,-1.941599346709252,0.79909446856305,0.9636495824042708,9.62324515119493,1.6232392072305082,-0.2974132895469665,2.410410165786743,2.521343469619751,0.1607659276662176,0.1982723890748346,0.6147567764803364,0.7462683076732751,-0.003990105818957,0.0151422396302223,-0.0051538087427616,-0.0050244331359863,-0.0022965669631958,0.0015593171119689,0.015009531751275,-0.0279005356132984,0.0070388125956058,-0.030894685536623,0.0260105665039271,0.0842924404069781,65
1733293527018047000,0.9203520732738076,-1.638284508410096,-1.358652305123955,1.7572632084034383,9.467472990202904,1.857244508590549,-0.642993688583374,1.8083654642105105,2.2974672317504883,0.1012275924702963,0.1973424184057486,0.6052791526266217,0.7644906838343141,-0.0138576505705714,0.0043386472389101,-0.0109987147152423,-0.0026094317436218,-0.0049478411674499,-0.0010706186294555,0.0273674484342336,-0.0239019952714443,-0.0276110605031251,-0.0348634347319603,0.0187183636691421,0.1477466754466295,66
1733293527058046700,0.6398967170365154,0.0423263990759849,0.6879080298811197,2.4266266968123613,9.210814104616642,2.332976060951501,-0.803834080696106,1.7932206392288208,2.1357572078704834,0.0465315122749463,0.1922924138093372,0.5865790227073447,0.7853556688867471,-0.0034790453501045,-0.0124782565981149,-0.0154500557109713,0.0012800693511962,-0.0033623874187469,0.0064903497695922,0.0409335568547248,-0.0256215669214725,-0.0407382531017065,-0.0390742905437946,0.0277294992510229,0.1252580725237727,67
1733293527098046700,1.215828326901793,-0.5679308203697204,0.9260846255764364,2.955170532558858,8.928783461886644,2.777443729390204,-0.8141475915908813,1.1862215995788574,1.622045874595642,0.0036578790653682,0.1906966172521697,0.5674720994892979,0.8009974905877082,-0.0175557173788547,0.0030993714462965,-0.0188247468322515,-0.0013538599014282,-0.00580495595932,0.0121168494224548,0.0386159792542457,-0.0151623869314789,-0.0324830504536628,-0.0483507253229618,0.0251771113544702,0.0646124651640653,68
1733293527138046700,-0.4701049446508288,-0.6229588801085949,1.1969348258614538,3.38699075473994,8.65745073878169,3.122055039195716,-0.3109418451786041,1.1369863748550415,1.7040013074874878,-0.0334137643086973,0.1901418254914147,0.5519651956768472,0.811211461965165,-0.0303149223327636,0.0123347351327538,-0.0039023892022669,0.0047888159751892,-0.0081690847873687,0.0116302967071533,0.0377098247408866,-0.0083871241658926,-0.0005956278055906,-0.0572721771895885,0.0830790460292249,0.1317699386358261,69
1733293527178046700,-0.3334726606756448,-0.790063166975975,0.3825692845389247,3.8264638297617433,8.370256429678202,3.386353041358292,-0.3195760250091553,1.5168046951293943,1.8608291149139404,-0.0729107546332557,0.1906760720331275,0.5394318165853538,0.8169088729190997,-0.041664782911539,0.0108127919957041,0.0052621476352214,0.0030924677848815,-0.0152304470539093,0.002541959285736,0.0602403692901134,0.0076536200940608,-0.0333376214563846,-0.0551610551774501,0.0652253363654017,0.1285775723353028,70
1733293527218046700,-0.1541334538742899,-0.6223498082995415,-0.7945853205755352,4.230111850425601,7.95234724394977,3.877718216180801,-0.6588236689567566,2.473367929458618,2.368963718414306,-0.1296620568811991,0.179724799396314,0.5196059968982076,0.8251643897136256,-0.0472475662827491,0.0142313316464424,0.022674161940813,0.0027634501457214,-0.0143444538116455,0.0006444454193115,0.046225182712078,0.0319905914366245,-0.0570902529656887,-0.0514925681054592,0.1195583995774388,0.1270928867354989,71
1733293527258047000,0.4223609044402837,-0.3984720793306827,0.1290259006246924,4.495478650863468,7.395525846615433,4.611643024088442,-0.9819581508636476,3.09458065032959,2.342583417892456,-0.1929800659832374,0.1614835703590571,0.4886662472595015,0.8353963420153162,-0.042595025151968,0.0212308634072542,0.0357508137822151,-0.0015548467636108,-0.011000782251358,0.002926766872406,0.0576303526759147,0.0451544560492038,-0.0382353303700685,-0.0482855662703514,0.1778751986633986,0.0993386183694005,72
1733293527298046700,0.8765537019491195,0.2562579035699367,0.479537666645646,4.492144245743751,6.798406925684214,5.456436436900496,-1.026583552360535,2.7056825160980225,1.8138742446899407,-0.2537016835439842,0.1356601723365739,0.4509938761435974,0.8448883977772496,-0.0281955786049366,0.0478616766631603,0.0563030280172824,-0.0107539296150207,-0.0023690164089202,0.0041972398757934,0.0449764132499694,0.0680995285511016,-0.0308376213341951,-0.0730031356215477,0.2041818985696881,0.053182431872189,73
1733293527338046700,0.396962843811512,0.1579027432799339,0.6741840404331684,4.329939129094779,6.318263109838962,6.123852298372984,-0.8506651520729065,2.3687193393707275,1.37409245967865,-0.2994155117414868,0.1122918720502675,0.4185223604266758,0.8500470693936534,0.0113678118214011,0.0775097981095314,0.0565391816198825,-0.0128034949302673,0.0095151960849761,-0.0048218369483947,0.0415909253060817,0.0684691071510315,-0.0220154324531555,-0.0988116115331649,0.2129454891312867,0.0035945173606276,74
1733293527378046700,0.4647580306649208,0.5064145676553249,1.6772919921964409,4.124178071574867,5.8765264737993474,6.680417090597748,-0.7554563283920288,1.856089949607849,1.1625406742095947,-0.3357345689317818,0.0937490601706001,0.388078141224207,0.853163946955601,0.0177796371281147,0.0694755166769027,0.0386044569313526,-0.0162250399589538,0.0134668946266174,-0.0024589896202087,0.0119807105511426,0.0989498272538185,-0.0719751028865575,-0.1448050439357757,0.1149628154154866,-0.1436462543904781,75
1733293527418046700,0.1668812917664647,0.5489268446922302,1.877666680502892,3.842508663372695,5.556286804184317,7.108669975686073,-0.3415282368659973,2.008859872817993,1.0753968954086304,-0.3680366049611397,0.0727949111125153,0.3636751469179381,0.8526372948843964,0.0426029600203037,0.067126452922821,0.0085183279588818,-0.0176048874855041,0.0242715775966644,-0.008524477481842,-0.0791779905557632,0.1550506353378296,-0.1701309412121772,-0.2329555600881576,-0.0331624840851873,-0.3774909583613276,76
1733293527458046700,0.1688046610444784,0.7279840196818113,1.3434119197636842,3.445841003115475,5.369897386610508,7.447198166185617,-0.0299974512308836,2.270508050918579,0.8790732026100159,-0.3986441163647656,0.0454859227630839,0.3438452913300619,0.8489901580911605,0.0849456265568733,0.0379553027451038,-0.0465946607291698,-0.0134806632995605,0.0303025245666503,-0.0080957114696502,-0.2240269482135772,0.2265060544013977,-0.2379004091024398,-0.2905938625335693,-0.1470553321816027,-0.3312304347068071,77
1733293527498047000,1.1335597935378552,0.661426265668869,0.0367407078981399,2.951247513896227,5.229506919145583,7.753243306231498,-0.3111117482185364,1.5379573106765747,0.6471088528633118,-0.428087224537705,0.0143316361842864,0.3232479148926703,0.8438286293382741,0.0959692448377609,0.0077197961509227,-0.0748779624700546,-0.0006414055824279,0.0067447423934936,-0.0071256160736083,-0.2948635816574096,0.2870979309082031,-0.1835042175263166,-0.2627742886543274,-0.1211165157396346,0.0032364977031946,78
1733293527538046700,0.7494026552855968,0.586145106974244,1.6603285824358462,2.7787527661621567,5.044418647298216,7.93742790723741,-0.4501223564147949,0.6485016345977783,0.22902512550354,-0.4400754568958978,0.0069426656324063,0.3086350826601902,0.843225858433764,0.0672939270734787,-0.0281795617192983,-0.0648111402988433,0.0094382166862487,-0.0164516866207122,0.0052770674228668,-0.2937662601470947,0.2644152641296386,0.0811684631675481,-0.23589688539505,0.0428499845586717,0.0791559543013572,79
1733293527578046700,-0.9064562343902886,-1.237125966474414,4.828793782889843,2.4320114585906265,5.119922508832812,8.002631324031949,1.3081469535827637,2.3184361457824707,0.7574091553688049,-0.4547548479794573,-0.0163831459902054,0.3028381762228925,0.8373880563420171,-0.0064205070957541,-0.0078848358243703,-0.0320133194327354,-0.0074902772903442,-0.0310375988483428,0.0139062404632568,-0.2420539110898971,0.2274423241615295,0.0274842192530632,-0.2266081869602203,0.0024182401228696,0.0935845848873257,80
1733293527618046700,-0.6519507274456322,0.3653255965322255,1.5148036746919151,2.024875741941482,5.449890960779785,7.897402186319232,1.0594230890274048,0.6699699759483337,0.2491653859615326,-0.4715027271198408,-0.0508055788891334,0.3078365678931228,0.8248277079750356,-0.0109753105789422,0.03083086758852,0.0167539548128843,-0.0063739418983459,-0.0096470713615417,0.0003328919410705,-0.2237661778926849,0.1904933750629425,0.0941220527648925,-0.1977773606777191,0.0955978609384968,0.0932236426204442,81
1733293527658046700,0.5899243332520127,-0.5557160664409398,0.6315735637187957,1.9929700529843568,5.7382642505347725,7.698751253065466,0.8937700986862183,0.3902520537376404,0.328550636768341,-0.4767990490542986,-0.0634403816753048,0.3216336972534904,0.8155916406247389,0.0281113721430301,0.0160798318684101,-0.0148379942402243,-0.0029957890510559,0.0106146037578582,0.0062170028686523,-0.1662701368331909,0.1374275684356689,0.0824450589746236,-0.1350999474525451,0.1519472689416259,0.1774018089979886,82
1733293527698046700,-0.4478077726468443,0.621082564842701,-0.3562450489759445,2.0550652746304867,5.90326659668684,7.556357629084586,0.5318949222564697,-0.4633839130401611,0.3907913863658905,-0.482315724309495,-0.0683655812404112,0.3317516235415063,0.8078605522077302,0.0447800941765308,0.0075908997096121,-0.0328367017209529,-6.520748138427734e-05,0.0070661008358001,0.0041366815567016,-0.10688117146492,0.1431803405284881,-0.0378542220979928,-0.0853454619646072,0.0320164558552205,0.1109966151982545,83
1733293527738047000,0.7192547697812318,0.4438981979876756,0.3506920910239219,2.210799149438739,6.074315821787715,7.374648478281498,0.6001818180084229,-0.229203388094902,-0.0133539708331227,-0.4808148876367424,-0.0666617298126581,0.3457654896584151,0.8030065529247942,0.0442786216735839,-0.0010442406637594,-0.0199346859008073,0.0021189451217651,-0.0030803680419921,0.0033894181251525,-0.067026138305664,0.151428997516632,-0.0345294615894556,-0.0399983190000057,0.0210285403076559,0.1212339315742254,84
1733293527778046700,1.3592765745021402,1.0836235039800406,-0.1343973645299673,2.2633000287875533,6.208067289629578,7.2462237584203475,0.3356781005859375,-0.1715717911720276,-0.1080233752727508,-0.478424043638621,-0.0679445237064118,0.3548646835656654,0.8003531111516985,-0.0111303068697452,-0.0144075034186244,-0.0104578267782926,0.0071811079978942,-0.0214554071426391,0.0121231377124786,-0.0322195626795291,0.1226829960942268,0.0532265632748603,0.0370031259953975,0.0609750219771638,0.1196311725527048,85
1733293527818046700,0.3892477393895387,0.8827981492966412,-0.1254454117894172,2.283429647494107,6.326591962245106,7.136565698349475,0.4689789712429046,-0.3112370073795318,-0.059036087244749,-0.4746314982983426,-0.0695305820264694,0.362356063878319,0.7991173343195309,-0.0408732891082763,0.007906749844551,0.0408758707344532,0.0040656924247741,-0.0224704444408416,0.0081648230552673,-0.0073745846748352,0.0859429389238357,0.0569055440485477,0.0648965239524841,0.0505717379171401,0.0756181355640292,86
1733293527858046700,0.2980539951615035,0.9929542220175266,-0.3747837452292442,2.442708209171891,6.505236464780569,6.919932533681393,0.7762303948402405,-0.4081539511680603,0.1613012552261352,-0.4709937260620166,-0.0671729139902743,0.3777160760505912,0.7943446191773427,-0.0751511007547378,0.0262447446584701,0.0581760294735431,-0.0054994225502014,-0.017985314130783,0.0010225772857666,0.0431885235011577,0.0445843935012817,0.0183539873361587,0.0481302179396152,0.0300603533513844,0.0321872823774814,87
1733293527898046700,0.5178676895618438,-0.4097176959663629,-0.5925649108886718,2.541173844099045,6.68686553608477,6.708103554424644,0.6723930239677429,-0.1694427877664566,0.1639140248298645,-0.4718486125800072,-0.0699538853262292,0.3912650528597409,0.7870051642292993,-0.0466494187712669,0.0195827409625053,0.055727519094944,-0.0071920156478881,0.005509614944458,-0.0069389343261718,0.0607968568801879,0.0107476897537708,0.0095563483744859,0.0108330249786376,0.0225885196333751,0.0092255089849233,88
1733293527938046700,-0.1918953215137123,0.9258850113511083,0.0827998637616634,2.560060038615763,6.873077259004115,6.5097840450823306,0.7884481549263,0.1433627307415008,-0.2232323586940765,-0.4691957720684524,-0.0749221560821896,0.4030881621288182,0.7821521011495669,-0.0108317667618393,-0.0008750233100727,0.0287084840238094,-0.0063418745994567,0.0159357488155365,-0.0111828744411468,0.0970620512962341,-0.0264573507010936,-0.0006704466074705,-0.0075131095945835,0.0419353539317846,0.0636404052615165,89
1733293527978046700,-0.2914706712484359,-0.1458580852210521,-1.5250830766439436,2.503713005232811,7.120017883652448,6.261562148451805,0.9099996089935304,0.0959890931844711,0.1642519831657409,-0.4691646183827367,-0.0872835306487648,0.4160898589791825,0.7740384456962339,0.0078364592045545,-0.0267228130251169,-0.0078700333833694,-0.008793294429779,0.0140900909900665,-0.005060851573944,0.1161300987005233,-0.0332522168755531,-0.0442085595607757,-0.0240802858024835,-0.0043885172825306,0.0630994302526116,90
1733293528018047000,-0.2203270507499575,-0.4367839820683002,-1.1541016463071108,2.5488375105947254,7.23631611239016,6.108152624937891,0.1367963254451751,0.1530674248933792,0.2089208960533142,-0.4715220274734908,-0.0914735709804619,0.4245037804714163,0.767525917065181,0.028158776462078,-0.042257085442543,-0.0142006333917379,-0.0127139687538146,0.005376785993576,-0.0043759942054748,0.1245491355657577,-0.0288213938474655,-0.0647270314544439,-0.0305870585143566,-0.0219611084500327,0.0594531827047467,91
1733293528058046700,0.0911179025128483,-0.9572264905542136,-1.2500076598793268,2.571533618788421,7.086981290969252,6.271546366849542,-1.1413843631744385,0.0747582539916038,0.1765214651823043,-0.4777692900795137,-0.0875848504692264,0.4154142731633158,0.7690879942072842,0.0043775462545454,-0.0562713295221328,-0.0468791536986827,-0.0091091394424438,-0.0002266466617584,0.0141307115554809,0.1247113347053527,-0.0553440302610397,-0.0265782103240489,-0.0281250812113285,-0.0244814937731251,0.0386325129941105,92
1733293528098046700,-0.8110027868911623,-0.6390905152201652,-0.9322066155880688,2.6044091756910084,6.6889382507056,6.681731680327654,-1.6084092855453491,0.092437632381916,0.3256913125514984,-0.4837343613496319,-0.0732099039569451,0.3923860405894895,0.7788931547757434,0.0184374377131462,-0.058677814900875,-0.0659902617335319,-0.002888023853302,0.0071125924587249,0.0056595206260681,0.083052322268486,-0.0212166383862495,-0.0420861605793237,-0.0246357358992099,-0.0549552136983722,-0.0095177699297666,93
1733293528138046700,-0.7386240716397762,-0.939684988644719,-0.5642097540199756,2.7162349351897834,6.205881177762151,7.090802895084023,-1.4192538261413574,0.1776906549930572,0.8084964156150818,-0.4958173883729239,-0.055964405469757,0.3678826433901003,0.7846626007960654,0.0032459690701216,-0.0337499380111694,-0.0492415763437747,-0.0065763592720031,-0.0031370222568511,0.0128437876701354,0.0405717864632606,-0.0410628877580165,0.0119902975231409,-0.0288316775113344,-0.0258915067015215,-0.0071022332206368,94
1733293528178046700,-0.3953220908671617,-0.4801356325387954,-0.8443512220025062,2.868981318619847,5.704582930207252,7.442920634996891,-1.4226677417755127,0.1515677869319915,0.8930011987686157,-0.5122394307646806,-0.0387472992796296,0.3449859559001422,0.7855534206790622,-0.0098876757547259,7.204996654763818e-05,-0.0347164943814277,-0.0077292919158935,-0.0095078647136688,0.0218855142593383,0.0233660656958818,-0.042684469372034,-0.0143839146614074,-0.0411743000149726,0.0084856869356706,0.0212701670438051,95
1733293528218046700,-0.2305819027826189,-0.4649854096800088,-0.4306880032807588,3.0481083439752457,5.1667485574156045,7.757842908981442,-1.4704182147979736,-0.1854112595319748,0.6508916020393372,-0.525330225856625,-0.0179340527365162,0.3227049048286539,0.787126466476046,-0.02467567846179,0.0363084562122821,-0.0121133811771869,-0.0012935400009155,-0.0060885548591613,0.0131515264511108,0.019501382485032,-0.0437435247004032,-0.0194856217145919,-0.0721010193228721,0.0770681882418692,0.019776421354711,96
1733293528258047000,0.0573024344116449,-0.4600941305071115,-0.3039274172395467,3.2273923134580254,4.651144136610627,8.0075705339998,-1.354244828224182,-0.1873147040605545,0.6234772801399231,-0.5338689767914941,0.0036383832778643,0.3028436707429549,0.7894659763644674,-0.0328023135662078,0.043487437069416,-0.016639556735754,-0.0026314854621887,-0.0099771916866302,0.0100084543228149,0.0362799055874347,-0.0278094671666622,-0.0049748658031225,-0.1008234024047851,0.096516327490285,0.0282058115258812,97
1733293528298046700,-0.1755035741612315,-0.7292158995643258,0.0679144293189048,3.408872916202247,4.115664510251581,8.22260736938715,-1.402701497077942,-0.2058486938476562,0.7080907821655273,-0.5428050787746024,0.0255186595432615,0.2830414856968394,0.7903157887332906,-0.0219712369143962,0.0059321229346096,-0.0258053578436374,0.0062839388847351,-0.0038743317127227,-0.0055856704711914,0.0537012889981269,-0.020575163885951,-0.0335199922859668,-0.1456330865621566,0.1051551956936717,0.0185942258328199,98
1733293528338046700,0.189283093188703,-0.7914651427283883,0.3334884427666664,3.5432772949948905,3.547939441587031,8.427793257367611,-1.3855220079421997,0.132694810628891,0.7848055958747864,-0.5531758149582331,0.0458278380714143,0.2611550077394341,0.7897432941122968,0.0074580246582627,-0.0061936224810779,-0.0100840525701642,0.0062841176986694,0.0035779774188995,-0.0147677659988403,0.0662635117769241,-0.0266861002892255,-0.0181283618867397,-0.2109537720680236,0.113808165487647,0.0207806299611926,99
1733293528378046700,-0.451911408573389,-1.0137833672955632,0.2428711832523346,3.54821270557046,2.971791412492096,8.645752117681504,-1.2541897296905518,0.4444835484027862,1.020440936088562,-0.5671865234326806,0.0599542260647584,0.2357855483285706,0.786835430830454,-0.0255017876625061,-0.0459254793822765,-0.0137146729975938,-0.000971496105194,-0.0137915909290313,0.0008026659488677,0.0788845866918563,-0.0118943266570568,-0.071342065680027,-0.2655001878738403,0.112206319781579,0.0641986236661672,100
1733293528418046700,0.1945484663709998,-0.6248588685110211,0.7943746004343032,3.5369644585862754,2.448941258342564,8.812658836150169,-0.9135432243347168,0.3115593194961548,0.9426769018173218,-0.5833773911151517,0.0715126264012706,0.2134605226002167,0.7803789858422845,-0.0127188833430409,-0.044455736875534,0.0089404387399554,0.004699170589447,0.0020749866962432,-0.0020350217819213,0.1019130796194076,-0.002314013428986,-0.0563198531150817,-0.3322553634643554,0.1331805360861122,0.1017307742029428,101
1733293528458046700,0.3296194923788308,-0.719600368348509,0.3153308547854423,3.505442654380202,2.018754044190794,8.933470158398151,-0.9805805683135986,0.2603458166122436,0.5566251277923584,-0.5945149265138667,0.0810944352003971,0.1947908472758917,0.7759074208367182,-0.0061901435256004,-0.0343251265585422,0.0245456304401159,0.0008463859558105,-0.0039430558681488,0.0031014084815979,0.0963614732027053,0.0364956147968769,-0.1391997963756323,-0.4447899758815765,0.0602340674167498,0.0703457481190562,102
1733293528498047000,0.29841946747303,-0.5884402321740985,1.4473556938409804,3.4999817586258053,1.6378487473413348,9.013210634589194,-0.6776121258735657,-0.0076571735553443,0.3759369254112243,-0.6009209344253443,0.0915697292186791,0.1790785782674936,0.7735889783099166,-0.0016430621035397,-0.0425244644284248,0.0169088151305913,0.0064976215362548,-0.0005683898925781,0.0037086009979248,0.1138721480965614,0.0648110583424568,-0.0824199245333671,-0.5707942247390747,0.0682167732663452,-0.0780567608878016,103
1733293528538046700,0.1285825407713651,-0.5570528680026531,0.9716974989771844,3.463767120428383,1.432133720920235,9.06210238353014,-0.3029107451438904,0.2119630277156829,0.2262784987688064,-0.6047196297428273,0.09586305373865,0.1696220904092925,0.7722388386031057,-0.0143316937610507,-0.044112242758274,0.0256671532988548,0.0024915933609008,-0.0026906132698059,0.0118796229362487,0.1048339307308197,0.0189063586294651,0.0158528181701898,-0.6783104538917542,0.0882160435914993,0.1235477614745497,104
1733293528578046700,-0.2135755306631326,-0.2838355001948773,0.685648852777481,3.411031847801804,1.2995755545161665,9.101997171545028,-0.2482833415269851,0.1486859917640686,0.275623619556427,-0.6087388258744401,0.097137705993887,0.162762311163181,0.7703958223412849,0.026590172201395,-0.0364593267440795,0.0170184709131717,-0.0025660991668701,0.0041091442108154,0.0014204978942871,0.1612504124641418,0.0246548634022474,-0.1391863523721694,-0.6620668768882751,0.0064080038787797,0.1930377695471048,105
1733293528618046700,0.0103989366784691,-0.1935259183902293,0.6419570105671882,3.3741040928989645,1.1932548221744597,9.130276340568065,-0.1144212782382965,0.1271634250879287,0.199165940284729,-0.6125795346499546,0.0982898719860164,0.1575580877984156,0.7682844391403456,0.0033983020111918,-0.0378863029181957,0.0056632859632372,-0.0105506777763366,0.003215879201889,0.0049889087677001,0.1937151700258255,0.0378379896283149,-0.143006787443161,-0.662312924861908,0.1205044482558965,0.1674716588750481,106
1733293528658046700,0.1368833361268043,-0.1042827967733144,0.4473778567969799,3.36523514226675,1.163717031392455,9.137359576827286,0.0871106833219528,-0.0014463051920756,0.1813499927520752,-0.6155898048657193,0.0982774398056389,0.1564156675357295,0.7661102438962395,0.0198904611170291,-0.0701204612851142,-0.0014842388918623,0.0007184147834777,0.0114128291606903,0.0066539049148559,0.2074610143899917,0.0417803786695003,-0.0453641593366861,-0.6681883931159973,-0.0156735343468375,-0.1401689336687326,107
1733293528698046700,0.1367445121780038,-0.0423757181104272,0.0434182859659194,3.3679175132185217,1.1856069377698004,9.133556092891096,0.1294220685958862,0.029684942215681,0.1523843705654144,-0.6183630798950245,0.0971003161343204,0.1577648734834959,0.7637465697721684,0.0493005439639091,-0.0442057736217975,0.0008167321793735,0.0018682479858398,0.0107364952564239,-0.0008801817893981,0.2089487016201019,-0.0371383316814899,0.0538812277913093,-0.5136158466339111,0.0108995614106766,-0.0329430691808462,108
1733293528738047000,0.0718739805996418,-0.0190518334072083,0.005050269126892,3.35557533351779,1.2004407150905578,9.13616130695343,0.0722857937216758,0.1036715656518936,0.1710357517004013,-0.6211962329198915,0.0955331339702321,0.1582998351180922,0.761531215292116,0.0459026172757148,-0.0452998541295528,-0.0039806198328733,0.0002336502075195,-0.0026710033416748,0.0063693821430206,0.2173110544681549,-0.0877159461379051,-0.096650109937787,-0.3814079761505127,-0.0463764690512325,-0.038564416193962,109
1733293528778046700,-0.1331216455057263,-0.2148606751028448,-0.0939800139456987,3.3208515184000134,1.190048938805237,9.150197431090474,0.0526825003325939,0.0449269153177738,0.2405910491943359,-0.6256158249308552,0.0935779297348947,0.157203495433562,0.7583765411422265,0.0283963307738304,-0.0722600370645523,-0.0120819555595517,0.0043622255325317,-0.0118504166603088,0.0018585324287414,0.223443403840065,-0.0478055663406848,-0.1731903287827968,-0.3072786331176758,-0.0243530359547119,-0.0343266324937343,110
1733293528818046700,0.2406628595530986,-0.156906717979908,0.1968658034026622,3.337171954081952,1.186563069450855,9.144710524111986,0.1260463297367096,0.0004327142087277,0.2285126298666,-0.629437599504514,0.093543267810062,0.1581112436808595,0.755022391833791,0.0091078523546457,-0.0652264207601547,-0.0083761671558022,0.0030218362808227,-0.0133115053176879,0.0176353454589843,0.1866152286529541,-0.050681360065937,-0.1235784488737583,-0.314659982919693,-0.0573174264847999,-0.1462000305265188,111
1733293528858046700,0.0143181559488177,-0.1191037146124988,-0.1427595346838235,3.324994609554112,1.2172940886054189,9.145107414475085,0.1526423990726471,0.0575366504490375,0.1896542608737945,-0.6327874010185899,0.0913305384180512,0.1593361868928612,0.7522305034668056,0.0046148337423801,-0.0564385242760181,0.0019921183120459,0.0014028549194335,-0.0099735558032989,0.011626124382019,0.1656098961830139,-0.0662403479218483,-0.0520347231417894,-0.2050363719463348,-0.0365237315460573,-0.0619821166604757,112
1733293528898046700,0.0131605103462934,0.1761073852732777,-0.1661275507897138,3.316725086119771,1.2261465995594858,9.146927615639568,0.0510899610817432,0.0600620359182357,0.2399844527244568,-0.6365087622483432,0.0899175432441283,0.1598477794819465,0.7491463743795612,-0.0346558727324008,-0.0352423191070556,-0.0028467788361012,-0.0046877861022949,-0.0112919509410858,0.0135917663574218,0.1382276862859726,-0.0546599403023719,-0.1192529868900775,-0.1762112975120544,0.010640695845359,-0.1901332802772521,113
1733293528938046700,0.1504953896328806,0.0901353942815214,-0.0060989013969898,3.310023834915459,1.2009379970882088,9.152697431212664,0.0003424014430493,0.0131124109029769,0.1891236454248428,-0.6399478389827477,0.0897757593573739,0.1590050351945902,0.746407802623113,-0.0281087569892406,-0.0440713874995708,0.0133467726409435,-0.0043919086456298,-0.0059621930122375,0.0064801573753356,0.1361749321222305,-0.0026327334344387,-0.1631049880981445,-0.1631733924150467,-0.0216672583363018,-0.1222673662751913,114
1733293528978046700,0.2593313196659088,0.036367125345394,0.1574818875193595,3.325088133056461,1.198292743276432,9.147582280156016,0.1194176599383354,-0.0292374435812234,0.132958635687828,-0.6424218124270237,0.0899220073467563,0.1597407913624441,0.7441041480956944,-0.019263070076704,-0.0342138037085533,0.0135369878262281,-0.0028009414672851,-0.0078113675117492,0.0152063369750976,0.0890964567661285,-0.0029213363304734,-0.0467547369122505,-0.1565810590982437,-0.0377609611738356,-0.1421931329727172,115
1733293529018047000,0.2483560444042086,-0.0803577313065528,-0.0674964961677789,3.338606955321133,1.2382535091996192,9.137330935254692,0.1507016867399215,-0.0008205694612115,0.0833741277456283,-0.6441382269118474,0.0887105508277949,0.1620377058317994,0.742266818604861,-0.0528615079820156,-0.0019454543944448,0.0180213525891304,-0.0148007273674011,-0.0122725069522857,0.0115702152252197,0.0674817934632301,-0.0566091537475585,0.0745054981470108,-0.0733513608574867,0.0289382471364107,-0.0134171154558658,116
1733293529058046700,0.0938379751265049,-0.0171748605541884,-0.2357002687096595,3.3401953935563564,1.2656015348523857,9.133002550661564,0.0786239132285118,0.0204129181802272,0.1494551301002502,-0.6461352171361441,0.0873967902264278,0.1634266542984392,0.7403802185705748,-0.0327663607895374,0.0119028240442276,0.0196486767381429,-0.0107496380805969,0.0085312128067016,0.0015068054199218,0.0778718665242195,-0.0724896788597107,-0.0879997704923152,-0.066742792725563,-0.0157589213501487,-0.022247487643361,117
1733293529098046700,0.2911874703928828,-0.035668110230565,-0.0026981530427932,3.330790728612244,1.2785580470591782,9.13463219769001,0.0927496403455734,0.0556453019380569,0.0838818401098251,-0.6480795812694472,0.0861591430880895,0.1638290992237148,0.738735040597216,-0.0173698253929615,-0.0088572623208165,-0.0068156877532601,-0.0042378306388854,0.0108290910720825,-0.0002971291542053,0.0798359289765358,-0.0395804420113563,-0.1410287653684616,-0.0869894325733184,-0.0138626398668158,-0.0021872809112071,118
1733293529138046700,0.1000672249048948,0.0784314394190907,-0.186636670333147,3.3234915115147827,1.2992821245275437,9.134366824752092,0.0864903554320335,0.0250982865691185,0.1306793987751007,-0.649981643708923,0.0847409419442467,0.1646082638861271,0.737052949889658,0.0035279977601021,-0.0238484628498554,-0.01057287491858,-0.0020029544830322,0.0034146308898925,-0.0014096498489379,0.0704041272401809,-0.0116203855723142,-0.0867278508603572,-0.1096536889672279,0.0176653817342012,-0.0468061748385429,119
1733293529178046700,0.1974620157301425,0.1111462528020143,-0.2138724677830934,3.3317408689439296,1.3044254787653684,9.130627638223766,0.0493227876722812,-0.0226343795657157,0.1189893260598182,-0.6520863559598773,0.0844069190930325,0.1653572392259307,0.7350618241412448,0.0123177608475089,-0.0039673796854913,0.0018541665049269,-0.0033037066459655,-0.0078111886978149,0.0015262961387634,0.0530112087726593,-0.0451709330081939,-0.080030983570218,-0.0963566452264785,0.0093562683582771,-0.0452782346189022,120
1733293529218046700,0.1064458200260996,0.0862633020885288,-0.2093009220838546,3.346142611522972,1.296388010521233,9.126505005335808,-0.0116218961775302,-0.0343330316245555,0.1038447245955467,-0.6535689292957135,0.0849015054403268,0.1657392132152607,0.7336005804841266,-0.0174457281827926,-0.0126026785001158,-0.0053592715412378,-0.00789475440979,-0.0110279917716979,-0.0002886056900024,0.0664910823106765,-0.0238176584243774,-0.093990535339713,-0.0926587060093879,0.0071075395834166,-0.1049953289568424,121
1733293529258047000,0.2918833437025547,0.0485441045470535,-0.0530161353945732,3.3573288991868493,1.285774262048304,9.123897453185917,0.0106960432603955,-0.0336964949965477,0.0122242756187915,-0.6543946905675878,0.0855103349641341,0.1658271995441171,0.7327733683789842,-0.017195388674736,-0.0149377388879656,0.0163354370743036,-0.0051928162574768,-0.0081135630607604,-0.0050309300422668,0.0572438910603523,-0.0185568816959857,-0.0623608868449926,-0.0521136559545993,0.0306477156521286,-0.0607446838200092,122
1733293529298046700,0.0933028453364968,-0.0073658525928854,-0.0072562547385692,3.3743989841923114,1.3023296755298972,9.115248282784224,0.071381576359272,-0.060998611152172,-0.0123586291447281,-0.6541635239372702,0.0856369903655374,0.1670867290874372,0.7326789581359449,-0.0266205817461013,-0.0170477610081434,0.0083733182400465,-0.0055757761001586,-0.0063343048095703,-0.0018998384475708,0.0468181334435939,-0.0260644648224115,-0.0949503202825784,-0.0343572497367858,0.0210042826492339,-0.0497930816948413,123
1733293529338046700,0.1311193657726049,-0.0765656455472111,-0.1319201607614755,3.398831414659321,1.328433692470938,9.102394646430016,0.0552230328321456,-0.0676845535635948,-0.0125505793839693,-0.6539534716916118,0.085706887995432,0.1690010247500387,0.7324191507767617,-0.0047768037766218,-0.0158218555152416,0.0129273906350135,-0.0076184272766113,0.002432644367218,-0.0016706585884094,0.0379474498331546,-0.0231556594371795,-0.0683306089043617,-0.0531480088829994,0.0222030457134358,-0.0525058477848768,124
1733293529378046700,0.0712365594789385,-0.1325508598804473,-0.0089665657877922,3.420556924255192,1.347009651994705,9.091520201194284,0.0439367108047008,-0.0571756400167942,0.0034217166248708,-0.6536624575578509,0.0859546495211243,0.1705088524049875,0.7323004202244877,-0.0051802722737193,0.0034854768309742,0.0098286028951406,-0.0111932754516601,-0.0009283125400543,0.0019747018814086,0.0371441133320331,-0.0259185004979372,-0.0135655840158462,-0.0500341728329658,0.0361255237254197,0.0025192893445491,125
1733293529418046700,-0.0156663556873798,-0.1313838619276881,-0.1221276655435562,3.4435645826160908,1.359758951191604,9.080930418118834,0.0549656115472316,-0.0802070870995521,0.0472975857555866,-0.6538686349551283,0.0863380037076922,0.171892802075427,0.7317474720593616,-0.0023514628410339,-0.0054452740587294,0.0009592112619429,-0.0087971091270446,0.0023038387298583,0.0020136833190917,0.0339843221008777,-0.0150228384882211,-0.0729646984457969,-0.0547358207404613,0.0060588981801643,-0.0291208805441856,126
1733293529458046700,0.1572363883256912,-0.046716450728476,-0.113584293603897,3.4844939743757246,1.3693632303610443,9.063858287286758,0.0286945849657058,-0.1119745373725891,0.0339587144553661,-0.6543016943942469,0.0874576043934863,0.1738476179091573,0.7307649893274399,-0.0123340552672743,0.0022213808260858,0.0045894994400441,-0.0118373036384582,-0.0033627152442932,0.0008081197738647,0.0297858454287052,-0.0102186687290668,-0.1041851816177368,-0.0434211194515228,0.0060212604503612,-0.0189320794850587,127
1733293529498047000,-0.0277285494029521,-0.0001585515625774,-0.2279693821966648,3.544511512964964,1.3563240083068608,9.04252206926942,-0.0752279460430145,-0.1956805884838104,0.0131499217823147,-0.6539001968444683,0.0902925374436686,0.1755190433145933,0.7303799490574039,-0.000768213532865,-0.0067333388142287,-0.0026660831645131,-0.0064130425453186,-0.0009736120700836,-0.0012670755386352,0.0248677562922239,0.0041953520849347,-0.0868038387060165,-0.0505350530147552,-0.0133138286113273,-0.0591331569701433,128
1733293529538046700,0.1642997508406639,-0.0221871357582509,0.0969979004621505,3.602826923811436,1.3327132694862782,9.022965135884284,-0.0267391428351402,-0.0959565266966819,0.0272155180573463,-0.6535955349599418,0.0934113499976691,0.1767233198747093,0.7299699357553268,-0.0080069517716765,-0.0082667330279946,-0.0082480683922767,-0.0088059306144714,-0.0044529736042022,-0.0007941722869873,0.0149813685566186,-0.0077660987153649,-0.0609516045689582,-0.0551877617835998,0.008677049355884,-0.0510071336597204,129
1733293529578046700,0.1317597095027566,0.0479490612633526,0.050694414448738,3.626239071319997,1.3213846507422626,9.01524944694042,-0.0222591254860162,-0.0417652241885662,0.0178698133677244,-0.6536629523635296,0.0946827339304091,0.1771592246067407,0.7296400191216778,0.003345571225509,-0.006422228179872,0.0056942449882626,-0.0046026706695556,9.244680404663086e-05,-0.0026109814643859,0.0171122457832098,-0.0179345495998859,-0.0288625218689441,-0.0514993742108345,0.0189476104143308,-0.0246153858184814,130
1733293529618046700,0.1729062511444091,0.0698950817421078,0.0292863002389669,3.644199383163452,1.3096141334496438,9.009722792473434,-0.0337861217558383,-0.0580797865986824,-0.0007099627982825,-0.6535971424820488,0.0957944845716509,0.1773566880674612,0.7295058309402607,0.0078777391463518,-0.0231041107326746,-0.0006982735358178,-0.0011822581291198,-0.0007616579532623,-0.0019252300262451,0.0327729806303978,-0.0220591332763433,-0.0513239445239305,-0.0415897779166698,0.0360354091729968,-0.0164770875483751,131
1733293529658046700,0.2355731351986527,0.0381476520866155,0.2244242569357156,3.653957099328935,1.304101653638482,9.006569881400466,-0.0060620792210102,-0.0105385100468993,-0.0167469773441553,-0.6533395906431164,0.0964216798579698,0.1774699853157277,0.7296263771163317,0.0065389676019549,-0.0327121578156948,0.0033587857615202,-0.000989556312561,-0.0060283541679382,-0.0016781687736511,0.0350908860564231,-0.0180959738790988,-0.0647416445016861,-0.0407094918191432,0.026378682863689,-0.0350812502533197,132
1733293529698046700,0.1040627242818474,-0.0398529946997761,0.0769990685284137,3.652140405295789,1.323294722147286,9.004507103651761,0.0676771029829979,-0.0110646607354283,-0.0327152051031589,-0.6528892433252214,0.0957911219758354,0.178106621838354,0.7299574199144472,-0.0163945779204368,-0.0069237542338669,0.0084782475605607,-0.0090712308883667,-0.005524456501007,0.0087944269180297,0.037543561309576,-0.0355512648820877,0.0224333656042814,-0.0207809992134571,0.0923862510813865,-0.0296779299050569,133
1733293529738047000,0.0882300721168518,0.0278933845758438,-0.0614466946095228,3.660640814876556,1.360145027899742,8.995559827086328,0.0845367759466171,-0.0413779690861702,-0.0499072298407554,-0.6524684151687438,0.0949299817535489,0.1798398896206711,0.7300210863085892,-0.0030880933627486,-0.0059977732598781,0.0056440443731844,-0.0058138370513916,0.0023885667324066,0.0007762908935546,0.0340894907712936,-0.0166113674640655,-0.0988286230206489,-0.0244152750819921,0.0035512262081727,-0.0222509947746992,134
1733293529778046700,0.0084323127806186,-0.0010221826545894,-0.1283703593254089,3.6719045516908166,1.3972906633369624,8.985269903740287,0.0617324560880661,-0.0396561436355114,-0.0368000790476799,-0.6518184381858849,0.0942213782631772,0.1816619054545455,0.7302424134997423,-0.0095364050939679,-0.0148300938308238,0.0071036568842828,-0.0063745379447937,-0.0046947300434112,0.0014828443527221,0.0314307734370231,-0.017980245873332,-0.0626917262345552,-0.017510812729597,0.070897774244938,-0.0076736033678054,135
1733293529818046700,-0.0470364764630794,0.0321278072752058,-0.1144084694683551,3.6806858240395774,1.4138202117249368,8.97908916927874,0.0199336186051368,-0.0168499648571014,-0.0177077166736125,-0.65145374798043,0.0940691271892797,0.1826057118251316,0.7303520465482912,-0.0065539311617612,-0.0166744925081729,0.0091170063242316,-0.0023244619369506,-0.0027399361133575,-0.0008633136749267,0.0252556651830673,-0.0019490085542201,-0.07280980014503,-0.0122609483078122,0.0121406429463764,-0.0214712425738573,136
1733293529858046700,0.0760153181880712,-0.1117230297766625,-0.0501630840510129,3.688866792407632,1.42224916350469,8.974400134679675,0.0199008211493492,-0.0483911521732807,-0.0399384200572967,-0.6509473071130678,0.0942132676066659,0.1831851673313989,0.7306399244798426,-0.0025157798081636,-0.0190764516592025,0.0080635258927941,-0.0043027400970458,-0.0021731853485107,0.0033129453659057,0.0269448347389698,0.0089144064113497,-0.0977998644948005,-0.0285162217915058,0.0193640822607325,-0.0469827004492282,137
1733293529898046700,-0.0170747611805796,-0.1334901865571737,-0.017805121281743,3.704893505840003,1.4392279169648885,8.965086362889409,0.0476972758769989,-0.0456147938966751,-0.0161910783499479,-0.6503893536850269,0.0943717357726516,0.1843957318123182,0.7308117784037731,-0.0088253412395715,-0.0051088100299239,0.0119303688406944,-0.0053102970123291,-0.0046512186527252,0.0021864175796508,0.0192674193531274,0.0060552866198122,-0.0481622656226158,-0.0361276753246784,0.0142478854578919,-0.0339285730868577,138
1733293529938046700,0.0491322796985507,-0.1073828086152672,-0.0069371057868003,3.7199396838024255,1.457712544943392,8.955864361035824,0.0348248556256294,-0.018085004761815,-0.0060815257020294,-0.6501972750964045,0.0943484548014404,0.185678115055003,0.7306610302595521,-0.0298145115375518,-0.0046231560409069,0.0103929275646805,-0.0021442770957946,-0.0038070976734161,0.0025262832641601,0.0225343406200408,-0.0124944280833005,-0.0282411751002073,-0.0261815320700407,0.0174821638045366,0.0047153380841016,139
1733293529978046700,-0.0203913383826613,-0.1421500244833529,-0.0192389534771442,3.726765145908296,1.4685378903403878,8.951257159501314,0.0507779084146022,-0.0297337491065263,0.02658087387681,-0.6503529631707865,0.0941905987849557,0.1863894605589411,0.7303617398351163,0.0021250445861369,-0.0030534358229488,0.0229191724210977,-0.0084229111671447,0.0036168992519378,-0.0023777484893798,0.0328209586441516,-0.0031715640798211,-0.0327910934895277,-0.0239017941057682,0.0561789011412765,-0.012473112604022,140
1733293530018047000,0.1132578381285071,-0.0296605403788387,0.0050952773123979,3.740658646704256,1.48294080196321,8.943083789917827,0.0629295036196708,-0.0213038064539432,0.0160826072096824,-0.6506538535856998,0.0941390489733464,0.1875299293233951,0.7298081809903124,0.0136104589328169,0.0034370073117315,0.0062453858554363,-0.0023438930511474,0.0057168006896972,-0.0027894973754882,0.0257978197187185,-0.015921764075756,-0.0532394227564334,-0.0326037555932998,0.0327888741329778,-0.0037082068681716,141
1733293530058046700,0.1099237252697348,-0.0142322312310338,-0.1216097791492939,3.752821378184855,1.5019292878106236,8.934815727788209,0.0473505929112434,-0.0150912133976817,0.0090218978002667,-0.6509132552248145,0.0938699963455097,0.1887845672611478,0.7292879349306545,0.0253539346158504,-0.0082428185269236,-0.0018386390293017,-0.0026789903640747,0.0039241909980773,0.0022807121276855,0.0297433007508516,0.0067702457308769,-0.0922895766407251,-0.0410120375454425,0.0120437995423562,-0.0288017315924167,142
1733293530098046700,0.1066831359133124,-0.0462150770775973,-0.1770540184736251,3.76683587501198,1.5090724375635385,8.92771144874096,0.0016972064040601,-0.0453124567866325,0.0192292854189872,-0.6510745685471275,0.0941110688773485,0.1896219762977367,0.7288954841558654,0.0151633489876985,0.0064193746075034,-0.0016634031198918,-0.0065606832504272,-0.0073351263999938,0.0078177452087402,0.0157619789242744,0.0201754067093133,-0.0473813443779945,-0.0241836588829755,0.0085653006436768,-0.021102409261465,143
1733293530138046700,0.1141407584428787,-0.0729423404835164,-0.0388689520984888,3.778830848710239,1.5078171768054365,8.922852902793883,0.0118659548461437,-0.0196680799126625,0.0170721244066953,-0.6511819567503249,0.0945836225824494,0.190039579031147,0.7286294204195591,-0.0147332968190312,0.0200549196451902,-0.0005250349640846,-0.0090653896331787,-0.0102753639221191,0.0115177631378173,-0.0008814949542284,0.0212108585983514,-0.0802758982419967,-0.0202248468995094,-0.0166781904778908,-0.0120499187558889,144
1733293530178046700,0.1071782259538769,-0.0393367157407104,-0.1136789861500263,3.789684251157939,1.510723273510486,8.917757040959597,0.0105452463030815,-0.0450359173119068,0.0159935634583234,-0.6513765719104876,0.0948436329622716,0.1905927733816357,0.7282772035457142,-0.0044569578021764,0.0424929559230804,0.001253024674952,-0.008535087108612,0.0004583001136779,0.011620283126831,-0.0135672008618712,0.0227737482637166,-0.0531271945536136,-0.025291085243225,0.0109430260930676,-0.0272679461538791,145
1733293530218046700,0.1238262861549854,-0.0586510725416243,-0.0085895491689443,3.80864964839071,1.5153731451429426,8.908883998674154,0.0386510081589221,-0.0583766996860504,0.0175362881273031,-0.6514346468672971,0.0953862722096733,0.1915065888130301,0.7279146301228034,-0.0010662213899195,0.0364517346024513,-0.0032774119172245,0.0028566122055053,0.0005804300308227,0.0017953515052795,-0.0124564561992883,0.0235992316156625,-0.0688292060762643,-0.0405555106699466,-0.0105571411811746,0.0209691382706165,146
1733293530258047000,0.1392085642039775,-0.0014784019894897,-0.0391080215513706,3.826038297826051,1.5243402954526244,8.899899312707781,0.0191066674888134,-0.0358402095735073,0.0129682030528783,-0.6514848843654425,0.095718770591441,0.1925340214072866,0.7275548337139249,0.0067245899699628,0.0282382275909185,-0.0028340620920062,-0.000870406627655,-0.0006841123104095,-0.0013052821159362,-0.0078107211738824,-0.0129356291145086,-0.0392857162058353,-0.034991979598999,0.0516328186768572,-0.0234919347465038,147
1733293530297732900,0.1139513733506202,0.0302948927596211,-0.0536304679006338,3.8438136084914207,1.5232427094742655,8.892424446782469,-0.0093605509027838,-0.0517156571149826,-0.0066044232808053,-0.6513956121131387,0.0964567531770659,0.1931543913154629,0.7273729194111321,-0.00735714007169,0.0237881932407617,0.000717329676263,-0.0014694333076477,-0.0042445659637451,0.0014249682426452,0.0014448177535086,0.0225769020617008,-0.0449061088043032,-0.0378137156367301,0.0107558192581636,-0.0495329603207763,148
1733293530337732900,0.1527133579432964,-0.0426011243641376,0.1294055475920438,3.8550302912935615,1.5247614434741437,8.887306957638263,0.0161663815379142,-0.0091676646843552,-0.0060329088009893,-0.6511987103572943,0.0968821019282006,0.1936163718110524,0.727369795477468,-0.0097832800820469,0.0294520426541566,0.0035677112173289,-0.0057640671730041,-0.0073936283588409,0.0037851333618164,-0.0052357167005538,0.0178871694952249,-0.0687070410013198,-0.0304714757949113,0.0210534738195128,-0.0499245991200208,149
1733293530377733000,0.1030500401079654,-0.0507807775579392,-0.0348655616760253,3.854864579337835,1.5357843572698533,8.885480911254882,0.0325348041951656,-0.0121512152254581,-0.0223555695265531,-0.6510626817330178,0.0965241818620108,0.1940351564771343,0.7274274695879243,0.0005399312358349,0.0282580405473709,-0.0031058378517627,-0.0029599666595458,0.0003210008144378,0.0033221840858459,-0.003357449080795,0.0222519785165786,-0.1074602577656507,-0.0329339355230331,0.0042636487938463,-0.0613128390967845,150
1733293530417732900,0.2508528296560049,0.0341428003594279,0.0162602299273014,3.8514620774179695,1.5457310201361774,8.885231904929876,-0.0157015621662139,0.0669388324022293,-0.068581037223339,-0.6505004049851613,0.0961949187494405,0.1942313028051898,0.7279217297305173,0.0313780046999454,0.0086078001186251,-0.005506943911314,0.0041287541389465,0.0042996108531951,-0.0031290054321289,-0.0051719741895794,0.0244728159159421,-0.0760030432283878,-0.0234208069741725,0.0163970719815697,-0.051416298982501,151
1733293530457732900,-0.0073430562391877,-0.0918618527479469,-0.0431195952802896,3.823101952113211,1.5482846501417458,8.89702697214186,-0.0034311721101403,0.0500970333814621,-0.0341409519314765,-0.649991003567922,0.0951612183084067,0.1931895431720122,0.7287893791049359,0.0138000762090086,-0.0015954617410898,-0.0035632355138659,-0.0023828744888305,-0.0088908970355987,0.0015766024589538,-0.0113421641290187,0.0196383297443389,-0.0822924987614154,-0.010737451724708,0.0113369299146346,-0.0224976630121469,152
1733293530497732900,0.2315545472070574,-0.0567241961322724,0.0738730454623699,3.7977372092321513,1.5614799395404757,8.905580280953645,0.0283669307827949,0.1132935360074043,-0.0983015298843383,-0.6493156749784564,0.0939106250591617,0.1926721885336967,0.7296899721421398,-0.0017189620994031,0.0165935009717941,0.0053263297304511,-0.0053777694702148,-0.0116451680660247,0.0084123015403747,-0.0136138359084725,0.0171692259609699,-0.0641857641845941,0.0107992580160498,0.0187846429715398,-0.0177414083957672,153
1733293530537732900,-0.0532312394499778,-0.134767074625194,0.0156873984754085,3.752871354806423,1.5979235641881822,8.918126458793878,0.0762842893600463,0.0685388594865799,-0.0596117749810218,-0.6486088469151087,0.0911095605988354,0.1923567924080133,0.7307560845225338,-0.0139769604429602,0.0133166955783963,0.0065477881580591,-0.0014875531196594,-0.003890573978424,0.0031599998474121,-0.0123091423884034,0.0092047723010182,-0.0619020371615886,0.0146522559225559,0.029754885865096,-0.0200607912540435,154
1733293530577732900,-0.111204704990983,-0.0413451329536736,-0.0149935709923505,3.728843413487077,1.6312446729011834,8.922171934792399,0.0680531784892082,0.0398642644286155,-0.0145560912787914,-0.6483294750436166,0.0891001801423974,0.1927614967251058,0.7311449971782958,-0.0051373960450291,-0.0090850694105029,0.0008994232630357,0.0011875629425048,0.0018795132637023,-0.0039358735084533,-0.0106191439554095,0.011537630110979,-0.0721586427599191,0.0061337342485785,0.0163941676384303,-0.0035983167529106,155
1733293530617733000,-0.1098056518480181,-0.1139895134039223,-0.0543149430334568,3.711882049553096,1.642238214471936,8.927226295572519,0.0215673185884952,0.0513874553143978,0.0442912280559539,-0.6488710385236496,0.0879259562872117,0.19263218791549,0.7308407691827488,-0.0064857536926865,-0.0088354777544736,0.0043817060068249,-0.0086653232574462,-0.0049921870231628,0.0014469623565673,-0.0077477893792092,0.0129037806764245,-0.053480830296874,-0.0134498188272118,0.0307468834439758,0.0188444012016057,156
1733293530657732900,0.0130453595340251,-0.1015830362953245,0.073945526176691,3.697966921447217,1.6468904241919518,8.932142709186673,0.0435202307999134,0.0409799963235855,0.0517127849161624,-0.6497582612453034,0.0869993431305899,0.1924021157400968,0.7302236986896301,-0.0029381574131548,-0.002752658445388,0.0055472385138273,-0.0063100457191467,-0.0005242526531219,0.0024080276489257,-0.0005823466926813,0.0103984037414193,-0.0411310518115758,-0.0412915349006652,0.0408279498123098,0.0351706821024417,157
1733293530697732900,0.0240887315958738,-0.0473918657720088,0.0045259529918432,3.694705289302766,1.6534524130560455,8.932280656352638,0.0458886213600635,0.0173221062868833,0.0725794211030006,-0.6509305519599381,0.0863355826010406,0.1926826552524767,0.7291838330065177,0.0044726207852363,-0.0092196129262447,0.0107125723734498,-0.0011779069900512,0.0003702342510223,0.0007363557815551,0.012533089146018,0.0150920990854501,-0.0573760841697454,-0.0672386735677719,0.0553594927834812,0.0692173286110162,158
1733293530737732900,0.0834451759278774,-0.0087292499005794,-0.0669359396755695,3.694156130987405,1.6614767295576631,8.931018673592805,0.0677629113197326,0.0059722056612372,0.0544896088540554,-0.6520197441969893,0.0857440005216471,0.1931132883051216,0.7281659422676671,0.0230886489152908,-0.0125153269618749,0.0128795867785811,-0.0059097409248352,0.0001965463161468,-0.0017794966697692,0.0226355344057083,0.025906266644597,-0.0514677369087934,-0.1067887544631958,0.0713985999065451,0.0905137991398572,159
1733293530777732900,0.1820858751609921,-0.0148174837730824,-0.1036281322568655,3.706546533744037,1.6810322016380723,8.922221034631132,0.0595683082938194,-0.0258324220776557,0.0364028811454772,-0.652693163981411,0.0853442925696726,0.1944471117054781,0.7272539354081661,-0.006670843809843,0.0020571702625602,0.014128410257399,-0.0023121833801269,-0.0050311088562011,0.0035206079483032,0.0243764240294694,0.0197503007948398,-0.0395627795815467,-0.1564059257507324,0.0827262779356446,0.1298866091072559,160
1733293530817732900,0.157855981528759,0.076398910678178,-0.0306026435345411,3.714615566170216,1.6965075647979977,8.915933917185663,0.0512374714016914,-0.0124431643635034,0.0376491211354732,-0.6534280846385991,0.0849055475833386,0.1954607897290708,0.7263731990035656,0.0049035204574465,-0.0062444354407489,0.0085094068199396,-0.0004853010177612,0.0055351555347442,0.0012942552566528,0.0308471862226724,0.0456985421478748,-0.0356546662271022,-0.2009136527776718,0.0333029154691845,0.0394791929513216,161
1733293530857733000,0.2451177931353449,-0.0231524736590683,-0.0266805016547441,3.71967986382246,1.7091193552203476,8.911413224890827,0.0532541722059249,-0.0155033217743039,0.0134063558652997,-0.6537856527132597,0.0845541636968965,0.1962013783159062,0.7258926204928494,-0.0064348876476287,0.0026240509469062,-0.0063529633916914,-0.0120159983634948,-0.0045231580734252,0.012365698814392,0.0176952797919511,0.0543903708457946,-0.0286859962582588,-0.19529390335083,0.0299470657026395,0.0363286199659109,162
1733293530897732900,0.0600347819849848,-0.015435615671426,-0.076694532623887,3.7172672497227786,1.7304320462316274,8.908305906525253,0.0782945156097412,-0.0090894727036356,0.0146363973617553,-0.6539681804485069,0.08365885549262,0.1969873251791954,0.725618832695757,0.0054002003744244,0.0284714680165052,0.0045920959673821,-0.010511040687561,-0.0023553073406219,0.0029150247573852,0.0084431720897555,0.0465451218187809,-0.0338812268137931,-0.1783577054738998,0.0350889038368128,-0.0053641573816537,163
1733293530937732900,0.0557180878296494,0.0662444502800703,-0.2095715557187795,3.7308614753112193,1.751104247382283,8.89857829323709,0.0498585700988769,-0.0473159924149513,0.0078608132898807,-0.654134757213154,0.0833932421664124,0.1983541042146579,0.7251268510619905,0.0076681482605636,0.0281406491994857,-0.0051074028015136,-0.0054949522018432,0.0031736493110656,0.0024250745773315,0.0102817500010132,0.0349371507763862,-0.0338841494232416,-0.1565558910369873,0.0440714709113351,-0.0028331775993108,164
1733293530977732900,0.1144528931319713,-0.0381461907818913,-0.079932199370861,3.744102357417345,1.759577184434235,8.89134249676466,0.0051315641030669,-0.0193485952913761,0.0045458073727786,-0.6540565355327951,0.0836131265305355,0.1991897267950771,0.7249429268222571,0.042666345834732,0.0137765174731612,-0.0040684370324015,-0.0001806616783142,0.0095615983009338,-0.0072972774505615,0.0154647547751665,0.0312199499458074,-0.0535807835400104,-0.1390190124511718,0.0462287220104597,-0.03487549854815,165
1733293531017732900,0.1328615332648158,-0.0512146389305591,0.0457780008345842,3.7446974007010456,1.7629190422080456,8.890429473572969,0.0350328609347343,0.0111576234921813,-0.0104329604655504,-0.6540676632110236,0.0835138969782369,0.1993480988121786,0.7249007944926567,0.0263704620301723,0.013173789717257,-0.0095160659402608,-0.0075673460960388,-0.0036413371562957,0.0028108954429626,0.0185995381325483,0.0323758497834205,-0.0641939474910497,-0.1116686835885047,0.0523775452300906,-0.0244154793322086,166
1733293531057732900,0.0515071921363472,-0.0498372130975127,-0.0940647696197032,3.7509339570030567,1.7800968253716825,8.884375580361485,0.0328852497041225,-0.0233575161546468,-0.0144084971398115,-0.6539368901539062,0.083175113771898,0.2002618207916383,0.7248059246277199,0.0160493813455104,0.0129346922039985,-0.0081229005008935,-0.0016068816184997,-0.0062017440795898,0.0014695525169372,0.0201184339821338,0.0320834442973136,-0.0881096606075763,-0.1005981117486953,0.0451033712423406,-0.072145783278346,167
1733293531097732900,0.043639235240221,-0.0120214233137667,0.0105003512263298,3.7513197414502497,1.7880701423384249,8.88261149329841,0.0058985627256333,0.0127221876755356,0.0071785007603466,-0.6538754369479034,0.0829234958934564,0.2005904646846092,0.7247993689946203,0.0028917687013745,0.0166320130228996,0.0013726671459153,-0.0037600398063659,-0.007740706205368,0.0036860704421997,0.0162419565021991,0.0367781817913055,-0.0943751507431268,-0.0839877054095268,0.0287394069459289,-0.0529284571111202,168
1733293531137732900,0.0747410604685545,-0.0129790162995457,-0.0313631065130233,3.74640478914082,1.7896262857392429,8.884372657752037,0.0131897963583469,0.0035469073336571,0.0017582452856004,-0.6540780993186995,0.0826270027050784,0.2004890222438579,0.7246783955568614,0.010048215277493,0.0107802478596568,-0.0054969568736851,-0.0004521608352661,-0.0032519996166229,0.0020935535430908,0.0149406529963016,0.0432229042053222,-0.0962064578235149,-0.0757677853107452,0.0036217889600433,-0.0674035571873188,169
1733293531177732900,0.03917436478585,-0.0147853350691497,-0.0403267496913671,3.7489015743926166,1.7933778933577238,8.882562393459677,0.0059349229559302,-0.0131330844014883,0.0020559963304549,-0.6540294342714422,0.0826012330146663,0.2007296492772743,0.7246585677878579,0.0009364758152514,0.0083709387108683,0.0017007684800773,-0.0016621947288513,-0.0055069327354431,0.0057053565979003,0.0040062880143523,0.0461486130952835,-0.0618961919426918,-0.0709103345870971,0.0214210832891985,-0.0512327591091394,170
1733293531217732900,0.0782233496263623,-0.0490033926218748,0.025591537374258,3.7565392296642064,1.7948250234261154,8.879042402639984,0.0252381172031164,-0.0123712737113237,0.0061695575714111,-0.6541159713936283,0.0828134198055928,0.2010889074828794,0.7244566311400163,0.0047977929934859,0.0193858798593282,0.0045914966613054,-0.0064515471458435,-0.0020576417446136,0.0036725997924804,0.0027000526897609,0.0314791649580001,-0.0286783974736928,-0.06143544241786,0.0486485330359078,-0.0224245977759361,171
1733293531257732900,0.1151964049756526,-0.0774547033414244,-0.0520586885392665,3.763559337559342,1.8045716336756945,8.874092671278119,0.0264712776988744,-0.0193953197449445,0.0137417446821928,-0.6541949857945453,0.0827092259510837,0.2017581867983258,0.7242110651948847,0.0219413600862026,0.0225115250796079,-0.0050752451643347,-0.0101181268692016,0.001842588186264,0.0040951967239379,0.0069914041087031,0.0304925348609685,-0.0641407559990882,-0.0572394616901874,0.0227754387739114,-0.0129348848968744,172
1733293531297732900,0.1039285765081644,0.0482473135575652,-0.0133791215330362,3.76839333358705,1.8117482473067936,8.870578525677322,0.0295575596392154,-0.0068828160874545,0.0067225778475403,-0.6544386229801497,0.0825678359808586,0.2022595051804664,0.7238672527995064,0.0094604548066854,0.0152201103046536,0.0020572324283421,0.0006093978881835,-0.0073336064815521,0.0033419728279113,0.0068184533156454,0.0298747569322586,-0.0264881939530372,-0.0425937622785568,0.0278622953178361,0.005938157877326,173
1733293531337732900,0.0208680159837007,0.0215578979440033,-0.1327127724438905,3.771996034254133,1.818535569359362,8.86765825431645,0.007056058384478,-0.0142647540196776,0.0007911231950856,-0.6544259059721008,0.0824653274487258,0.2026690373395238,0.7237758610582518,-0.0016491874121129,0.0194016452878713,-0.0022006959188729,-0.0033754706382751,-0.0111327767372131,0.0088257193565368,0.0013585109263658,0.0319443121552467,-0.0512567245066165,-0.0427321903407573,-0.0156035561168566,-0.0240203425347805,174
1733293531377733000,-0.0007978723794221,-0.0111687520071864,-0.1189922901272773,3.778548816898465,1.8156486157462,8.865459867489337,-0.017614509910345,-0.0310764089226722,0.0093185538426041,-0.6544247979483999,0.0828148622842088,0.2028029801540884,0.7236995050410523,-0.019757617264986,0.0312089305371046,0.0047020842321217,-0.0073239207267761,-0.0096224546432495,0.0031002759933471,-0.0057912375777959,0.0206614937633276,-0.0344786081850528,-0.0420719943940639,-0.0180661833707243,-0.0124105687618255,175
1733293531417732900,0.0899275236845016,-0.0770278562314808,-0.0054524201869964,3.793766844296455,1.8048934129759668,8.861155448293685,-0.0193187613040208,-0.0285257678478956,0.0002969876513816,-0.6542388732747955,0.0838222817536533,0.2029300849550623,0.7237159902579731,-0.03463776409626,0.0172400642186403,0.0030295527540147,-0.0038688778877258,-0.0052161216735839,-0.0026234984397888,0.0004417304880917,0.0066986642777919,-0.0159814129859209,-0.0330379679799079,0.0060475000033155,0.0007025953114032,176
1733293531457732900,0.0393476755261421,-0.0717399789564311,0.0263438170462846,3.8048423650622367,1.8054411099866032,8.856293979737162,0.0271923448890447,-0.0337133146822452,0.0151654491201043,-0.6543183202973881,0.0841971484964175,0.2033851604040109,0.7234727265785625,-0.0060023907572031,0.0127535434439778,0.0043827048502862,-0.008786141872406,0.0035648941993713,-0.0021570920944213,0.0135551560670137,-0.0074142543599009,-0.0444271707475185,-0.0159510802477598,0.017243688006699,0.0048281508088111,177
1733293531497732900,0.0642868864715099,-0.0225451554156839,-0.0972737947940826,3.819407481509447,1.8098166947223244,8.849128325891494,0.0005689745303243,-0.0370559021830558,0.0086551802232861,-0.6543578591481214,0.0845779922049897,0.2041239337064772,0.7231844157359458,-0.0072631305083632,0.0025700950063765,0.002710040193051,0.0028988718986511,-0.0047836005687713,-0.0025155544281005,0.0169235933572053,-0.0069586774334311,-0.0847089122533798,-0.0054239425808191,0.008827887969464,-0.0413970092713832,178
1733293531537732900,0.0208513571098446,-0.0269759774699807,0.087131170964241,3.826331435553729,1.8108058518901464,8.845934498286248,0.0156411565840244,-0.0277764722704887,0.0084982346743345,-0.6543223128250806,0.084813188617292,0.2044250213566493,0.7231040692236479,-0.0111489491537213,-0.0078812669962644,0.0051192683167755,-0.0006505846977233,-0.0080034136772155,0.0058430731296539,0.0136459898203611,-0.0160895492881536,-0.098744451868534,0.0069460747763514,0.0095284374542534,-0.072371408727765,179
1733293531577732900,0.0801861741319298,-0.0625989333845675,0.0339443551778793,3.832238613770902,1.8126107093550263,8.843007212662696,0.0068655479699373,-0.0139722041785717,0.0157012566924095,-0.6544256835238067,0.084941730235516,0.2047364667773863,0.7229072530899306,0.0027737906202673,-0.0031553816515952,0.0067425318993628,-0.0061311721801757,-0.0039986968040466,0.0060784220695495,0.0088733918964862,-0.0149739794433116,-0.0957896937161684,0.0172141008079051,0.0105953725660219,-0.0487602315157651,180
1733293531617733000,0.0746285400047898,-0.0163932086572051,0.0517237574964761,3.834354875272512,1.8138401050195097,8.841837584361434,0.016207268461585,-0.0033398419618606,0.007435314822942,-0.6545708618180381,0.0849363173012934,0.2048842655847583,0.7227346013401538,-0.0329743549227714,0.0048905606381595,0.007838157005608,0.001185655593872,-0.0050392150878906,0.0054942965507507,0.0080618942156434,-0.0110948700457811,-0.0872609348237514,0.0179999414831399,0.0031639804562553,-0.03306640329957,181
1733293531657732900,0.0259077637165784,-0.0660370911397039,-0.0452279657363891,3.839081903794408,1.819939590938389,8.838532697597145,0.0197052750736475,-0.0203932207077741,0.0113191315904259,-0.6546537547449233,0.0848729262181213,0.2053213180699588,0.7225429625427359,0.0005300773773342,-0.0136612318456172,0.0002603313187137,-0.0005847215652465,0.0038051307201385,-9.5367431640625e-05,0.0071845389902591,-0.0150066306814551,-0.0502238743275403,0.0113797644153237,0.0175362046798691,-0.0122615156799554,182
1733293531697732900,0.1183054769068956,-0.0890346664980053,-0.0273071091204881,3.844995804013312,1.82108978388682,8.835724069917202,0.0107058100402355,0.0017502459231764,0.0205507036298513,-0.6549154861905403,0.0849795786496807,0.2056256388702729,0.7222065294343755,-0.0070101302117109,-0.0071137445047497,-0.0062888478860259,-0.0064393281936645,-0.0026831626892089,-3.8623809814453125e-05,0.009844833984971,-0.0157948601990938,-0.0315156667262315,0.0139889158308506,0.0326810572437942,0.0299292743176221,183
1733293531737732900,0.1042374963268637,-0.0715532242126762,-0.109444125059247,3.844698866893351,1.8239592018432915,8.83526171310246,0.0107969772070646,-0.0023681323509663,0.0119395833462476,-0.65511189134713,0.0848100509373914,0.2057529528366206,0.7220120636244174,-0.0024752998724579,-0.0021519025322049,-0.0055595412850379,-0.0061399936676025,-0.0010520219802856,0.0076782703399658,0.008678950369358,-0.0162914507091045,-0.0290109904289245,0.0056357914581894,0.0371153498968109,0.0142681793272495,184
1733293531777732900,0.0888102100923657,-0.0254568050786852,-0.1505477043420076,3.850399708883464,1.8223051510259507,8.833120024898648,-0.0056377975270152,-0.0192949436604976,0.0155368968844413,-0.655316222480849,0.0850248483928965,0.205929577613997,0.7217509326217012,0.0052121807821094,0.0038724341429769,-0.005937177222222,-0.0022332072257995,-0.0041272938251495,0.0074048936367034,0.0062081729993224,-0.0090205911546945,-0.0553968930512666,-0.0038306014612317,0.0137385294299572,0.0236374806970357,185
1733293531817732900,0.1062523432806134,-0.0128264560863375,-0.0677946023315191,3.857348212847113,1.8185032745249567,8.830871369189023,-0.0011573964729905,-0.0211756564676761,0.0142733762040734,-0.6554154824299405,0.0853930728916081,0.2060555187803364,0.7215812796865392,-0.0191472209990024,0.0043437601998448,-0.0065592247992753,-0.0008711814880371,-0.0076016783714294,0.0047885775566101,0.0010273680090904,-0.0012090075761079,-0.0315934081375598,-0.0029346907977014,0.0494518670417368,0.0308148249804973,186
1733293531857733000,0.1295055008351802,0.0221082253031432,-0.1381885735064744,3.8704569930061696,1.8164888659626244,8.825549297383427,-0.0077570150606334,-0.0364071130752563,0.0027853301726281,-0.6554032273221724,0.0859604564307727,0.206477669082295,0.7214044857323106,-0.0213603079319,0.0168504435569047,-0.0056841108016669,-0.0114700198173522,-0.0081591308116912,0.0104376971721649,-0.0048559568822383,-0.0033781186211854,-0.072095514395833,-0.0013127764686942,0.0289046805102378,0.034541736549139,187
1733293531897732900,0.0343467984989285,-0.0029996202073991,-0.0971007763147354,3.881669291894138,1.8140635385118424,8.82112271311283,-0.007511377800256,-0.0418214537203311,0.0121019724756479,-0.6553206892062994,0.0864915031142241,0.2068021734704573,0.7213230213617204,-0.0007221410050988,0.0208500865846872,0.0001843646168708,-0.0017536878585815,0.0004023611545562,0.0074184238910675,-0.0049960371106863,-0.0074560558423399,-0.0457166260361671,-0.0136549696326255,0.05474025577344,-0.0004553425520658,188
1733293531937732900,0.1621218222796916,0.0832562292270362,0.0054430678367614,3.894703253251314,1.8074148942776025,8.81674113702774,-0.024262448772788,-0.0202648565173149,-0.0067757163196802,-0.6551672009487282,0.0872623081560029,0.2070183592589378,0.7213076096091364,-0.03890947625041,0.0194501150399446,0.0116108572110533,-0.0002323985099792,-0.0087873637676239,-0.003095269203186,-0.0006060786545276,-0.0035243388265371,-0.0322036489903926,-0.0106061734259128,0.0618725918713957,0.0203641581147909,189
1733293531977732900,0.0294859144642949,0.0532429298877716,0.0060147302448749,3.9034392251536247,1.803759878901392,8.813625635355711,-0.0095373783260583,-0.0299194250255823,-0.0116106225177645,-0.6549277571582917,0.0877896204196522,0.2071789740861277,0.7214149956560334,-0.0074604712426662,-0.0129256146028637,0.000377710093744,-0.0003307461738586,0.0029923319816589,-0.0050167441368103,0.0071232980117201,-0.0087264738976955,-0.0405927071511745,-0.0158221088349819,0.0744385886569507,0.0075724810808897,190
1733293532017732900,0.0283344063416123,-0.0421077878892421,0.0232131178051233,3.911922683599591,1.8021452833116047,8.810193907341361,-0.0021835598163306,-0.0271354410797357,0.0048740324564278,-0.6547192999465082,0.0882258035794574,0.2074158257845135,0.7214829261064604,0.0129641098901629,0.0032073894981294,0.0056916484609246,-0.0073142647743225,0.0043977200984954,-0.0031092762947082,0.0142591837793588,-0.0069724093191325,-0.0441343252807855,-0.0076064877212047,0.074892013246566,-0.0001858779609203,191
1733293532057732900,0.0419151879265904,-0.0525957180254161,0.0052414077848196,3.9186929083868858,1.801260755562037,8.807365990439056,-0.0055615049786865,-0.0157242063432931,0.0001160440733656,-0.6545901982113999,0.088548849005702,0.207625664445347,0.7215001410806413,-0.0111755803227424,0.0013902614591643,0.0025877342559397,-0.0036906599998474,0.0034985244274139,0.0027619004249572,0.0094110062345862,-0.0057071959599852,-0.0178460378140211,-0.0019854819402098,0.0696791922354139,-0.0172141696512699,192
1733293532097732900,0.0447036496013402,-0.0779115071982145,0.0181903212070465,3.9199446620136498,1.8003898179464042,8.80698663573265,0.0019284237641841,0.0016178600490093,0.0069559793919324,-0.6545777123134753,0.088630563003345,0.207637361042174,0.7214979342394929,-0.0018103085458278,-0.0116890547797083,-0.0070456517860293,-0.0068991184234619,0.0058067142963409,0.0073874592781066,0.0064481990411877,-0.0027382620610296,-0.0388128379970788,0.0079207746312022,0.0703396471718326,-0.0003770166188478,193
1733293532137732900,0.023131577001512,-0.0364744581773877,-0.0818833334386348,3.922512758935988,1.7993550680711865,8.80605490784049,-0.000990173779428,-0.0135723175480961,0.0184496808797121,-0.6547629386361133,0.0887106752487116,0.2077175396994423,0.7212970073521823,0.0138525404036045,0.0137073816731572,-0.0034324079751968,-0.0117442607879638,0.0006091892719268,-2.813339233398437e-05,0.0002861842513084,0.0011114992666989,-0.0303828633040189,0.0146133378148078,0.0699758736270479,0.0266249720752239,194
1733293532177732900,0.0152548522770404,0.0538714370496571,-0.0699321988821029,3.9293420204341407,1.7946018821947276,8.803979855132102,-0.0063050598837435,-0.0169649720191955,0.0139277298003435,-0.6549374936316611,0.0890866979185384,0.2078112282016547,0.721065231832563,-0.0047344593331217,-0.0007101205410435,-0.0026130862534046,0.001184344291687,-0.0083237886428833,0.0032778978347778,-0.0009958916343748,0.0072765480726957,-0.0376560691773891,0.0117685031145811,0.0586788738640025,0.0400701445817947,195
1733293532217732900,0.0421846525177359,-0.0508294390052556,-0.0686380674183368,3.936978506661952,1.7908154955238105,8.801338985234498,-0.0075638350099325,-0.0236567091196775,0.0083847418427467,-0.6549394218166216,0.0895082083243363,0.2079540536136048,0.7209700128713445,-0.0147426193580031,0.0095684565603733,0.008602550253272,-0.0081726312637329,-0.0072130858898162,0.0034107565879821,0.0049391197971999,0.0071537820622324,-0.0197094935983419,-0.0042078886181116,0.0741122975783422,0.0438806427806615,196
1733293532257732900,0.1144575693070888,-0.0251937702283263,-0.0443365698546171,3.945060690830648,1.785081481916457,8.798883993297816,-0.01637389883399,-0.0106359310448169,0.0204934552311897,-0.655104318627195,0.0899690420227907,0.2080560658592765,0.7207333006291514,-0.0076689962297677,0.0078783612698316,0.0137181505560874,-0.0102550387382507,0.000807762145996,-0.0037438869476318,0.0098286559805274,0.0074946056120097,-0.0092488898605108,-0.0123247075825929,0.0869713042274117,0.0432645567089319,197
1733293532297732900,0.0515896097227931,-0.0209688460096716,-0.0195645321696996,3.952563029284775,1.7784625021681189,8.796857455906272,0.0056651602499186,-0.0274400636553764,0.0272134523838758,-0.6553556034095916,0.0904147865789195,0.2081111649464974,0.720433168859581,0.0095872217789292,0.0031403310131281,-0.0004625837318599,-0.0048461556434631,0.0061043202877044,-0.000334233045578,0.0112384101375937,0.005231708753854,-0.0225286426723003,-0.0071948245167732,0.0785508828139863,0.0258013807326555,198
1733293532337732900,0.1899967944160103,0.0808294404715299,-0.0239537070393562,3.961848159502447,1.779016482789069,8.792567649757862,0.0160176120698452,-0.0074837589636445,0.0017471024766564,-0.655513540043962,0.0906977195200215,0.2085131505224378,0.7201376896908059,0.0231075584888458,0.0134389344602823,0.0067609078250825,-0.0064594149589538,0.0027520060539245,-0.0002451539039611,0.0145523604005575,0.0142231620848178,-0.0374953256577253,-0.0069209090434014,0.0701648933931253,0.0216319860935211,199
1733293532377733000,0.0617813333913683,0.0832528682261705,-0.0822334620505571,3.969007091346383,1.7782389225453137,8.789495987227559,-0.0172817111015319,-0.0096135940402746,0.006388702429831,-0.6554641400566815,0.0910084453026971,0.2087531910035733,0.7200739012977305,0.0001308696810156,0.0034643847029656,0.0027490553911775,-0.0057313442230224,-0.0060139596462249,0.0057781934738159,0.0060137528926134,0.0062592886388301,-0.0519540591210126,0.0019902535714209,0.0583424267175607,0.0244622410833835,200
1733293532417732900,0.0742535692125558,0.0727253367319703,-0.0501695137917995,3.970899773225188,1.7690144364736973,8.79050194939971,-0.0250140726566314,-0.0164480917155742,-0.0066408980637788,-0.65538529735525,0.0914323632020628,0.2084448158140128,0.7201813058563283,-0.0024188407696783,0.0149432485923171,0.014242592267692,-0.0026794672012329,-0.0072802007198333,0.0025859773159027,0.0049865380860865,0.0178003832697868,-0.0095680388122797,0.0066787991672754,0.0700113650655373,0.0180862763106822,201
1733293532457732900,0.0809241330176591,0.0004525660730898,0.0107195469349622,3.9811382586449375,1.763026594235748,8.787073728516697,-0.0237916558980941,-0.0244378559291362,-0.0092478012666106,-0.6550387101836631,0.0921312200421566,0.2085563976451805,0.7203752118638357,-0.006238080561161,0.0155498627573251,0.0150663750246167,-0.0036850571632385,-0.0014256238937377,0.0048640370368957,-0.0034401877783238,0.0180080644786357,-0.0410258378714323,-0.0046639284119009,0.0310135989556089,0.0284311447143554,202
1733293532497732900,0.0543143585115671,-0.0068814300768077,0.0218979435533285,3.9872476814359423,1.7556962513476608,8.785771413746476,-0.0166327189654111,-0.011842037551105,0.0059863841161131,-0.6549573312940414,0.0926463197960077,0.2084873935776006,0.7204031761233405,0.0103326402604579,0.0115772793069481,0.0110336169600486,-0.0009052753448486,0.0067701637744903,0.003913938999176,0.0023333295248448,0.0142614534124732,-0.034161212798953,-0.0049155284650623,0.0424772422561421,0.0415682741850614,203
1733293532537732900,0.1162654955118894,-0.0349732598342001,0.0185445414721965,3.99233389865905,1.752812804865837,8.784036552777886,-0.0058627636171877,-0.0121125187724828,-0.0110501963645219,-0.6547924360750239,0.0929881891303776,0.2085472767552608,0.7204915285187891,0.0068148709833621,0.0095113581046462,0.0074478699825704,-0.0063952207565307,-0.0057262778282165,0.0070772767066955,0.0102639067918062,0.0129333790391683,-0.0425210448652505,-0.0112370438873767,0.0180846323428675,0.0289893631190061,204
1733293532577732900,0.0480544213339686,-0.0708767862558364,-0.0723264005422592,3.99395653142482,1.750409250855446,8.783778778624534,-0.0149955032393336,-0.0089142890647053,-0.0026863042730838,-0.6547070644887492,0.0931597723919159,0.2085022496264315,0.7205600806589483,-0.0183330923318862,0.0231521222740411,0.0160977505147457,-0.0049986839294433,-0.0124742686748504,0.0095987021923065,0.0082825189456343,0.0045998375862836,-0.0222182615488767,-0.0167717672884464,0.0315229732498526,0.0268289702147245,205
1733293532617733000,-0.0241869312733411,-0.0721967828132212,-0.0274468098521232,4.003200452849269,1.74574374326244,8.780498441779613,-0.0040678340010344,-0.0245535150170326,0.0216654352843761,-0.6547548992150565,0.0936600430453154,0.2086791277044479,0.7204004296717685,-0.0240024290978908,0.025935124605894,0.020082239061594,0.0025449991226196,-0.0054389238357543,0.0051442980766296,0.0138861732557415,0.0024804684799164,-0.0452209514737129,-0.0208110138773918,0.0166841909604147,0.0151683430373668,206
1733293532657732900,0.052518415005505,-0.0553195900313556,-0.0332084421187639,4.013285209012032,1.7379945904403924,8.777431455424427,-0.0120083298534154,-0.0184860900044441,0.0243478678166866,-0.6549836340322379,0.0942497122879989,0.208788239167234,0.7200840437749894,-0.0213187634944915,0.0108040031045675,0.0154691115021705,-0.0007466673851013,0.0001298487186431,-0.0024261474609375,0.0235286131501197,-0.0142505308613181,-0.0269733471214771,-0.0228621438145637,0.0565655897707678,0.0191968679010868,207
1733293532697732900,0.086593995347619,-0.0471682861492037,-0.0040466450423002,4.017366633106768,1.7314888618081807,8.776849856144189,-0.0051061757840216,-0.0049065914936363,0.0261518638581037,-0.6552931204700951,0.0945459328531825,0.2087253149457143,0.7197816997528563,0.0003537761513143,-0.0050176233053207,0.0149386096745729,7.992982864379883e-05,0.0018370151519775,-0.0080860257148742,0.0346154570579528,-0.0153222158551216,-0.0585410362958908,-0.01351576205343,0.045367264609225,-0.0023018472015857,208
1733293532737732900,0.0572016043856739,0.0121435883887112,-0.0316074366629123,4.020423098067939,1.7249994997888802,8.776728275591134,-0.002467876765877,-0.0109169455245137,0.0202427320182323,-0.6556473458985685,0.0947901482458118,0.2086293737994073,0.7194548118551144,0.0297201871871948,-0.0277749747037887,0.0095210745930671,-0.0038316845893859,-0.0012357831001281,0.007888376712799,0.0335186123847961,-0.0016856286674737,-0.0626841274499893,-0.0097038289532065,0.023238654105179,-0.0272808056354522,209
1733293532777732900,0.0495174796238541,-0.0227187584169209,-0.0169265848815441,4.02780794762224,1.72155447390154,8.774018432110548,-0.0049380040727555,-0.0135547015815973,0.0151814185082912,-0.6557481789465477,0.0951613997167375,0.2087914583317688,0.7192667980516623,-0.0299878865480422,0.0047346060164272,0.0170923750847578,-0.009583294391632,-0.0166110694408416,0.0104095935821533,0.0195018704980611,-0.0041428338736295,-0.017364976298809,-0.0022776639088988,0.0386950203036889,-0.0063864861667156,210
1733293532817732900,0.1370911336585879,-0.0589823503226041,0.0232785842567682,4.031961852431297,1.7192115640372037,8.772569402346015,0.0080030085518956,-0.002066557528451,0.0223722718656063,-0.6560528898374556,0.0953126718062481,0.2088993097779468,0.7189375052440703,0.0147950332611799,0.0055069224908947,0.0120750460773706,-0.0028398036956787,0.0046982169151306,0.0051357150077819,0.0146535858511924,-0.0061602061614394,-0.0430593895256519,-0.0077403807081282,0.0363641296707093,-0.0085065470606088,211
1733293532857733000,0.0804144299298524,-0.0133570558317005,-0.0627817426055669,4.034619673463702,1.7159335652798413,8.771989556631445,-0.0027139377780258,0.0015853173099458,0.031031634658575,-0.6564285297578257,0.0954206015896794,0.2089208448056239,0.7185739207971659,-0.0071611320599913,0.0068536298349499,0.0103940591216087,0.0056310892105102,0.0001910030841827,-0.0003032684326171,0.0097578316926956,0.0016864547505974,-0.042837271207571,-0.012569610029459,0.0100075262080878,0.0199263512194156,212
1733293532897732900,0.0698050653710961,0.0367896616064012,-0.0724053109973669,4.040141651755572,1.7118752297997473,8.770240667137504,-0.0017456831410527,-0.0186226293444633,0.0086623691022396,-0.6566707463181393,0.0957026216000822,0.209005202010774,0.7182905509890609,-0.0057640373706817,-0.0117019983008503,0.0007833760464563,0.0026768445968627,-0.0028397440910339,-0.0022016763687133,0.0148010198026895,-0.0174118988215923,-0.0217787010878324,-0.0019118776544928,0.0530367397911846,0.0250941092461347,213
1733293532937732900,0.041943829499185,-0.0549795444220304,-0.0933189196884632,4.044659129180014,1.7098218044012783,8.768558997660875,-0.0073599223978817,-0.015416289679706,0.0166355352848768,-0.6567591469350562,0.0959198344377317,0.2091107275803655,0.7181500599466203,0.0002517770044505,0.0033248881809413,0.0154034635052084,-0.0019481182098388,-0.0042558908462524,0.0048430562019348,0.0231262911111116,-0.0025227349251508,-0.052374914881587,-0.011433407664299,0.0189766492791473,-0.0156797996908426,214
1733293532977732900,0.1187622807636857,-0.057890609563142,-0.0530681578427553,4.056575776945055,1.7015100492604076,8.76467017352879,-0.0118845626711845,-0.0303815100342035,0.025589657947421,-0.656917620820419,0.0966183305014587,0.2092632006333086,0.7178670277551155,-0.0148443514481186,0.0225180238485336,0.0100619625300168,-0.005465805530548,-0.0033484101295471,0.0153986513614654,0.0187589954584836,-0.0105977524071931,-0.0815121620386838,-0.0169004332274198,0.012774652833864,-0.0205178873717784,215
1733293533017732900,0.1517225933402776,-0.0505047370955347,-0.0225964472115039,4.062670586688816,1.6912812084518372,8.763826708441972,-0.0235503986477851,-0.0034278971143066,0.0206642262637615,-0.6571612296360879,0.0971426443304017,0.2091231564032726,0.7176140859036955,0.0200747512280941,0.0142143946141004,0.0060982466675341,-0.0014984607696533,0.0078650712966918,0.0022218227386474,0.018250286579132,-0.0042016636580228,-0.0640612610220909,-0.0142103359103202,0.0118602414026856,-0.02472995210886,216
1733293533057732900,0.142725047892332,-0.0024546996757388,0.0121405196487903,4.06957349794507,1.6840820907279848,8.762010014408826,-0.002303535118699,-0.0249446276575326,0.0108045563101768,-0.6573630637292349,0.0976007205934339,0.2091313193032032,0.7173645615211922,-0.0064889499917626,0.011855418793857,-0.0065026329830288,-0.0030961036682128,-0.0067348182201385,0.0062906742095947,0.0132259987294673,-0.006067325361073,-0.0486404045283794,-0.009983941912651,0.0201586621379479,-0.0311304668009281,217
1733293533097732900,0.106441436111927,-0.0761279847823083,-0.0057090252965688,4.074732488143444,1.6799438218794762,8.760406670865416,-0.0153500493615865,0.0045963805168867,0.013400581665337,-0.6573970456940161,0.0979325818172128,0.2091716156416332,0.7172765154977122,0.0271299965679645,0.0160568226128816,-0.0001279576681554,0.0007175803184509,0.0047252774238586,0.0008431077003479,0.0112985065206885,-0.0077692628838121,-0.0384580332100391,-0.0105138700455427,0.0357820919990539,-0.0324427184432744,218
1733293533137732900,0.0993713515952229,-0.0602227057725191,0.0127817401617765,4.076265981321036,1.671969481999427,8.76121915629208,6.62864185869e-05,-0.0012107761576771,0.0292286556214094,-0.6577332860140466,0.0981782459191668,0.2089573509826866,0.716997110021649,0.0293273702263832,0.0028011510148644,-0.0001073846360668,0.0021010637283325,-0.0071936547756195,0.0024264156818389,0.0106697874143719,0.0065454239957034,-0.0942097310483455,-0.0042514870874583,-0.0185468795597553,-0.006652443626523,219
1733293533177732900,0.052404725497961,0.0293245864227414,-0.0197585934370756,4.082082266384363,1.6699600418731568,8.758893928214906,0.0047841863706707,-0.0275979898869991,0.0070381429977715,-0.6579401273802807,0.0984078327068354,0.2091329469966215,0.716724610513163,-0.0303085297346115,0.0055846869945526,-0.0089456168934702,-0.0078049898147583,-0.0146852433681488,0.0091328918933868,0.0003543514758348,0.0098484465852379,-0.0323766674697399,0.0068958108313381,0.0019489055780693,0.0062649056136608,220
1733293533217732900,0.0533665562674403,-0.0344791927069425,0.0034533553242683,4.0924928935006255,1.6704672607429325,8.753937767112255,-0.0026387814432382,-0.0145970210433006,7.0115784183e-06,-0.6578691955881528,0.0988000102810564,0.2095517527075353,0.7166134630848982,-0.0143055943772196,0.0236250460147857,0.0034294931683689,-0.0030062198638916,0.0006202161312103,0.0013697743415832,-0.0041741020977497,0.0039160219021141,-0.0345358913302421,-0.0028040190227329,0.0033081016346812,0.0067044660747051,221
1733293533257732900,0.061770811997354,-0.1847141778379678,0.0132084411412477,4.0960596460714935,1.6697177575498818,8.752412749502062,0.0131541155278682,-0.012878549285233,0.0282417889684438,-0.6580610838336558,0.098904291772123,0.209688081762537,0.7163830173529122,0.0075733396224677,0.0113607095554471,-0.0144162829965353,-0.0024788975715637,0.0069184899330139,0.0015336871147155,0.0038902768865227,-0.0062218368984758,-0.030531916385889,-0.0147843584418296,0.0152313983362168,0.0088888243764638,222
1733293533297732900,0.055040042437613,-0.0860536048606038,-0.0393511826574802,4.105184617291391,1.6690698150351642,8.74825972147584,0.0140142953023314,-0.0191829614341259,0.0456882491707801,-0.6585522910274392,0.0991249049705251,0.2100883908197056,0.7157835288905182,0.0240431278944015,-0.0093198008835315,-0.009999562986195,-0.0020613074302673,-0.0010272860527038,-0.0006407499313354,0.0186712369322776,-0.0188994482159614,-0.0166156192362308,-0.0045638876035809,0.0421839218653738,0.0239554606050252,223
1733293533337732900,0.1118915182113647,0.0053235331103205,-0.0096557170957326,4.107888907814026,1.6674752393200991,8.747294675835967,0.0135096171870827,0.0085432780906558,0.022812332957983,-0.6590324832104679,0.0991423307212864,0.2101972910542691,0.7153070030915291,0.0087698977440595,-0.003706176765263,-0.0060930391773581,-0.002628207206726,-0.0113560855388641,0.0076100826263427,0.0187877714633941,-0.0177493318915367,-0.0476800350636243,0.0005687940865755,0.0229073763241991,-0.0085936408221721,224
1733293533377733000,0.0408189171224832,-0.0048057928465306,-0.1102618711829185,4.114168134213984,1.6674292082212865,8.744351608121395,0.0022599324584007,-0.0250234305858612,0.0252957008779048,-0.6593481084784766,0.0992856531545144,0.2104863750011865,0.7149110498768778,-0.0110384281724691,0.0018676596228033,0.0013718681875616,-0.0022929906845092,-0.0108526051044464,0.0105014443397521,0.0114125916734337,-0.0081860544160008,-0.0395002357393503,-0.0016936499159783,-0.0020249299563467,0.004902969610691,225
1733293533417732900,0.059066521474719,-0.0413315428197383,0.0041027591437101,4.122705660934746,1.661457878726721,8.741466992595791,0.0019053246360272,-0.015607850626111,0.0201551802456378,-0.6596216622083682,0.0997389621490571,0.2106213927621406,0.7145559047232051,-0.0354939699172973,0.011368166655302,-0.0005009999731555,-0.0064847469329833,-0.0123227536678314,0.0067195892333984,0.0061776293441653,-0.0067047546617686,0.0420183560401201,0.0037304779980331,0.0541040036965161,0.0570943446189165,226
1733293533457732900,0.0550759905338287,-0.0860467367283999,0.0174438867539167,4.133280246441066,1.6644241811864078,8.735907020381093,0.0257353205233812,-0.0249881967902183,0.025184366852045,-0.6598305653641288,0.0999648667300527,0.2111864591005055,0.7141645977804997,-0.0139822857454419,0.0268471520394086,-0.0071620983071625,-0.0058030486106872,0.0060578286647796,-0.0005063414573669,0.0039207441732287,-0.0174561906605958,-0.004149520894885,0.0040211421437561,0.0302474368887022,0.0714776747584342,227
1733293533497732900,0.0092585344716906,-0.0078887074232101,-0.1274310326486825,4.14318526212275,1.6655740818738936,8.730994698420167,0.0055104363709688,-0.0285001471638679,0.0396970249712467,-0.6602634983827524,0.1001644424452509,0.2116843095697738,0.7135888772377389,0.0131105836480855,0.0132559230551123,-0.0077009890228509,-0.0003622770309448,0.0077953338623046,-0.0033386349678039,0.011754753999412,-0.0211437363177537,0.0016723171263933,-0.0134657081216573,0.0592206160578876,0.0525070168286561,228
1733293533537732900,0.1206733750820159,-0.0047115386918187,-0.0256336229503154,4.153275863504409,1.6579077850297093,8.727658831995726,-0.0103270122781395,-0.013674265705049,0.0266502015292644,-0.6605952256672858,0.1007188601031991,0.2118229279240265,0.7131625045275369,0.0191559605300426,-0.0143547197803854,-0.0045053288340568,0.0003438591957092,-0.004983365535736,-0.006408542394638,0.0186944622546434,-0.0197725053876638,-0.0041489363729953,-0.0037506762892007,0.0728699693670496,0.0378226579159498,229
1733293533577732900,0.0523231846943497,0.0039756256327033,-0.0079097502112388,4.161920649991929,1.6531111984029412,8.724449806821346,0.0116306561976671,-0.0269579775631427,0.026691909879446,-0.6609851619976701,0.1010982564096582,0.2120283029269173,0.7126862752384157,0.0137508083134889,-0.0145089691504836,0.0001339643495157,-0.0048872232437133,-0.006669282913208,0.0054711103439331,0.0132619496434926,-0.0100534399971365,-0.0511386510848999,-0.0055131847038865,0.0371090297538787,0.0068745619446039,230
1733293533617733000,0.1053518873095512,-0.0410405970491468,-0.0359895972698926,4.1711408982798455,1.6538343981109558,8.71990807173848,0.0088777150958776,-0.007110078819096,0.0178051311522722,-0.6611797113547955,0.1013573327928642,0.2124502300913326,0.7123433169509563,-0.0151455542072653,0.0205837171524763,0.0089991614222526,-0.0140419006347656,-0.0126863121986389,0.0158168971538543,-0.003010781481862,0.0042953202500939,-0.0286059167593717,-0.0058876872062683,0.0342686917614191,0.0010544774889945,231
1733293533657732900,0.0514428947284817,-0.01040200541839,-0.0756470693975687,4.1743230354473,1.6489337665878234,8.71931361297667,-0.0121504869312047,-0.0085404207929968,0.018184121698141,-0.6614058241607927,0.1015856181681148,0.2124125516775364,0.7121120971730878,-0.0197509601712226,0.0283575374633073,-0.004249399062246,-0.0038386583328247,0.0020914077758789,0.0055616497993469,-0.0115485377609729,0.0042375116609036,-0.0026730186015367,-0.0035881237126886,0.036199404095672,0.0398790059238672,232
1733293533697732900,0.0481403460517525,0.0071367200121283,-0.0013742109626531,4.180468698595464,1.6447127878919243,8.71716607955396,0.005038502626121,-0.0162596348673105,0.0189071465283632,-0.6616373382270356,0.1018979151462062,0.2125206499897649,0.7118201487882304,-0.0131793422624468,0.0083775436505675,-0.0143476398661732,-1.9550323486328125e-05,0.002340942621231,-0.0072231888771057,-0.0076111061498522,0.0137837920337915,0.0141910224378108,-0.0094899870455265,0.0502522601718083,0.0506423920005559,233
1733293533737732900,0.0614794278353452,0.0427582146219909,-0.0102554365545511,4.188976706960797,1.6426102626547217,8.713477746430039,-0.0052084657363593,-0.0111977625638246,0.0108045320957899,-0.661735536740163,0.1022610813172451,0.2127885132490767,0.7115967029944283,0.003942918498069,-0.0098136570304632,-0.003225679975003,-0.0049889087677001,-0.0033892393112182,-0.0084612369537353,0.0015200693160295,0.0027419487014412,0.0164104520529508,-0.011727912351489,0.0682336148032918,0.0555278259545564,234
1733293533777732900,0.0782271490186452,0.0190761641308665,-0.0201057994395494,4.188689122191072,1.6395070359423756,8.714200215485691,-0.0053968615829944,0.0051719695329666,0.0052339839749038,-0.6618396972058078,0.1023316404839796,0.2126679715185195,0.7115257564985026,0.0148826511576771,-0.0075727137736976,0.0041741128079593,-0.0082849264144897,-0.004968374967575,-0.0006816387176513,0.0123109593987464,-0.0090490188449621,-0.0134743986010551,-0.0050503555685281,0.0587156987430527,0.0325268895953893,235
1733293533817732900,0.0433864295229315,-0.0180197869457304,-0.0759744016557931,4.190609568859637,1.6359015587963164,8.713954716292022,-0.0088176969438791,-0.0063609704375267,0.0142067018896341,-0.6619345941893929,0.1025052767322381,0.212613806013572,0.71142865359991,0.0044566420838236,-0.013114059343934,0.0002995462855324,0.0026949048042297,-0.006248116493225,0.0059491991996765,0.007744456641376,0.0034459251910448,-0.0426794502973556,0.004523517563939,0.0327429800314828,0.0010158990442752,236
