time_imu,phone_acc_x,phone_acc_y,phone_acc_z,phone_gravity_x,phone_gravity_y,phone_gravity_z,phone_gyro_x,phone_gyro_y,phone_gyro_z,phone_ori_w,phone_ori_x,phone_ori_y,phone_ori_z,watch_gyro_x,watch_gyro_y,watch_gyro_z,watch_acc_x,watch_acc_y,watch_acc_z,headphone_gyro_x,headphone_gyro_y,headphone_gyro_z,headphone_acc_x,headphone_acc_y,headphone_acc_z,frame_imu
1722247672381233200,-0.5780314316887408,19.96030025076866,-2.849011128258705,-0.2593407816139981,9.638765960931778,-1.788108282391727,0.0718801170587539,-0.4567628800868988,0.1474753767251968,0.4928507759172053,0.5792613490786528,0.505593157112637,0.4073451126493969,-0.0747452527284622,-0.0828086286783218,0.0201862622052431,14.48570681040883,-12.136804427659513,1.5729530813217163,0.3278547525405884,0.123197928071022,18.03136047914624,0.4684231877326965,0.3402227559903636,0.2634532036351971,0
1722247672421003500,-0.9556294306211172,18.012724752259253,-2.8595675935864446,-0.2670595392977818,9.643746671953798,-1.7598953104726969,-0.2928819060325622,-0.0816477313637733,-0.0225263237953186,0.4966887517988507,0.5818408346308328,0.5011895183845727,0.4044386975631318,-0.1473376899957656,0.3471686840057373,0.0239587631076574,15.242840352207422,-11.83165243706107,0.0379717201309744,0.2304976880550384,-0.1347019672393798,16.795726797056197,0.8080675601959229,-0.1005687355530913,0.5213899088712409,1
1722247672460773600,-0.7999890793152153,11.211641885364054,-1.265912938889116,-0.2589961694274098,9.68075918253064,-1.544729588008672,-0.6046940684318542,0.1452422142028808,0.0938464030623436,0.5017445232002151,0.5750044869762149,0.4981256184762357,0.4116953457909155,0.6418578624725342,0.4332660734653473,0.0450513325631618,12.202895148682591,-10.952923144638538,1.1750801369279622,0.10320945084095,-0.5814762711524963,9.969868385344745,0.6902987360954285,0.227571962110605,0.2410526443219743,2
1722247672500545000,-0.3042984973079525,-0.7649263876318931,-1.5357995548389851,-0.1685562757739797,9.703079150888325,-1.411462834943831,-0.1474534124135971,-0.0264854412525892,0.3405070900917053,0.5037281939924372,0.5738222305658647,0.4926384307964032,0.4174845028769194,0.7588393092155457,0.8817972540855408,-0.0573569983243942,5.474537910780311,-4.555745488038659,-0.5745294879823922,0.0482714027166366,-1.3200621604919434,-4.880587098491191,0.466336727142334,-0.3803630066663027,0.0704597435872769,3
1722247672540315100,0.0394580268657067,-10.63775361789465,-3.5928079263612624,-0.0075849632490164,9.73184581116736,-1.20891306762062,-1.2789936065673828,0.3964168429374695,0.4239299595355987,0.5042440368702708,0.5703794385015669,0.4861118266955543,0.4290692262632252,1.1776385307312012,1.976518154144287,-0.4570578038692474,-3.717410749846697,2.2228344551473853,-1.9402210440933705,0.0450343415141105,-0.3621877133846283,-13.114052546501158,0.3843058943748474,-2.568582075506449,-1.3021426285251974,4
1722247672580085200,0.9778723882198334,-13.898179309165476,0.3338193552214652,0.1710452978444285,9.793319978305696,-0.481661453866586,-1.906638741493225,0.4006122350692749,0.4233784079551697,0.5172956341455764,0.5516384787625163,0.4693110776982213,0.4559026686850708,1.7966996431350708,1.0828949213027954,-0.457108736038208,-11.27034541874528,7.728143936288356,-1.997175395719707,-0.1252198368310928,0.2528666257858276,-6.741145992326736,-0.0869457051157951,0.0601376076052198,-1.0411733323939143,5
1722247672619856600,0.6709081605676561,-14.062415931642054,3.543978429001569,0.2703123305486515,9.802531458765268,-0.0876491852226667,-0.6696009635925293,0.1615790128707885,0.1399451792240142,0.523905155860169,0.5414845399013778,0.4596339390917404,0.4701642713137428,0.8054412007331848,0.0532116293907165,-0.5386496186256409,-11.970472878730297,8.729985813638567,-5.794824926668405,-0.071136936545372,-0.2860619723796844,-9.483585920614004,0.0255257673561573,-0.6116457146620378,0.0290247792089707,6
1722247672659626800,0.4764431346964091,-13.527812211334703,2.447194414675236,0.210094008690305,9.803931973212956,-0.0957891731263604,0.3942940533161163,-0.0730089321732521,-0.3142222166061401,0.5252166432139647,0.5403810527125075,0.461380760894421,0.468255995351127,-0.6199601292610168,-0.3873614966869354,-0.1191246956586837,-11.408593028962612,9.815707751202584,-5.458284695115685,-0.0446804985404014,-0.1977855265140533,-10.70334048104882,0.1321044266223907,-1.082359767654538,-0.1635033397659659,7
1722247672699396900,-0.4241324441574514,-12.93713530614972,0.7106161207735538,0.1046559866004157,9.803874690067769,-0.2085821062900126,0.2491534203290939,0.0510743632912635,-0.1379392147064209,0.5244417798601625,0.540734926408184,0.4671621421914896,0.4629538492852083,-0.4889301657676697,-0.6302976012229919,0.3104063868522644,-10.036785620319844,7.35328829486668,-1.8022857146956024,0.0629370659589767,-0.0125814257189631,-9.662263740897178,0.0152709633111953,-1.0464145209830251,-0.7680917197950183,8
1722247672739168300,-1.036844509409368,-11.29203234989643,2.1996365349113938,0.1313875243226532,9.796104056066277,-0.4352597316430881,1.0601035356521606,-0.1204216331243515,0.255108892917633,0.5176871249978284,0.547570776206197,0.4715488468868309,0.4580479408317298,-0.2012608498334884,-0.5882922410964966,0.562444269657135,-8.236710713541507,5.811741574677825,-2.493872579219937,0.1173653975129127,0.0520599111914634,-9.509584285223484,-0.3588789105415344,-1.1413305006045849,-1.114131966425106,9
1722247672778930400,-0.086597118886467,-10.14507180751562,-0.5550538031399249,0.209449719437398,9.760053668519854,-0.9315959363438188,1.212755560874939,-0.2346154600381851,0.1230604797601699,0.5034723643852356,0.5642056382030234,0.4787172166873607,0.4461136790995754,-0.6703341007232666,-0.4952671825885772,0.6635069847106934,-7.382940505808591,6.529412874659895,-2.7346722168952224,0.160823255777359,0.0995879471302032,-9.479646243077516,-0.6037431359291077,-1.027023007292673,-0.7572415322177112,10
1722247672818700500,-0.3106335272820666,-6.365151117742061,-1.542288040075451,0.2177085753472522,9.71733388621211,-1.3024721527405083,0.6931986212730408,0.1488721817731857,0.0514328889548778,0.4930494240953763,0.5745581883746549,0.4860972026350744,0.4364570878151011,-0.8826085329055786,-0.5715837478637695,0.4359496533870697,-6.476506629380584,5.026183317905664,-2.410391162934899,-0.0855613052845001,2.6312477588653564,-7.120428802540898,-0.4581656754016876,-3.2514670165285464,-1.2238497938591986,11
1722247672858471700,1.7969841011561452,5.43826423587203,-0.6465234416998923,0.1822723559101112,9.693689391252398,-1.4729437240839005,0.521844744682312,-0.0111369723454117,-0.440782755613327,0.4873066382473661,0.5762994614401282,0.4929281474912836,0.4329354418897944,-0.7919068336486816,-1.66582190990448,0.4695520997047424,-1.144624792909622,-0.9628396542608736,-0.8372633095681666,-0.2575473189353943,1.4762862920761108,3.659603873044252,-0.0606592446565628,-0.9555046351976691,1.4222294358909129,12
1722247672898242000,1.5641756083652376,13.966664231848716,-1.882370912671089,-0.0633104472213657,9.648993340435624,-1.750231848461926,0.4452871978282928,-0.3045916259288788,-0.7572330236434937,0.4863882737833055,0.5792566059785512,0.5036851905112445,0.4173601704704042,-1.3190460205078125,-1.2965669631958008,-0.0292824860662221,14.772804088878631,-7.274518125012516,0.4289408673524856,-0.1983581334352493,0.362054705619812,20.61292127869129,0.8252754807472229,0.6409918918620795,2.47106891899854,13
1722247672938012200,-2.2826329441584647,17.84965483547449,3.760612762713432,-0.352635005252622,9.583256839677691,-2.051152485100925,1.969576716423035,-0.5790393352508545,-0.2497782111167907,0.4867745400246816,0.583393504329528,0.5140347215489067,0.3980840245196753,-1.1667884588241575,-1.5292246341705322,0.8132562637329102,14.370628478854892,-13.825705609107017,0.3015185294669121,0.1511493474245071,-0.2733458876609802,8.955822275459767,0.3808751702308655,-0.5401355624061077,-1.631895099633932,14
1722247672977947100,-1.7103642407149076,10.36799676580429,-7.290809919121861,-0.2664982338869012,9.395092813646793,-2.7985058066412805,0.7260708808898926,1.0798839330673218,0.3089785277843475,0.4607680464229125,0.6032230466952195,0.5280208775718792,0.3808003049373606,0.4127290844917297,-0.2530350089073181,0.2597919702529907,10.034746807968617,-11.896024663728475,0.1814964579004794,0.2122785896062851,-0.8057377338409424,2.5875179543837903,-0.582718551158905,0.5941388091418892,-1.2317540641777216,15
1722247673017724400,0.2996319485353306,2.163856196478009,-5.64999852258265,-0.0494376375869847,9.467772265410424,-2.555228965197504,-1.4342076778411863,0.8615537881851196,0.1863837838172912,0.4545929258546822,0.5907835699648516,0.5303349852963026,0.4038127103517573,1.8555583953857424,0.775900661945343,-0.2429626137018203,4.397668557235599,-2.1940853305250405,1.4087456849396227,0.257005900144577,-0.4283216297626495,-3.392606256534159,-0.5360468029975891,0.1222480039875954,-1.282338003989309,16
1722247673057501000,-0.0653675487145315,-3.6382699931144713,-0.0178550979033112,0.042921739187208,9.60088075917363,-1.9979137929968536,-1.3143620491027832,0.1207670345902443,0.0429960563778877,0.465752207908317,0.5749843722891381,0.5208245626763466,0.4256873778867214,1.0377357006072998,1.036969780921936,-0.464677095413208,-2.1873323491334915,3.392411903005838,-0.6865875949323177,0.0187737755477428,-0.4246376156806946,-5.222409069839119,0.0096780769526958,0.0135744979746639,-0.2395656389009207,17
1722247673097277200,-0.7235268941424786,-7.135045941436291,1.9769218583725392,0.0200804640688933,9.670206808856127,-1.6300623312488198,-0.6220091581344604,-0.1359839588403701,-0.0767644867300987,0.4776786961864145,0.5660030836883423,0.5125920015214978,0.4344112334245588,0.1633032709360122,0.9677603244781494,-0.4872942566871643,-4.777627074754238,5.945684181177616,-2.2917355574160814,-0.0811800509691238,-0.1485235393047332,-6.341342956653237,0.5456904172897339,-0.5296399604201316,-0.6892196970015764,18
1722247673137054500,-0.1713321702281013,-8.906941047912836,1.6536499814547598,0.0037379723895952,9.692388245525956,-1.4926400659397243,-0.1594486534595489,-0.3314959704875946,0.0337991528213024,0.4837341745156177,0.5641283401545923,0.5078018101510005,0.4357725990918088,-0.0138137210160493,0.7325887084007263,-0.2996761798858642,-6.461517150041461,5.520372025716305,-1.6852297994583845,-0.0108812302350997,-0.026317611336708,-5.750311831203103,0.3429077863693237,-1.0021893025483934,-1.5591045887112616,19
1722247673176830700,1.0377602360147982,-6.570115471926331,1.6730734977185726,-0.0134908599704445,9.696493927279114,-1.46567534051612,0.1639439463615417,-0.1274421364068985,-0.0806537419557571,0.4867618799600673,0.5651652510933124,0.5052889122387355,0.4339749090435516,-0.1442393809556961,0.0035579521209001,0.1759692579507827,-6.935296691551804,3.691318277212977,-2.159298094782233,-0.0005410707090049,0.5856249332427979,0.6247485400043428,0.0130901234224438,-0.614471037748456,-0.8794253849279134,20
1722247673219091200,2.0051056041970847,8.40841694124639,0.9526295181527732,-0.040513244140218,9.6336864657104,-1.833246524018049,1.3108007907867432,-0.0063500995747745,-0.0550449676811695,0.4755732128848694,0.5724430404476574,0.5155371197791409,0.4246886179842457,-1.0690028667449951,-1.1444493532180786,0.9829966425895692,-2.941536267220974,-2.5546727926194666,-1.4722779536515471,0.3191311061382293,0.5703710317611694,7.949007285872101,0.192335769534111,-0.3219386555526405,-0.2069942343103699,21
1722247673258868500,-0.2312387957887723,22.850022159600258,-7.556175258255005,-0.1536290845487266,9.551156066539884,-2.218601201491803,0.1222473531961441,-1.0233776569366455,-0.2099366337060928,0.4733431146519373,0.587632201872753,0.5174993493755328,0.403520857895868,-0.5557177662849426,-0.4581000804901123,0.432410717010498,20.3005855140686,-13.779403292137385,4.394408678656816,0.2802588641643524,0.6094290614128113,21.71526877236366,-0.0074659334495663,-0.0901884305098559,0.7185549509488046,22
1722247673298644700,-1.7400070993065833,27.630207102143764,-3.313276991492509,-0.3236453498726711,9.578978723967074,-2.075771816442161,-0.3557276725769043,-0.3546749949455261,-0.221999779343605,0.4847378002997702,0.5839129840490019,0.5146654591248482,0.398991780503965,0.3560021519660949,0.0321852825582027,0.3753402233123779,22.525196331238742,-19.99197198483944,2.25173380189538,0.3317468464374542,-0.5547109246253967,21.49561012239456,0.4686591029167175,0.6876251943517476,1.6476277985557912,23
1722247673338421000,-3.1467879139140247,10.43191072731018,-2.86140416136384,-0.3052020220189355,9.616684477505087,-1.896473526173085,-0.6951037049293518,0.3958719968795776,0.38429856300354,0.4912106789303406,0.5816519585129372,0.5083052640582808,0.4025156250032023,1.3584493398666382,1.2729244232177734,0.2904956638813019,14.825357282936572,-14.130691595488786,1.5919997270971535,0.1718950718641281,-1.794298768043518,3.216747000803053,-0.1093828305602073,0.5010861026415601,-0.0078454904776357,24
1722247673378198300,-0.2408413579251617,-9.733083244007826,-5.430737932020426,0.0112973833555355,9.694026660382749,-1.4819209573961794,-1.811564326286316,1.1476340293884275,0.9001349210739136,0.4879392229481558,0.5687840975402765,0.5020374372228921,0.4316923844077182,2.364753484725952,2.828627586364746,-0.7124503254890442,-0.5628478180170059,-2.042936737680435,-2.2406746477425097,-0.0955085009336471,-1.385045886039734,-14.695935953253509,0.069363035261631,-2.437419893505424,0.62521060455814,25
1722247673417974800,3.058242784498632,-16.475938378340004,-0.7890800011575222,0.3054608921508304,9.79476842354834,-0.3736045453820377,-2.8659400939941406,-0.0946838408708572,0.33209228515625,0.5074531518707903,0.5422190840709417,0.4743911846351019,0.472697255484811,2.571747303009033,1.2446210384368896,-0.4999856948852539,-14.297953703266382,12.108083360087871,-3.901035378882289,0.0906908735632896,0.1035525649785995,-1.574922189437598,0.1094779074192047,2.5478920464381574,0.4072109373098239,26
1722247673457751000,1.654458959750086,-14.993178193640707,6.330541576653719,0.2713770737033337,9.802698047503828,0.0619766870001098,0.3108956217765808,-0.3176808953285217,-0.5627611875534058,0.5230787736531243,0.5327594147470825,0.4615273278296247,0.4791121870661874,-0.8896070122718811,-0.0717337131500244,-0.6813686490058899,-13.028060024178028,12.51667117524147,-10.551968016320467,-0.070361278951168,-0.336370438337326,-10.09279684587717,-0.0568389669060707,-1.3783461627617477,-0.0628677175557008,27
1722247673497528300,-0.9791205616500228,-14.235558329629898,2.3155624232053755,0.0440350981234339,9.805388017240166,-0.1510541560268029,0.5584316253662109,0.1973577737808227,-0.3548775911331177,0.5227302198885798,0.5329740348451099,0.4729062242186866,0.4680294412208972,-1.0264124870300293,-0.5337806344032288,-0.256389319896698,-10.517470703434944,9.417629055103658,-4.052997333936393,-0.1799804717302322,0.0829683467745781,-10.132911414122582,-0.0337072536349296,-1.2798996709264814,-0.3328558439515531,28
1722247673537304600,-0.6403093164253979,-11.776079602921008,1.581489438998699,0.0242512058483203,9.799816354587673,-0.3652353244328871,0.6110374927520752,-0.0838723704218864,0.1666737049818039,0.5167372466896779,0.5375421190830807,0.4792392812884524,0.4629911690886386,-0.2391874641180038,-0.7408912181854248,0.2781747281551361,-8.076383373463154,6.979203053295612,-0.6858753550097346,-0.0735752582550048,0.060797419399023,-9.96879169602394,0.0058467574417591,-1.5302895592458543,-0.5175001348910853,29
1722247673577081000,-0.7269578184392302,-9.631894321596622,1.5995383059084414,0.1044654050649143,9.781232650148867,-0.6978226171087473,1.1857385635375977,-0.0274026338011026,0.1875926405191421,0.5064449736806771,0.5490599496175348,0.483851447453525,0.4559982696158447,-0.3117343485355377,-0.618465006351471,0.5730562210083008,-6.441519487151504,6.712315034639835,-2.071846605822444,-0.0266661755740642,0.0380825623869895,-9.897876331323385,-0.2611526846885681,-1.4884581040799616,-1.2448387328088282,30
1722247673616858400,-0.0788286403094418,-9.11057327671051,-1.565405442421138,0.1681623810855671,9.739648009350896,-1.131962076017633,0.788885235786438,0.0963834822177887,0.1466375142335891,0.4918271490063156,0.5608850379875587,0.493074010385763,0.4476515911913458,-0.4761472642421722,-0.2789573073387146,0.524860143661499,-5.811473279130459,6.215843184328079,-2.892958406534791,-0.0423492901027202,0.0558557026088237,-9.98701241236925,-0.4638990759849548,-1.2705343150794506,-0.9371022786751388,31
1722247673656634600,0.8036925369430333,-7.193137480399012,-1.085309703501314,0.2121971001830883,9.71707435849309,-1.3053010925561188,0.2134688049554824,-0.1405823975801468,0.0319181866943836,0.4859258264487035,0.5665028546720583,0.4956070500895562,0.4442118947463717,-0.2487972229719162,-0.1772834211587906,0.2430350482463836,-5.629183698090911,6.36841801058352,-1.3200563247479498,-0.0925514921545982,0.0526546612381935,-9.87945804657936,-0.5873737335205078,-1.126153170543164,-0.5033266846425831,32
1722247673696411000,0.0700707853688858,-3.592718786773085,-0.4698164830982684,0.1949375204875134,9.711400404509902,-1.3494779418043792,0.0337550267577171,-0.0908317938446998,-0.1040457636117935,0.4861620445699618,0.5684360371000363,0.4956659179853947,0.441409387981524,-0.2219631969928741,-0.1060099303722381,-0.2271840423345565,-4.427532949623465,4.712624148967862,-1.020677656853944,-0.6311278939247131,5.360006332397461,-2.4382066599689423,-0.0592554584145545,-4.773807516466081,0.170281272935681,33
1722247673736188200,0.3166898316463455,11.121585766863822,2.346950079637766,0.0509697242587804,9.729067578625678,-1.2300555896967649,0.2514870464801788,-0.3014065623283386,-0.2727375030517578,0.4918469523479656,0.5605652498043331,0.498479668490471,0.4420082024148362,-1.5342357158660889,-0.855421781539917,0.4408679902553558,2.423473347347975,-3.317164646580815,0.5050982243597507,-0.193961426615715,2.3800323009490967,6.220214823541045,0.8382754921913147,-1.6582700424708423,2.208869204289466,34
1722247673775958500,-0.8177347254946827,12.758271607905623,-4.117041351562738,0.0659553265738068,9.701733581498264,-1.4291270864501595,-0.2709759771823883,-0.0056487619876861,0.2422382533550262,0.4887840180168194,0.56946029192475,0.4985781555729835,0.4338490732745149,-0.1487521082162857,0.0099335070699453,0.0244891326874494,9.75045640361309,-11.966343816101553,2.617352828416228,0.0964279100298881,1.519347071647644,24.51790393389464,0.394710898399353,0.908143164563924,1.838470103885233,35
1722247673815734800,-0.1933824547989293,13.531769424527882,4.770025952100753,0.1113812032022047,9.714581957155463,-1.33599243728742,0.9588354825973512,-0.4894789159297943,0.3073048889636993,0.4906934936813921,0.5685004923752276,0.494897817688428,0.4371535351359239,-0.0258006080985069,-0.3241562247276306,0.5914276242256165,10.77898813496828,-10.447267286396023,0.8014413970153779,0.0049564698711037,0.1318366229534149,8.423667701870203,0.4139301180839538,0.4074138760033994,0.1283826434182468,36
1722247673855512000,0.5329051727611571,6.657025693616271,-3.0210815131008624,0.2265054836565628,9.644795304223894,-1.7598397808931767,0.309741199016571,0.2301786690950393,0.1484995186328888,0.4786147002984223,0.5856429161973123,0.4967385953118517,0.4256774103603663,-0.29161337018013,-0.0790412127971649,0.3478155136108398,5.656961931854486,-6.227416717743873,1.9917156690090887,-0.2628125548362732,-0.758454442024231,3.796674840697646,0.0548413768410682,0.6959519278660417,-0.3283477188773453,37
1722247673895288600,0.4100249352846294,-1.03334410007298,-0.1009634430922567,0.266336978910584,9.647533204755186,-1.7391303164720535,-0.044580839574337,0.1118386909365654,0.0265124607831239,0.4764030889226418,0.583881302524982,0.4977485208004967,0.4293823733292198,0.6705728769302368,0.352861613035202,0.0049790134653449,1.5740484753429889,-0.3099105833023786,0.0450491751033812,-0.2282699942588806,-0.3535200655460357,-4.424740688556432,0.2900609970092773,-0.4299654246272519,0.0352589357746299,38
1722247673935064800,0.064356243646983,-5.928883853024244,1.3400212544120846,0.2614048745369538,9.657852354195713,-1.6816437576651573,-0.1519615054130554,0.2704918086528778,-0.1217505037784576,0.4763408371120355,0.5801323914792662,0.4991857154034371,0.4328503025400352,0.1766467690467834,0.2873304188251495,0.0815069451928138,-4.169552460044622,5.292302690276503,-0.7447779911596327,-0.1995211243629455,-0.365208238363266,-5.73996579375565,0.3962600827217102,-0.5815895625617354,0.0170872553359717,39
1722247673974842000,-0.0291575592927634,-8.549929690739512,2.897190929538011,0.221441807058826,9.64333107689023,-1.768474045986682,0.618450403213501,-0.0846504122018814,-0.0702944919466972,0.4741912427053478,0.5807316395155141,0.5029093826972891,0.4300878376540851,-0.476317435503006,0.0355608388781547,0.0549503006041049,-5.624892138376832,6.728137457671761,-1.559262117360532,-0.1280067861080169,-0.1368622928857803,-7.309395377126336,0.4178011417388916,-1.1671475172977894,-0.7795406769830733,40
1722247674014658000,0.3197551009684801,-8.031038503348826,0.4735786121107637,0.2072685760060325,9.584276245853305,-2.06617104440406,0.746141254901886,-0.0763805657625198,0.0534156858921051,0.4660351448566898,0.5883260598908246,0.5091344130899866,0.4212668850504401,-0.505109429359436,-0.2160970121622085,0.2086726874113083,-7.010579019290208,5.354621491545439,-1.390789172488451,-0.0889400243759155,0.314878910779953,-6.344945949581265,0.0614259578287601,-1.809830723247677,-2.0767514751292766,41
1722247674054435800,0.2935907686749473,-0.2390764671444892,-1.7188205188930037,0.2419620690507814,9.535761513531208,-2.2762040801547467,0.477218747138977,-0.4858273267745971,0.2194071263074875,0.4611499873666618,0.5972496028979418,0.5092612539271434,0.4138679232616323,-0.592982828617096,-0.783665657043457,0.4131854176521301,-3.568957971957326,1.3259265319555995,-0.1973368549805134,-0.0961791202425956,1.4285765886306765,1.8695441643238069,-0.370087206363678,-0.9443871019210666,-1.925902011361718,42
1722247674094214700,0.762307656500861,18.053215752601623,-3.8278374562025066,0.2336801427925936,9.48085094269216,-2.4958470941632984,0.6294108033180237,-0.8458559513092041,0.0968266054987907,0.4597527229610788,0.6090602394336105,0.506259241283256,0.4017146749195272,-0.9665907621383668,-0.1416178345680236,-0.4712049663066864,10.968859549438951,-10.949267544740438,0.3113490916728973,-0.1394141316413879,0.2488330155611038,14.743811803150177,0.0856371745467186,0.8972293371658772,-0.1068845950358547,43
1722247674133992400,0.0684398414324969,28.038813621997832,-11.022676479822396,0.3086469200421124,9.483561955216526,-2.4773291484370827,-1.3793705701828003,0.0228687785565853,0.3598398268222809,0.4633817065468158,0.6163695417702971,0.4963841496476327,0.3987087793120051,0.763432502746582,0.3769270181655884,-0.7544893026351929,16.131208410590887,-22.24590709617138,4.011432274621725,0.0902432575821876,-0.3224668502807617,28.732472762751577,0.427302211523056,2.178862919212877,0.541353852154687,44
1722247674173771300,0.2644234186405316,25.651605181729792,-4.330933108568192,0.3662991177394986,9.63369114188552,-1.796727203785628,-1.5241429805755615,-0.3912280797958374,0.127577468752861,0.484791220227932,0.6021089572915165,0.4786150786593958,0.4163772065958444,0.5299901962280273,1.2074476480484009,-0.3032743334770202,19.65329298769236,-19.823957012867925,0.8108147900383919,-0.0716052949428558,-0.6189804077148438,17.707445335888863,0.1650928854942321,1.2675753191433847,0.0511703659639926,45
1722247674213549000,-0.9407299676530062,4.032130194735527,-4.361047676324844,0.4880761066818609,9.72136182655394,-1.1946978605896237,-1.940361499786377,0.0129918185994029,0.4391152262687683,0.5034585561644824,0.5927321991975181,0.457800368368574,0.4308327910929581,1.8247352838516235,1.7803794145584106,-0.311493843793869,7.0985115697652095,-9.464264549550414,-0.1912396340839564,-0.2964787185192108,-1.181662678718567,-0.628569924923405,0.3964793682098388,-0.0468468630419578,1.965047150053084,46
1722247674254569000,-2.0692919529035687,-13.313535838925835,2.108435922551155,0.7033997596539556,9.773706930819154,-0.387603004389815,-1.6751470565795898,0.4537769854068756,0.7519001960754395,0.5185777412899224,0.572433103120858,0.4382722841408075,0.4596898004243773,2.66146183013916,2.256967306137085,-0.2542611360549927,-6.549418136334419,5.902749879336357,-4.96686662106216,-0.2647275626659393,-0.716205894947052,-15.148260034281014,0.1022877395153045,-3.248510797071457,-0.962814812080562,47
1722247674294347800,0.8870571219153702,-18.00312924091816,3.5192069758385416,0.909342311220616,9.763633865094183,0.1222243399842176,-0.8054512739181519,0.078207679092884,0.1575615257024765,0.5260626083037211,0.5611818301654233,0.4228986240805341,0.4790509853187307,0.0981543660163879,0.0637324526906013,-0.406340628862381,-17.323884409964084,17.653533712959288,-7.521441798526048,0.0618496946990489,-0.8860113024711609,-1.5878336934588848,-0.5005069375038147,2.162588660760224,1.2962300434805452,48
1722247674334125600,0.7517502413250505,-15.881091493993996,4.907850368469953,0.8219883643511682,9.772136320501565,0.0090915547199518,1.072094440460205,-0.1717859208583831,-0.5224785208702087,0.5261222469219357,0.5633886476227928,0.4267665537960251,0.4729259675723591,-1.2061254978179932,-0.5206789374351501,0.0660468935966491,-11.54538985584974,12.082488315582276,-6.640550944155454,0.0902822464704513,-0.4922625422477722,-9.723028882983328,0.3724324107170105,-0.9770698396652936,0.8407350773319602,49
1722247674373903600,-0.6541875465869903,-11.9743096804142,0.8327519696235657,0.5810146852832287,9.780324303132296,-0.4219972222270444,1.078937530517578,0.3416059017181396,-0.616321325302124,0.5184734817280279,0.5686819323038572,0.4451030559569308,0.4578967983391334,-1.2446646690368652,-1.07960844039917,0.3289747238159179,-9.210565682813524,8.141935749825835,-3.844444307610393,0.1032483950257301,-0.0297181587666273,-10.311724843484162,0.1689985543489456,-1.39051576237455,-0.9631787500221282,50
1722247674413682200,-0.2432334772260859,-9.492481759253144,-0.7582067239880561,0.3900278203839435,9.76182944602072,-0.8514448335252702,1.1373006105422974,-0.0652367994189262,-0.4607436060905456,0.5081906877588519,0.5733611210113018,0.4633234606786943,0.4453433321147114,-0.6806753873825073,-0.9835509061813354,0.2163906544446945,-5.021172211745381,6.091804132205247,-2.326219718559086,0.1429500430822372,-0.1334165036678314,-9.435898871287703,-0.1497552841901779,-1.0225771337997167,-1.7550656983591617,51
1722247674453460000,-0.4008137105533852,-8.750618267300725,-1.5431740291297436,0.20808042211188,9.728948336160183,-1.2143481713466346,0.6479244232177734,0.0076906578615307,-0.4555546641349792,0.5024666957135302,0.5793697572331686,0.4756524067825471,0.4308278766315153,-0.5800001621246338,-0.6233362555503845,0.1022888571023941,-4.949931852874159,5.9933618781536815,-2.6003432414263483,0.1420270353555679,-0.0566933043301105,-10.344735132682322,-0.4019859433174133,-1.5265115020118654,-1.931168845848739,52
1722247674493238000,0.1009365916179493,-8.910600739464163,-0.7641162402927875,0.0466060902557568,9.7116102478683,-1.361186792037636,0.1078675985336303,0.4443333446979522,-0.4621210992336273,0.4994045652318563,0.5766245747025756,0.4867291979358185,0.4256686994435852,0.0037319837138056,-0.4278433918952942,-0.0548755303025245,-6.0100008782655,5.413400428250432,-1.6645659277446567,0.1109205409884452,0.0280524026602506,-9.969286201542616,-0.517214834690094,-1.2578088351495562,-1.5540307925783097,53
1722247674533016600,0.4112099438181146,-8.483563075384497,0.9516330544613302,-0.0935295028323773,9.711041508069634,-1.3628377741150557,0.016639020293951,0.4802823960781097,-0.3286264538764953,0.4982162593241769,0.5682580740272382,0.4965562919144738,0.4269604809441372,0.1189216822385788,-0.3860684335231781,-0.1505141109228134,-6.107061322569847,6.046224284291268,-1.0565011037766934,0.0761006772518158,-0.0440778955817222,-9.750226101988554,-0.4643615186214447,-1.1067558846991508,-0.7773643558572977,54
1722247674572794400,0.280764769246336,-4.647434176176787,0.1194622457265853,-0.1266380282406229,9.70668155929446,-1.3909332571342587,0.0347467884421348,0.5075094103813171,0.0504684448242187,0.493964188139017,0.5632640954356171,0.5036381801201439,0.4302111285205411,-0.0206402018666267,-0.4440509378910064,-0.3295041620731354,-5.219467171168327,4.22461208396554,-0.6970334394924342,0.1408703625202179,0.6336995959281921,-9.558450899723171,-0.5680786371231079,-1.7076717867605389,-1.139110851793736,55
1722247674612572400,0.0276756136393174,6.930894072678685,-1.1931636367596683,-0.0388984613207634,9.725718268197774,-1.256703504256159,-0.6904316544532776,0.50364089012146,0.0642105340957641,0.4916916503383036,0.5573032340927409,0.5034750781643249,0.4406420194618808,-0.0611455477774143,-1.163383960723877,-0.0906727388501167,-0.3934200566381216,-1.6213772127509116,2.3751783952564,0.0259477235376834,-1.3497824668884275,4.495864143049717,-0.7758504152297974,2.4857336964279413,0.2244547982044518,56
1722247674652351200,-0.5621728778975084,12.061108842945098,-2.107829042699188,0.0751026740222936,9.726574592766164,-1.2483921875067054,0.0860228836536407,-0.1697914898395538,0.4871445298194885,0.4878710012595517,0.5583800793755693,0.5018585215070349,0.4453443082062425,-0.3978694975376129,0.1312291026115417,-0.8392003774642944,15.12089155036211,-10.025782580268382,1.9487574017703533,0.2702836096286773,2.8710618019104004,16.99078175164461,0.1598425656557083,-0.7438765122752636,2.234217142166197,57
1722247674692129000,0.9630627954922616,14.736332261049746,1.6656898172080516,0.1074446766040287,9.770415488058328,-0.8353502424884587,-1.2797914743423462,0.5244197845458984,-0.2253244817256927,0.5001660599091583,0.5501704272987881,0.4897994605726407,0.4552393366083558,0.6209086179733276,-1.350569725036621,-0.1076991260051727,9.045627049547432,-8.409186756575107,1.213365736180544,0.3095705807209015,0.1333279460668563,7.698886277621984,0.8056723475456238,-0.7029006510253996,0.1444186452687718,58
1722247674731906800,-0.5598662449229508,11.182643754416704,3.875775265419483,0.1260666672266088,9.766620771950484,-0.8761403719078749,1.2267390489578247,0.2788928151130676,0.0004338443977758,0.4924474030430195,0.5450646003203773,0.4975693992130338,0.4613294821688183,-0.2003607004880905,-0.3632948696613312,0.0926380977034568,8.912947010329365,-9.022405163913964,-1.0771522621393204,0.0950366184115409,-0.7870392203330994,8.147439023417235,-0.0244150925427675,1.262370297846198,-1.5685849492400885,59
1722247674771685600,0.4174090907191857,5.212429527616501,-2.8562556925594804,0.0440734665055992,9.728285488337278,-1.2364828462652862,0.2503398656845093,0.2486591339111328,-0.3593881726264953,0.4832031888120505,0.5508200297658188,0.509549186140975,0.4510782098070313,-0.216764435172081,0.2782506048679352,0.1053308472037315,6.579985124033689,-3.5270384001165627,1.5351923827260732,0.1630513966083526,0.1259674876928329,0.6925765331488102,-0.1408018916845321,0.0072704436649481,-0.5540921550335363,60
1722247674811458300,0.264072486311011,0.1234790801525115,-1.0752117955960332,-0.1056064739919733,9.740184015923738,-1.1349361233923585,-0.4846043586730957,0.4320500493049621,-0.5290342569351196,0.4860108349225736,0.5403672290733272,0.5156247625800575,0.45379285845226,0.7057076692581177,0.4193206429481506,-0.2531690299510956,1.0157125817924737,-0.7236012745529413,0.5263520613232627,-0.1301620900630951,-0.259241908788681,-1.7328060818865894,0.1130278185009956,-0.1186154744378291,0.1972242797178216,61
1722247674851236400,-1.116728558789566,-3.006646745035052,2.375374210089445,-0.2502110063548199,9.748120069620011,-1.0401579448062923,0.0752390250563621,0.4925292134284973,-0.2827146351337433,0.4877791597884488,0.5293487937527945,0.5223247554471596,0.4572068973958296,0.4333933591842651,0.2939701974391937,-0.4442875981330871,-1.452600608757138,1.979011085736752,-0.5832160677850247,-0.2718144953250885,0.0241556484252214,-2.053314485440404,0.3884952962398529,-0.011773992457916,0.1091970549630001,62
1722247674891015200,-0.9761999980282038,-4.481075739240646,1.6152255582533777,-0.3126286466220394,9.728119484120606,-1.1984848317824304,0.4949758648872375,0.7114307880401611,-0.0625167414546012,0.4805159343622437,0.5264693230776352,0.5328562387235827,0.4560689080880263,-0.1697990596294403,0.3444166779518127,-0.3189989924430847,-2.7871909241616724,3.2842700927168127,-1.7298481088638304,-0.3190645277500152,0.027225924655795,-1.951682787697762,0.0784138515591621,-0.2379135608449578,-0.5801197457375005,63
1722247674930792700,-0.2429913938322104,-2.706128843978047,-0.858446236719936,-0.2484185334474779,9.721887311732768,-1.262367521367222,-0.3123976588249206,0.9145220518112184,0.1307750046253204,0.4702668627622267,0.5216157690356221,0.5406290994556483,0.4631265856616224,0.2307305037975311,-0.0871704593300819,0.0976393073797226,-2.9823394022524354,1.3150205225378273,0.3193102067451924,-0.2395661175251007,0.0094328941777348,-1.297634649581462,-0.2628874778747558,-0.127382663462311,-0.0955121645495761,64
1722247674970570800,0.3282399841865524,-0.4446984084546566,-0.325804464135319,-0.1332622960854321,9.742432087111473,-1.1125130599863826,-0.3266026377677917,0.6698595881462097,0.2934283018112182,0.4628403006434974,0.511311136806759,0.5433997627724316,0.4785986565326409,0.4707383215427398,0.0164235234260559,0.1126472204923629,-0.088891750895977,-0.3643418461918831,0.2705968100458383,-0.0501097925007343,0.0806853622198104,-0.6458360439576208,-0.3767363131046295,0.0854888471173122,0.0411860379684018,65
1722247675010349600,0.8299176229804753,0.0203781866401433,-0.6560789863567799,0.0352869471595622,9.746617263841628,-1.0828593877397477,0.2077890038490295,-0.0607261918485164,0.4963516592979431,0.4575345793404242,0.5131412922684891,0.540274447406009,0.4852335591928158,-0.1306508630514145,-0.0749512389302253,0.102393515408039,-0.5799760629504919,-0.6344324602812528,-0.002133504897356,0.0583213083446025,0.1244469955563545,-0.1309299076151102,-0.3728960454463959,0.1782079925480298,-0.0759048344177659,66
1722247675050175000,2.311811692369729,1.3603659771740435,-0.2866646592061966,0.0961566273324191,9.730174078562856,-1.2185399239480494,0.3397382497787475,-0.1846039891242981,-0.2455896139144897,0.454759580071091,0.5206165389824385,0.5395244800025946,0.4806926610352937,-0.5130442976951599,0.0239026919007301,0.0862263292074203,-0.7378489956140518,-0.7073381220161914,0.4434954624056816,0.0509331189095974,0.0821049883961677,-0.590756582825072,-0.3413600921630859,-0.0135195232342812,-0.2524396421897225,67
1722247675089954800,0.1699696862358599,-0.4557505483448505,0.5166974767386913,-0.0225766031500068,9.722058576646448,-1.2850865720450877,0.1807295829057693,0.0378243327140808,-0.2892586588859558,0.4554132096561327,0.5183081365127351,0.5448649856369813,0.4765266222176235,-0.6492293477058411,0.1139039024710655,0.108738899230957,0.4838958618551492,0.3351134136199951,0.6095949561446905,-0.003102152608335,0.2285349667072296,-0.5493708621326834,-0.2578136622905731,-0.0169502991172717,-0.2666337151011452,68
1722247675129735400,-0.6669651220303029,-0.577747280985117,0.5662208015814423,-0.116537078994885,9.702347329482436,-1.421698105493188,0.4769303202629089,0.1063173115253448,-0.084088809788227,0.4533353946864423,0.5180125548806408,0.5514974400886923,0.4711692216159864,-0.7475804090499878,-0.0003077327273786,0.0390864498913288,-0.5697603738844395,0.3376473160117864,-0.2617367003072053,-0.1000693067908287,0.1857785284519195,-0.2543920914317481,-0.1656864285469055,0.0232464766520308,-0.0624302440204657,69
1722247675169515000,-0.6482548686023801,-0.947736193153262,-0.3595030278585851,-0.0987359580348245,9.682082540088892,-1.5549601823829111,0.1185934990644455,0.6620170474052429,-0.0044285980984568,0.4454504856918307,0.5170258540852847,0.558538422431361,0.4714794758096478,-0.1770132929086685,0.1496831476688385,-0.0061880201101303,0.4204851736962795,0.3922843306064605,-0.2167383786082267,-0.1593828946352005,0.1389867961406707,-0.0924855010716244,-0.049712985754013,0.0052338004379213,0.2201497396879829,70
1722247675209294800,-0.0932938400461338,-0.5253863946288824,-0.0311633461572229,-0.0437742232641205,9.68096434971392,-1.5644225688636302,0.0724153295159339,-0.2003077566623687,0.1909668892621994,0.4408989575310016,0.5153368265097302,0.5605277018028323,0.4752313488004242,-0.2576887011528015,0.0253117159008979,0.1566287875175476,-0.2187842052221298,1.3198580256968735,0.3384381741285324,-0.2144019454717636,0.0793074071407318,-0.0969489558870438,-0.0412434972822666,0.0014162839806231,0.0400589564674999,71
1722247675249075500,0.1331141745853237,-0.1594663393348455,0.4252431818783283,0.010687342290458,9.668337507852913,-1.641198496160656,0.3140726685523987,-0.1385038346052169,0.2041635811328888,0.4403138833995506,0.5219727504816031,0.5578729982656585,0.4716417262881688,-0.6669092774391174,0.0631644502282142,0.1166727840900421,-0.3415069140493869,0.133450439068675,-0.1892156174430623,-0.2348684966564178,0.0683031156659126,-0.2537887187111191,-0.1008521988987922,0.0113827566591149,0.0585037821585778,72
1722247675288855300,-0.3038664625662379,-0.2965484129041433,-1.019439931752533,0.1166699937927071,9.650393270361423,-1.7397275517128408,-0.006090756971389,0.5526449680328369,0.252653956413269,0.4330083480980345,0.5248465079297503,0.5596763043036547,0.4730774094806952,-0.2537064552307129,0.2127704471349716,-0.0062412172555923,0.043894671306014,-0.709468704304099,-0.6458294680863619,-0.2294442653656005,0.0146300327032804,-0.2082032265076413,-0.1132206991314888,0.0466394856352824,0.0988961900978349,73
1722247675328635000,0.4181811710702255,0.2707411869525909,-0.8242891155742108,0.2334905385046266,9.672676998361943,-1.5984937652915716,-0.5027023553848267,0.5185031890869141,0.1341171115636825,0.4279495068993281,0.5181057024333846,0.5595238879938798,0.4851378305240819,0.194068893790245,0.188785970211029,-0.0599115043878555,0.2532955466330051,-0.1041004259437322,0.2544008409937843,-0.2255040109157562,0.0471139997243881,-0.1312178577110171,-0.1019476577639579,0.0480732584651792,0.0516325355490669,74
1722247675368415500,1.1744719419017433,1.0581342579364776,0.3552233047127723,0.2732717831424437,9.689436994504929,-1.486782572083175,-0.0336487889289855,-0.3193374574184418,-0.0082921460270881,0.4291097306349675,0.5158403688756459,0.5565191145147046,0.4899592321570697,-0.150206446647644,0.1557373106479644,-0.0573342256247997,0.100436058217287,0.4400730867415666,0.0393757691094651,-0.2154044061899185,0.0408885553479194,0.1081658396185841,-0.0797557309269905,0.1702531610860489,0.0222294222637079,75
1722247675408195300,0.4239807607270777,0.1603629959136247,0.4873593001820147,0.2118294176481664,9.68773603580594,-1.507738266350329,0.1553464531898498,-0.5638565421104431,-0.1111123859882354,0.4350697248526286,0.520221883991517,0.5533917672760499,0.4835711574635586,-0.4456521868705749,0.118494763970375,-0.0589417107403278,0.2053852099448442,-0.1118956098645925,0.0012841763253323,-0.1782683581113815,-0.0080901160836219,0.0715034850531257,-0.0615779310464859,0.2671326228003017,0.0857620289023499,76
1722247675447975000,-0.5672885038781911,0.0495621955484151,0.5859669739283621,0.1867601871149614,9.67089537564218,-1.6153237579308448,0.2685797810554504,0.0406436696648597,0.0960191562771797,0.4347639659368045,0.5241954391515926,0.5545969097035629,0.4781439384191785,-0.4632548987865448,0.0805408880114555,-0.1208125427365303,-0.1404518422633409,-0.8492933545798063,-0.2552846563572995,-0.1342974454164505,-0.0310371480882167,-0.0122390618195524,-0.0741029307246208,0.222348089982476,-0.005428468489251,77
1722247675487755800,0.0531942867067642,0.021356091761589,0.0835655874371528,0.2402449812008999,9.661993107262251,-1.6608955686688422,0.0008301609195768,0.2097926437854766,0.0931949466466903,0.4308727461303144,0.5252088897446091,0.5557317030283417,0.479235471524209,0.1097183376550674,0.1641426235437393,-0.046230312436819,0.4779027589201927,-0.9363082056879996,0.0182253559878095,-0.1031203866004943,0.0027756968047469,-0.1489675224784761,-0.1377664655447006,0.1570814717586152,-0.1233907990808598,78
1722247675527535400,-0.1408339369161054,-0.3625385961621999,-0.205860280110687,0.284935040668305,9.666106387799978,-1.6295941292151808,-0.1072044596076011,0.4983195662498474,0.0180816501379013,0.42674573185235,0.5213415518781517,0.5579329394616246,0.4845636111849568,-0.2987740635871887,0.1317717880010604,0.0739899054169654,-0.011818448087573,0.5033996037483215,0.1015501204064115,-0.0739481076598167,0.0208125971257686,-0.1048685881714802,-0.209412544965744,0.149565305708535,-0.0576097970274975,79
1722247675567315200,0.1152387828126549,-0.146637837421894,-0.0673544573485851,0.3073378102049231,9.672866967976091,-1.5847947641544042,-0.1442124843597412,0.3958897590637207,-0.0850984528660774,0.4234484560713656,0.5164880546148443,0.5603946214695948,0.4897850040439077,0.0438248068094253,0.1944936513900756,0.0897436961531639,-0.1830441987991332,-0.604963204690814,-0.0223643920212984,-0.0570845939218997,0.0130560584366321,-0.0237594653921783,-0.235593169927597,0.1318103254451416,0.0797876032683998,80
1722247675607095800,0.2049349088940769,-0.0144324299782514,-0.5164997622095048,0.31415793854855,9.684761403909324,-1.5089952806740998,-0.1544142514467239,0.764148473739624,0.0385755524039268,0.4203908831841415,0.5094583313240254,0.5633733722434026,0.4963205244056132,-0.2583816349506378,0.1759421825408935,0.1000103205442428,-0.0222281984210014,0.2575193018078804,-0.3012702172616496,-0.0207814071327447,0.0078292675316333,-0.0052263260925858,-0.2176548987627029,0.1671944676351733,0.1188107047489844,81
1722247675646875400,0.5922996110159904,0.437198408088088,-0.3228862386010587,0.4042867934914305,9.688628016209602,-1.461990514523536,0.0805766731500625,2.1987149715423584,0.0515109114348888,0.4052723494876314,0.4953060775726179,0.5737705675277063,0.511090511018277,-0.2892271876335144,0.0690521672368049,0.0035705342888832,-0.0034457565397024,-0.3956353946000337,0.3598515490353107,0.001414296682924,0.005770846735686,-0.0564140296379802,-0.2248957604169845,0.1719879855220206,0.0588651080179493,82
1722247675686655000,-1.5935428648859262,-0.0388981781929731,0.2400163783431053,0.7127757830254733,9.664337040039896,-1.5043049309007823,0.4063980281352997,3.230068683624268,0.634932816028595,0.3648615804183946,0.4709638156465174,0.5957275281932946,0.5386815953177715,-0.475049763917923,-0.0751634910702705,-0.0335595905780792,-0.3032873657703399,-0.1087193179160356,0.3981698449810966,-0.0071645961143076,0.0105297863483428,0.0281556088587385,-0.2335800230503082,0.1904020507486537,-0.002696821885521,83
1722247675726435800,-0.3276732536818832,0.2974041529506445,-2.5242542734801767,1.106536908186227,9.643768883785604,-1.3941566030949353,-0.5809205174446106,3.1200170516967773,0.3522347509860992,0.3212518557196213,0.4433401084373027,0.6119899962441739,0.5707144422773038,-0.5910778641700745,-0.0226306151598691,-0.0860564857721328,-0.0359469271719455,-0.3524018175512552,-0.3790069158822298,-0.0042463606223464,0.0589618720114231,-0.1183230947619769,-0.2679052948951721,0.0193697174170752,-0.0718317397599574,84
1722247675766215700,-3.180989166462421,-1.0545306804865595,-2.4399451741993428,1.4417512979626654,9.665426588842273,-0.8193114732921123,-1.3652396202087402,3.4534122943878174,0.84537672996521,0.2834056217992289,0.4034054650966591,0.6156600447078681,0.6147422294376896,-0.6409801840782166,0.0530926957726478,-0.1662073731422424,0.0033072248518466,-0.5702098712176085,0.1968611272275447,-0.0047191027551889,0.1190595179796218,-0.2104489778741262,-0.3096194565296173,0.0244789479063008,0.0072433444538241,85
1722247675805995300,-0.8742442559629678,0.4231938481330871,-0.8241022146999836,1.8893856137387453,9.622876317882538,-0.0292818934919079,-1.368769884109497,4.286669731140137,0.9572546482086182,0.2344573775184912,0.3594482649668609,0.6101556407408026,0.6659855520485204,-0.295057088136673,0.0795873627066612,-0.1246612071990966,-0.1555243237107992,-0.6122732354432344,-0.0459153634786605,0.0312498994171619,0.1720662266016006,-0.1070625910844188,-0.324011355638504,0.0202763131512678,-0.0262955528911901,86
1722247675845776000,-1.396978236386925,-0.7994909205347299,-0.9124117087285966,2.1915540584817528,9.523364388772844,0.8203846554815769,-1.2914812564849854,3.338593006134033,1.0053318738937378,0.1824689238051357,0.3105802979990414,0.6014248917916286,0.713115147874018,-0.5706948041915894,0.0373241193592548,-0.1582128405570984,-0.2343716504544019,-0.2865221089303493,0.0657727411150932,0.0161057710647583,0.1939435601234436,-0.1235575430830474,-0.3682233095169067,0.1229297939729876,-0.0927403069497551,87
1722247675885555500,-0.1189976969547569,-0.8684551511675119,0.8580600138813257,2.394087824518233,9.39211233653128,1.4922976822428404,-0.6914527416229248,3.4173290729522705,0.8182600736618042,0.1369556067712848,0.2720250138704519,0.5915373075805709,0.7465448096851338,-0.5843515396118164,0.0746624842286109,-0.0871186926960945,0.0897305398076772,-0.0621931290626525,-0.3167969087500125,0.0166941937059164,0.1293591260910034,0.049238027928234,-0.3501669466495514,0.1668150581298396,-0.0195253281038952,88
1722247675925335300,-0.7345482005029916,-0.973260510510206,1.614897203081846,2.4700451289087533,9.278147519177198,1.9963067961916323,-0.3928424417972564,2.6332011222839355,0.8333258628845215,0.0898723230131082,0.2318974997979016,0.5868903023160591,0.7705233806624393,-0.4829564392566681,0.2066463530063629,-0.0282563716173172,0.1652180347293615,0.3212736888378858,-0.4351520700175315,0.0027564202900975,0.1386694312095642,-0.017110122471617,-0.2733132243156433,0.2012824142685159,0.0888448795469477,89
1722247675965116000,-0.1212576047107577,-0.977540964308381,1.490506122650951,2.606438927952945,9.170946789130568,2.295774019151926,0.0240058172494173,2.416743040084839,0.9861303567886353,0.0486288335285567,0.2057003155239321,0.583639853634804,0.7840198041172838,-1.037274718284607,0.0995160117745399,-0.0846757665276527,-0.0592389554321765,0.6803945855110883,0.1178244153916835,-0.0039984774775803,0.0607552491128444,0.0387928181223571,-0.1960064172744751,0.2263032025501131,0.0584097198001109,90
1722247676004895700,0.2159630103215575,-0.6886041954517365,0.7768933042794466,2.6938898323908447,9.071452395677566,2.573342714037001,-0.2411859631538391,2.005519151687622,0.6615141034126282,0.0083887918507713,0.1790170728647423,0.5803007124823928,0.7944391591047977,-0.6737154722213745,0.0077653736807405,-0.1128580048680305,-0.0331219328790903,-0.3023258272618055,0.3774119017757475,0.0035031011793762,0.0789156332612037,-0.147429216128448,-0.1697448194026947,0.0927259130982216,-0.025812303985469,91
1722247676044675300,0.6857195799261331,-0.1359258892714977,1.9752046791911124,2.6999808427423235,9.014523470753431,2.7602263448685407,0.3145119547843933,1.4305412769317627,0.406411737203598,-0.0186386101345449,0.1585609698542834,0.5780363627613302,0.8002405577294378,-0.98905748128891,0.0052830944769084,-0.1107573062181472,-0.0496790999263525,0.3177110279202461,-0.2982652998246252,0.0376343578100204,0.0564987659454345,-0.0059655967276339,-0.2104751169681549,0.1646760002745315,-0.1347351085843518,92
1722247676084386600,0.2877937363013625,-0.2726800460606813,0.3339697965428232,2.698673267275095,9.022887978994843,2.7340497010827063,0.3510462641716003,0.6915883421897888,0.1792334765195846,-0.0377466003542054,0.1447234840942911,0.5828013121814392,0.7987320192937302,-0.7082119584083557,0.093780942261219,-0.1455364525318145,0.2634393395066261,-0.3224655289709567,-0.4367079942226409,0.0584396496415138,0.0486592315137386,-0.0373735692914458,-0.2814469039440155,0.1348645527834538,-0.1867983089019544,93
1722247676124163300,0.3424889108240604,-0.5471960753768682,0.5766399042651057,2.678395033878088,9.04885770203173,2.667353707642853,0.2533406317234039,0.4051476716995239,0.1021290272474289,-0.0446242909124362,0.1385969858153179,0.5871913539342328,0.7962449431409182,-0.435039758682251,-0.0004571360477712,-0.1521907597780227,-0.005820668977499,-0.101014150366187,0.4895685006640851,0.0493855848908424,0.0327592305839061,-0.0841339893091004,-0.3194319307804107,0.0393376473224721,-0.2095873012771829,94
1722247676163940400,0.8026502613484859,0.0721966366827488,0.5096934431955218,2.650536720615625,9.042979165387154,2.714698227141797,-0.0954182893037796,1.1628097295761108,0.1616664379835128,-0.054890010021236,0.1290933722304619,0.5873021501405381,0.7971187618224321,-0.3753929436206817,0.1222079619765281,-0.0421240516006946,0.2707365107774734,0.2928606643021106,-0.3997814083635806,0.0229929815977811,0.0650185644626617,-0.0970568093088455,-0.2914951145648956,0.0275376390738878,-0.0893379328940529,95
1722247676203718100,0.0487868272617459,0.4572212054193019,0.157704882620275,2.6535183667749167,8.995236001959443,2.8661718141570685,-0.0408985428512096,0.9869767427444458,0.3952811062335968,-0.0724192260004093,0.116222058566228,0.5834023788541729,0.8005557376038019,-0.1799337267875671,0.1160108372569084,-0.0052798157557845,0.0399555782914161,0.0330558819055557,0.0541594602108001,0.0140075618401169,0.0569864399731159,-0.0704999614332336,-0.2303550392389297,0.0131525850514532,-0.0795057632528711,96
1722247676246072300,0.7526537660360336,0.1201812076508998,1.307046767179668,2.618531809067726,8.973297141873836,2.9654063876301047,0.2290027737617492,1.4217830896377563,0.2850417494773865,-0.0909852082659307,0.1004657254459679,0.5819905469363568,0.8018200944924491,0.0642893314361572,0.1371609717607498,0.004111754707992,0.0631944150596857,0.1576841320931911,0.0351321036577224,0.0063732890412211,0.1024076268076896,-0.0276276805610745,-0.1886982023715973,0.0524946962032001,-0.1190884348449762,97
1722247676285760300,0.0933455154344439,0.3018091099113226,1.1526198833167551,2.5954925865247844,9.009091508832574,2.87577375523895,0.9056654572486876,1.0503047704696655,0.3594838380813598,-0.113518673189854,0.0822799859620484,0.588732835924205,0.7960760944302688,-0.165880486369133,0.0988663658499717,0.0468173399567604,-0.0342184959441423,0.5510930828154087,-0.1619406204938888,-0.0148249324411153,0.0574004873633384,-0.0548919711698545,-0.1818785220384597,-0.0196363438804517,-0.1229949590305332,98
1722247676325538000,0.9012740094467996,0.3655184887558221,-0.1117281443431973,2.529168056745827,9.095320177999138,2.6549688578441737,0.7219776511192322,0.5603034496307373,-0.2560113072395324,-0.1247993872140616,0.0686943381809582,0.5999294521164946,0.7872680557399448,-0.3161740899085998,0.0902434214949607,0.037236750125885,0.0188069918006658,0.4166746754974126,-0.1464415841974318,-0.0236393790692091,0.0379103831946849,-0.0708197314395103,-0.2075718492269516,-0.0329845268525299,-0.2114398703413084,99
1722247676365315000,-0.2294333172693848,-0.0541612137764692,0.5095338687196374,2.3744882210351523,9.198214735284449,2.4341364879205822,0.8212267756462097,0.3278043270111084,-0.2292032837867736,-0.1274488923640262,0.0554687574939098,0.6105872564190061,0.7796557630839673,-0.0737047493457794,0.0780921578407287,-0.0073550841771066,0.0841068547070026,-0.3305541428804397,0.0398680461384356,-0.0214023720473051,0.0209457706660032,-0.0810094001483172,-0.2085358947515487,-0.0720007670507766,-0.1477197965728584,100
1722247676405091800,0.6113976216524839,-0.1228787761718034,-0.1588262878656387,2.236056340292096,9.302098303607108,2.1543932254754004,0.7839822769165039,0.1806161999702453,-0.4108900427818298,-0.1264928254710549,0.0456886074798339,0.622951898085476,0.7706121671298277,0.0569656454026699,0.0653277933597564,-0.0668375194072723,-0.0320323840767145,-0.2919575779825449,0.0363784504570066,-0.0159593373537063,-0.002265544142574,-0.0563785336329136,-0.1831452995538711,-0.0624092423316324,-0.0976063603498507,101
1722247676444869600,-0.5980737374380231,-0.0207055188983678,-0.4426321235746145,2.099687091167271,9.394154656013846,1.873915511275828,0.7246302366256714,-0.088765263557434,-0.2519750297069549,-0.1222086131820595,0.0386852447548091,0.634791582519056,0.7619764873564622,0.012986734509468,0.066273957490921,-0.0655723139643669,-0.1564274100303649,-0.0398661464422941,-0.2932112313054502,0.0072168270125985,0.0077052651904523,-0.0381850934535963,-0.1465466320514679,-0.0500313656964339,-0.0540129872450837,102
1722247676484646700,-0.5310382829107344,-0.0647773003369569,-0.5517145757146179,2.0527029294133183,9.452889169055222,1.6123462034247815,0.6200542449951172,-0.0200169812887907,-0.006492375396192,-0.1196858821336711,0.0363865042715336,0.6453442831535148,0.7535794386823238,-0.1231037229299545,0.0264099519699811,-0.0555443838238716,-0.1497451557874679,-0.0269487972021102,0.0579157440043985,0.0219134986400604,-0.0077857365831732,-0.0495733699629781,-0.1287022978067398,-0.0016857668380776,-0.092441680196207,103
1722247676524423700,-0.3534082181148231,-0.2247404832780361,-0.7747498625099658,2.092795724218339,9.474140046876668,1.4252246721841395,0.4046843349933624,0.0894884392619133,0.1657492518424987,-0.121931074039011,0.0363102560648069,0.6526984965812757,0.7468594648533629,0.0174941346049308,0.0399817936122417,0.0016637775115668,-0.1051443820387125,-0.0272825592011213,0.0537469338871538,0.037610076367855,0.0104143051430583,-0.1106390887311659,-0.1236925199627876,-0.0534057557666674,-0.096452386275446,104
1722247676564201500,-0.2556801036819816,-0.1991840172171592,-0.6211497848600149,2.1563769466385243,9.477164947655796,1.3052930553801356,0.2977927029132843,0.1306713968515396,0.2177556455135345,-0.1267171792230707,0.0359082743264576,0.657388144791613,0.7419530186277686,-0.0159828644245862,0.0358287543058395,-0.0197267308831214,0.0117962362557649,-0.0658130731254816,0.0695277097344398,0.0417622402310371,0.0122628938406705,-0.0653652288932818,-0.1030609458684921,-0.000651751040155,-0.0482748043526895,105
1722247676603978200,-0.1665320399373769,0.0432967054128646,-0.6666846245884895,2.246494586067646,9.469614678406716,1.2041824589021504,0.2329619824886322,-0.0019389020744711,0.2283549904823303,-0.131088531956042,0.037771670693732,0.6611936792409805,0.7377073285149695,-0.0749146193265914,0.0845271572470665,0.0057369489222764,-0.0072469023883342,-0.194814716091752,-0.3632090427696705,0.0398871302604675,-0.0019607059657573,-0.0399272015803027,-0.0668335705995559,0.0057001250374829,-0.0144094155704893,106
1722247676643755300,0.7841570116721093,0.1981990978330373,-0.2933822770234197,2.294486755820364,9.467640163463354,1.126713580904901,0.2378240823745727,0.0919239372014999,0.0434935390949249,-0.1342906319007544,0.037844114087165,0.6641697207727651,0.7344469340616004,0.1510489881038665,0.0910520106554031,-0.0263632629066705,-0.1017535705566406,-0.1680430290222168,-0.0371241542577743,0.0339511334896087,0.0074246460571885,-0.0611934961665887,-0.0518730692565441,-0.0024677954776852,0.0030967809885391,107
1722247676683533000,0.63058659850806,0.2412549802273511,-0.5958493393868207,2.2704376255825163,9.48129868645966,1.0585285910163074,0.1431464105844497,-0.0216898154467344,-0.1403204351663589,-0.1339154232917646,0.0361335880867523,0.6668766206194814,0.732145258294267,0.0316512323915958,0.0661009028553962,-0.0376533344388008,-0.0937380218833684,0.0011018237620592,0.0960404536068439,0.0462184622883796,-0.014833340421319,-0.0363787587009719,-0.0353371538221836,0.0388786423754412,0.0525325257292483,108
1722247676723310000,-0.0246047182939946,0.0952238765269517,-0.0757902772605419,2.2338541540727017,9.495798336455223,1.005039285152033,0.1209209486842155,0.1657116115093231,-0.008349172770977,-0.133219535483493,0.0339075902212005,0.6690347756050287,0.7304076561545935,-0.0902672111988067,0.0473885759711265,-0.0105747794732451,-0.1536000776499509,-0.0048725744724273,-0.0249295663341879,0.0534355491399765,-0.0220951065421104,-0.0146449972999864,-0.0490816831588745,0.0208006407027598,0.0233485624867491,109
1722247676763086800,-0.1415194714948535,-0.2255968078464269,0.0756552527040243,2.2719100362226365,9.491157232651114,0.9626795683283358,0.1739672869443893,0.2363171130418777,0.1125800460577011,-0.1381396865015893,0.0318376967162047,0.6707483594692778,0.7280113306722262,0.0417214445769786,0.1072364598512649,0.0251843500882387,0.0774929895251989,-0.2398328384697437,0.0370180635347962,0.0505962558090686,-0.0226139742881059,-0.048007006562245,-0.0702815130352974,-0.0255377796267159,0.0083517115502792,110
1722247676802854700,-0.007965279790759,-0.1059592055529356,-0.0079436524808406,2.296073878881335,9.49467137825191,0.865816034835577,0.3663271367549896,-0.0512744449079036,0.0308620128780603,-0.1409550009950113,0.0303767304770972,0.6744871546550611,0.7240690573123861,0.0071781137958168,0.1080980524420738,0.0774183869361877,0.0704144294410944,-0.3622276305168866,-0.0706989454708993,0.0480185709893703,-0.000333315343596,-0.0280153578545432,-0.0845169275999069,0.0121157117178081,0.0187713199823745,111
1722247676842631700,0.0470243476338684,-0.1446171452492475,0.0056512306947261,2.306176755222678,9.502954053428768,0.7387954826839268,0.2760528028011322,0.1002515330910682,0.0846088081598281,-0.1421908593998055,0.0291776971541526,0.6793236161868956,0.7193399358038924,0.0721177011728286,0.0963042452931404,0.064291276037693,-0.1932452748179435,-0.0134960259109735,0.1544026262044906,0.0515195094048976,-0.0171413160860538,-0.0850651600788347,-0.1090462654829025,-0.0326716820606729,0.0700247908026911,112
1722247676882408400,0.1642012589022517,-0.1217968261539935,0.2286520306985825,2.3435753425076604,9.499285594049097,0.6645349722739309,0.2252096980810165,0.3367185592651367,0.133877620100975,-0.1471888189380561,0.0266534450780328,0.6822079886707701,0.7156935775926404,0.3106826245784759,0.0846440121531486,0.0679304152727127,-0.1046247420787811,-0.3838677999168634,0.182852475619316,0.0630207061767578,-0.001307311700657,-0.088557504839776,-0.139404684305191,0.0151569071862555,0.0095126496550103,113
1722247676922186500,-0.6090650870516896,-0.2553729374289512,-0.1536567032080143,2.407559738901257,9.48816389605403,0.5905983965886756,0.2897336184978485,-0.0417502969503402,0.1879526525735855,-0.1537015022860615,0.0245321074868053,0.6850445512044072,0.7116797823154297,-0.2696691751480102,0.1879484057426452,0.173034593462944,0.0468652115494012,0.5962129120022058,-0.7553836293913424,0.0739848315715789,0.0239502768963575,-0.1275217157399747,-0.1825176030397415,0.0088687434237712,-0.0250373946398147,114
1722247676961963300,-0.1372831490993499,-0.1954746413052082,-0.253985866984725,2.4553192689418792,9.48467780750394,0.4274159228075295,0.435044378042221,-0.3192519843578338,0.0936078503727912,-0.1527649268729483,0.0278054218705706,0.6909665055955976,0.7060134894675011,0.1489778608083725,0.0997045636177063,0.1626220345497131,-0.4773644142597913,-0.4790782324403524,0.6514496460556983,0.0848625153303146,0.0481729805469512,-0.1742260285060852,-0.2551037669181824,-0.0056510520273906,-0.041396589146275,115
1722247677001740300,-0.5002218504950404,-0.2502005032271147,-0.6081289752453565,2.5264646430060265,9.47206674773395,0.2594732123546302,0.2893092036247253,-0.0379852280020713,0.2835338115692138,-0.1535246491551405,0.0311654515211422,0.6969930148696435,0.6997569058710091,0.0796033143997192,0.2272649258375167,0.1418182253837585,-0.1931242787867784,-0.2015823105305433,-0.7470354877628386,0.0893893018364906,0.139635294675827,-0.2673230308058671,-0.3662724792957306,-0.0521879272423917,-0.0819001475761178,116
1722247677041518000,0.4711164597809314,-0.003013794863224,-0.5166226579368114,2.643291279532016,9.44125718345046,0.2146541562126949,0.0310607142746448,0.3403025865554809,0.335656464099884,-0.1607117394020124,0.032305059845358,0.6985786050003375,0.6965028049392118,-0.0334460102021694,0.217479407787323,0.2003961205482483,-0.648141836681962,0.1266278995722532,-0.1003728567879646,0.0857740864157676,0.2043918967247009,-0.1323647170580457,-0.4379096925258636,0.0283066369852749,0.0724508489058353,117
1722247677081295000,0.0100251349300146,-0.1655944668263196,0.0600613594646565,2.785354648645222,9.398234034281968,0.292185651117377,-0.0891439616680145,0.7179025411605835,0.4655203521251678,-0.1744235483225471,0.0296518262948711,0.6958616575762423,0.6960414401493137,0.2473342567682266,0.2229138612747192,0.2382973581552505,-0.3482476204812526,-0.1083323644250631,-0.2900724948883056,0.0813009589910507,0.2145541310310363,0.0093145966282841,-0.3976126313209533,0.048014016258344,0.2223218230300583,118
1722247677121071900,-0.0950599181368947,-0.2592418878167867,0.3142623487710952,2.9592732917025684,9.340299147185682,0.4146221268817782,-0.0667658746242523,0.8023217916488647,0.5034857988357544,-0.1925163310184607,0.0255128808323796,0.6915267507424754,0.6957566914860039,-0.0155988372862339,0.2361312806606292,0.1870669275522232,0.139739310079813,0.124979547843337,-0.5671042333524674,0.0637146607041359,0.184891328215599,0.0030248722380201,-0.3398295640945434,-0.0215826693423674,0.0721899055478628,119
1722247677160851200,-0.1799447714790701,-0.0298778363913297,0.2895171990931034,3.123914987848699,9.281821239253878,0.509248512439616,0.0763307064771652,0.725282609462738,0.4522724449634552,-0.2103406788091222,0.0209234535116192,0.6881843946442919,0.6940613981520135,0.0200640857219696,0.2583828866481781,0.1118705123662948,0.5247738156884908,0.0081178400039672,0.0535818795185536,0.041946068406105,0.1826685965061187,0.0064374189153983,-0.2879160046577453,-0.0027863513452321,0.0065200534142641,120
1722247677200628000,-0.2498737554907798,0.259454069262743,-0.1484019244849681,3.270907045535743,9.228617472332717,0.5515255559485406,0.1020053774118423,0.5647441744804382,0.4327274262905121,-0.2254621912324826,0.0172842114446994,0.6867177575712194,0.6908594831643907,0.0386979579925537,0.2326919734477996,0.0112772556021809,0.3112450467765331,-0.010078326421976,0.2140261239748448,0.0430226102471351,0.1074874848127365,0.0730255435212515,-0.2801021635532379,0.0755082911145407,-0.0960980381461326,121
1722247677240405000,-0.0295385214343667,0.2979734772711992,-0.3446895626734942,3.415538219310343,9.174237647369504,0.581266760348156,0.1345168352127075,0.5389760136604309,0.4111394882202148,-0.2393236722366684,0.0146165921013634,0.6856748490040022,0.6872849990620409,-0.049768790602684,0.1008395552635192,0.0339743122458457,-0.1306505792170763,0.443546900331974,0.9218775292754172,0.0308572314679622,0.1042525321245193,-0.0956263472474645,-0.2553613483905792,-0.0106965724847512,-0.121156327160215,122
1722247677280183000,-0.0190402160346508,0.1558294441372156,-0.8968623304843902,3.549440201538801,9.119307787308095,0.6403834045749157,-0.0500418730080127,0.726604163646698,0.4549777209758758,-0.2531379824242395,0.0116042703001135,0.6835311805354987,0.6845229466492981,-0.1026551723480224,0.0677308663725853,0.103308580815792,-0.0628285043567419,0.4659574695825576,0.5150947907824069,-0.0131127862259745,0.103432573378086,-0.0609896943899104,-0.2044673711061477,0.0061562770153686,-0.1340852846398018,123
1722247677319959800,-0.1132064002022147,0.0286439106822013,-1.0982337016779928,3.725607500305772,9.032660600468516,0.8374154313899577,-0.2969435751438141,0.9889630675315856,0.644681453704834,-0.2726904869645357,0.0081268083364654,0.6761934999009641,0.6843509153317071,-0.1443813145160675,-0.0473197139799594,0.1174455732107162,-0.3213900086939334,-0.1546025326907634,0.6299112565297633,-0.05127964168787,0.0957470685243606,-0.0793389553186018,-0.1696574389934539,0.0025270422510977,-0.1737860661862418,124
1722247677359737900,0.1380333829447627,-0.0905436097562313,-1.220759938085079,3.913704014058411,8.924549185317755,1.0980571760673077,-0.3528356552124023,0.8376870155334473,0.5854259133338928,-0.2941192190994493,0.0052025160879635,0.6663239437857587,0.6851855290025097,0.0557429865002632,-0.0429838225245475,0.1374718695878982,0.0322954189270734,-0.1903115594536066,0.0452186133861541,-0.0766527652740478,0.1073304861783981,-0.1438172270432114,-0.1474690735340118,-0.0679892663870938,-0.112126934402436,125
1722247677399515000,-0.3979349037140607,-0.4388233789414167,-1.1880986084550618,4.091589514920115,8.805510717961191,1.3755940875746309,-0.4829679429531097,0.9005894660949707,0.6952672004699707,-0.3131789729454406,0.0047822597259709,0.6556228727288314,0.6870623535117106,-0.0599998570978641,-0.046521246433258,0.1404831856489181,0.0200993696987628,0.1375929457008838,0.0085164108674973,-0.062090590596199,0.0658644884824752,-0.011727971633902,-0.1437260806560516,0.0253393253120128,-0.0338584236102295,126
1722247677439291600,-1.0858452716827391,-0.5769423943430185,-0.7883084322631358,4.328193162210286,8.62654765099585,1.737758443596959,-0.5827035307884216,1.228008508682251,1.060863971710205,-0.3375959007445414,0.0060247484883346,0.6413756131955224,0.6889339991224066,-0.1494373381137848,-0.1406759172677993,0.123175024986267,0.0019938041657209,-0.0144335990220308,0.4485177475471049,-0.0108520034700632,0.0653235986828804,-0.0260613217269186,-0.1340207457542419,0.0286426868394948,-0.0182950373902684,127
1722247677479069700,-0.7757090629309416,-0.6771703627675771,-0.4010977516591548,4.630822648593783,8.363455517491698,2.1859752354361115,-0.6207957863807678,1.4519792795181274,1.332494616508484,-0.3692475931796776,0.0086518113868518,0.6232747614834508,0.6892822510310437,-0.0024928892962634,-0.1052223816514015,0.0871911272406578,0.4608867421895265,-0.1079220300585031,-0.0316552213273942,0.0545877441763877,0.0307379346340894,-0.0455294009349541,-0.1174667701125145,0.0457503821752965,-0.0339626100704888,128
1722247677518846700,-1.1837462584644556,-0.7999585380464792,-0.2217655591204762,4.951023155242204,8.03239400961101,2.671782337740064,-0.5362557768821716,1.4844262599945068,1.5971577167510986,-0.4052438769017061,0.0117312942514811,0.6030251973744274,0.6870229499808103,0.033278688788414,-0.077333278954029,0.0974370390176773,0.2329635372221469,0.1032622215539216,-0.0713174426954239,0.0823698788881301,0.0280266962945461,-0.1094361244158819,-0.1200416311621666,0.0473679734397679,-0.1108409040467347,129
1722247677558623700,-0.4766150571972131,-1.1210843428462742,0.3725511638715863,5.320682981586456,7.621490903252362,3.126274410456418,-0.2977311313152313,1.8241138458251955,1.886229395866394,-0.446292201228833,0.0160914326157578,0.5833913161593814,0.6783943331566866,-0.0760347545146942,-0.0828404799103736,0.061193149536848,0.3172679603278637,0.1440279471844434,-0.0478255079489201,0.0689021795988082,0.0485403314232826,-0.1429539612773805,-0.1165806949138641,0.0097781949812197,-0.1219451668498106,130
1722247677598401500,0.7577554730892181,-0.0454126746535301,-0.014265256717801,5.603937613153457,7.197341946351528,3.600629706028104,-0.2722088992595672,1.5948851108551023,1.536850929260254,-0.4877904143942234,0.0171691775748779,0.5622492219506914,0.6675638730409996,-0.1001563370227813,-0.0530010387301445,0.0455888248980045,0.3041074499815702,0.2662655028432607,-0.1898047059100121,0.0423970706760883,0.0812143087387085,-0.1571034278620965,-0.1080724820494651,0.0448364639344625,-0.1070594766787253,131
1722247677638178600,-0.3792337103754282,-0.6210334650039673,0.0571034047082066,5.775913305449485,6.826953221210837,4.025159771201015,-0.3166083991527557,1.796535849571228,1.5093696117401123,-0.5212396656175343,0.0176823156033465,0.5426428841829087,0.6584339067568892,0.0310789197683334,-0.0310495048761367,-0.0029960221145302,0.1822667846858501,0.0982265654742717,0.1009937651652842,0.0138667207211256,0.0391557551920414,-0.08410594139155,-0.1582836657762527,0.079841205752315,-0.2063724126175977,132
1722247677677955600,0.1613660354763269,0.1450970377206802,-0.1659703144013881,5.788225090011954,6.382993063902855,4.682332178817689,-0.73592209815979,2.428539514541626,1.41404390335083,-0.5607050248889788,0.0132213940357179,0.5109723004805153,0.6514157271562325,0.0870537757873535,0.002085437066853,0.0083593633025884,0.1456120015054941,0.2360188331395387,-0.1099322008371353,-0.0124550890177488,0.0379160642623901,-0.0744597730088746,-0.1817190200090408,0.0872270964862313,-0.1283401377170812,133
1722247677717733400,0.8183283074736595,0.4100461972683668,0.9489525832057,5.559226364767551,5.972745791104436,5.439825493839383,-0.4737921953201294,2.8662219047546387,1.0680339336395264,-0.599154035787935,0.0011275301136692,0.4718525509746895,0.6468140233035796,0.1675739139318466,-0.0121598644182085,0.0027175901923328,-0.0509784920871257,-0.2932265750050544,0.0715736824788153,-0.0091121597215533,0.001310410327278,-0.110399115095986,-0.1589582562446594,0.059356261668913,-0.0907002798889763,134
1722247677757510400,-0.4141290826678276,1.350008833810687,-1.1352525689303874,5.195050522792339,5.645549141958355,6.108159054678678,-0.6966630816459656,1.8622095584869385,0.799508273601532,-0.6322832880013963,-0.014857585289897,0.433992882741345,0.6415973616589185,-0.1420755535364151,-0.031679555773735,0.0680587068200111,-0.0850187088549137,0.2057277397722005,-0.03590133446455,-0.0196411646902561,-0.0078778304159641,-0.1612190647536888,-0.1443675458431244,0.1276596172401681,-0.1520012550180312,135
1722247677797281300,0.3341834392935037,1.0503466728001831,-0.1624625985413789,5.0258355273813,5.3236166969507925,6.524604597595333,-0.8092923164367676,0.8358164429664612,0.464219719171524,-0.6458065698620303,-0.0121260907417977,0.4088895935797571,0.6446674349668339,-0.1213487088680267,0.015091517008841,0.0830144882202148,0.3340764717876911,-0.2491828506171703,-0.2177016706824302,0.0065950923599302,-0.0314400270581245,-0.0960657615780364,-0.1120364516973495,0.056052900141431,-0.106263668392226,136
1722247677837059300,0.2608981305912137,0.4997106861025094,0.0743862556815147,4.865686466479302,5.006803494653106,6.886755655744672,-0.8778526782989502,1.1910806894302368,0.5452049374580383,-0.6602106809268953,-0.0101900717562928,0.3857063095362764,0.6443979489120302,-0.0753005146980285,0.0286504160612821,0.0850534811615943,0.0452951857537031,-0.1585048008263111,-0.0718844289284199,-0.0037081423215568,0.0108042648062109,-0.1930228459726087,-0.0839797183871269,-0.0061652058155625,-0.2059239929966628,137
1722247677876836400,0.8654407717823982,0.3806362706497311,0.8750655092179774,4.60067125595808,4.660654600016772,7.299486562052369,-0.8161789178848267,1.328871250152588,0.4349950850009918,-0.6759255200746167,-0.0108397978583047,0.3573685026848047,0.6444338387390559,0.0025063967332243,0.0263238791376352,0.069459930062294,0.1777986993610859,-0.0711398211061954,0.2160509808659553,-0.0313557796180248,0.0394904948770999,-0.160340236092545,-0.0673035234212875,-0.0058393280121963,-0.1817865816871635,138
1722247677916613000,0.6134691672295332,0.0471089571774005,1.5033172350376844,4.283421123547852,4.416281487768888,7.636697240212559,-0.2578153014183044,1.3021385669708252,0.4685947895050049,-0.6912844039119707,-0.0174967874134736,0.3321605964259691,0.6414741560552361,-0.1176399886608123,-0.026832178235054,0.0381167940795421,-0.0086345573544502,-0.0318377382874488,0.192701669460535,-0.0244418680667877,0.0374065637588501,-0.0591914812949486,-0.0897713005542755,0.0314318928663386,-0.1672590573039837,139
1722247677956391200,-0.0385331442728638,0.0138946698397397,0.7234896308720111,4.016648547965288,4.319011784628033,7.834733840960264,0.103609524667263,0.8639746308326721,0.5615753531455994,-0.7052259883727435,-0.0282753071772447,0.3158167987722804,0.6341266266802758,-0.0330340191721916,-0.0452753156423568,0.0322535783052444,0.0502174445867538,-0.0305740019619464,0.2115581994913518,-0.0307259149849414,0.0229574982076883,-0.0556710886164568,-0.1112484708428382,0.0241068563410313,-0.1035320149386301,140
1722247677996168200,0.3511757828876376,0.95093849632591,-0.8522083652436733,3.9351933768108487,4.254654463268817,7.910913994321227,-0.1940706670284271,0.2677970230579376,0.2802721261978149,-0.7141227363269465,-0.0321834938339827,0.3092246342811772,0.6271946723176652,-0.2734426259994507,0.0141599960625171,0.0421633310616016,0.0660831222385168,0.1371814422905445,-0.3753004625797271,-0.0439752228558063,0.0657532140612602,-0.1985452443895861,-0.1155597418546676,-0.0327398587759234,-0.0992951993527822,141
1722247678035945000,0.4063300993546843,0.0671165569394826,0.2403431260794401,3.8800390603438015,4.134408081427217,8.00139681380093,-0.2455404847860336,0.2786645889282226,0.1303142756223678,-0.7182612910271007,-0.0303298529275093,0.3018648514273173,0.6261457434544908,-0.2073914408683776,-0.0080590229481458,0.054624930024147,-0.1806646101862192,-0.1319458797246217,0.1688987690687179,-0.071219652891159,0.0502409040927886,-0.1934903173538856,-0.1946635097265243,0.0200807129473541,-0.1942462320214137,142
1722247678075723000,0.7536456996828317,-0.1369154848307371,0.5480366178542375,3.7586762416929,4.077921055051684,8.087848770329355,-0.0662720426917076,0.4889173805713653,0.0461603626608848,-0.721338748798176,-0.0328676994592148,0.2942009247447574,0.6261277365753842,-0.163395494222641,0.0228559616953134,0.1053014248609542,-0.2328705982416868,0.0752273826807737,-0.1467326760984957,-0.0557162947952747,0.0684763342142105,-0.1671372758215293,-0.2302951514720916,-0.0029284129973122,-0.0472319853354478,143
1722247678115500000,0.9868173266977072,0.0908355784401297,-0.4156915096789598,3.712701256981492,4.060710100270808,8.117688612797856,-0.0306268297135829,-0.1818923056125641,-0.07342279702425,-0.7228279369186191,-0.0341678266124402,0.2914543283901013,0.62562508895911,0.0258660484105348,-0.0202569384127855,0.119386151432991,-0.2056277865290641,-0.3408499114453792,-0.0422198699615895,-0.0158142894506454,0.0487877614796161,-0.0832389036328997,-0.1908921003341674,0.0331074865119182,0.040065915931249,144
1722247678155235600,0.5475961806103586,-0.0797761320263147,-0.1908756230771541,3.7241084939196702,4.029311045661569,8.128102454784512,-0.2780714333057403,0.1283952891826629,-0.0336626879870891,-0.7212628985554774,-0.0316706358842617,0.2908248088136383,0.62785166095105,0.1287117302417755,-0.0617521852254867,0.1026746109127998,-0.1384925248891115,-0.3250491157233715,-0.1099799855016171,0.0215491894632577,0.0797364264726638,-0.1790771765979938,-0.1462704688310623,-0.0498475518284365,-0.0836276198226958,145
1722247678195011800,-0.10468260974586,0.0155967975825071,0.2258183416426181,3.65468512134254,3.953540642145276,8.19653418597579,-0.1186871603131294,0.1734289228916168,0.0116985915228724,-0.7228487835828882,-0.0310903599691407,0.2848270380286815,0.6288056443743539,0.0563344731926918,-0.0911920443177223,0.0764091163873672,-0.1316354986011982,-0.0534206245422363,-0.1666390074431896,0.0264405384659767,0.0687095448374748,-0.1444124712563119,-0.1070688888430595,0.0075088498224824,-0.0933416795095428,146
1722247678234787000,-0.4293155458837747,-0.1114478660970926,0.306634922632575,3.611658172781765,3.939327407875657,8.222409216466545,-0.0013057393953204,0.1826379001140594,0.0012865458847954,-0.72332606357698,-0.031980642861213,0.2824022732195494,0.6293057131617915,0.1860093772411346,-0.1202100068330764,0.0704582184553146,-0.0838292068094015,-0.0184872583270072,-0.0850118407227098,0.0094596967101097,0.0524580664932727,-0.1072265403413213,-0.0702082887291908,-0.0346094406236428,-0.1621222424047999,147
1722247678275804200,-0.5102256503760815,-0.0317635040074586,0.0329746333628892,3.529613219040632,3.926680692270398,8.263981582304835,0.0088837202638387,0.3676174581050873,0.1577541083097458,-0.726065510989252,-0.0351409264508468,0.2782432619812177,0.6278333149695822,0.1858908683061599,-0.1812393814325332,0.0418322384357452,0.0036275428473949,0.1041571245670318,0.2528980717480182,-0.0054659182205796,0.0205886829644441,-0.120908544677915,-0.0584322959184646,-0.0257970904333167,-0.1589143132089637,148
1722247678315580400,0.5956225448936223,0.3448074168995023,-0.1026098951250314,3.4520743445470927,3.940364349707961,8.290180437922476,0.1479476690292358,0.2239470034837722,0.06028488650918,-0.7290331613181512,-0.0394292223864099,0.2752521680103443,0.6254536274007793,0.3175634145736694,-0.1393315643072128,0.0646422058343887,-0.0078805241167545,0.0569762711971998,-0.2602712308645248,-0.0013684189179912,0.0206085089594125,-0.1465503783341497,-0.0690581947565078,-0.0407730412872973,-0.0555976306546013,149
1722247678355355400,0.53967678578794,0.4538607890754937,-0.9409124846130608,3.3932486460909246,3.9418934589713808,8.313706859460472,-0.158675417304039,0.1011273339390754,0.0606526881456375,-0.7307005706651829,-0.0420176934377799,0.2726782422207106,0.624465979879466,0.286474734544754,-0.121773287653923,0.0932069420814514,-0.03631166883111,0.151567110517621,-0.2853144136410206,0.0179888810962438,-0.0057357740588486,-0.0351041196722537,-0.0591299012303352,0.0093930709752632,0.0246067184548359,150
1722247678395131000,1.173400221017003,0.187733233398199,-0.3414531380355358,3.3866561159580946,3.84739438958764,8.360532323521376,-0.2752527892589569,0.0326689332723617,-0.0483593456447124,-0.7315235160539757,-0.0383328241761943,0.2688160668612428,0.6254133417151744,0.4919293522834778,-0.1407211869955063,0.0831984505057334,-0.1240782150894403,-0.2932680760592222,0.1172773029029369,0.0375270694494247,-0.0096597699448466,-0.0641186446319799,-0.0634500086307525,-0.0706408723078435,-0.0794155094198416,151
1722247678434907000,0.5254138671576977,-0.1856421063378453,0.3961947820484638,3.355736661559343,3.820189864058793,8.38543763219714,-0.0487568788230419,0.0164489392191171,-0.1713097244501114,-0.7295306599054722,-0.0372158903100028,0.2666020209163499,0.6287474889868003,0.1365451514720916,-0.1453268080949783,0.1030437275767326,-0.1316682318270206,0.0527957706421613,-0.1290671094179153,0.0275717489421367,-0.0046428181231021,-0.0319034970000386,-0.0679975673556327,-0.0440690780248492,-0.0436003462682478,152
1722247678474682000,-0.5829916113793849,-0.0508095652610063,0.1433750362336635,3.3568238722741603,3.830206523421407,8.380431786733865,-0.0093979882076382,0.0689547359943389,0.1104493737220764,-0.7293014200133154,-0.037530433044644,0.2670362524292001,0.6288104494677677,-0.111145332455635,-0.1540801376104354,0.0615097321569919,0.1328337684750556,-0.0524994180440902,0.2786145506761968,0.0303197689354419,-0.0295814964920282,-0.0141775270603538,-0.0461624339222908,-0.0054452803434454,0.011670798086567,153
1722247678514457300,-0.2168196271508932,0.1619175318792462,0.2713514278054237,3.339906055220961,3.780135501568019,8.409874154317379,-0.063307024538517,0.1995491981506347,0.2934131324291229,-0.7328573393078578,-0.0373274705840566,0.2642392836112657,0.6258628694277135,0.0516124255955219,-0.1422548145055771,0.0615299716591835,0.1322089145749807,-0.2180260803312063,-0.3122260206378996,0.0331402420997619,-0.0595244020223617,-0.0658327002745587,-0.0627216845750808,0.0255941700060502,-0.0365970410941517,154
1722247678554233600,0.7969751383215189,0.4663283487215638,-0.0077595280855894,3.337062940749526,3.738338387063145,8.429663142892718,0.0093551613390445,0.1640847325325012,0.1511138677597046,-0.736663485745791,-0.0371572613375234,0.2623473650575568,0.6221896792626208,0.0681932717561721,-0.2511214911937713,-0.012581804767251,-0.1954839936554431,-0.3434972110837698,0.4839724342226982,0.0382385402917861,-0.0495805218815803,-0.1636168831430375,-0.0478131584823131,-0.0102534489517973,0.0164950490383955,155
1722247678594008600,-0.4987915254309773,-0.1253410746321082,0.0191056824862957,3.2699306017190217,3.729213123582303,8.459958912435173,0.0999238044023513,0.3418205082416534,0.3796945512294769,-0.7406965897570341,-0.0404743640148226,0.258889840699559,0.6186327201278417,0.0577744469046592,-0.1870134323835373,-0.0393650159239769,0.1720002422153949,-0.0468020831853151,0.0793511846125125,0.0184884499758481,-0.0150211509317159,-0.0903077369074337,-0.0528515912592411,0.0072540051284449,-0.0906030574590433,156
1722247678633784000,-0.6113099433690309,-0.2324935816228389,-0.5146610024750232,3.2534611129552125,3.7160569971501833,8.47208949521184,0.1712896972894668,-0.244894191622734,0.4189283549785614,-0.7473734799819938,-0.0431778229451012,0.257253452362821,0.611055839570181,0.2644461393356323,-0.1547238826751709,-0.0078867841511964,-0.044959670189023,0.0522977579921484,-0.0041173721909523,-0.0083736032247543,-0.0027651013806462,-0.112225371541921,-0.0459551215171813,-0.006422906903678,-0.0607414095841115,157
1722247678673560000,1.029570719014108,0.3935632645010948,-1.06659696585536,3.4772146310225125,3.7584313270211216,8.36382435080409,0.1461869776248932,-0.469824731349945,0.1310303509235382,-0.7474976164186085,-0.0385758827956952,0.2684688730476965,0.6063693181740224,-0.0118706785142421,-0.1915513575077057,-0.0556320697069168,-0.0128559744417667,-0.1532891120046377,-0.1004326972164213,-0.0239316243678331,-0.022829296067357,-0.0257496756615932,-0.0415809638798236,0.0111454053809284,-0.0260802136570564,158
1722247678713335600,1.2174991827234625,0.3346741454198956,-1.3356962308198213,3.4722932489722966,3.695964349453151,8.393653087356686,-0.4336705803871155,0.3763128817081451,-0.0298161096870899,-0.7482998050554845,-0.0362235301900922,0.2659523564818573,0.606633769300762,0.1732882559299469,-0.1768846362829208,-0.0101812975481152,-0.0204319626539945,0.0150321494370698,0.0462812741816043,-0.0149281593039631,-0.036597192287445,-0.0661723988240119,-0.0395707860589027,0.0025878981721733,-0.0320267649033921,159
1722247678753111600,0.427241077697277,0.0156152100220322,-0.7004138757109641,3.323874373352528,3.501915941558778,8.535738083779812,-0.7008724808692932,0.4361904561519623,-0.0780601501464843,-0.7501539819112627,-0.0326240758914929,0.2524562028849232,0.6103036450090034,0.0066851628944277,-0.2148735076189041,0.1059413775801658,-0.1862988166809082,0.3133253601819276,0.1042577353972941,0.000282697379589,-0.0641344115138053,-0.0128467864883132,-0.0420136451721191,0.046076257695374,-0.0098252056108554,160
1722247678792882700,-0.0279836932078003,-0.2717196765959263,0.6829384247750043,3.165435331238806,3.323578605276346,8.66626942053139,-0.3721950054168701,0.3913614749908447,-0.0901570245623588,-0.7515133723396663,-0.0299848991039637,0.2392574514261793,0.6140720025542407,0.0747635513544082,-0.1685630083084106,0.1703179031610489,0.1499620134085416,0.1645154394179582,-0.2859467932604253,0.0093628205358982,-0.0496839247643947,-0.0956462666574865,-0.0140732638537883,0.0124342670145328,0.0153480504107603,161
1722247678832658200,-0.0434630018904805,-0.3302113207921385,0.2807622302293777,3.041901306028664,3.225549315939844,8.747173679804801,-0.2834224104881286,0.2573446929454803,-0.0493853278458118,-0.7523408605533255,-0.0297321520000959,0.2305086729497922,0.6164129899902236,-0.122298389673233,-0.1745375841856002,0.0585521608591079,0.4200660715013742,0.03271218303442,-0.0052304479993879,0.0250259637832641,-0.0591848194599151,-0.1125089742562733,-0.0202570557594299,0.0515779284181538,-0.049741333241295,162
1722247678872434200,0.547429591871798,-0.0994841643199324,0.4945978731334209,2.929399839225411,3.149996354566514,8.812861080724,-0.1352982372045517,0.2952608466148376,-0.0815331488847732,-0.7532849865675322,-0.0302129282445268,0.2230612037677566,0.6179746492447137,0.0469383113086223,-0.1455864757299423,-0.0730570629239082,0.2975029371500015,-0.4374047443151473,0.1412180043302476,0.0317549183964729,-0.0558498911559581,-0.0860798992124851,-0.0237590447068214,0.0864450609967578,-0.0328016719657578,163
1722247678912209400,0.6357566946223377,0.2244870930388569,-0.472560813370347,2.841372011682391,3.099113431808352,8.85959828197956,-0.2665404677391052,0.158088132739067,-0.1344306468963623,-0.7531039807477934,-0.0306416608848016,0.2175943130030289,0.6201194190392441,0.0085935834795236,-0.1113798171281814,-0.1644676029682159,0.12928221347332,-0.3326981691718101,-0.3273100463926792,0.0148742478340864,-0.0500603206455707,-0.1287483805912546,-0.0223596766591072,0.0557270291879307,-0.1304010705685708,164
1722247678951984600,0.4719736611321568,0.0203828628152608,-0.3773468737155199,2.7799504515141247,2.99885506824553,8.91342398019135,-0.3956874012947082,0.117062047123909,-0.2126183807849884,-0.7514969668497515,-0.0276813222324006,0.2116024391387192,0.6242680072240979,0.4435402750968933,0.0114975273609161,-0.0839197039604187,0.0823608878225088,0.0022112463086843,-0.3686918580949306,-0.0057641407474875,-0.0258396249264478,-0.1517649072451982,-0.0335039347410202,0.0396562071857741,-0.2130105719904415,165
1722247678991760600,0.0318006211474537,-0.297699628765881,0.2982774286538362,2.6800813795298337,2.926084138806164,8.96803118416965,-0.1360183358192443,0.249470055103302,-0.1930688917636871,-0.7496189443058225,-0.0270776402682461,0.2049987131066211,0.6287398824482927,0.2182442843914032,0.0071007553488016,-0.0243549719452857,-0.2838449986755847,0.0886626183152198,-0.2436661330223083,-0.0182962566614151,-0.0223090071231126,-0.1490516753642819,-0.0139179248362779,0.0355708170186844,-0.1330355015922337,166
1722247679031536000,-0.3678171210870146,0.1642018434241414,-0.5380220043182373,2.59921306835264,2.883916145162284,9.005415450668334,-0.2157844305038452,0.0708198621869087,-0.0471195988357067,-0.7490498169604137,-0.0276564645842725,0.2002166910504537,0.6309301153845814,0.3169458210468292,-0.0043811970390379,0.0554294027388095,-0.2149234381407499,-0.1836187838166952,0.101989717400074,-0.0033167502842843,-0.0408726558089256,-0.0991105635008774,0.0309547316282987,0.1007664044165052,-0.041949190660892,167
1722247679071311400,0.2227022554486989,0.0139227268904447,0.385078929272294,2.5930285344988104,2.801209512642026,9.033261488971114,-0.2095181196928024,0.0228885766118764,-0.0676105767488479,-0.748384837055388,-0.0241724354894173,0.1970977707568741,0.6328415185146059,0.6307157278060913,0.0826774835586547,0.1001469418406486,0.2103162366062402,-0.3346177390575409,-0.0527647909820079,0.027102556079626,-0.0396131388843059,-0.1037778155263978,0.0437642037868499,0.0883248194619081,-0.0848579105363227,168
1722247679111087400,-0.0263891174927353,0.0430064902946353,0.4294458942651748,2.548381291259825,2.776614877350628,9.053537968802452,0.0359162278473377,0.1324210166931152,0.0420900732278823,-0.748862182425753,-0.0247048334809807,0.1943905893799918,0.6330936702622848,0.3219682872295379,0.0258759353309869,0.0647622495889663,0.071010057246685,-0.0383083956062793,0.2983867342472076,0.0280503518879413,-0.00302305072546,-0.2268722528760321,0.0510189607739448,-0.003126866170371,-0.0727386985370423,169
1722247679150900000,0.2699862769320607,0.0533975359275937,0.2106125892043113,2.547240596792102,2.794954251639545,9.048214143431188,0.0788544118404388,-0.0088436855003237,0.0297857169061899,-0.749335783086074,-0.0256534395226301,0.1949650304713979,0.6323183390271189,0.2963244318962097,0.090400755405426,0.0332219041883945,0.2075637230277061,-0.2550473587363958,-0.0384766648452728,0.0091608427464962,0.0148297222331166,-0.1419629135465715,0.0491532050073146,0.0382934583320515,-0.1388709023479837,170
1722247679190677000,-0.2686488908484578,0.0548038955941796,-0.0524012183666229,2.563042269296944,2.816891358159482,9.03694222331047,0.1012014001607894,-0.0971515476703643,0.1368264555931091,-0.7502657526439039,-0.0263619907885558,0.1963395780144386,0.6307592107700127,0.3616501986980438,0.1210825592279434,0.0973826423287391,-0.0340501536399126,0.2505237438321113,-0.1196247428119182,-0.0159580521285533,0.0200621932744979,-0.1281250884606037,0.0570677518844604,0.0207324662707978,-0.1459714185355696,171
1722247679230454800,0.1233858489111065,-0.0763344671398401,-0.1897182697355747,2.6431144616603848,2.8302649267345665,9.00965732602179,0.0787804052233696,-0.1020320057868957,0.146977499127388,-0.7515813050226562,-0.0248228852876203,0.2000478138311495,0.6280845249151558,0.2671732306480407,0.0542023256421089,0.079843670129776,-0.2071142256945371,-0.2137730990618467,-0.116225163501501,-0.0475720092654228,0.0177139844745397,-0.0829073244578205,0.0725155621767044,-0.0075206350167543,-0.1042236321982927,172
1722247679269708500,0.1502072203412651,-0.0761146869093179,-0.5484568890929222,2.647566764894128,2.832588693507016,9.007619682714342,-0.0355294607579708,0.0306685660034418,0.1359542459249496,-0.753173942850344,-0.025290102966587,0.2002488818665513,0.6260908159451523,0.263159841299057,0.0735022574663162,0.0546227991580963,-0.0398766678363084,-0.1644704312324524,-0.1006324941048398,-0.04942512139678,0.0298799984157085,-0.1146749292516615,0.103415660560131,-0.0372075125591363,-0.0152121890289592,173
1722247679310008600,0.2659446003258228,0.272029765458405,-0.8350561549127101,2.630141290579736,2.7566350423783064,9.036243719652294,-0.2930273711681366,0.1215990558266639,0.1131265461444854,-0.7553327860625274,-0.0233111045272938,0.1968155794277691,0.6246539488066813,0.2342962175607681,0.05913657695055,0.0389602147042751,0.0112163905411958,-0.0083732760697603,-0.0469301300117745,-0.0282562728971242,0.0193470548838377,-0.0866595713971182,0.0806850418448448,-0.0493232219936558,-0.0339835090113338,174
1722247679349786400,-0.0461482954517006,-0.0111751817479729,-0.2598889535486698,2.582356333836913,2.629533972336352,9.087759387356042,-0.3552277088165283,0.25922292470932,0.1309554278850555,-0.7573496858318987,-0.0200733742417279,0.1903950355594616,0.6243143569823953,0.3647679388523102,0.0045978631824254,0.0357369892299175,-0.2093681421011686,-0.3935094884872436,-0.0133645267521031,-0.0094099855050444,0.0009768331656232,-0.0204591223722673,0.0678141638636589,-0.0114075680150301,0.0012581565389089,175
1722247679389563400,-0.4668400976359844,0.2591615160569548,-0.5143026905566453,2.515827805918455,2.4645421475782987,9.152432642796636,-0.4349518716335296,0.1430393308401107,0.3308448493480682,-0.7613829400733882,-0.0164302097350978,0.1818951392507491,0.6220452199723245,0.1649621427059173,-0.0414648652076721,0.0386138036847114,-0.148191496604681,0.0344897141009569,0.0303869549572467,0.0033356891945004,-0.0046943561173975,-0.0689336025990778,0.0705645009875297,-0.0106994265955407,0.0212876319185481,176
1722247679429340200,0.950658802601695,0.4815982524372637,-0.000863338831067,2.5049220887616275,2.280562129233777,9.202976835119724,-0.410131424665451,0.1010772958397865,0.0998090431094169,-0.7649484033993689,-0.0101063006139524,0.175147421778154,0.6197379898478149,0.0913747549057006,0.0045081148855388,0.0627764016389846,0.0298977101355791,-0.0741430945754051,-0.5076268660545349,0.0156192928552627,-0.0012183792423456,-0.0634872239938005,0.0735127180814743,-0.0420010395791381,0.0447334145519416,177
1722247679469118200,0.3541156357318162,0.0440546841733157,0.2288724685162305,2.4382715418986973,2.136464477813989,9.255308495381474,-0.3492431640625,0.245610624551773,-0.0205909330397844,-0.765674707474896,-0.0063838375905846,0.1675405574873018,0.6209924841759062,0.3692907989025116,0.0304012838751077,0.0559160970151424,-0.0799719468593597,-0.1511240429252386,0.0435083023369312,0.0313142165541648,-0.0115131391212344,-0.0357554642870323,0.0655447095632553,0.0038840794583084,0.0369621709123835,178
1722247679508895000,0.1439046130657195,0.0142065122678875,0.4852788406461477,2.3580361217975616,2.0591721254274247,9.293538565054536,-0.079891100525856,0.1066683158278465,-0.0294769592583179,-0.76614480470054,-0.0058098745203812,0.1616404835306011,0.6219812743576296,0.4134745001792907,0.0014222033787518,0.034982718527317,0.0044295068800449,-0.1852536915421485,-0.0348000952243804,0.0476578176021575,-0.0078791258856654,-0.0744080291219055,0.0513908229768276,-0.0199013651919201,-0.0053730502200516,179
1722247679548671700,0.4190649316348135,-0.0607937836587429,0.3544096502423286,2.341299944921583,2.067733325284719,9.295869053828715,0.0540690049529075,0.0120652178302407,-0.0850188359618187,-0.7653721123476479,-0.0064856336275218,0.1612467983771074,0.6230271730227174,0.3396719098091125,0.0143050858750939,0.0632363930344581,-0.1666916144132614,0.0789759215593337,-0.2791547950327396,0.0374425426125526,0.0028331067878752,-0.083111130801076,0.0528566502034664,-0.0161447069389862,0.0329584334300481,180
1722247679588449800,0.1729724482484161,-0.1413122584849596,0.1107762504458427,2.3461767571777106,2.0975246524363755,9.287961641705037,0.0814134627580642,-0.0542110167443752,-0.0158237479627132,-0.7646558537603768,-0.0073763517548127,0.1624541134202772,0.6235830269441154,0.6584674715995789,0.0748461931943893,0.128891572356224,-0.0715840577423572,0.1069569844186306,0.0449936089912429,0.0413493700325489,0.0076161362230777,-0.0603863262358587,0.0529361069202423,-0.0057074435483693,-0.0131512607440468,181
1722247679628226600,0.5509983902692794,-0.097837127765268,-0.0968219593733549,2.377260023836046,2.1263244843326508,9.27349764754474,0.0789562761783599,-0.1074149012565612,-0.0926795154809951,-0.7638343624902293,-0.0073769618011284,0.1647081407785285,0.6239983148349495,0.5238435864448547,0.1056982204318046,0.1051751896739006,-0.0161304660677909,-0.2505950555026531,-0.0658311933040618,0.0198960248380899,-0.0072730681858956,-0.0057860743006196,0.0356606058776378,0.0082953428621869,-0.0188755064426339,182
1722247679668003600,-0.043982349589467,0.1369170922659337,-0.3159264825910329,2.38985091760084,2.1407167284309865,9.266948079770804,0.002251167781651,-0.0106290383264422,-0.0075135608203709,-0.7631744885952803,-0.0074022627494188,0.1657176483749957,0.6245379664673104,0.3183088302612304,-0.0023404168896377,0.0774069428443908,-0.1417009655416011,0.0281032279342412,0.6120264941405504,0.0108925597742199,0.0064948289655148,-0.0199636007901513,0.0336504355072975,0.0028500625187414,-0.0072047077852446,183
1722247679707781400,0.0981780501574277,0.0948636649124324,-0.4840104281455278,2.447905777814984,2.103761500999332,9.260255304133892,-0.1413885802030563,-0.1063845157623291,-0.0114145074039697,-0.7628516474745488,-0.0039729303426596,0.1668609959200878,0.6246590466424422,0.1171893030405044,-0.1113192066550254,0.0713521167635917,-0.227446819627285,-0.1112292549103498,0.3463875987630337,0.0026787410024553,-0.0240065995603799,-0.052150695937965,0.0171431582421064,0.0167818198157241,-0.0398049725732766,184
1722247679747558400,0.5106541049212217,0.1366831373795866,-0.3110316962867975,2.481798402805626,2.054909061155468,9.262203515592216,-0.1594027578830719,-0.074457086622715,-0.1087345033884048,-0.7616705949410307,-0.0005829571242548,0.1666094803905568,0.6261779350407763,0.3614224791526794,0.0154247852042317,0.1620742231607437,-0.0341729032367467,0.2142003845632076,-0.1082008469998836,-0.0040803374722599,0.0019471438135951,-0.0615331901494646,0.035407181829214,-0.0254740690240287,0.0076670566084765,185
1722247679787336200,0.5317927545398473,0.2799244642309844,-0.5968816050440072,2.5013617659315464,2.013720726198703,9.265986541262269,-0.2970794439315796,-0.1016560271382331,-0.2426041960716247,-0.759074022312282,0.0024110369705721,0.1660131384550675,0.6294763400416331,0.8476988673210144,0.0038162788841873,0.2891526222229004,-0.4206207827746868,-0.2769265975892543,0.3475853571802377,-0.0220244787633419,-0.0243665911257267,-0.0088589235701889,0.05320955067873,0.0125052978405728,0.0422240666460944,186
1722247679827113000,0.0030494506984949,-0.1998062407687306,-0.4137643410086631,2.5376474235385653,1.9168977439120407,9.276649974095822,-0.3301286101341247,-0.1470551490783691,-0.1627688705921173,-0.7557730153863659,0.0083730819249134,0.1641717805932738,0.633864941163874,1.3219757080078125,0.06620604544878,0.3075310289859772,0.0583265167623758,-0.6015513504207134,0.0298883577853441,-0.0302251987159252,-0.0250619035214185,0.0035203943909582,0.0662009268999099,-0.0073250370961293,0.0637270377987762,187
1722247679866890000,0.1183876022323966,-0.1116523026280105,-0.3161182057708501,2.584965347291529,1.8462514054112136,9.277914294943212,-0.2776684761047363,-0.2136037945747375,-0.1075267195701599,-0.7540493313280299,0.0131930202526598,0.1636580631058818,0.6359650958362508,0.8514856696128845,-0.0581067465245723,0.3830210566520691,-0.4460872324645519,0.5513093559145927,-0.1877175974376499,-0.022476764395833,-0.0424029119312763,-0.0027050999484548,0.0569504871964454,0.0677197835296392,0.0597441969739971,188
1722247679906667800,-0.0538940872728824,0.0084106854707002,-0.2954015809565782,2.645018833976984,1.7284329813688992,9.28368352599442,-0.4206313490867615,-0.245575949549675,-0.1180328726768493,-0.7518438596057697,0.0204359782950393,0.162006910646045,0.6388012848101888,0.8069179058074951,-0.1533020734786987,0.4165332019329071,-0.0998415994554758,0.0834457604497671,0.4127782525807619,-0.0125011056661605,-0.0495250485837459,-0.0563423617744119,0.0431929603219032,0.0417287026108941,0.0453278139482485,189
1722247679946444800,0.010384323631227,-0.0175974698804318,-0.1064782609909772,2.7860432154312726,1.5831060804150998,9.268339826390148,-0.435698002576828,-0.5179283618927002,-0.1336621046066284,-0.7487014093997351,0.0316126113626113,0.1626247982982515,0.6418723176643546,-0.1034594476222992,-0.0662049353122711,0.4154188632965088,0.0925309841811656,0.7074158634275197,-1.233964579834044,-0.0167355071753263,-0.0191859174519777,-0.099710164228687,0.0574127212166786,-0.011871041357913,0.0933733532894402,190
1722247679986221600,-0.3972589041486382,-0.1919666331842541,0.1671779366254806,2.987485825230181,1.4504187346734103,9.227220465016364,-0.2815329432487488,-0.6245172023773193,-0.0904526561498642,-0.7450174687270099,0.0443896871354554,0.1660489206061155,0.6445201023988506,-0.057303674519062,-0.0166508071124553,0.4259051382541656,0.0835363613426685,0.4110328702181577,-0.5401236527726054,-0.0208590645343065,-0.0177562199532985,0.017725971081329,0.0780832767486572,0.0386237999646924,0.0552711386465933,191
1722247680025999600,-0.3755509302094578,0.013582827411592,0.082386606785655,3.182752376742661,1.399893977703154,9.169556796076892,-0.1395659893751144,-0.4293964207172394,0.0141196558251976,-0.7424825406649453,0.053435402970212,0.1721260671920275,0.6451642170311456,0.227294236421585,0.011272863484919,0.3897997140884399,0.1466945360451936,-0.2471153966933488,-0.2552650931403041,-0.031515184789896,-0.0237689930945634,0.0093345188924169,0.099810890853405,0.0248831744757713,0.0858174488840158,192
1722247680065776400,-0.1019116837278008,0.0406022056318819,-0.1921943044602871,3.327499578112364,1.3056873153947293,9.131993665879964,-0.2671250998973846,-0.3724983930587768,0.065966285765171,-0.7415954767932765,0.0621453014015728,0.174745114367382,0.6447001302345986,0.8565211296081543,0.1108867526054382,0.3645683526992798,0.2786515216857195,-0.5203595063775778,0.3538751049742102,-0.0387038066983222,-0.0742907002568245,0.0303172141892835,0.0858155861496925,0.09105192460455,0.0793113275261595,193
1722247680105553200,0.1220399872601032,0.247799579565227,-0.3193406749486923,3.483926695881784,1.210867708819732,9.08660729471147,-0.2467032521963119,-0.4401300549507141,0.0808679237961769,-0.7406158428140349,0.0712936760732166,0.1778458877860088,0.6440311857393753,0.3418237566947937,0.0787049010396003,0.4208579063415527,0.0867874720931053,0.3474906646341085,0.0726917267233133,-0.006873114965856,-0.0781552195549011,-0.0218895844336482,0.0496177673339843,0.0268266412603203,0.0330765502342488,194
1722247680145331200,0.3054211629286408,0.236962982121855,-0.4143307427197694,3.605956161747873,1.0723659046456218,9.056351272657514,-0.4424580931663513,-0.2485178112983703,0.1202501207590103,-0.7402705599644591,0.080878884250305,0.1780820177043718,0.643230036898239,0.0519495792686939,0.0184742100536823,0.4822489023208618,-0.2018640500813722,0.3143944507181644,0.051921618156135,0.01434135902673,-0.1445046663284301,0.0791594340332318,0.0239285845309495,0.1538536140196025,0.0579264708943897,195
1722247680185108000,0.143023446317017,0.1314952133476734,-0.3667266955018043,3.752791567568481,0.897412950104475,9.015630555212498,-0.4297752678394317,-0.5617014169692993,0.0516610406339168,-0.7393098216865742,0.0928969106473197,0.1780475739629682,0.6427210600513485,-0.2432043105363845,-0.0598230436444282,0.5116844177246094,-0.1973264066517353,-0.0098696521073579,0.167009302060306,0.0054781096987426,-0.1041061207652092,-0.1041654905365779,0.0442801602184772,0.0479458372598048,0.0530018420077394,196
1722247680224848100,0.0669733490765094,-0.2012833275839686,0.0587906271427869,3.9542373922377823,0.7360880503561348,8.943855943334102,-0.4270154535770416,-0.4055863916873932,0.0426771789789199,-0.7368900449375461,0.1065990634782337,0.1806291266263652,0.6426529155518327,-0.101691648364067,-0.0770144388079643,0.5544283986091614,-0.140250182211399,0.136012983033061,-0.1098622043408453,-0.0148098208010196,-0.1123849526047706,0.0113446542800753,0.0518783889710903,0.1224172504741232,0.0551808893801411,197
1722247680264624400,-0.1363733407780528,-0.1444343725608661,-0.0893850873708724,4.02650212572068,0.5866136378014459,8.922642474913596,-0.3508798778057098,-0.1224890798330307,0.1857166439294815,-0.7366302734044078,0.1149715629227777,0.1784751217326683,0.642109129276324,0.0683860778808593,-0.0602218769490718,0.5289252400398254,0.0475391652882099,-0.3594815466791391,0.2070411604583263,-0.0052138534374535,-0.0814858824014663,-0.1561803034014999,0.0725093781948089,0.0791098501373082,0.14580866572191,198
1722247680304399600,0.3221668382853269,0.1323753206504508,-0.1615536670029163,4.076879437044263,0.4057216486001387,8.909816311088203,-0.4648623764514923,-0.1386137157678604,0.1290642768144607,-0.737610826368983,0.1235202603982078,0.1745523565405047,0.6404721815200344,-0.3079649209976196,-0.0436756089329719,0.4971131086349487,0.0315942849203944,-0.0561181930631399,-0.4051386976130307,0.0138304866850376,-0.0754688456654548,-0.0576169985198415,0.0701713860034942,0.0712142745818942,0.0732536212226608,199
1722247680344174800,-0.0041951136022806,0.0719657140037044,-0.0606985065907239,4.145864710465073,0.2407769326531328,8.883930174681543,-0.4111356735229492,-0.1735850721597671,0.0902815833687782,-0.7367763743503535,0.1325599282333984,0.1716784276719237,0.6404021262670165,-0.1716190725564956,-0.0586304813623428,0.4713795483112335,0.1842518210232257,-0.1901198362737894,0.0909510215133428,0.0133781973272562,-0.0935051664710044,-0.0306924064605147,0.0739123150706291,0.1203390468274243,0.0817304170324001,200
1722247680383951000,0.1044292195066809,0.041679214613093,0.3339443698406219,4.142734888006746,0.070698575578141,8.888370787477493,-0.3588007688522339,0.1925384253263473,0.2099978625774383,-0.7378222435694074,0.1388922760573797,0.1659161025247753,0.6393739561263089,-0.236294999718666,-0.0987247452139854,0.3684214055538177,0.3171647922143339,-0.2565735453903675,0.1321814420461654,0.0178123135119676,-0.0709622353315353,-0.1033583297390025,0.0832032337784767,0.0447061886182986,0.0367538002751534,201
1722247680423726600,0.1409028009012341,0.3743391432669014,-0.1239893677622079,4.072293570558727,-0.0853889395399484,8.920735179987549,-0.373273640871048,0.1207515299320221,0.1983565539121627,-0.7403133065283016,0.1420622272368534,0.1580740348840853,0.6377830029492352,-0.1805073618888855,-0.0619120299816131,0.3417486548423767,0.2856526326194405,0.0843891787797212,-0.0298779825218021,0.0286110509186983,-0.0946527644991874,-0.0470876358281588,0.0661421865224838,0.13323678718484,0.0049632706926291,202
1722247680463501600,-0.0762643245130777,0.1485686228213831,0.0913794760584831,4.106603836439549,-0.2410446254123002,8.90213978511095,-0.3028859496116638,-0.3531050086021423,0.1017329543828964,-0.7406976352330801,0.1492760245157064,0.1543822040033598,0.6365924338134681,-0.2105470299720764,-0.0582697801291942,0.314414769411087,0.1758317832022905,-0.0657885232061147,-0.0215228266306221,0.0563874617218971,-0.0980196595191955,-0.1210281981353647,0.0553069002926349,0.0870894963801372,-0.0120875405026716,203
1722247680503278000,-0.2279348954051732,-0.1157081904226914,0.1664683270514011,4.254533174976706,-0.3320075930917635,8.829445135778188,-0.1285991966724395,-0.3325653672218323,0.2125242948532104,-0.7406510081017497,0.1578722889477348,0.1577970866764965,0.6337290236675551,0.0227906294167041,-0.0548539049923419,0.3366976976394653,0.029386838003993,-0.1571218220353126,-0.0741561001874506,0.0641578882932663,-0.0889710485935211,-0.1377631237691733,0.0407291799783706,0.0769809666161425,-0.0842844123641494,204
1722247680543053300,-0.0049956163302063,-0.0572327301762998,-0.2511661333888769,4.301839408291876,-0.4518343612818047,8.801159537014364,-0.2841209769248962,-0.1048545241355896,0.3180960118770599,-0.7429724696356415,0.1636552529292529,0.156469509358084,0.6298620527400561,-0.0347626768052578,0.0566225014626979,0.2799252867698669,0.1357180917397141,-0.1380272454649209,-0.5625253080643713,0.0427004843950271,-0.0760211050510406,-0.1617706890207715,0.0281710606068372,0.0323948789798654,-0.149968196554156,205
1722247680582829800,1.018054176482558,0.1630703917087987,0.2624900759577751,4.289442283533513,-0.6128811016758904,8.797468281280993,-0.3545263111591339,0.2597514986991882,0.275920033454895,-0.7457767090691219,0.1689911720202469,0.1513140141856483,0.6263890474285436,-0.4183902144432068,-0.0711389183998107,0.2212906181812286,0.109720019391179,0.094203301307559,0.4426809311524033,0.042286466807127,-0.0419338382780551,-0.1617706890207715,0.0129970228299498,0.0323948789798654,-0.149968196554156,206
1722247680622604800,0.8321867369562387,0.1657514109537005,0.2418313188105821,4.158526623639464,-0.7845027563698589,8.846558183142543,-0.3695725798606872,0.3409342467784881,0.1675085723400116,-0.7482907693251094,0.1708943539848331,0.1405210645676824,0.625387782141972,-0.2048310786485672,-0.1260462701320648,0.1155380830168724,0.0829790197208523,-0.6249585294932126,0.5312205076098442,0.072291761636734,-0.0065870559774339,-0.1841838520872406,0.010632456280291,0.0044603375556151,-0.1116436809301376,207
1722247680662380300,0.4554349065244197,-0.0184312172908335,0.4058703728884458,4.075891010528802,-0.9051320731144398,8.87345671146214,-0.1878435909748077,0.0606158822774887,0.0794694572687149,-0.7494889264389216,0.1726981386919022,0.1332477693243678,0.6250494858129148,-0.0318398587405681,-0.2035598009824752,0.1388052552938461,-0.2487342300668358,-0.1063233626902103,0.2863813852854073,0.0788993239402771,0.0005789930000901,-0.1347183309794869,0.0225277952849864,0.032267457774491,-0.1485988900954835,208
1722247680702156300,0.3092436438262462,0.147831065794453,0.7814858927667141,4.05957583554387,-0.9427059439010916,8.877022879511117,-0.0609053038060665,0.0591940246522426,-0.0669692754745483,-0.7491682299043142,0.173725535437002,0.1312144649199551,0.6255790910474237,-0.3195110559463501,-0.3235582411289215,0.1914436966180801,-0.3893549991562962,0.1893821696490049,0.0169334530137479,0.0616951361298561,0.0136515786871314,-0.1344347282651346,0.0335090011358261,-0.0257333775473409,-0.1595989527385681,209
1722247680741931800,-0.0933612975254654,-0.1238537586838006,0.5047486802697181,4.054866927200556,-0.9441097462844104,8.879025451505184,0.0237755924463272,-0.0332449376583099,-0.0191990286111831,-0.748576459905648,0.1737469786387149,0.1307963002276208,0.6263686085592896,-0.3266791999340057,-0.2983157336711883,0.1620516628026962,0.0301543152451515,-0.0562146391749382,0.0261002175487577,0.0424804575741291,0.0102925635874271,-0.0730573634316213,0.0282472763210535,0.0084893304935045,-0.1633734297759831,210
1722247680781699800,0.1983914055347442,0.0578331802874803,0.1898112087160348,4.066579576826095,-0.9206435305010526,8.876132652673125,0.052203468978405,0.0568311773240566,-0.0493007637560367,-0.7481614432944121,0.1732881492848735,0.1319636196029025,0.626746641659759,-0.0518114380538463,-0.2116921544075012,0.0748431161046028,0.3025555443644523,0.1432300748050212,-0.399347254730016,0.0421471633017063,0.044759064912796,-0.1650554645787924,0.0342860594391822,-0.0356536250474862,-0.0914058343424461,211
1722247680821476000,-0.2560781630888581,0.1312408732604235,-0.1331535019487142,4.010336003817618,-0.9096558341491968,8.902814907893537,-0.0086709391325712,0.1749520301818847,0.0615727677941322,-0.7487068062801034,0.1708370613301159,0.1299902295758062,0.627180443228795,-0.0050268871709704,-0.0743785500526428,0.0481343418359756,0.2987187426805496,0.2109066037148237,-0.6456653635658324,0.039868589490652,0.0897010341286659,-0.0962776872956659,0.0334912724792957,-0.0162055622892396,-0.1088008769859559,212
1722247680861251600,0.2908200983852148,0.1484353152979165,-0.1962029555797576,3.982081676974893,-0.9189191909264772,8.914538663434982,0.0026442527305334,-0.0190233625471591,-0.0244090370833873,-0.7491816457045757,0.1701580435585018,0.1285739495028315,0.6270900451189881,-0.0156358554959297,-0.0850879177451133,0.1553039997816085,-0.2789592724606394,0.3971148195028305,0.0026150048039853,0.0117784524336457,0.0731674581766128,-0.0028690492053574,0.0574514418840408,0.0128340286130842,-0.0760824925396125,213
1722247680901026800,0.3782040750667452,-0.1870489774610847,-0.0305827697902917,4.0028856878116725,-0.8871994529955088,8.908432163253426,0.079437717795372,-0.1025794893503189,-0.0654859840869903,-0.7486051220984887,0.1697076819465588,0.1303674000630787,0.6275300295339251,0.248177945613861,-0.1966777890920639,0.2817209362983703,-0.4949231595650315,-0.0947854851096868,0.3945020066559314,-0.0206268094480037,0.0865937620401382,0.0154521649474278,0.0744185522198677,-0.024040289344266,-0.0395966042193351,214
1722247680940803000,0.1998313752099871,-0.2159600146468728,-0.0531552516043186,4.063493593509495,-0.8291088638808578,8.886561692228913,0.0840784609317779,-0.1223367527127265,-0.0580155812203884,-0.7475453766154432,0.1696489471115488,0.1346501730694305,0.6279048768355986,0.3154131770133972,-0.4262318313121795,0.342236191034317,-0.6519158022627234,0.0686900898665189,0.4454612095206975,-0.0411299504339695,0.0519607029855251,-0.0003116469215587,0.0467026308178901,0.0174972803169221,0.007785176266788,215
1722247680980578300,0.2894213375031947,-0.1376514709550887,0.0702753132313489,4.114413633407652,-0.8195800611004233,8.863987456849216,0.0589936226606369,-0.0530814565718174,-0.0803706124424934,-0.7466941694943859,0.1711688711800446,0.1369803732441454,0.6280012393112783,1.8040539026260376,-0.3326858878135681,0.3965848386287689,-0.0666582917779684,-0.9541524899363516,0.3054031888805329,-0.0376550741493701,0.0366022326052188,0.0162394063349813,0.032217938452959,-0.0041490990573103,0.0806597373272758,216
1722247681020353500,-0.0572831451892852,0.0206152102664113,-0.0813718767851591,4.155258561754226,-0.7934932875551283,8.847292342635988,0.0852662026882171,-0.0699073076248169,-0.0878223851323127,-0.745572615814672,0.1717510111318546,0.1393385316853605,0.6286556159549845,2.7873334884643555,-0.2852428555488586,0.5014296770095825,-0.0165539521768689,-0.2022135941714048,0.2240308737039565,0.0089676221832633,0.0148651152849197,0.0228887515388312,0.0085117798298597,0.0653230200196383,0.0897169953395146,217
1722247681060129800,-0.2381122982874512,0.0804076348628848,-0.1618330684661865,4.17807040528208,-0.782507198638469,8.837522059249878,0.0398768708109855,-0.007473022211343,-0.028000671416521,-0.7449412294377669,0.1722232921120465,0.140537945955926,0.6290078143872847,3.277172803878784,-0.1623736470937729,0.6632432341575623,-0.1430821907669305,0.2533662737816572,-0.860097949449718,0.0449341982603073,-0.0128847761079669,0.0093625696640781,0.0065332343801856,0.0653867329056141,0.0890323466767556,218
1722247681099905000,-0.1532291985109448,0.059134106818214,-0.2890776386320591,4.192696312005817,-0.769463665735349,8.83173879967332,0.0250878669321537,-0.0470019020140171,-0.0179277192801237,-0.7447198487459197,0.1722461027578087,0.1415553654437594,0.6290356008887283,2.7636706829071045,-0.1473948061466217,0.5405716896057129,0.3439833871655166,-0.2687070507764816,-0.5323562336415052,0.0600269734859466,0.0203987378627061,-0.1340071048370562,0.0454433150589466,-0.0057176195949781,0.1017320254451129,219
1722247681139680500,0.0880579304203391,-0.0051437195640057,-0.0836117646664381,4.204894991582632,-0.7596540001869201,8.826787314745783,0.0009826878085732,-0.0442854315042495,-0.0697902515530586,-0.7440718853578143,0.1724129028141698,0.1422423955416505,0.6296014561281937,1.9497759342193604,-0.093905009329319,0.3753022849559784,0.4667993272341788,-0.2133762086987495,-0.799110396784544,0.0311039723455905,0.0476170405745506,-0.0307285828855936,0.0691639631986618,0.0162010996016091,-0.0612037618322763,220
1722247681179456800,0.0970876245722174,-0.0253478648114949,0.0693996994405984,4.210380437256395,-0.7457347073625773,8.825358743247389,-0.0056974212639033,0.0217080470174551,-0.0735762119293212,-0.7431538046250812,0.1722506445939754,0.1426942023981389,0.6306271048081941,0.9959146976470948,-0.077871449291706,0.1740185022354126,0.3149875943057239,-0.0932867709845304,-0.9618266778260468,0.0031221308745443,-0.0025537819601595,0.0442030157359782,0.0482281520962715,0.0908636537571437,-0.0610786741478834,221
1722247681219231700,0.0853872499063611,0.0193793117959052,-0.0008311901271343,4.202926906380057,-0.7446728502847254,8.829000899142027,-0.0358658656477928,0.0381048470735549,-0.0697542205452919,-0.7422699559406414,0.1721548088503155,0.1421582380921891,0.6318141994709756,0.2037207335233688,-0.1237353980541229,0.0925638526678085,0.1712048540540039,-0.2302951947957277,0.4670429267317056,-0.0082992333918809,0.005758442915976,-0.0757107183514628,0.0614304132759571,-0.0309193470841855,0.0193378541242214,222
1722247681258967600,0.1621934262111783,0.0117811848171055,0.0481844774544239,4.189717003934085,-0.7578744232937693,8.834154044121503,-0.0781059637665748,0.0875117555260658,-0.0602905079722404,-0.7412905563612034,0.1724501825367012,0.1408702118079261,0.6331704224167433,-0.4307893514633178,-0.1786067932844162,0.1458487212657928,0.0641818186618387,0.4480114785254001,0.4884370124161243,-0.00981015432626,-0.0199585370719432,-0.0279873053704155,0.0514657981693744,0.052619263297785,0.0219862200584029,223
1722247681298742000,0.1634568702757358,0.0866367385108023,0.1058136596024036,4.158077126306295,-0.7629987075049429,8.848650186985731,-0.0165154263377189,0.1665996015071869,-0.0270861033350229,-0.7407483259482335,0.171695024514236,0.1391589430876295,0.6343875122579102,0.2285608351230621,-0.2139662206172943,0.1335881203413009,-0.1702631892897188,-0.6828723738014698,0.2158984206527471,0.026576928794384,-0.0288782380521297,-0.0908231847494374,0.0475305430591106,0.0161272123814909,0.0543641798695083,224
1722247681338515500,0.3443324928641319,0.2009123753797262,-0.0572106644749641,4.090477462024986,-0.7746228751294314,8.879095594131947,-0.0712961554527282,0.2142155766487121,-0.0336640886962413,-0.7410033325634423,0.1697941046763987,0.1358752249699273,0.6353124471160254,1.5472216606140137,0.047282475978136,0.1398825645446777,-0.0232753693863749,0.2040256120294332,-0.0332072730749845,0.0392476059496402,-0.0342730097472667,-0.0941597087610047,0.037328477948904,0.0552071654657134,-0.0100405471282778,225
1722247681378290200,0.0798459823921322,-0.1274076517730951,0.1416045194298029,4.059579050414264,-0.7630858012665063,8.894262183603644,0.0510776340961456,0.0221983268857002,-0.0916094928979873,-0.7399838538685266,0.1684974814843988,0.1346381325733999,0.6371067835888533,1.2310689687728882,0.144267126917839,-0.0028492819983512,-0.057613692317903,-0.7934487177610396,0.0017822072416543,0.0133259641006588,-0.0145773291587829,-0.1681283144191838,0.030241472646594,-0.0314436769189662,-0.0303062612537178,226
1722247681418063600,-0.3109311585217714,-0.0115543903239071,-0.0866460177958011,4.105740789869428,-0.7198742168538272,8.876658137851953,0.0804525837302208,-0.151981845498085,-0.0171412862837314,-0.739270893029151,0.1685185279049586,0.1379054029016308,0.6372300902804409,0.3746117949485779,0.1685256510972976,0.0980813950300216,-0.0097463179886341,1.3483295024216175,-0.233297299221158,-0.0234954748302698,0.0305348206311464,-0.0737286320229992,0.0373077653348445,0.026111179617478,-0.0145136008891044,227
1722247681457837000,-0.089078213378787,-0.04743870058842,-0.1458610078305006,4.162064150115848,-0.704490185239166,8.851627156969904,0.0136176189407706,-0.1539047360420227,-0.0029509249143302,-0.738877172649333,0.1699222233958782,0.1407801735021276,0.6366851776556814,0.2824965119361877,0.1655501574277877,0.2330031245946884,-0.3409048565030098,-0.1747498331844806,-0.0511725533545017,-0.0502841845154762,0.0140196448192,-0.0091425188638531,0.0441788285970687,0.0705061354456935,0.0532241429889108,228
1722247681497611500,-0.0186751821145415,-0.020516353001818,0.010604396122694,4.179648029862344,-0.7049267500255256,8.843302980738878,0.0155589953064918,-0.0092401783913373,0.016108900308609,-0.7388177695236308,0.1705541421571711,0.1415214227494541,0.6364207521451677,-0.0396596975624561,0.1752334684133529,0.1835701912641525,0.1286206808246672,0.1723924564033746,-0.0018289689928293,-0.0565347969532012,0.0272715184837579,-0.0727855653194943,0.0338952355086803,0.0372537263210397,0.1018501445326022,229
1722247681537385200,0.0637067484959959,0.1771937922704964,-0.1579109265863895,4.173880552376806,-0.716188367947936,8.845122012859582,-0.0584139041602611,0.0107173863798379,0.0315762385725975,-0.7392500857704827,0.1707073314363422,0.1410081205455529,0.6359915000773605,-0.2644613683223724,-0.0195839591324329,0.1473314315080642,-0.125134446144104,0.183857853269577,0.1376917299002409,-0.0389418862760067,0.0338229872286319,-0.0136738826789311,0.0227415487170219,0.0724467435528757,0.1429272102677729,230
1722247681577158700,0.3137581986412406,0.1246671939585357,-0.0129775549948215,4.158311227323114,-0.7497034648630767,8.849676607424021,-0.0828024446964263,0.0624474771320819,-0.0157543905079364,-0.7392050500476829,0.1715134688521833,0.1391948009975782,0.6362262396760727,0.4720065295696258,0.0459667146205902,0.0969173982739448,0.3854107915751635,-0.6410200219780207,0.0928653307020664,-0.0290990639477968,0.029220663011074,-0.0249624342740396,0.0078605012968182,0.0310365939554176,0.0941761210396885,231
1722247681616933000,-0.0004611877709627,0.0241672036595642,0.073563248860836,4.135696367672086,-0.7621800115332007,8.859203145182132,-0.0447426736354827,0.0340757556259632,-0.0296283941715955,-0.7388616991302095,0.1713080207441711,0.1376949700374591,0.6370063510272416,0.6743342876434326,0.1961496174335479,0.0622049495577812,0.4204384119451045,-0.4296837946742772,-0.6055325290113687,-0.0325870364904403,0.0147730205208063,-0.0110965521373669,-0.0071534649468958,0.0539791626072954,0.0902905026448424,232
1722247681656706600,-0.0500067244455218,0.0083833590723574,0.0402647903710603,4.162347058710456,-0.746395874685049,8.848058650833368,0.018731590360403,-0.0686046108603477,-0.0380102172493934,-0.7379613651113119,0.1717925104418308,0.1391469698236453,0.6376038018843696,0.5495156645774841,-0.0650662258267402,0.0326045826077461,-0.5595328482501208,-0.4737216738432646,0.3665302961468696,-0.0291642770171165,0.00231359526515,0.0222374069240526,-0.0015488510252907,0.0598140290735056,0.1020724546469282,233
1722247681696480000,0.0837684165328741,0.1650872479565441,-0.0672504124522209,4.190779080207646,-0.7316152157910167,8.835864355170726,0.0068239634856581,-0.0634553134441375,-0.0410542152822017,-0.7373239568080204,0.1723233551317286,0.1407159143239431,0.637853531929153,1.2777595520019531,0.2184130996465683,0.1613299995660781,0.6681758860595524,-0.6508119326740502,-0.1172071602761745,-0.0092911347746849,-0.007582101970911,-0.0128947652323287,0.0010700549464672,0.0287035410481039,0.1234642753090243,234
1722247681736254700,0.0365934083819389,0.1932747931733727,0.0473258147984743,4.171215717081726,-0.7397512490388005,8.844439291292428,-0.0704405382275581,0.1247337535023689,-0.0161253903061151,-0.7370984906018673,0.1720226236286307,0.1395252526417517,0.6384564540380737,0.0424388982355594,-0.1461305022239685,0.0651426836848259,-0.5459560121878981,0.7596563382744789,-0.6046954936653375,0.0373805053532123,-0.0281461160629987,0.0287028766111121,0.0003609444247558,0.0975312218875624,0.1118074109913315,235
1722247681776023000,-0.0699342447087168,0.0790013482615351,0.1229196927040815,4.14112453020066,-0.7585057069346308,8.856982546523213,-0.0368661470711231,0.0610895231366157,0.0008437810465693,-0.7369458945569491,0.1717622571523273,0.1375401235432536,0.6391332290633788,-2.04190731048584,-0.2506239414215088,-0.1708169281482696,1.097612135713547,-0.3633230245381593,-0.9163099582761526,0.0376421138644218,-0.0053465915843844,-0.1129246971840038,0.0073253652080893,-0.0293046099305036,0.0849035215100273,236
