time_imu,phone_acc_x,phone_acc_y,phone_acc_z,phone_gravity_x,phone_gravity_y,phone_gravity_z,phone_gyro_x,phone_gyro_y,phone_gyro_z,phone_ori_w,phone_ori_x,phone_ori_y,phone_ori_z,watch_gyro_x,watch_gyro_y,watch_gyro_z,watch_acc_x,watch_acc_y,watch_acc_z,headphone_gyro_x,headphone_gyro_y,headphone_gyro_z,headphone_acc_x,headphone_acc_y,headphone_acc_z,frame_imu
1733298850466463000,3.2575980666294693,14.141871161150933,-2.7491595919311047,-0.2118744806325994,9.786230896827576,-0.5959886382596566,-0.825933575630188,-0.0732203796505928,-1.5605847835540771,0.5280390435246748,0.571083412095723,-0.4519410357685514,-0.4367927682902481,-0.8827025890350342,-0.1046168059110641,0.2376148700714111,0.1409854888916015,-0.1094146966934204,0.0348296910524368,0.2270261347293853,0.1143625453114509,0.967768342834711,-0.1919018775224685,-1.0670254204005003,0.2869335392754524,0
1733298850506463200,5.498784463286399,6.128980308911204,-1.802683043450117,-1.010105409435183,9.75235785332024,-0.2039575152292847,-0.9641594886779784,-0.6586569547653198,-2.417116403579712,0.5182664402768887,0.5757944650458187,-0.4229180452733955,-0.4701074596434778,-1.0058151483535769,-0.0851034000515937,0.3064099252223968,0.1157467365264892,-0.0699467957019805,0.0219057947397232,0.2660750150680542,-0.0454063639044761,0.6699737292617559,-0.1061202511191368,-0.9431395130127668,0.2861921097910031,1
1733298850546463200,2.9510575442820786,-4.129692158821225,-1.1690735899895428,-1.917211339905858,9.615405543610454,0.1965787848885171,-0.8751587271690369,-0.8068361282348633,-2.084442377090454,0.4994498873964372,0.5779213562915985,-0.394948321999759,-0.5104629973017584,-0.9639005064964294,-0.0799294114112854,0.3073683381080627,0.0496817827224731,-0.0493600368499755,-0.0156651139259338,0.2956226766109466,-0.1646568477153778,0.1252180327743292,0.0201307460665702,-0.6886153013676405,0.3319237872658297,2
1733298850586463200,3.197104727222025,-11.71350536558628,0.3609165113857016,-2.5888275756776333,9.442753559488056,0.5502268579075112,-0.5853279829025269,-0.5482686758041382,-1.5122907161712646,0.4840193662535393,0.5767816565513462,-0.3731878336083408,-0.5420137826806154,-0.7060300707817078,-0.0500383079051971,0.292577177286148,-0.0220969319343566,-0.0252301394939422,-0.0434987246990203,0.2764837145805359,-0.2006555497646331,-0.333205534172058,0.0908887609839439,-0.5477288670793176,0.3487604653742164,3
1733298850626463200,1.3081713872954248,-15.370435635507103,0.5819838956415653,-2.999076602041721,9.307119346639514,0.7439550574041902,-0.3398019671440124,-0.0911407768726348,-0.6801702976226807,0.4741019993719474,0.577296096599219,-0.3588844756703356,-0.5596057126948435,-0.6727584004402161,-0.0494072437286376,0.2703991830348968,-0.0723771452903747,0.0116305649280548,-0.077125608921051,0.2335970401763916,-0.1499256938695907,-0.5129185427218675,0.0980421751737594,-0.6296349968716501,0.4588400387927889,4
1733298850666463200,0.468707645073533,-14.5310434972167,1.0423352157801389,-3.087664986076951,9.272478825891016,0.811076144388318,-0.0683958604931831,0.393774002790451,0.1820481270551681,0.4756882823995093,0.5786512956415847,-0.3518654623812065,-0.5613145362911629,-0.5848450660705566,-0.0922451466321945,0.2834462821483612,-0.0717436075210571,0.0257322043180465,-0.1522787809371948,0.1936349719762802,-0.0842427685856819,-0.5738216319739818,0.0636638104915618,-0.8037655291140079,0.5013549461781979,5
1733298850817177300,-0.7130792229514569,3.879551861348748,-2.2804233052849767,-1.1744497300699352,9.734029000425338,-0.1993708084935322,0.6550376415252686,0.0884838253259658,2.008777379989624,0.5075501327024629,0.5731564796647719,-0.4262120737117441,-0.4819002791219238,-0.0478223450481891,-0.1384472548961639,-0.0234296321868896,-0.0556119680404663,0.0082013756036758,-0.0891597867012023,0.035202220082283,-0.0371918864548206,-0.6023703751860187,0.0278650764375925,-0.9144758016515524,0.4290001963242888,6
1733298850856938800,2.0882930059716105,5.45751020361185,-0.7935012516658753,-0.4419799798088148,9.785772047144174,-0.4622570806946605,0.6973098516464233,0.0805626288056373,1.5699721574783323,0.5192010612312657,0.5652380000837817,-0.4517461186287226,-0.4548203989309679,-0.0089045073837041,-0.1000270619988441,-0.1089410707354545,-0.087090790271759,-0.0234510600566864,-0.0363396108150482,-0.020930889993906,-0.0215519536286592,-0.4430892562249675,0.0220445208251476,-0.9572921031363308,0.2253068301902152,7
1733298850896938800,0.5146045961126685,6.873730754476785,-1.8022925828278065,0.0779603147760033,9.784975928330422,-0.6469754963163286,0.2218374460935592,0.1007114946842193,1.20069420337677,0.5259693571438081,0.5581618644833009,-0.4705761415577431,-0.4363138654465874,-0.0317083559930324,-0.0822078511118888,-0.0867835655808448,-0.074123740196228,-0.0399269163608551,-0.0161035060882568,-0.0396209917962551,-0.0528584867715835,-0.1489116275727748,0.0001522190868854,-0.9331757528811692,0.2776885218724608,8
1733298850936938800,2.0726102836713194,4.995820328345895,0.174177074797824,0.4840975584397092,9.768322899693253,-0.7182593290030956,0.2165004312992096,0.0378714948892593,0.7441242933273315,0.5340750408146142,0.551549214230615,-0.4820938695953244,-0.4220696747295437,-0.1584897488355636,-0.0371075421571731,-0.0491764768958091,-0.0300731062889099,-0.0356835126876831,-0.0079259127378463,-0.0359143912792205,-0.1042281314730644,0.0155605572253465,-9.8341988632e-06,-0.8894394870072603,0.292680905554723,9
1733298850976938800,1.2609294513881206,6.031919280084967,-0.1093652146041393,0.6815162099521607,9.75170552689135,-0.7811277269788086,0.0502375625073909,0.0027923663146793,0.2896424233913421,0.5366530028337105,0.5484992461892741,-0.4888507005411063,-0.4149423035639332,-0.1218403801321983,0.0133123295381665,-0.0234823636710643,0.0052738189697265,-0.0281726568937301,-0.0162131637334823,-0.0297780092805624,-0.1285685300827026,0.0187719204872846,0.0329960770905017,-0.8044508810296654,0.2979173997024074,10
1733298851016938800,0.9887838044650852,9.793134684866668,-1.1539268742620945,0.6519925207607448,9.755222595101596,-0.7621820573598146,-0.2413735687732696,-0.3000660538673401,-0.4864829182624817,0.5357462070331991,0.5477675019769316,-0.4886831641332119,-0.4172715294835064,-0.1378577053546905,0.0947882756590843,-0.0361689962446689,0.0154628753662109,-0.0385600924491882,-0.052145168185234,-0.0531246215105056,-0.1292164921760559,0.0660889674574136,0.086302638053894,-0.7282695586249232,0.2886323060173541,11
1733298851056938800,-0.6967455624617636,16.912268771421907,-0.8106921135067939,0.404203791383095,9.782480604383348,-0.5568464221777394,-0.6820400357246399,-0.2059384882450103,-0.7894954681396484,0.5330412660451579,0.5448171567585184,-0.4812125636628052,-0.4329847053345498,0.0086763501167297,0.1229529678821563,-0.0645104944705963,0.0179086327552795,-0.0381837636232376,-0.1026456803083419,-0.0764712393283844,-0.1298644542694091,0.1137099658101797,0.1396092027425766,-0.6520631017789245,0.2792334497595206,12
1733298851096938800,6.137764503869414,10.586147349298,-3.401366778355837,-0.0324004958698991,9.803323485925793,-0.2533822385357692,-0.96601802110672,0.0139927044510841,-1.3864152431488037,0.5309309387728273,0.5463642190400363,-0.4630389170239986,-0.4529829074401754,0.2135978043079376,0.1349651515483856,-0.0463740974664688,0.043873131275177,-0.0542165786027908,-0.1303657293319702,-0.1174481213092804,-0.1188905835151672,0.0005962123274803,0.1755900979042053,-0.5378162526130676,0.241028971185442,13
1733298851136938800,7.286074122771621,-1.7797013963133097,-2.328898290118575,-0.6981290527094155,9.780973706951738,0.1247367337970994,-0.8565655946731567,-0.255396157503128,-2.068522453308105,0.5251681282095982,0.5509676148754676,-0.4359757835720579,-0.4801648115308494,0.1824907511472702,0.0031881099566817,0.0556246414780616,0.0821752548217773,-0.100169152021408,-0.1670646518468856,-0.1574738472700119,-0.125850960612297,-0.0288970086604356,0.194004938006401,-0.3463241050727665,0.2688926364764571,14
1733298851176938800,2.3067286900170147,-14.723629431343078,-0.6124667121887206,-1.5685665368005632,9.666776249885558,0.5132567982329055,-1.0444902181625366,-0.416558563709259,-2.080993890762329,0.5097707370397433,0.5559439977333172,-0.4059032618518658,-0.5160452142327966,0.068596675992012,-0.1126111894845962,0.0709571912884712,0.0129050612449646,-0.0898218601942062,-0.1290897727012634,-0.1922535896301269,-0.1809975951910019,-0.1908586719423532,0.1917057037353515,-0.1576481839969754,0.2447251040233299,15
1733298851216938800,0.0570531358256936,-18.201833950185776,1.4688473946809768,-2.169935954783112,9.519111992025374,0.921014848031476,-0.8209842443466187,-0.3187792897224426,-1.1022101640701294,0.5010240719228911,0.5546169442785731,-0.3813677448522467,-0.5439977455807194,0.0631073638796806,-0.0944714918732643,0.0902987942099571,-0.0547547340393066,-0.0558059513568878,-0.0455598533153533,-0.2232467234134674,-0.2147773504257202,-0.3572498421043157,0.1592665612697601,0.0302763341896235,0.2444459217557683,16
1733298851256938800,-1.2759893656149506,-15.241770677149296,2.609644738256931,-2.3751681661233306,9.452890338099005,1.0825134969115258,0.156191274523735,-0.2444903999567031,-0.1263222694396972,0.4963574414345804,0.5521025414602646,-0.3741523171321462,-0.5557177119715023,0.0319036431610584,-0.1280754804611206,0.1131946593523025,-0.0400124192237854,-0.0091490298509597,0.003210499882698,-0.2575263679027557,-0.2079320549964904,-0.4366583098620176,0.1084882616996765,0.1913780196413397,0.2217983106126077,17
1733298851296938800,-1.736047401895374,-10.183936667960882,2.245309906327724,-2.2902513102076947,9.494854918125272,0.879123698567599,0.8500981330871582,0.1787608563899994,0.58244788646698,0.4926546569608558,0.5555535421256016,-0.3828020733880292,-0.5496491673444195,-0.0975012183189392,-0.1443258225917816,0.0763777196407318,-0.0484313368797302,0.0404424220323562,0.043497234582901,-0.2962193489074707,-0.1826468259096145,-0.5358440757572651,0.0460024327039718,0.3363761270321905,0.168170984517131,18
1733298851336938500,-0.1924820353604853,-4.687311428534985,-0.1412958918720483,-1.932970342312753,9.603205987250805,0.460921557774581,1.1979151964187622,0.1014205440878868,1.2547411918640137,0.492451393445814,0.5603812086917004,-0.4030787043120568,-0.5300868882281683,-0.1576583087444305,-0.0806136354804039,0.0008557334076613,-0.056090235710144,0.0647806376218795,0.0574879646301269,-0.3356137275695801,-0.1494165360927581,-0.5302689059734345,-0.0316995605826377,0.4993476980090141,0.0706292595018632,19
1733298851376938800,0.3502380636461079,0.2231207731217145,-1.4871324084341526,-1.3745078997731208,9.709824533495306,0.0211328340824809,0.8739874362945557,0.4389827251434326,1.607508420944214,0.4972135853338046,0.5617125794480557,-0.4282540173888035,-0.5038415073378444,0.0598212964832782,-0.0309946294873952,-0.0435053408145904,-0.0612144470214843,0.0451880395412445,0.0495488792657852,-0.3647462427616119,-0.1350016444921493,-0.4666296697556972,-0.0998132824897766,0.5969535012364388,0.00816956105805,20
1733298851416938800,1.5228163007557391,3.501145833969116,-2.33968681063652,-0.7556243062794208,9.773354464119672,-0.2845074081070721,0.632411003112793,0.3026391267776489,1.48400616645813,0.5077328796377931,0.5589943119756827,-0.4494788092510077,-0.477180685094877,0.2676160335540771,0.050838716328144,-0.0689639598131179,-0.0872083902359008,0.0391021072864532,0.0521328747272491,-0.3873533308506012,-0.087108090519905,-0.3975555490076541,-0.1408272236585617,0.6394048418663442,-0.0839857673442922,21
1733298851456938800,1.4340199730582537,6.035772448381781,0.440768083268404,-0.191579113437701,9.792743639722469,-0.4856592547984793,0.5286126136779785,0.2659704685211181,1.3141289949417114,0.5183326040395085,0.5539078753526918,-0.4668487946172713,-0.4544993476834649,0.3939225673675537,0.0998404622077941,-0.0294945817440748,-0.0643365979194641,0.0380543917417526,0.0571132600307464,-0.4027890563011169,-0.0715983435511589,-0.0662678311556577,-0.1426526606082916,0.6492132653057575,-0.1171298207236453,22
1733298851496938800,0.0368071059315465,7.077104040077328,-1.7958862229168413,0.2802747937723063,9.775681445762514,-0.726555009792,0.4852831363677978,0.1077849641442298,1.1503239870071411,0.5234184072070979,0.5500964590335296,-0.4841878571645934,-0.434728846718538,0.3958840072154999,0.1323689520359039,0.0046466765925288,-0.0279030799865722,0.0436573475599288,0.061174601316452,-0.4038294553756714,-0.0432702675461769,0.3168079416006803,-0.1223402917385101,0.5839170556612312,-0.2147748965155333,23
1733298851536938800,1.113092978766188,9.516873273187874,-0.029495997466892,0.6705874041806906,9.7477693564862,-0.8376534779295325,0.2707376480102539,0.2479614913463592,0.7001393437385559,0.5304202667569144,0.545114721453757,-0.495538478448617,-0.4194588801235164,0.3470730483531952,0.1199992001056671,0.0234360117465257,0.0552147626876831,0.0513621717691421,0.0442484617233276,-0.4210889041423797,-0.0300663448870182,0.5958604453027248,-0.1094875931739807,0.5185501188680529,-0.3418879492562264,24
1733298851576938800,2.62173206641376,11.051653567981718,-2.1259889687679707,0.7931472505964339,9.733456168973444,-0.8950447596684098,-0.0596653744578361,0.0583181791007518,-0.1469667255878448,0.5328727158033494,0.5452750029150082,-0.4983068884608991,-0.4128098467389048,0.2421602010726928,0.1120020523667335,-0.0273593924939632,0.104306161403656,0.043284997344017,0.0289975553750991,-0.4396968781948089,-0.0153201688081026,0.576107697084546,-0.0507475845515728,0.4505488880485296,-0.3125704136287793,25
1733298851616938800,2.4414655156344174,14.32016904220581,-3.078967884880304,0.5147752034392208,9.764151751488448,-0.7528021615307777,-0.6893517971038818,-0.3511689007282257,-1.242040514945984,0.5296574094326146,0.5470161469213186,-0.4890353413408076,-0.4255358127121328,0.3651205003261566,0.1405288130044937,-0.1331161856651306,0.0730436444282531,0.0691743493080139,0.0211842060089111,-0.463575929403305,-0.0143980896100401,0.4684972171932459,0.0593690536916255,0.4430887813009321,-0.1580267715184018,26
1733298851656938800,4.674916349603236,10.16558852584362,-2.292667869830132,-0.1546638892228715,9.799061152306198,-0.3533736217254772,-1.3031598329544067,-0.4850002229213714,-2.0750741958618164,0.5219846212836636,0.5485667051224457,-0.4659309076913513,-0.4577281671377979,0.46544149518013,0.1961876600980758,-0.2019767463207245,-0.0053723454475402,0.0241550952196121,0.041812315583229,-0.4874549806118011,-0.0134760104119777,0.3608919979989528,0.1694856882095337,0.4354851744294166,-0.0038362536946311,27
1733298851696938800,2.373573736538738,1.361866444864869,-0.9333785819768904,-1.016061322164908,9.752316936787963,0.1741175996955484,-1.3376237154006958,-0.5241907835006714,-2.185433149337769,0.5107133095745188,0.5497255512471165,-0.4346542201770161,-0.498045623033508,0.4148837924003601,0.2489704936742782,-0.1756432652473449,-0.0520811080932617,0.0316950976848602,0.0657296180725097,-0.5003113150596619,-0.0523292422294616,0.4153799595117569,0.2293786257505417,0.4449196499899029,0.143469454785157,28
1733298851736938800,1.5822763515926896,-8.21240512432456,1.2409434789359568,-1.7982037060789764,9.619149406313896,0.6394029421702027,-0.7916876077651978,-0.416131317615509,-1.8390666246414185,0.4983345103259743,0.5506662916087802,-0.4051742325705939,-0.5331635204916496,0.5347877740859985,0.2802441120147705,-0.0132386470213532,-0.0610444545745849,0.0487329810857772,0.0554440021514892,-0.4894644618034363,-0.1001061424612999,0.4037918130487203,0.208899900317192,0.5086689224533737,0.2289496436719782,29
1733298851776938800,2.556834939089417,-14.745076708519456,1.532993995898962,-2.3768213401578366,9.47618821157813,0.8502839730523526,-0.2897852957248688,-0.1839218437671661,-1.2633376121520996,0.4846308295232633,0.5548099771600066,-0.3857894148662129,-0.555414687277746,0.5461054444313049,0.2380598038434982,0.1619287878274917,0.0029847621917724,0.0605346858501434,0.044106900691986,-0.4523256123065948,-0.1438164710998535,0.3331494200706482,0.1473859846591949,0.5682041574183851,0.2627205785117112,30
1733298851816938800,1.2037433368325232,-18.091431793749333,0.8000712777059524,-2.7165792185828086,9.379828024497629,0.8996618250098078,0.0069209127686917,0.2140932828187942,-0.4646514058113098,0.475989070260255,0.5603941468270774,-0.3742838661405122,-0.5650701784693192,0.414403885602951,0.2068345993757248,0.2151810675859451,-0.0060198903083801,0.070732906460762,0.0567284822463989,-0.4003402888774872,-0.2067389637231826,0.2038420721560716,0.0703931003808975,0.6518200868032872,0.2381732712270692,31
1733298851856938800,0.3810992119863629,-15.078168845444916,-0.1725005929529666,-2.7411834984853862,9.379370343858003,0.8268659803248941,0.1644656509160995,0.4442877173423767,0.3471561968326568,0.4774928017073335,0.5656654283571866,-0.3713006765777253,-0.5604989220425846,0.3082063496112823,0.1300081014633178,0.1436565518379211,-0.0031051039695739,0.0890537202358245,0.0605228841304779,-0.343793660402298,-0.2450884878635406,0.0362912105649709,0.0083039999008178,0.7528616366330534,0.1846487661852501,32
1733298851896938800,-1.173838904695213,-9.394805813398955,1.0052776970177888,-2.5141294775679706,9.457803244581818,0.6320571825172752,0.566519558429718,0.7453774213790894,1.0096330642700195,0.4848351745797636,0.570567733073171,-0.3771293088613442,-0.5451245648493211,0.1957165449857711,0.0399858579039573,0.0118550546467304,0.0180121064186096,0.0953624546527862,0.0718673169612884,-0.3116867840290069,-0.1492327153682708,0.4628747011363506,-0.0578670650720596,0.7119658548820763,0.3894568886281922,33
1733298851936938800,-0.7944549721941352,-1.6962813548266886,-1.110569963094592,-2.0009252497725187,9.594902269285916,0.3233262009209022,0.7383741736412048,0.2165223807096481,1.6160175800323486,0.4952065008816292,0.571924694147946,-0.3954960129482212,-0.5208220489496643,0.0018096562707796,0.0210473220795393,-0.1861692667007446,-0.0199043154716491,0.0790544599294662,0.0816786587238311,-0.2749401330947876,-0.0778781846165657,-0.6749070940107107,-0.0755305811762809,0.4733844047129154,0.2179476265338249,34
1733298851976938800,-0.3731818629905581,5.049890356707572,-0.1792798778295516,-1.3391213829629125,9.714403677979112,0.0866543380995746,0.6278892755508423,0.0790631622076034,1.7648868560791016,0.5067572020523464,0.5649480800888026,-0.4200184820925285,-0.497609589826799,-0.1545810252428054,0.0100523540750145,-0.2664671838283539,0.0958051681518554,0.0812868922948837,0.0956401377916336,-0.1746305376291275,-0.261781632900238,-0.4601636886119842,-0.0851540565490722,0.6404171607140451,0.0251401768775656,35
1733298852016938800,1.6878513801336288,7.046162958368659,-1.0328969408273696,-0.4991304385291412,9.791359491887688,-0.2248066986483521,0.3764814138412475,0.171917051076889,1.5128246545791626,0.5202372324353202,0.5559282706787281,-0.4498952210777946,-0.4667883043687523,-0.2329626530408859,0.1345410197973251,-0.3631634712219238,-0.0847291350364685,0.0485670864582061,0.1002668440341949,-0.1610120385885238,-0.1969269812107086,-0.4594681075632572,-0.132706269621849,0.7281786654710769,-0.0543522063039243,36
1733298852056938800,2.1886466466024515,6.534913225641846,-2.2530957378983496,-0.0416462439252529,9.79847955302596,-0.3980339071091264,0.384408563375473,-0.0067999316379427,0.8377905488014221,0.527060174294278,0.5508889924511509,-0.4656344060611931,-0.4493477309054202,-0.0216738320887088,0.0825667679309845,-0.4089006185531616,0.0103645920753479,0.0594566166400909,0.0653299242258071,-0.1493037641048431,-0.0484088659286499,-0.3912117329388856,-0.1212591826915741,0.5633880989061668,-0.1208510697364807,37
1733298852096938800,2.3632135244354604,4.686485499104857,-0.9613865328431128,0.1638660173322074,9.797087806406616,-0.4007649395082145,-0.2737414836883545,0.0810209661722183,0.2161771655082702,0.5315823372448321,0.5459591750282128,-0.4715526532496172,-0.4438321239440682,0.1444861143827438,0.1479939818382263,-0.4505656659603119,-0.0470058321952819,0.0355623662471771,0.0412794947624206,-0.1289623081684112,-0.0227328203618526,0.1255091246753931,-0.1186905205249786,0.4929769208680838,0.0157823467498645,38
1733298852136938800,1.2607530719079076,2.531122990205884,0.4242588835487142,0.1709795573981478,9.800212075906993,-0.3114315823245793,-0.1382490396499633,0.1892455816268921,-0.1271388679742813,0.5353957476350742,0.5445911874183039,-0.468293743713319,-0.4443791114221178,0.0886723846197128,0.1137277781963348,-0.4340347349643707,0.035810112953186,-0.0024084448814392,0.0346990376710891,-0.0847747772932052,-0.0011772606521844,0.1543342371433973,-0.0503069832921028,0.3616903087697923,0.2276160204480402,39
1733298852176938800,0.2974679754344746,0.6087509065359831,0.6211246504187583,0.1073017153362277,9.8018382158041,-0.2878820539056323,0.0349831283092498,0.3187159299850464,-0.1741390228271484,0.5365955171952081,0.5475444061133362,-0.4635439822695263,-0.444283158021944,-0.1832752525806427,-0.0014605440665036,-0.3420857191085815,0.1437032222747802,-0.0299559235572814,0.0348750501871109,-0.0250117294490337,0.0126533778384327,0.0148199679911136,0.0302411243319511,0.2820090884853154,0.2060242750333622,40
1733298852216938800,0.1898651673929765,-0.5826672017306089,-0.4820154549360275,0.0333941374165937,9.801989022451638,-0.3004393559280783,-0.0488688722252845,0.2855164706707001,-0.2231546640396118,0.5376639090484808,0.5528393777460411,-0.457915676244957,-0.44226608160621,-0.4321526885032654,0.003849106375128,-0.3925454318523407,0.0239484310150146,-0.0643317401409149,0.0159850716590881,0.0096018388867378,-0.000763427466154,-0.1585714363217353,0.0761863067746162,0.2203535003654658,0.2244084200457669,41
1733298852256938800,-0.1908760249359533,-0.848396698001027,0.2666226457178592,-0.0521353750712471,9.803308872878551,-0.2506119518385268,-0.1501882374286651,0.2631561756134033,-0.1966992765665054,0.5392497960793576,0.5556213413809948,-0.4517328623944046,-0.4432065508540221,-0.1688686162233352,0.062992163002491,-0.469542920589447,-0.0415142178535461,-0.0444381833076477,-0.0192548036575317,0.0365300476551055,-0.0047713303938508,-0.1686123533427715,0.1090760678052902,0.1154576862603425,0.2513546964972279,42
1733298852296938800,-0.1550734929370693,-0.3794166657269001,-0.2838566891133785,-0.09706597899599,9.80329367530942,-0.2374803753257729,0.065406322479248,0.5556654930114746,-0.081428661942482,0.5423507649462026,0.5600850586447423,-0.4454355801735344,-0.4401676343043944,0.1887560933828354,0.0613282732665538,-0.4193197786808014,-0.0257373452186584,-0.0432140827178955,-0.0324887037277221,0.0627080425620079,-6.52777962386e-05,-0.0882131209820508,0.0849502086639404,0.0827951875865459,0.1695648500283248,43
1733298852336938500,-0.6069077628873288,0.0031663550764322,0.3313397768327966,-0.06990318741675,9.80228537504971,-0.2840538556532934,0.1726981550455093,0.8193187117576599,0.2179684340953827,0.547715317307239,0.5669642594218373,-0.4393566252917548,-0.4307263114658558,0.0831316784024238,-0.0342363342642784,-0.2308228909969329,0.0557047128677368,-0.1077809929847717,-0.0110642910003662,0.0695121362805366,-0.0176338106393814,0.0029331308424472,0.0251207165420055,0.0541170823737978,0.0883149373887106,44
1733298852376938800,-0.232165737907961,0.0845645353466272,-1.0667080250144003,0.0819294284695293,9.79929963723719,-0.3707109428323805,0.1169742345809936,1.0879076719284058,0.4310711026191711,0.5573060599941566,0.5751813851257283,-0.4336673514455939,-0.4129274882016118,-0.3163901567459106,-0.0931663885712623,0.0081213694065809,0.0344606041908264,-0.1305164694786071,-0.0008720755577087,0.0542368218302726,-0.0042119473218917,-0.1020370636731386,0.0061709769070148,-0.0251787918549031,0.1036000021409243,45
1733298852416938800,-0.0325686829105019,0.1043476787030696,-1.0446703807294369,0.2561271898623555,9.79806980318129,-0.3203243156911805,-0.2376807481050491,0.8784260749816895,0.3158353567123413,0.570325774900134,0.5783225051063009,-0.4264681407215162,-0.3979905997092836,-0.3857532441616058,-0.0765402168035507,0.1558914631605148,0.0089133977890014,-0.0850474834442138,-0.0219650864601135,0.0389376729726791,0.0188392512500286,-0.1345680449217557,0.014390648342669,-0.0456966792266815,0.079275105435308,46
1733298852456938800,-0.4075292825439944,-0.1315092418730258,-1.6708301027059551,0.3413892790190875,9.797501063382626,-0.2506668786298483,-0.2571617066860199,0.4424202144145965,0.1623052954673767,0.5778825783187967,0.5785014574684927,-0.4220385263181453,-0.3914989309747162,-0.0894851014018058,-0.0571997053921222,0.2400366812944412,-0.0036001801490783,-0.0507532358169555,-0.0360089540481567,0.0216150265187025,0.0213345754891634,-0.1770563565611839,0.0101368427276611,-0.0835499514766037,0.0923903244683053,47
1733298852496938800,-1.3560891766376792,-0.4733791440159082,-1.566812094348669,0.4919319783924147,9.794157013651729,-0.0539129152709385,-0.6454330086708069,1.3925873041152954,0.6496731638908386,0.5939895860320129,0.5773428773504425,-0.411611461951879,-0.3800365076032721,-0.0659044086933136,-0.0782332494854927,0.2872274816036224,-0.0021833777427673,-0.058497816324234,-0.0280870646238327,0.0066820979118347,0.0130720576271414,-0.255697931599617,0.0037661571986973,-0.0787785723563283,0.1424831928273197,48
1733298852536938800,-1.753370438748598,-0.9015665626525878,-1.1232879903703927,0.8010764361605047,9.770288646808266,0.264817258530017,-0.7937042713165283,1.254311203956604,0.9628559350967408,0.6188471238899651,0.5716042858954172,-0.399708165183625,-0.3612896577009086,-0.1664059907197952,-0.1158683523535728,0.2982912063598633,-0.007224678993225,-0.0489825904369354,-0.0199255347251892,0.0069454270415008,0.022757813334465,-0.1931470751404762,-0.0188387110829353,-0.0810660987716168,0.1590223949596285,49
1733298852576938800,-1.6291991385482252,-0.8582073133975266,-0.2470136898845434,1.2922151087507605,9.69864730592072,0.6609111557535827,-0.8276060819625854,2.420494079589844,1.7280505895614624,0.6518535980823866,0.5632538841378046,-0.386067311823858,-0.3298241404760973,-0.1978496611118316,-0.1567742377519607,0.2691121995449066,-0.0079149603843688,-0.0280339419841766,-0.0072973519563674,0.0072087561711668,0.0324435718357563,-0.1305909579843282,-0.041443582624197,-0.0833534059911966,0.175559213338606,50
1733298852616938800,-0.408952849073708,-1.013213166192174,-0.8680331994283944,1.913109749805927,9.54584860778153,1.1777831122763454,-1.075718879699707,2.679521083831787,1.9015308618545528,0.6930258869775189,0.5530740705101694,-0.3661404706012297,-0.282427584498482,-0.2497213929891586,-0.158011645078659,0.2402030825614929,-0.0218280553817749,-0.0208962857723236,0.0045473575592041,0.0046941442415118,0.0237829629331827,0.1245043315470218,-0.0676595717668533,-0.0795188693296164,0.2353868188463151,51
1733298852656938800,-0.4519932416379451,-0.7896826432257891,0.426379492431879,2.433644028228521,9.319773661029338,1.8410791173398493,-1.137159824371338,2.825538158416748,1.800045132637024,0.7338497591295691,0.5380316208594476,-0.3415451089827523,-0.2352305647538176,-0.2885635793209076,-0.1177473068237304,0.2552590668201446,0.0003299117088317,-0.0046093761920928,0.0254327803850173,-0.0222318731248378,0.007221108302474,0.1954454152107238,-0.0908458232879638,-0.071880994862318,0.2184234638846479,52
1733298852696938800,-1.4513658062651753,-0.6822720698207616,1.0088608162015675,2.863046667873859,9.036987816017865,2.511214174643159,-0.7688132524490356,3.1459102630615234,1.979162216186524,0.7713262975392039,0.5236007985317869,-0.3127393813061949,-0.1819121678592241,-0.2894765138626098,-0.0849533081054687,0.3183555901050567,0.0395238995552063,0.0126460790634155,0.0363175123929977,-0.0831412225961685,-0.0081248953938484,0.0478548071086406,-0.1214192286133766,-0.081052654768154,0.0538669983365572,53
1733298852736938800,-0.7275599490508436,-0.93166359475255,0.8613947112619876,3.2348876376494764,8.683938932734728,3.2085984733998774,-1.043599247932434,3.357402801513672,2.125478982925415,0.8057662359721937,0.5078604614773696,-0.2801513008960639,-0.1197240203177373,-0.2788811326026916,-0.0319585315883159,0.3338933289051056,0.0155333280563354,0.0283637344837188,0.0381011962890625,-0.1840457916259765,-0.0160873867571353,-0.1890975074887275,-0.2060617506504058,-0.1155496023274958,-0.1594491690043359,54
1733298852776938800,0.8685527663230895,-0.1140033957988023,2.2218536274164915,3.415272554111481,8.251445925858617,4.052151530762017,-0.9560522437095642,3.787145614624024,1.9396024942398071,0.8387354000274789,0.4856015819305275,-0.239976805267897,-0.0559030326636547,-0.0971592664718627,0.0583224147558212,0.2537309825420379,-0.0418015718460083,0.0531846582889556,0.0230356454849243,-0.2959840893745422,0.0095894131809473,-0.3162666743308305,-0.2994011044502258,-0.2023926770653575,-0.2519579413536936,55
1733298852816938800,0.6174588213875889,0.4437573282122611,1.306929278279841,3.344196445891261,7.903626175400614,4.745462880991399,-0.7363677620887756,2.683189392089844,1.232028841972351,0.8613638908287877,0.4674024178651925,-0.1989565571756888,-0.0018558489466848,0.0767147913575172,0.077715128660202,0.1068502068519592,-0.0375009179115295,0.0537571310997009,0.0031959265470504,-0.3773764371871948,0.0350560024380683,-0.2129863325983285,-0.3328271508216858,-0.200367820174247,-0.1474901799349114,56
1733298852856938800,0.3458946276143193,-0.2261380751162767,1.935892074978352,3.1849542707011103,7.555237685143947,5.38003942591846,-1.0715171098709106,2.920629501342773,1.2983027696609497,0.8790046637971431,0.4458321102428925,-0.1640976945428937,0.040698806307371,-0.0681273490190506,0.0460499823093414,-0.0423572473227977,-0.0100278258323669,0.0298859328031539,0.003547191619873,-0.4010049700736999,0.0423134677112102,-0.1049018054544925,-0.3311384916305542,-0.2020969820544123,-0.0538768438771367,57
1733298852896938800,1.3903300305441022,0.1281061554312706,1.868843907099962,2.843217055027187,7.188723755609988,6.033966860264539,-0.8968719840049744,2.84774136543274,0.8018004298210144,0.8948766577525565,0.4209564224970593,-0.123081323075809,0.0827190543223009,-0.2447929382324218,-0.0065298178233206,-0.1668534278869629,-0.0014993548393249,0.0089830756187438,-0.0033504366874694,-0.3909296095371246,0.0451668798923492,-0.0332476050853729,-0.3009152412414551,-0.2128969007492065,0.1617996776532381,58
1733298852936938800,-0.1339849843367934,-0.2812824547111988,1.5336422306746245,2.392465191752464,6.951229589220881,6.490524633339047,-0.561668336391449,1.6487066745758057,0.3157523274421692,0.9049933950112862,0.4020286685235901,-0.086303468446408,0.1091407411109716,-0.3195116519927978,-0.0331860892474651,-0.2324030101299286,0.0059717893600463,-0.0017274618148803,-0.003505066037178,-0.3231405615806579,0.0303488336503505,0.1068523550003767,-0.2027980089187622,-0.1673708288490772,0.3797222976099699,59
1733298852976938800,-0.7276239541977644,-0.1202308920115232,0.4248433689057826,2.139903658482432,6.81337127058208,6.720801123434304,-0.3457895517349243,1.308485507965088,0.4336142838001251,0.9093704204987816,0.3911130027768239,-0.0660691740837898,0.1253432464261921,-0.324883222579956,-0.0425220690667629,-0.263577789068222,0.0075821280479431,-0.0179497301578521,-0.0067983716726303,-0.2468113899230957,0.0108780153095722,0.1704787317365408,-0.117745317518711,-0.0776264066465198,0.3501710628245025,60
1733298853016938800,-0.1514884923234581,-0.0797889915078878,-0.2985299421101808,1.9691364651933312,6.625386692771315,6.956804759004712,-0.7587692141532898,0.4920593500137329,0.2817269265651703,0.9138315951066828,0.3776213352675187,-0.0519981152341444,0.1400357849591329,-0.3365747630596161,-0.0210998132824897,-0.2208662182092666,0.0039725303649902,-0.037967711687088,0.0037266016006469,-0.1798245906829834,-0.0385069474577903,0.1359948628544807,-0.0769804567098617,0.0384014076519757,0.2551232735168188,61
1733298853056938800,-1.0264195615068077,-0.3862684313178062,-0.4178910655498504,1.946391549421847,6.39751024955511,7.173131049680709,-0.7341393232345581,0.266883909702301,0.2873736321926117,0.91896985514228,0.3629414978605545,-0.0504537635483468,0.1456787443214655,-0.2026966214179992,0.0558761395514011,-0.0982577353715896,-0.0173160433769226,-0.0350512862205505,0.0081279128789901,-0.1371060162782669,-0.061826579272747,0.0453150594979524,-0.1088404655456543,0.087059420902282,0.1244862113684415,62
1733298853096938800,-0.4922673843592405,-0.3831143512010574,-1.1535960348725318,1.9543764106959105,6.094931324315071,7.429846049368381,-1.2071954011917114,0.3951281607151031,0.4366578757762909,0.9246983266144344,0.3444528821917145,-0.050353753151821,0.1541094295323357,-0.0072232531383633,0.1069050282239914,0.1352714598178863,-0.0310016870498657,-0.0279098451137542,-0.0195745825767517,-0.0908584892749786,-0.0695845335721969,0.0253466227024793,-0.1153512224555015,0.1395700179275125,0.1548436479702591,63
1733298853136938800,0.0958278337694704,-0.5791296752542257,1.2913380336552858,1.5804124574169516,5.9071256102025504,7.666717115423083,-0.0279925670474767,2.085922718048096,0.6328078508377075,0.9273631879156712,0.3294054844137372,-0.0244592126584807,0.1757591717492799,0.1223919987678527,0.1130679547786712,0.3196529448032379,-0.0099022388458251,-0.0020013153553009,-0.0213955044746398,-0.070574827492237,-0.0542333647608757,-0.0253203192174434,-0.1236752495169639,0.1117350124754011,0.0585908667869865,64
1733298853176938800,0.4134012798499316,-0.4302309071630239,1.3029478074282408,1.2043307813316584,5.938540739163756,7.710622892645001,0.37033611536026,0.9869486093521118,0.2329196631908416,0.9250280216127652,0.3268999478862049,0.0020136556165943,0.1935346585928178,0.1302957236766815,0.0754666179418563,0.3383001983165741,-0.0120475888252258,7.709860801696777e-05,-0.02805095911026,-0.0502911657094955,-0.0388821959495544,-0.0757289024621248,-0.1319992840290069,0.0838243845038115,-0.0377319108925759,65
1733298853216938800,-0.1800475012011826,-0.3197475021839142,-0.8955658609330653,1.0044009872484951,5.975749649095535,7.710511248964071,-0.17661814391613,1.004320502281189,0.1762281507253646,0.9234067672026488,0.3265395525230837,0.0156608479476501,0.2011135607846175,0.0012898071436211,0.0153429368510842,0.2973108291625976,0.0038102269172668,0.0107914209365844,-0.027178332209587,-0.0283071491867303,-0.0056234523653984,-0.095808982938528,-0.0844911262392997,0.0550135928221046,0.075278089954704,66
1733298853256938800,0.6885211933434009,0.3350087842017412,0.240848737514019,0.5814530767004936,5.853254319283366,7.846764470493793,-0.2624747157096863,1.9931488037109373,0.425407350063324,0.9232819354188244,0.3133157994739254,0.0419470581711184,0.2182297145062454,-0.0748558267951011,-0.0310672763735055,0.1700748652219772,0.0116277933120727,0.0300035774707794,-0.0270790606737136,0.0023246556520462,0.0067850612103939,-0.017090835532546,-0.0375440455973148,0.0840462105609476,0.0187694362692534,67
1733298853296938800,1.969005093898624,0.2940028200745582,0.5297328994005919,0.0379344568605069,5.7984922170042985,7.908630267298221,-0.1071071699261665,1.9019066095352173,0.0655034035444259,0.9208711009982874,0.301918916390521,0.0749468647374349,0.2349985939130438,-0.0751034989953041,-0.0412905141711235,0.0193493235856294,0.0064547657966613,0.0320004224777221,-0.0036473721265792,-0.0066896583884954,0.0173354260623455,-0.0515554151922464,-0.0589292086660862,0.1050952821999788,-0.0702726828828454,68
1733298853336938500,2.0147791492104528,0.4002683150976896,-0.0189618901014328,-0.5246878544380889,5.749986252510547,7.926710698390006,-0.118108682334423,1.3569633960723877,-0.5198415517807007,0.920248258407653,0.2913055478851174,0.1048394369700106,0.2393592395719886,0.0163372009992599,-0.0112945325672626,-0.0382754877209663,-0.0082815289497375,0.0321197807788848,0.0050354450941085,-0.0180290639400482,0.0090994695201516,-0.0557780013233423,-0.0698183700442314,0.1268588587839156,-0.0499566016934812,69
1733298853376938800,-0.2689752732586115,-0.024955577558279,-0.4365677089691162,-0.8018314192462712,5.920676581171155,7.776441226467489,0.910714864730835,0.0583570636808872,0.4927520155906677,0.913925971086477,0.2964583042527905,0.1249972188373987,0.2474418123538642,0.081720732152462,0.0135706029832363,0.0085436794906854,-0.022071897983551,0.0247121453285217,0.0071784406900405,-0.0450711175799369,0.0191390868276357,-0.0556020602345466,-0.0869435220956802,0.1329452660255134,-0.0789633543387055,70
1733298853416938800,0.9672270755648612,0.9008101913273334,1.421291278257966,-0.7478582753878087,6.1963511328727,7.5641469677865505,0.9591649770736694,0.1205217838287353,0.0879606530070304,0.9072939627344422,0.3128799964337598,0.1282261154481611,0.2499636310259996,0.1277886182069778,0.0219946075230836,0.0371456295251846,-0.0237622857093811,0.0271854102611541,0.0135024785995483,-0.0832612365484237,0.0174651816487312,-0.0583873070389032,-0.0968930646777153,0.1277911711979657,-0.116536713668704,71
1733298853456938800,0.0608857727911323,0.8563327516973018,1.2477660184323789,-0.8147602397285402,6.4841399007380005,7.311804191833734,0.969953954219818,0.37260901927948,0.1501088887453079,0.8997700311922769,0.3288489922249235,0.1380581909574993,0.25142060657514,0.1002595350146293,0.013363835401833,0.0176345147192478,-0.0170848369598388,0.0217966139316558,0.0188866257667541,-0.1302025765180587,0.0480716675519943,-0.0518237107396125,-0.0891484022140502,0.1083298071417957,-0.1205281213924288,72
1733298853496938800,-0.4972345052473246,0.5169640187203883,0.1735971560180187,-0.8361861818559467,6.72998513136506,7.083676988726854,0.7635312676429749,0.3378731310367584,0.3325967490673065,0.8922745926135057,0.3429055651940368,0.1457695765597035,0.2549764910028358,0.0383836477994918,0.0171180944889783,-0.0407014973461627,-0.0064743161201477,0.0208948254585266,0.0184084922075271,-0.1694509983062744,0.0400208868086338,0.0080564652055501,-0.0618646517395973,0.1434006090663373,-0.1000536347709596,73
1733298853536938800,0.1354268537081778,2.6754139722406864,0.4332195675849914,-0.8339352611239998,7.042799619415402,6.773028154277801,1.3939391374588013,0.7151198983192444,1.1594014167785645,0.8801000134132063,0.3604742353172339,0.1572577442510577,0.2659931499531943,0.0331534631550312,0.0349490195512771,-0.0967015177011489,0.0003573894500732,0.0169916749000549,0.0223586708307266,-0.2185100018978119,0.0518041402101516,-0.0245762228518724,-0.0242920480668544,0.1526891002848744,-0.1426698105737567,74
1733298853576938800,-1.048132357751578,1.5924293506860732,-1.9003174882501364,-0.5233619030639529,7.416502583670615,6.394682917174697,0.9372613430023192,0.6615725159645081,1.9174107313156128,0.8595479080422944,0.383936190533172,0.1629567607502322,0.2953228021590934,0.0971678644418716,0.0528659187257289,-0.1197353899478912,-0.001600444316864,0.0121165215969085,0.0180943757295608,-0.2862181961536407,0.0607051588594913,-0.006879822641611,0.0204233825206756,0.1896456428907811,-0.1747356585286557,75
1733298853616938800,0.42188758784011,0.9620067105680704,-2.828566890645027,-0.1839638709273189,7.533967518100142,6.275020764961838,-0.2856861054897308,0.8176832795143127,1.4802184104919434,0.8435072688108803,0.3914007575210526,0.1639159445339593,0.329290992498736,0.0921893566846847,0.0787499845027923,-0.1357262134552002,-0.0053746104240417,-0.0073177814483642,0.0186318904161453,-0.3813909292221069,0.0617782212793827,-0.0132487731516361,0.0678789466619491,0.20947744769454,-0.2588242469266056,76
1733298853656938800,-1.4408644321255386,-1.0232190118998288,-3.984284739977121,0.1028050341046415,7.277173607957363,6.572865647417307,-1.7686665058135986,0.3116840422153473,1.7709404230117798,0.8392784690667919,0.3751482491861487,0.1553734690302404,0.3615722730863515,0.1523506939411163,0.0909908786416053,-0.1269075572490692,-0.0048366785049438,-0.0079669058322906,0.0111473500728607,-0.4760504364967346,0.0593092553317546,-0.0296270765006542,0.0658261179924011,0.2315885956071317,-0.137223235605657,77
1733298853696938800,-0.9728221190929413,-3.4312820241481066,-3.5956951722353696,0.6844704566478729,6.572025689461827,7.246403791162371,-2.952782392501831,0.7600687146186829,3.0506863594055176,0.8365182418484877,0.3389178905816264,0.1251834318679462,0.4119478740215425,0.1481239795684814,0.0961305648088455,-0.0912907719612121,-0.0049551725387573,-0.0230746567249298,0.0088933110237121,-0.5707099437713623,0.0568402856588363,-0.0460159012436866,0.0637732818722724,0.2538305668251588,-0.0158970957033336,78
1733298853736938800,-0.0081768767148256,-2.7362778985261915,-3.4207571230024096,1.0885603027950972,5.477938074612617,8.060869577988981,-3.3334336280822754,1.4114348888397217,3.0401928424835205,0.8253315631591027,0.2822419246755049,0.0966929498632998,0.4793932463508717,0.174544408917427,0.0945330932736396,-0.0375734828412532,0.0065754055976867,-0.0180144906044006,0.009048506617546,-0.5561591982841492,0.0707307159900665,-0.0772059892773628,0.031081885099411,0.2598202722266316,0.1919831459276378,79
1733298853776938800,-0.3644663493543863,-2.5483637556031344,-2.121746655023098,1.0914058284193278,4.242111792559921,8.774035967767238,-3.1013970375061035,1.2749252319335938,2.510762453079224,0.8113948660774528,0.2168242296632848,0.0750727675564211,0.5375776847059714,0.2013874799013137,0.0934556350111961,-0.0061491793021559,0.0094738602638244,-0.0175835192203521,0.0044272691011428,-0.5416085124015808,0.0846211463212966,-0.108436993843317,-0.0016095116734504,0.265604006727226,0.3995092403586953,80
1733298853816938800,0.0763646430823952,-1.4561132930532097,-1.1474006873637437,1.1725107248313724,3.3505253566518425,9.141640030625462,-1.4467406272888184,0.1492412835359573,1.6325664520263672,0.7959617752883655,0.1764292259980038,0.0527143232263024,0.576661816130605,0.1958962976932525,0.0975093990564346,0.0075341425836086,0.0114774107933044,-0.0204786360263824,0.0050369352102279,-0.4538781344890594,0.0980905517935752,-0.0791921946585178,-0.0713855102658271,0.2391738996369764,0.5128875630617141,81
1733298853856938800,0.0505175965771079,-1.3368471544206142,0.0120651163250207,1.4576796655870974,3.1049650804460045,9.1872052654922,0.4075554013252258,-1.299554467201233,0.2294197678565979,0.7879476338325462,0.1740514612456709,0.0359021876912449,0.5895384357831225,0.2347470223903656,0.0780733227729797,0.0119819547981023,0.0170359015464782,-0.0153369307518005,-0.0018972903490066,-0.1976363658905029,0.142912745475769,-0.0371487041771411,-0.1936327069997787,0.2818830874854698,1.2153184776835142,82
1733298853896938800,-0.6516907613351941,-2.2389655057370663,-0.5221639254510403,1.7150155736520885,3.32862653631568,9.06362798566222,0.1271640211343765,-0.3353273868560791,0.6638963222503662,0.7829206003265304,0.1918062343188469,0.0330749389874333,0.5908906405521517,0.184687852859497,0.0554218031466007,0.0125024691224098,0.0203379988670349,-0.0237186551094055,0.0062821358442306,0.4885668158531189,0.1728979349136352,-0.2186240462243557,-0.1808958351612091,-0.0948220177277922,1.4016200708433986,83
1733298853936938800,1.3873333329461517,-0.9169441645264624,3.1079964109659195,2.191100469495356,2.851907726483047,9.12338132035732,-1.4732853174209597,-0.75958251953125,1.0600608587265017,0.7736552394106306,0.1866392662308779,0.0016720041625657,0.6054920117668603,0.1789639294147491,0.054932314902544,0.0224963817745447,0.0297028422355651,-0.0174094438552856,0.001123622059822,0.9284790754318236,0.2764447331428528,-0.2121165640264749,-0.1949487179517746,-0.2858754815898836,0.5396551584780216,84
1733298853976938800,-0.3572567102365195,-1.209721242198348,2.3884248303204774,2.4316828111581503,2.518601362285018,9.160455790254472,-0.0401634350419044,-0.4155102372169494,0.6758358478546143,0.7667633750915428,0.1807570828343262,-0.016541216720685,0.6157330982725037,0.165359690785408,-0.0086158718913793,0.0621354021131992,0.0206024050712585,-0.0212513506412506,-0.0078051686286926,0.9943299293518066,0.2659351825714111,0.0897708718180656,-0.2269765436649322,-0.1115359097067266,-0.1712029543578624,85
1733298854016938800,-1.751804212345183,-1.179894259211421,-0.4156307194024324,2.910597815860808,2.411411738154292,9.04897226832211,-0.3259637951850891,-1.8220603466033936,1.189225196838379,0.7557102637596803,0.1930791796272948,-0.0367592681130481,0.6247169415320049,0.0670549720525741,-0.0544939339160919,0.0344783440232276,-0.0114192962646484,-0.0256769657135009,0.0021819621324539,0.9339531064033508,0.1126314848661422,0.1627975295841693,-0.2161644548177719,-0.1284051383778452,-0.4169496930465102,86
1733298854056938800,-0.0624763299182057,0.4828421150185167,0.5069523277938366,3.508331069298088,2.166641297151893,8.897621430903673,-0.709421694278717,-0.9691925644874572,0.6445106863975525,0.745800754334242,0.2046386447319238,-0.0668624995434938,0.6304234752909154,-0.0002234010025858,-0.0670026913285255,-0.0080336313694715,-0.0170686841011047,-0.0247360169887542,0.0155862569808959,0.8011787533760071,0.0654588788747787,-0.0144487965911626,-0.19968843460083,-0.3120446727216243,-0.5713524653814732,87
1733298854096938800,-1.5955457291409372,-1.131444993340969,1.9833505762457848,4.111702036361396,1.746305907189846,8.730103302538394,-0.2399114668369293,-2.3052103519439697,1.2194796800613403,0.7345286823298459,0.2104604144633298,-0.1029320935256803,0.6368508345744229,-0.0183515399694442,-0.0668939873576164,-0.0126725919544696,-0.002278983592987,-0.0238651931285858,0.0118585228919982,0.7087752819061279,0.038716934621334,0.0189963768929243,-0.1999129205942154,-0.2779870664276182,-0.4325445909328758,88
1733298854136938800,1.7747651089549064,1.6317960231736302,1.6184423283427951,4.859717328941822,1.6520013374648987,8.356101063075661,0.2350622564554214,-1.7143408060073853,0.4593435227870941,0.7170393921041591,0.2369397803624328,-0.1334801911701566,0.6417920873610135,-0.065252736210823,-0.0692586004734039,-0.0273770373314619,0.0090839266777038,-0.0242899954319,0.0068743675947189,0.6477665901184082,0.021880904212594,-0.0117179103225469,-0.1999854743480682,-0.2570391170755028,-0.3288489463977515,89
1733298854176938800,0.4994324536830186,-0.1286363167852163,3.556514085447788,5.3024663568943735,1.6407241566471755,8.084692936646938,0.099844291806221,-0.832134485244751,-0.1152055263519287,0.7124418789789073,0.2538575710072581,-0.1528126863175888,0.6361062906037528,-0.2845917344093323,-0.2711548209190368,-0.5346354246139526,0.0595245957374572,0.0472706854343414,-0.1027605533599853,0.5858263969421387,0.0120106693357229,-0.0328138898432254,-0.2241318225860595,-0.2339347203418612,-0.1745164628200232,90
1733298854216938800,-0.433033689624071,-0.5736622036285698,1.7805758410602808,5.521460405474901,1.814906272946298,7.898732558140158,1.1809676885604858,-0.5103999972343445,0.4515703320503235,0.704647069117727,0.2709846950958917,-0.1544150443115502,0.6373349660842993,-0.8128028512001038,-0.5779787302017212,-1.883591055870056,0.192944586277008,0.1555389761924743,-0.0815287083387374,0.5082510709762573,-0.0392178073525428,-0.0551513938575983,-0.3063358962535858,-0.2194675113111734,-0.3529125435523688,91
1733298854256938800,0.784554048165679,1.47456211906597,0.1749649372398853,5.63250495146811,2.0645168474562463,7.757773350876569,0.8410671353340149,0.1090352684259414,0.3122338056564331,0.6915347999442814,0.2884400511771036,-0.1458285786684877,0.6460000279445617,-0.8834549188613892,-0.922489047050476,-3.4662160873413086,0.4044621586799621,0.356762021780014,-0.1160987615585327,0.3922182023525238,-0.0352013371884822,-0.1846779374808073,-0.4770013093948364,-0.3872194484323263,-0.5907927866496145,92
1733298854296938800,0.2616980487972498,0.4433168909683823,0.3882768485307693,5.544839527496695,2.1751916833542286,7.7906152977705,0.2848794758319855,0.4635889828205108,0.1545966416597366,0.6879141492781681,0.2902052548575814,-0.1362721073407374,0.6511412716908211,-0.8025294542312622,-1.5089519023895264,-3.606486797332764,0.4109436869621277,0.225038468837738,-0.188663512468338,0.3066029846668243,0.0012929774820804,-0.1162111349761486,-0.5815291404724121,-0.3250834563843905,-0.5930665768004953,93
1733298854336938500,-0.0192477213054895,0.144235744716227,1.109536528393626,5.4154789880901575,2.2899191556438803,7.848518620684742,1.0117510557174685,0.3863410651683807,0.3619014024734497,0.6820049941806743,0.2907716456227004,-0.1236477565778289,0.6595698052520753,-1.334472417831421,-1.5859102010726929,-3.0496747493743896,0.090126097202301,-0.1778115034103393,-0.0570527762174606,0.2650224268436432,-0.0818049162626266,-0.0171902042537927,-0.4620548784732818,-0.3580767944477498,-0.2815086646825075,94
1733298854376938800,0.1379571028381586,0.7742629557758569,-1.5111235248744488,5.298377041754126,2.571933139500022,7.841093439120054,0.7278576493263245,0.4481716752052307,0.1499750018119812,0.6734960461171038,0.2986987089294997,-0.1048550358574061,0.6679727148527798,-0.8915368318557739,-1.1840765476226809,-2.191821575164795,-0.1942368745803833,-0.343017041683197,0.0129956752061843,0.2234418541193008,-0.1649028211832046,0.0854594383597373,-0.3425806164741516,-0.3892556304350495,0.0289978386864066,95
1733298854416938800,-0.2078098067432641,0.3734969202890992,-0.9293839593827724,5.174580566215515,2.6289813068896533,7.904590636518597,0.0738494470715522,0.4179145693778991,0.1749548465013504,0.6706873972467189,0.2962390260382407,-0.0960233111720793,0.6732015504871752,-0.6828310489654541,-0.7067838907241821,-1.2337512969970703,-0.1887829303741455,-0.4840311408042907,0.0709660798311233,0.2739918828010559,-0.1889857053756714,0.2458247723609209,-0.1541890799999237,-0.5313156385473907,0.2443815878152847,96
1733298854456938800,-0.0515390485793352,0.39408495028764,-0.7244885787814855,5.106297303584218,2.6694457114860413,7.935375066360831,0.3605974614620209,0.1867865622043609,0.1051710993051529,0.6677478006971237,0.2953944141138842,-0.0902807643828227,0.6772772732190656,-0.4576399624347687,-0.3242396712303161,-0.263827919960022,-0.0787140727043151,-0.4517687559127807,0.0893077999353408,0.3325361311435699,-0.2764123082160949,0.4126467351555824,0.0177966207265853,-0.4304546329163015,0.1626429235443472,97
1733298854496938800,-0.4066559703081846,0.1916992144197225,-1.2605097646713257,5.0737031939715145,2.746435135403275,7.930007401847839,0.1450910866260528,0.0283741354942321,0.0273766126483678,0.665996614111572,0.2973014957691993,-0.085404770243752,0.6787977446840737,-0.0811499431729316,-0.0902027711272239,0.4769901931285858,0.0073693990707397,-0.394449770450592,0.0900779515504837,0.3420398831367492,-0.295405775308609,0.254211492434144,0.1626772433519363,-0.3844195885807275,0.3105274000264704,98
1733298854536938800,-0.593088642501831,-0.0941618002533912,-0.5795341644018888,5.106906959915161,2.75082781740427,7.907137982913851,0.1535354107618332,-0.0990759506821632,0.2907340228557586,0.6631877519897329,0.2992311320392118,-0.0854919977349811,0.680686356496564,0.3413166403770447,-0.0270965583622455,0.8455062508583069,0.1168175935745239,-0.2037453055381775,0.1328702718019485,0.3515436351299286,-0.314399242401123,0.0987888755321502,0.3075578808784485,-0.3410891270287334,0.4586836791872978,99
1733298854576938800,-0.3333592634290456,0.2964326775699853,-0.7963777569502591,5.195084425061941,2.724899887682497,7.858523881870508,0.1301929056644439,-0.2613327801227569,0.4062331020832062,0.6568841216970215,0.3027647688308358,-0.0875229827508684,0.6849645700216965,-0.0742781832814216,0.135799154639244,1.012654423713684,0.097133994102478,-0.146132230758667,0.1229007840156555,0.3610473871231079,-0.3333927094936371,-0.0535930584996938,0.4524385333061218,-0.3004240852937102,0.6071895024381577,100
1733298854616938800,-0.2270423304796218,0.8386889584571122,-0.7498503990530967,5.304545501255989,2.668217923256755,7.804665450432896,-0.1025477424263954,-0.2009486854076385,0.2283538430929184,0.6518799332318471,0.3059101580285292,-0.0921509275587322,0.6877352624639363,-0.6501976847648621,0.1654018461704254,1.1006323099136353,0.0574865341186523,-0.1332608461380005,0.0852678716182708,0.3750227391719818,-0.2831002175807953,-0.274569805330038,0.4124188721179962,-0.0840625771738588,0.4974691907860338,101
1733298854656938800,-0.7504682386904954,0.5627838128700852,-0.3964180694103241,5.391328881695866,2.5543171110495924,7.783278379011154,-0.318754494190216,-0.2264319062232971,0.2256477326154709,0.6499454166361358,0.3054910847149397,-0.0991888829622283,0.6887726981157763,-0.291072279214859,0.1079644858837127,1.1424325704574585,0.0380682349205017,-0.0050987601280212,0.0264959931373596,0.3488203883171081,-0.249872401356697,-0.3080360216021537,0.3371323943138122,0.0601327624667435,0.4881785076104104,102
1733298854696938800,-0.739834616473317,0.3778587687604129,0.7220043607503175,5.502200993731617,2.388640957289189,7.758257919523119,-0.2871858477592468,-0.4225853085517883,0.225947231054306,0.6482898831712812,0.3041168693162966,-0.1093246193094847,0.6894064084392619,-0.0607437342405319,0.1088139787316322,1.0681997537612915,0.0196260213851928,0.0082314014434814,0.0052830129861831,0.3132283389568329,-0.2334952652454376,-0.2586673027992248,0.2410104870796203,0.2453019175305962,0.0590424099467694,103
1733298854736938800,-0.7969178551763295,0.2357001225791871,1.2374065369814633,5.677497939404845,2.314872833506018,7.65361096561253,-0.0235168132930994,-0.519109308719635,0.17184779047966,0.6453067725229865,0.3093780985948187,-0.1185732828246702,0.6883347691583965,-0.0433117486536502,0.0768339410424232,1.0196220874786377,0.0282381772994995,0.0138609409332275,-0.0053580999374389,0.241337239742279,-0.1899776756763458,-0.2553524791628122,0.1232835948467254,0.2919492485456168,-0.0182115101255476,104
1733298854776938800,-0.5592068311661481,-0.0169606332816183,1.5372119058549405,5.811337085530162,2.2315971689261493,7.577514398881792,-0.1608017235994339,-0.2598218023777008,0.2680135369300842,0.6421900923122652,0.3125727282874123,-0.1263035586988589,0.6884312457752922,-0.1056997552514076,0.0726164579391479,0.9864224791526794,0.0310541987419128,0.068983256816864,-0.0138526409864425,0.221372976899147,-0.1420654952526092,-0.1841951223999261,0.1073883324861526,0.3807054634284227,-0.2065653596401214,105
1733298854816938800,0.0822831464111805,-0.0929950945615768,1.9830588998228311,5.885862457421422,2.1558989538632334,7.54182349229753,0.1460140794515609,0.000879687257111,0.2219078540802002,0.637903359034187,0.3137403346178479,-0.1305412966072814,0.6910898176505518,0.0857724696397781,0.0667745992541313,0.997750997543335,0.0193674564361572,0.0645673871040344,-0.0446666926145553,0.1591000109910965,-0.0875421017408371,-0.0921457842558622,0.0942431911826133,0.3976210885245352,-0.4360542064890265,106
1733298854856938800,0.0338058234900236,-0.3451480470307171,0.9347282430201768,5.849046346199512,2.177460358938575,7.5642387377232305,0.2465513348579406,0.3065413236618042,0.1837846040725708,0.6343315873249408,0.3135961469831971,-0.1264461300809219,0.6951921718156534,0.067959651350975,0.1175929829478263,0.8862242102622986,-0.0262650251388549,0.0425821542739868,-0.0613099336624145,0.1018800139427185,-0.0951912030577659,-0.038426469027996,0.1288329809904098,0.3854270851228386,-0.5482515757791697,107
1733298854896938800,0.0571183100163936,-0.4070506687141955,-0.0488520014524459,5.767675053936243,2.1799569980598985,7.625752067828178,0.1100847199559211,0.2950255572795868,0.2262628972530365,0.6311808682277479,0.3106303181880727,-0.121258614527873,0.7002969736974786,0.130111426115036,0.1283695250749588,0.8740540742874146,-0.0291111469268798,0.0796470046043396,-0.061540201306343,0.0811961814761161,-0.0563721805810928,0.0369838690042495,0.2413823902606964,0.2459458414573222,-0.5398644173145294,108
1733298854936938800,0.2890396447092294,-0.4410588829085231,-0.0741682290166616,5.713672830113768,2.170869728501886,7.668875170239806,0.2038523703813552,0.2273563742637634,0.2701395750045776,0.627308448429646,0.3085354981791865,-0.117482008372884,0.7053282123716034,0.1611292660236358,0.0881191417574882,0.8468434810638428,-0.021224021911621,0.0746288299560546,-0.0451917201280593,0.1049154177308082,-0.0752683132886886,0.0852145236879587,0.4673761427402496,0.2486203944288194,-0.385003379818052,109
1733298854976938800,0.5850017821580171,-0.1259815644927323,-0.6469523346364497,5.665061651679873,2.167487538717687,7.705807016795873,0.1231889799237251,0.2162160873413086,0.2137170135974884,0.6232828401136803,0.3068883703502701,-0.113722118182991,0.71021493816619,0.007573002949357,0.0526931844651699,0.7913011312484741,-0.0426657199859619,0.0493587553501129,-0.0378322005271911,0.094647504389286,-0.101105123758316,0.0075356562018394,0.6229661703109741,0.2190801194287836,-0.4422960234880447,110
1733298855016938800,0.7143897940933704,-0.0525153462655842,-0.6671639325380325,5.626354027622938,2.1552229542978107,7.737540710186958,0.095638133585453,0.1252670288085937,0.1509599536657333,0.6206109592722967,0.3051153369410297,-0.1113545827967351,0.7136853215648062,-0.1287467628717422,-0.0441515482962131,0.7333606481552124,-0.0184624195098876,0.0608561933040618,-0.0311583876609802,0.0713738948106765,-0.0754627585411071,-0.0679921707302331,0.6988389492034912,0.2145933294035494,-0.1842698681365698,111
1733298855056938800,0.8380290332436561,0.2226613389164209,-0.8695020298719406,5.617935743367672,2.153434171184897,7.744152821803093,0.0368374846875667,0.0102766416966915,0.1016876697540283,0.6183320540232222,0.3050228564778863,-0.1100869366712072,0.7158962395128269,-0.1782695800065994,-0.1107389330863952,0.637651801109314,-0.0147680044174194,0.077606588602066,-0.0076460689306259,0.0817289650440216,-0.0493504554033279,-0.0841898568153381,0.7509256601333618,0.1941973148457705,-0.033198432181403,112
1733298855096938800,0.7494459099054336,0.3788533327557146,-0.6423153224855661,5.629754775977134,2.128474209712446,7.742469983282684,-0.0914290249347686,-0.0683827400207519,-0.0027947728522121,0.61783845069754,0.3047124150235487,-0.1113294086869157,0.7162623132114114,-0.2337301671504974,-0.1328960061073303,0.5009849667549133,-0.0105555057525634,0.0620916187763214,0.0028688162565231,0.08709017932415,-0.0218643974512815,-0.1127425820827484,0.6490669250488281,0.1550418008908629,-0.0011064634045585,113
1733298855136938800,0.3890624459505081,0.1100304005146026,-0.0874094033837318,5.671859056735038,2.1222635185040533,7.713390603792667,0.032909732311964,-0.188352569937706,-0.0115491719916462,0.6180183539348718,0.3063566311732139,-0.1134554019779973,0.7150712515099972,-0.3228776156902313,-0.1150868088006973,0.3355734646320343,0.0110925436019897,0.0754226744174957,0.015698567032814,0.100272499024868,-0.0153784193098545,-0.126348498108983,0.5376907587051392,0.1612110641103237,0.2246122903211042,114
1733298855176938800,0.3412883028626441,0.2747613823793828,0.0677794047623872,5.716790085351467,2.126024332342297,7.679108979484439,-0.0728156343102455,-0.0707758739590644,-0.04861930757761,0.618011967210574,0.3085287420473638,-0.1152580835227068,0.7138534201077773,-0.2085997760295868,-0.091061532497406,0.1482153534889221,0.011511743068695,0.0720909535884857,0.0189101099967956,0.1331062465906143,-0.0359270274639129,-0.106959907028079,0.4876904785633087,0.1782359947998076,0.3223136994101107,115
1733298855216938800,-0.0900777458101511,-0.045751258958131,0.3866302503675222,5.716899975466728,2.114790552274883,7.682128619566559,-0.0457571670413017,0.0269324518740177,-0.0646184831857681,0.6194536512683697,0.3078837888611294,-0.1163100317362564,0.7127108623386642,-0.0901559516787529,-0.0581425726413726,-0.0015896476106718,0.014513611793518,0.0528167188167572,0.0267941951751709,0.1253691166639328,-0.0191759150475263,-0.0836567728519439,0.3700883388519287,0.1984751382954418,0.1945325016168877,116
1733298855256938800,-0.3217600110501051,-0.1175944060280919,0.0474544096142053,5.704673531100154,2.116453517051041,7.690754993614554,-0.0396060645580291,-0.0057754279114305,-0.0396204516291618,0.6204295394665765,0.3072346667519363,-0.116135656719201,0.7121703110185754,-0.0107692526653409,-0.0431106276810169,-0.1010942682623863,0.0083135366439819,0.0311866402626037,0.0289105325937271,0.1012328043580055,-0.0249348506331443,-0.1235030455499887,0.2828056812286377,0.2133539603343233,0.2921629095626063,117
1733298855296938800,-0.4788526069909334,-0.2465535250268876,0.1554331382960081,5.7025511321187015,2.108344737136364,7.694555554941296,-0.0515911392867565,0.0042379330843687,-0.0149978967383503,0.621205480020631,0.3067114491721965,-0.116683101604971,0.7116297836753559,-0.0170721560716629,-0.0090557197108864,-0.147506833076477,-0.000879943370819,-0.0045781135559082,0.0337285548448562,0.0832276120781898,0.0189854465425014,-0.1612865404993295,0.2452490627765655,0.1289578768897801,0.255677144539915,118
1733298855336938500,-0.4440297154128551,-0.4087731085926294,0.1604161874055862,5.698554171437025,2.097433320891112,7.700496050906181,0.0103095648810267,0.0216908175498247,0.0549718327820301,0.6211062982482217,0.3061433032373404,-0.116877095844951,0.7119290434012684,-0.0561058409512043,0.0079256603494286,-0.139114961028099,0.0045719146728515,-0.0242187976837158,0.0266100168228149,0.0728397965431213,0.0335219874978065,-0.0794558140307664,0.1596050858497619,0.1781708936743438,0.1236046427609399,119
1733298855376938800,-0.2350923659443855,-0.2196842228017747,0.0529442392021417,5.699708017647266,2.08701188011989,7.702473488458991,0.017168678343296,0.0237312112003564,0.0888163968920707,0.619822687564201,0.3060198336229642,-0.1167690089420231,0.7131176467991419,-0.0521696880459785,0.0171822756528854,-0.1171246320009231,0.0138978362083435,-0.0276620090007781,0.0205219984054565,0.042717769742012,0.0468499772250652,-0.1321943015277385,0.0911751762032508,0.0984575246859341,0.1541167219351977,120
1733298855416938800,-0.1471627380788326,-0.1921335141837596,0.1144587383508682,5.699615663188696,2.0623042859733105,7.709193736624718,-0.012511164881289,0.055593941360712,0.121586874127388,0.6184784585248445,0.3053235959207721,-0.11712394121166,0.7145235482509418,-0.033201590180397,0.0564164966344833,-0.0834679305553436,-0.005491018295288,-0.0390855073928833,0.0078585296869277,0.0309843979775905,0.0671992227435112,-0.0258726924031972,0.073874607682228,0.0950708779223263,0.0929344869481399,121
1733298855456938800,0.1196452010780572,-0.1104964105911552,0.1566162106007337,5.683301072725653,2.0330404898270964,7.728986232331395,0.0144216595217585,0.1091071963310241,0.1287415772676468,0.6169258567526257,0.3037649786493163,-0.1168683497082551,0.7165691248107883,0.0366680398583412,0.0676318630576133,-0.0098660197108984,0.0021878480911254,-0.0345859229564666,-0.0082971602678298,0.0133632849901914,0.034585278481245,-0.0057540334820747,0.0780100673437118,0.0928868849467486,0.1153130170926451,122
1733298855496938800,0.2061281372666358,-0.0214053377307951,-0.0518839164942502,5.666698897492886,2.0072459772266447,7.747895515462756,0.0195858813822269,0.0680126622319221,0.13926762342453,0.6150513173397055,0.3023753831249935,-0.1163460517100912,0.7188496285766995,0.0090899392962455,0.0695699602365493,0.0578786060214042,-0.0045461058616638,-0.0355951488018035,-0.0070083141326904,0.0115781240165233,0.0366560593247413,-0.0116460141301155,0.0890110060572624,0.0404219536941498,0.1307504593949764,123
1733298855536938800,0.2579962716698646,0.1196783726952969,-0.0823246474653482,5.6594227690100665,1.982280901187658,7.759631545963883,0.0153807494789361,0.0453273244202137,0.1169987916946411,0.6132771604940711,0.3014229380979472,-0.1162459182797708,0.7207788789903613,0.0115035623311996,0.05670677870512,0.0991260409355163,-0.0008398294448852,-0.0259131491184234,-0.0159491896629333,-0.0050507020205259,0.0290466174483299,-0.0558563272565603,0.0689308941364288,0.0230963595576584,0.1230298750802874,124
1733298855576938800,0.3572340600132942,0.1992510911040008,-0.1598036084651947,5.657299785506725,1.974983291525393,7.763039893102645,0.0469090268015861,0.0216507352888584,0.0811823979020118,0.6116405076402675,0.3013247677929666,-0.115751952115588,0.7222885637582009,0.0183260478079319,0.0304390657693147,0.1288228183984756,0.0021995306015014,-0.0156614184379577,-0.0208189487457275,-0.02167952619493,0.0214371755719184,-0.0999964977562427,0.0488507822155952,0.0057647010065615,0.1153137477450072,125
1733298855616938800,0.244244809693098,0.2295442302979528,-0.1622621075332164,5.659557209044695,1.9617488391600548,7.764749619629979,-0.0286378413438797,-0.0123626049607992,0.038688275963068,0.6107619289362191,0.3010882180120828,-0.1159906062086634,0.7230919106601581,-0.0184524729847908,0.020316069945693,0.1394751965999603,-0.0108336210250854,-0.0102599263191223,-0.0251473188400268,-0.0359549783170223,0.0562049150466918,-0.0923071122974157,0.0550705194473266,0.0045269028399139,0.0537044099196791,126
1733298855656938800,0.3484522031426429,0.0613718758076429,0.2227496017217635,5.669822582471371,1.956940123704076,7.758471854534744,0.0319047756493091,-0.0148303098976612,0.0076929940842092,0.610424404613544,0.3014341757987506,-0.1164709189652603,0.7231556087953329,0.0167515873908996,-0.0038503049872815,0.1149198487401008,-0.007182240486145,0.0013494789600372,-0.0176755785942077,-0.0573512502014637,0.039262868463993,-0.0356540817052125,0.0272031500935554,0.0028924335058778,0.0507260516960173,127
1733298855696938800,0.2389560556352138,0.0751461341381072,-0.0325473478615283,5.658261908537149,1.9594765103138985,7.7662676229774945,-0.0522520057857036,0.0633254572749137,-0.0295545943081378,0.6107120653812743,0.3009551585688935,-0.1160023299145308,0.7231876135325499,-0.0062003331258893,-0.0212717447429895,0.1099346801638603,-0.0026946663856506,0.0064648687839508,-0.0129660964012146,-0.0787475183606147,0.0223208256065845,0.0210363582879304,-0.0006642173975706,0.0012707505881786,0.0477909480921924,128
1733298855736938800,-0.025533669707179,-0.2033217015437781,0.2084182940304279,5.646969530150294,1.958421156042069,7.774748451074958,0.0413759872317314,-0.0021354123018682,-0.0056118578650057,0.6113022561929187,0.3003104301776965,-0.1158093586607248,0.7229878182373844,-0.0032058749347925,-0.0343205966055393,0.0941390693187713,-0.0071800351142883,0.0095536708831787,-0.006581887602806,-0.0857989341020584,0.0184251256287097,0.004921674311161,0.0141282556578516,-0.0198190183874219,0.1106174066223204,129
1733298855776938800,-0.0148942022711038,-0.0780272425323724,-0.0920738880634307,5.653388749542832,1.9718409018464385,7.76668730969429,0.036314956843853,-0.0156856775283813,0.0237442757934331,0.6106889591407867,0.3011855654842883,-0.1153101074042366,0.7232218693101649,-0.0331491269171237,-0.0272191707044839,0.0545164979994297,-0.0115585327148437,0.0095395147800445,0.0029486864805221,-0.0723175704479217,0.0144899860024452,-0.0291793327331542,0.0142056113108992,-0.0160262019757181,0.1044382065307348,130
1733298855816938800,0.0377361486762762,0.0065440148159861,-0.0812473736226558,5.655974674382805,1.974059308548272,7.764239916542172,-0.004974702373147,0.0101185766980052,0.0116674751043319,0.610395552487785,0.3014300581083245,-0.1152121654230544,0.7233832674322902,0.0180914252996444,-0.0174772217869758,0.0445539429783821,-0.0097734332084655,0.0136461853981018,0.0071795731782913,-0.0634735599160194,0.0031258398666977,-0.0202753107875585,-0.0125758340582251,0.0158555215839296,0.0889053410299122,131
1733298855856938800,-0.0049362873584032,0.0157857442833483,-0.0604500847876071,5.657945682194828,1.9672117807410656,7.7645421143591395,0.0284185782074928,-0.0314441807568073,0.0367914661765098,0.6099266379675877,0.3013464048933301,-0.1153641165139937,0.7237892698529853,0.0019004700006917,0.0117270564660429,0.0277798939496278,-0.0143139958381652,0.0078265666961669,0.0117795318365097,-0.0647147670388221,-0.0004634908400475,-0.015544775134325,-0.0234947465360164,0.0399421342879533,0.1352143800012767,132
1733298855896938800,0.1002753146976232,0.0876810599319636,-0.0332721550047397,5.679327492919564,1.9696865002915265,7.748287729650736,0.0032296981662511,-0.0801266282796859,0.0004105594416614,0.609385697974502,0.3024944518861778,-0.1159498687579623,0.7236724865085519,0.0072499616071581,0.0202696789056062,0.0150850024074316,-0.0131147503852844,0.0090937614440917,0.0111750215291976,-0.0659559741616249,-0.0040528215467929,-0.0108083942621946,-0.0344136618077755,0.0640053661163896,0.1815351824756711,133
1733298855936938800,0.1942740333437919,-0.0448877739965915,0.0951625017285346,5.691122560131549,1.9758112667821344,7.738066779887676,0.0165828168392181,-0.0056696026585996,-0.0118350628763437,0.6093439708262267,0.3032598191602349,-0.1161975514981976,0.723347450903485,0.0222811102867126,0.0353263393044471,0.0090229157358407,-0.0141575932502746,0.0076528787612915,0.0084539204835891,-0.0594011470675468,0.0109542440623044,-0.0534036734074354,-0.0369494594633579,0.0425314931940287,0.1013816685043275,134
1733298855976938800,-0.0315612594336271,-0.0206347917497158,-0.1630348454713821,5.687114493533969,1.9817853727556765,7.739485999035835,0.0076376432552933,0.0163599550724029,0.0186246894299983,0.6092405550336771,0.3033102655747454,-0.1157536332232342,0.7234846710428866,0.0183106027543544,0.0394481159746646,-0.0089773228392004,-0.0053808689117431,0.0003392696380615,0.0070461183786392,-0.0721031874418258,0.0128508023917675,-0.0213309573203325,-0.025319080799818,0.0636420126967132,0.121395990268141,135
1733298856016938800,0.0628723434984683,0.0696878687322139,-0.2167781260967254,5.695032427051663,1.970022308117151,7.736666265439987,-0.0479379780590534,-0.0500096082687377,-0.006938440259546,0.6092306873330322,0.3032464010788251,-0.116539359633972,0.7233935946118664,0.0105951577425003,0.0508894808590412,-0.0378727503120899,-0.0016981959342956,-0.0035174489021301,0.0012241154909133,-0.0637176558375358,-0.0059396363794803,0.0302063376933336,0.0164456441998481,0.0670920070201158,0.0921194807708263,136
1733298856056938800,0.0009171148449182,0.0047504093974828,-0.1361520992428064,5.706410730156303,1.9616374877400693,7.730410127654671,-0.021883089095354,-0.0310012903064489,0.0059462268836796,0.609323636764553,0.3034457967655544,-0.1173857522440969,0.7230947518984823,0.0523053221404552,0.0585173070430755,-0.0259375311434268,0.003547728061676,-0.0025189816951751,-0.0026545077562332,-0.0812172219157219,-0.004321739077568,-0.0062380176067352,-0.0118846744298934,0.0650567748654633,0.0527392912145704,137
1733298856096938800,0.0944067149251699,0.1260702656894922,-0.0770364779293537,5.723204044046998,1.9486552565701305,7.721273465996981,-0.0789103060960769,-0.0833301171660423,-0.0288340263068676,0.6096078356774015,0.3036936073606395,-0.1187215666428134,0.7225328722029796,0.049674917012453,0.0594044588506221,-0.0100654903799295,-0.0005678534507751,-0.0122455358505249,-0.0091210454702377,-0.0742866694927215,0.0034532528370618,-0.0323357509374618,-0.0097033213824033,0.0665861763898283,0.0644991409827023,138
1733298856136938800,0.0383259312629699,-0.0900569952830672,0.2806353889793157,5.739331002983451,1.9386798060007395,7.711807718515396,-0.0175064224749803,-0.0173624567687511,-0.0032915365882217,0.6101058834211173,0.3039835693302384,-0.1200050354192103,0.7217780877183816,0.036598265171051,0.0415308102965354,-0.0101673565804958,-0.0012971758842468,-0.0149603188037872,-0.0125527828931808,-0.0673561170697212,0.0112282447516918,-0.0584323152244091,-0.0075219688005745,0.0681216423287987,0.0762610365774482,139
1733298856176938800,0.1048264021307229,0.0897271788068115,0.0517769489884376,5.741963689574599,1.9460924203448,7.707980269181728,0.0269225053489208,-0.0131445154547691,-0.024812962859869,0.6101099146920563,0.3043716979571617,-0.1198342031078907,0.7216394505391687,0.0467526316642761,0.019289581105113,-0.0098419841378927,0.0011748671531677,-0.0108016729354858,-0.0124317556619644,-0.0734577476978302,0.0032693110406398,-0.0605605594247579,-0.0467972643673419,0.0611816869977861,0.0785554311249405,140
1733298856216938800,0.0923673180520534,0.0018920973569154,0.1386760647624731,5.737513724428415,1.9341193662174043,7.714305380550027,-0.0659142434597015,0.0199664290994405,-0.0222851112484931,0.6109331426957029,0.3035975311179072,-0.1204509148364941,0.7211663613328129,0.0261442922055721,-0.007071984000504,0.0037941320333629,0.0106712579727172,-0.0171897709369659,-0.0041538327932357,-0.0795593708753585,-0.0046896217390894,-0.0626209990859031,-0.086072564125061,0.0541665475387126,0.0808510677814483,141
1733298856256938800,0.0227858323037624,-0.0483520891062915,0.0834241331398487,5.736316623598337,1.9369281400278209,7.714490673989057,0.0366308875381946,-0.0205485019832849,-0.0199449639767408,0.6112609355399645,0.3035904241826362,-0.1204296261195331,0.7208949955101678,0.0414739809930324,-0.0006587197422049,0.0080544576048851,-0.0001945495605468,-0.0083830058574676,-0.0052385330200195,-0.0856610015034675,-0.0126485535874962,-0.0646112961202859,-0.1253478527069091,0.0470762239515781,0.0831473620250821,142
1733298856296938800,0.0205628955572843,-0.0047702831417322,-0.2070329771518707,5.736444633892178,1.9460187705866991,7.712106993722915,-0.029209665954113,0.0118367308750748,-0.0169643741101026,0.6114671340066854,0.3038922251274474,-0.1201727286678951,0.7206357412086972,0.0655468255281448,-0.0032078977674245,-0.0004398277960717,-0.0018999576568603,-0.0050339102745056,0.0023872852325439,-0.0766647011041641,-0.012441367842257,-0.0775613785862922,-0.1383722871541977,0.0583500437684357,0.1129037639938294,143
1733298856336938500,-0.0107990419119596,0.0170040340319275,-0.1433089852601289,5.739076151439547,1.9381610428236424,7.712128621032834,-0.0346838384866714,-0.0538895614445209,-0.0254372619092464,0.6119421721513575,0.3036464861060559,-0.1207877822157187,0.7202332580366185,0.046574730426073,-0.0070337411016225,0.0105496402829885,-0.0019791722297668,-0.0050336122512817,0.0040210485458374,-0.0780422389507293,-0.0026301117613911,-0.0377455010265111,-0.1857059299945831,0.0445412986464798,0.0582440626433119,144
1733298856376938800,-0.0419651645481586,-0.0183621706426143,0.0639051936775445,5.756176339322328,1.932526397937536,7.700790065416693,-0.0377613715827465,-0.0279021449387073,-0.0036333368625491,0.6123037277748905,0.3041564850372678,-0.1218926482776276,0.7195242992532975,0.0061388909816741,-0.0051090745255351,0.0006697117350995,-0.0069779753684997,-0.0080170333385467,0.0071117281913757,-0.1095977053046226,-0.0028874354902654,-0.0505465304106473,-0.287680059671402,0.065088192917034,-0.0037203356973826,145
1733298856416938800,0.0022018939584493,0.1421018014274537,0.1344996558606624,5.75645164913237,1.923196551795304,7.702919478660822,-0.0149342119693756,0.0226914025843143,-0.0005434940103441,0.6124239037051022,0.3038089341667803,-0.1223133204030792,0.7194974184577498,0.0297973491251468,-0.0141402268782258,-0.0070147728547453,-0.0015097260475158,0.0011578798294067,0.0035328865051269,-0.1291976422071457,-0.0247917249798774,-0.0582487753510475,-0.3723071217536926,0.0757632431231439,0.2051256639595143,146
1733298856456938800,-0.0035585692644119,0.1160403084538877,-0.008138882791996,5.752336030507087,1.9185821898676447,7.707143233835697,-0.0352776050567626,-0.0107213119044899,-0.0215210560709238,0.6127794629032878,0.3033938902666016,-0.1224630106453308,0.7193443669880388,0.0007079064380377,-0.0075854421593248,-0.0304985269904136,-0.0012662410736083,-0.0030404925346374,0.0064970701932907,-0.1048128008842468,-0.0026467908173799,-0.0691448478966951,-0.3336301147937774,0.0439246280528604,0.2767763937299139,147
1733298856496938800,0.0092845456957817,-0.0680880323201418,0.0962181482613086,5.756999930664897,1.9186561318866908,7.703641363194585,-0.0174589771777391,-0.0167215391993522,-0.0318274572491645,0.6133094394302234,0.3035174755029845,-0.1228850689103372,0.718768321246555,0.0177731774747371,0.0077344453893601,-0.0389579236507415,-0.0061014294624328,-0.0090130865573883,0.0054111033678054,-0.0804279595613479,0.0194981433451175,-0.0779091691106557,-0.2949531376361847,0.0114659083228558,0.3484386495413258,148
1733298856536938800,-0.0835883837908506,-0.1206175532415509,0.1285229195386171,5.750663128858804,1.9195606795109807,7.708147442442178,-0.0120161287486553,0.0606318302452564,-0.0092249689623713,0.6137647005144604,0.3031857764947137,-0.1227689906093789,0.7185395095133701,0.058585587888956,0.0219017695635557,-0.0113358180969953,-0.0034024119377136,-0.0103592276573181,0.0037844777107238,-0.0669522807002067,0.0320716835558414,-0.0241956991016864,-0.1910531520843505,0.0343404418233782,0.2018036433973349,149
1733298856576938800,-0.208285607561469,-0.048097529823333,-0.2936404165029526,5.732606663164496,1.905399321559072,7.725092732024192,-0.0397256836295127,0.028755908831954,0.0493003241717815,0.6137189379504872,0.3018612009767998,-0.1225140643188982,0.7191795232388983,-0.0050352001562714,0.0273487325757741,0.0098901083692908,-0.003949224948883,-0.0254976749420166,0.0103668719530105,-0.0534766055643558,0.0446452237665653,0.0298936184823513,-0.0871531665325164,0.0570537203475832,0.0551976624184288,150
1733298856616938800,0.0457908603161573,0.0916129925534129,-0.1669090565562248,5.744286579564213,1.8858479411318896,7.721213844764232,-0.0295964926481246,-0.0622905269265174,0.0149798495694994,0.6133242422313833,0.301745468038901,-0.1236015368473324,0.7193788024844268,0.0103312395513057,0.047493789345026,0.0503386631608009,-0.0111035704612731,-0.0136457085609436,-0.0006677508354187,-0.0387728288769722,0.0317194499075412,0.004089899662137,-0.0482216328382492,0.0232727390378713,0.0147014013790525,151
1733298856656938800,0.0828133077651262,-0.000611702157557,-0.0390840561538934,5.754549614903331,1.8730271841339765,7.716690229859948,-0.0493392422795295,0.0117818731814622,0.0308191403746604,0.6132078168752552,0.3017634775847025,-0.1244873057130481,0.7193176562310646,0.0780333206057548,0.0604545958340168,0.0906119793653488,-0.0057420134544372,-0.0033310651779174,-0.0091091245412826,-0.0442521199584007,0.0209337156265974,-0.0019306758016347,-0.0646798908710479,0.0370686246782541,0.0289320982401259,152
1733298856696938800,0.1706698703944683,0.1636388027139008,-0.0681231036335229,5.749293009549379,1.8444978397421536,7.727473489680886,-0.0888489335775375,0.0050492668524384,-0.0056259590201079,0.6134232129500173,0.3004522454295759,-0.1254470340199824,0.7195161394673436,0.0415935553610324,0.0425675250589847,0.0728382468223571,-0.002996027469635,-0.0011778473854064,-0.0132653713226318,-0.0497314110398292,0.0101479813456535,-0.0078881229013204,-0.0811381489038467,0.050822643938288,0.0431709601413458,153
1733298856736938800,0.0971925462514162,-0.0150400404825806,0.1038777231037616,5.754236311170459,1.8255054083719848,7.728304095286131,-0.0423066318035125,-0.0319331176578998,-0.0051311375573277,0.6139016009529148,0.2999019744076172,-0.1265897546755515,0.7191374307608239,0.0363577790558338,0.0141958072781562,0.0423408597707748,0.0028687715530395,0.0052624642848968,-0.0066239088773727,-0.040531862527132,0.0283110104501247,-0.0447509958744049,-0.0493432767689228,0.0281646027326583,0.0580303285610862,154
1733298856776938800,0.171610366114974,0.0239724117398262,0.0639653994321823,5.75688185724318,1.8173184486545624,7.728263178753853,-0.041645348072052,0.0149503741413354,-0.0083330366760492,0.6141891921680245,0.2996732530440175,-0.127138478020687,0.7188903207926728,0.0035561572294682,0.0009525460191071,0.0346647650003433,0.0001135468482971,0.0027191340923309,-0.0072018653154373,-0.0401042439043521,0.0209492873400449,-0.0125017541766166,-0.0521996766328811,0.0357891793269664,-0.0042685989635996,155
1733298856816938800,0.0472615173906087,0.0477984007462859,-0.0864116245180368,5.745359761753678,1.8021712945356965,7.740375056830048,-0.065546803176403,0.0383981689810752,-0.0019119150238111,0.6146941556872453,0.2985153246420169,-0.1274335015528447,0.7188883724802102,0.0601960010826587,0.0129438014701008,0.0263420529663562,-0.0067415833473205,0.0061734318733215,-0.0077550262212753,-0.039676621556282,0.0135875642299652,0.0197860659658908,-0.0550560727715492,0.0433863564576953,-0.0665595806438475,156
1733298856856938800,0.1117933185338973,0.0958912543945014,0.0585153173327445,5.747566331887245,1.7844548744507134,7.742841154682636,-0.0321414731442928,-0.0430338233709335,-0.0114329298958182,0.615078868035073,0.2979032047876387,-0.1283691760643986,0.7186467284351145,0.0570143237709999,0.0100046843290328,0.0248741172254085,-0.0063986778259277,0.0019359588623046,-0.0030159205198287,-0.042649183422327,0.0260671600699424,-0.0621019436478614,-0.0369606502354145,0.0407326270785182,-0.0281935365661978,157
1733298856896938800,0.1177577798962593,0.1605935897991061,-0.0620674568563699,5.745941361033916,1.782001782210171,7.744611671486496,-0.078957512974739,0.0517956018447876,-0.0410310961306095,0.6157707334718863,0.2976174307135212,-0.1286800377514372,0.7181168285161612,0.0201268792152404,-0.0021973876282572,0.0126878917217254,-0.004194438457489,-0.0017103254795074,0.0014677047729492,-0.0463641695678234,0.0229695495218038,-0.0417436307519674,-0.0176627747714519,0.0427086033266037,-0.0275297388952225,158
1733298856936938800,0.0262152222305536,0.1255355742909014,0.1246621524572372,5.73034339440763,1.7663326500438152,7.759743189644813,-0.0553201772272586,-0.0102569628506898,-0.0642609670758247,0.6170920462264247,0.2961121710905472,-0.1291540769015101,0.7175194831768867,0.044833555817604,0.0062218764796853,0.0079609807580709,-0.003214418888092,0.0007435977458953,-0.0037828236818313,-0.0594110898673534,0.0292966030538082,-0.0349152460366487,-0.0110219344496726,0.0538916761200875,-0.1147629454618319,159
1733298856976938800,0.0015425532668828,-0.0083586630225181,0.1301882224023342,5.731373321977258,1.7721370985388756,7.757658784586191,-0.0270046927034854,0.0172593388706445,-0.0548605807125568,0.618097101993739,0.2961880802098385,-0.1293912573971347,0.7165797028669998,0.0592593662440776,0.0053398376330733,0.0050753788091242,-0.0095167756080627,-0.0029301345348358,0.0009707063436508,-0.0767906829714775,0.0220294911414384,-0.0281377147257328,-0.0065159294754266,0.0463111578632146,-0.0564924697356298,160
1733298857016938800,0.0274801275998353,-0.0289148365780711,0.1374123284369707,5.712767990228533,1.773390167339891,7.771084667870402,-0.0173525121062994,0.0458502583205699,-0.0350441895425319,0.6190376009735356,0.2952336575150525,-0.1289264691123967,0.7162454802287921,0.0463145412504673,-0.0032045950647443,0.0113106379285454,-0.002919852733612,-0.0008963346481323,-0.0023327469825744,-0.0941702723503112,0.0147623782977461,-0.0213525846302509,-0.0020099240355193,0.0387039707951247,0.0017937515489757,161
1733298857056938800,0.0182020116448402,-0.0283785377442836,-0.0184849202394485,5.703491043317317,1.7797371982790529,7.776446487164497,-0.0024977975990623,0.0121990554034709,-0.0308809820562601,0.6196070783412387,0.2949489829498732,-0.128517244336494,0.7159438934704191,0.0484911426901817,-0.009746597148478,-0.0065153632313013,-0.0022929906845092,-0.0003254115581512,0.0039898753166198,-0.0836009383201599,0.0206091217696666,-0.035069559815526,0.0363059118390083,0.0467660620238631,0.0511552734261378,162
1733298857096938800,0.076948215124011,-0.0103150577872991,-0.1342097330033779,5.696369813135266,1.782024286302924,7.78114019793868,-0.0226055812090635,0.0152446394786238,-0.0293576810508966,0.620083164360336,0.2946298431532011,-0.128318046024103,0.715698667164099,0.0576593391597271,-0.0045760162174701,-0.0140825361013412,-0.0067299008369445,-0.0018736720085144,0.0052627921104431,-0.0611021146178245,0.0182253159582614,0.0158428812980651,0.0339482948184013,0.0643883740846067,-0.0012209566297009,163
1733298857136938800,0.040832361125946,-0.0424171460993587,-0.0800064336508512,5.6908864132881165,1.7827023316949604,7.784996288844942,-0.0041363900527358,0.0097663821652531,-0.0109672285616397,0.6205062760649368,0.2943347250485239,-0.1282291458115067,0.7154693200066412,0.0571951530873775,0.0022897191811352,-0.0035778302699327,-0.006935179233551,-0.0022474527359008,0.0053464174270629,-0.0604223795235157,0.0187460426241159,-0.0181599260687828,0.0138535555452108,0.0431074664510786,0.0223693604573607,164
1733298857176938800,0.0574000495672225,0.096646310545504,-0.1576280179917812,5.6904790015310045,1.7802580072827636,7.785853197935223,-0.0464948117733001,-0.0227758586406707,-0.0388510972261428,0.6210153770850239,0.2941360986449498,-0.1285142501056733,0.715057988381326,0.0309140123426914,-0.0031598540954291,-0.0229018609970808,-0.0008764266967773,-0.0036582350730895,0.0112972259521484,-0.0474052801728248,0.0426436364650726,-0.055604982843995,0.0547110736370086,0.0216110894359648,0.0888152881262824,165
1733298857216938800,0.0554191048830747,0.0023268355123698,0.0624281068623065,5.699792773321271,1.7770139107950031,7.77977943097949,-0.0164884030818939,-0.0340006537735462,-0.0277802236378192,0.6215423122779694,0.2943363868726478,-0.1292583815806339,0.7143832577346081,0.0278082340955734,0.009909875690937,-0.0258310716599226,-0.0079972147941589,-0.0069436430931091,0.0052341818809509,-0.0487630851566791,0.0277868974953889,-0.0430383467376232,0.043948471546173,0.0354238531459122,0.0704072690479457,166
1733298857256938800,0.0568166967213153,0.0774747232161462,0.011290624821186,5.697946268671751,1.7798270685195925,7.78048845603168,-0.0381880030035972,0.0268206018954515,-0.0417528301477432,0.6222130935379688,0.2942357805389471,-0.1293475261921373,0.7138244428752577,0.0802599936723709,0.011282255873084,0.0048868935555219,-0.003711998462677,-0.0054080188274383,-0.001175045967102,-0.0501208901405334,0.0129301575943827,-0.0304267024457454,0.0331858694553375,0.0492727110825479,0.0520172788166441,167
1733298857296938800,-0.0130132108300924,0.0309866744160652,-0.0701169077992439,5.691760273513197,1.7760370285868643,7.785880670464039,-0.033218327909708,-0.0148904835805296,-0.0338964723050594,0.6229785914328408,0.2936840628203618,-0.1295385110861638,0.7133492274021384,0.0277448520064353,0.0095508275553584,0.0021500964649021,-0.0020318031311035,-0.0090568363666534,0.001871183514595,-0.0573350265622139,0.0244578383862972,-0.0612193155944347,0.0266711693257093,0.0396935663543641,0.0512201005569659,168
1733298857336938500,0.0359954424887895,-0.0026570903800427,0.1076730237334966,5.6984162242710585,1.7751142146535217,7.781220861959457,-0.0272842217236757,-0.0198837853968143,-0.042361095547676,0.6236994863477141,0.2938137169040586,-0.1301600291857273,0.7125522734559036,0.0497217886149883,0.0085279606282711,-0.0200715847313404,-0.0044522881507873,-0.0039901435375213,-0.004155158996582,-0.0583846718072891,0.0355637669563293,-0.0232516962498426,0.0176152698695659,0.0461651735212653,0.0146718647573143,169
1733298857376938800,0.0669639967262744,0.043407033919543,0.0365706120282411,5.690342807930708,1.7733431133277713,7.787530775758624,-0.0487643405795097,0.0422918461263179,-0.0305174421519041,0.6244185009731625,0.2932603696947749,-0.1301721476565788,0.7121482383263525,0.0525186397135257,-0.0008955279481597,-0.0037949446123093,0.0023421645164489,-0.0083941519260406,-0.0040781497955322,-0.0610983408987522,0.0364232473075389,-0.0202495918244123,0.0253782793879508,0.0385424235578626,0.0426071157135069,170
1733298857416938800,0.0368283861815929,0.0016182488515973,0.0489759200930595,5.683966258636117,1.7687440950997173,7.793231033226847,-0.0121939033269882,-0.0258866921067237,-0.0364321395754814,0.6251626724335725,0.2926740061724735,-0.1303753240099196,0.7116991996682788,0.0221181251108646,0.0087859677150845,-0.0017699436284601,-0.0071534514427185,-0.009414792060852,0.000749334692955,-0.0638120099902153,0.0372827313840389,-0.0172311207860708,0.0331412851810455,0.0309334098588675,0.0705698391985148,171
1733298857456938800,0.088031919196248,0.0283494577802717,0.026434417939186,5.688129223534465,1.7773273606583475,7.788239216288924,-0.0241557843983173,0.0024799806997179,-0.0518264845013618,0.6258018970462568,0.2930554098977144,-0.1304945282695854,0.710958209177479,0.0605241023004055,0.0063705872744321,0.0039710327982902,-0.0038009285926818,-0.003848373889923,-0.0006986111402511,-0.0536796525120735,0.0161175187677145,-0.0090717797279357,0.0268531627953052,0.0436415002625435,0.0428915404117666,172
1733298857496938800,0.0517716882914304,0.0074253276951611,0.038504794961214,5.671417158186435,1.776703675802052,7.800559768679737,-0.0309144798666238,0.0545550435781478,-0.0481182560324668,0.6268465232917048,0.2921045953848264,-0.1302191797587084,0.7104796402638843,0.0611190535128116,0.0013702362775802,0.0144182806834578,-0.0050148963928222,-0.0040815472602844,-0.0018666535615921,-0.0559604838490486,0.0153944622725248,-0.0479307949542999,0.0079413130879402,0.0223560625843703,0.0440144982933998,173
1733298857536938800,-0.0884568666100502,0.0180095578126609,-0.1292079791933298,5.665300721132755,1.7812329897947607,7.803971038427949,-0.0132784452289342,-0.0328079648315906,-0.0438148826360702,0.6276130605766496,0.2918616061385413,-0.1300961949238222,0.7099250804959393,0.0217522047460079,0.0025899107567965,-0.0078878235071897,-0.003560185432434,-0.0008958578109741,0.0033459663391113,-0.053583838045597,0.019460305571556,-0.0526473020821809,0.0095059126615524,0.0339740927290171,0.1067348478342406,174
1733298857576938800,-0.0177151049107313,-0.0548499266929924,0.1158931550681591,5.676710003897547,1.7861570021934807,7.79454913008809,-0.0048149693757295,-0.0341151691973209,-0.0427397340536117,0.6282118545773826,0.2924342528546149,-0.130655292397894,0.7090566254744585,0.0626160129904747,0.0052362936548888,-0.0150238303467631,-0.0025619268417358,0.0018353462219238,-0.0002492815256118,-0.050474613904953,0.0268055088818073,-0.0660182403087615,0.0137437339872121,0.0299247442729771,0.1052752327436115,175
1733298857616938800,-0.0375005863547325,-0.0042684710994362,-0.0983697733372449,5.667614843294024,1.7837585627496242,7.801713030368089,-0.0672425925731659,0.0696728974580764,-0.0166393667459487,0.6288072344276846,0.2918368163831661,-0.1305932617649152,0.7087863772082972,0.0480125732719898,0.0139438183978199,-0.0069675021804869,-0.0087989568710327,-0.0070696175098419,0.0001460462808609,-0.0473653860390186,0.0341507121920585,-0.0793809952288866,0.0179815553128719,0.025884382840991,0.1038292717189993,176
1733298857656938800,-0.1782207241654396,-0.0291809401683509,-0.0982639748752117,5.659296512281895,1.7693167804211376,7.811035569986701,-0.0307857170701026,-0.0591854006052017,-0.015679208561778,0.629502124715929,0.290811587422193,-0.1310597341443658,0.7085048995275992,0.0192384459078311,0.0116073740646243,-0.0081188529729843,-0.0080463886260986,-0.0092730820178985,0.0018762350082397,-0.0414966903626918,0.0259048957377672,-0.0030693244427442,0.005161365494132,0.0465805493891239,0.037008985179197,177
1733298857696938800,0.1040671081960201,0.0510002655275166,0.1344143156647682,5.686309606891871,1.771735239739716,7.790842092263698,-0.0009494361001998,-0.0715661495923996,-0.019737783819437,0.6294898779727524,0.2920868147385271,-0.132147256868743,0.7077887120901301,0.0534339696168899,0.0131561616435647,0.0008575977990403,-0.0047008991241455,-0.0005223751068115,0.0002548247575759,-0.047498594969511,0.0125127602368593,-0.0227688811689615,0.0128043508157134,0.0075904551289975,0.0536680782309733,178
1733298857736938800,0.1861263827234506,0.1097046756915748,0.1562964771270751,5.682211523923278,1.766601091721654,7.79499687385559,-0.0535187125205993,0.0725034102797508,-0.0416417382657527,0.6300955067702538,0.2916045400473245,-0.1324105168978154,0.7073994086419736,0.0595006495714187,0.0259308665990829,0.0054462244734168,-0.0093370079994201,-0.0048899054527282,-0.0067143440246582,-0.0588812045753002,0.0197921767830848,-0.0131260235548019,0.0242373459041118,0.0372214771524071,0.1267873187845107,179
1733298857776938800,-0.0984288100481033,0.0033919805258512,-0.122778822928667,5.662403830647468,1.762780948911607,7.810260493960976,-0.0146123981103301,0.001091816695407,-0.0253735389560461,0.630990240791505,0.2904298641681199,-0.1320530884720741,0.707151929206739,0.0443595126271247,0.0240324046462774,0.0006202433723956,-0.0029267072677612,0.0012420117855072,-0.0012338906526565,-0.0366792827844619,0.0159338880330324,-0.0807324098378419,0.0264651048928499,0.0060773471523076,0.1246155825023073,180
1733298857816784600,0.0675356591343879,0.0795635121889412,-0.0804945094287395,5.676902896121144,1.76621647631824,7.79895174896121,-0.0243939738720655,-0.0697340071201324,-0.0438491888344287,0.631398178783498,0.2911138331294953,-0.1327285633961956,0.7063797277261313,0.0412920862436294,0.0214237850159406,-0.0053530936129391,-0.0031455755233764,-0.0042203664779663,-0.0026361793279647,-0.0497969426214695,0.0271899495273828,-0.0202752468554768,-0.0044326866045594,0.0203473439773078,0.0005804679107211,181
1733298857856784600,0.0792161600559949,-0.018905483739078,0.0290092368632555,5.679736658242344,1.7615850171253085,7.797935265395044,-0.0555073656141757,0.025900226086378,-0.0261019133031368,0.6321181323300995,0.2909306120081525,-0.1333241163197834,0.7056988406224275,0.0869285464286804,0.0372879691421985,0.0007501391228288,-0.0148296356201171,0.0038592815399169,-0.0108037441968917,-0.0607141368091106,0.0228958763182163,-0.0279050750136375,-0.0059422976337373,0.0032746377564966,0.0149579334233887,182
1733298857896784600,0.0437631538808345,0.0769872319601476,-0.0717588297873735,5.677181713062525,1.755624501285702,7.801139614394307,-0.0395692661404609,-0.0546148605644702,-0.058764811605215,0.632945883261963,0.2904418305744816,-0.1337763724419858,0.7050723360598555,0.0667508393526077,0.0185467731207609,0.0063341222703456,-0.0050761699676513,-0.0020127296447753,-0.0032164454460144,-0.0638992562890052,0.0180140063166618,-0.0314729966282844,-0.0011214390397071,-0.0184762254763394,0.0162360636004246,183
1733298857936784400,-0.0033113165050745,0.0040665187865495,0.0916559549123048,5.688792071357369,1.7606098884828387,7.791552286359667,-0.031084606423974,-0.0189581960439682,-0.0412537194788455,0.6337422454305296,0.2909806465496861,-0.1344308515038769,0.7040095656886943,0.0120021058246493,0.0216179825365543,-0.0301999878138303,-0.0091739892959594,-0.0010683834552764,0.0011517852544784,-0.0557752773165702,0.0180199686437845,-0.0057826750546693,0.0090180542320013,-0.0133572019621729,0.0179111937384121,184
1733298857976784600,-0.0977817443162202,0.1446231365986168,0.1288508363187313,5.683154942253232,1.749340160319209,7.798201222854852,-0.0562747679650783,-6.09446724411e-05,-0.0347737446427345,0.6345972626398899,0.290153626457949,-0.1349564695838546,0.7034799725098433,0.0843010693788528,0.0118904681876301,-0.0207450333982706,-0.003263771533966,0.0036045908927917,-0.0069543719291687,-0.0482011474668979,0.0027004098519682,0.0270493349671363,0.0068215876817703,-0.0048355303976684,0.0300056092231534,185
1733298858016784600,-0.0758884769380092,0.1194455868527293,0.1431201846897602,5.691488470834494,1.7498275054447352,7.792012305086851,0.0028240419924259,-0.0376893989741802,-0.0196871440857648,0.634992042846035,0.2904577848114474,-0.1354703655802648,0.7028991984755144,-0.0282206796109676,0.0107249096035957,-0.0359811745584011,-0.002351701259613,-0.0137986242771148,0.0031760931015014,-0.0353364199399948,-0.0025018467567861,-0.0219037887722253,0.0255187693983316,-0.0122127081021666,0.095384784443397,186
1733298858056784600,-0.0096305826544761,0.2121454978600144,0.0933089828163385,5.69570988792181,1.7581328308448194,7.7870561439841985,0.0054829022847115,-0.0118582295253872,-0.0443350784480571,0.6353272873753689,0.2908852231871688,-0.1354858948080032,0.7024162550835351,0.0622192062437534,0.0174392163753509,-0.035372044891119,0.0021740794181823,0.0054644048213958,-0.00307297706604,-0.0270927995443344,-0.0012660357169806,-0.0289811798125505,0.0308893285691738,-0.0040030981615185,0.0655651262464001,187
1733298858096784600,0.0620750556409358,0.0947993675045669,0.1795557721614837,5.694932473808526,1.7701342342838644,7.784905687952041,-0.0089587960392236,-0.004207213409245,-0.0835162252187728,0.6362801805613999,0.2911143459286052,-0.1353983232958541,0.7014751453405608,0.0271011628210544,0.0388127863407135,-0.0433795042335987,-0.0012212395668029,-0.0131221115589141,-0.0037039965391159,-0.0416199788451194,0.00093889166601,-0.0497726234287023,0.0149716101586818,-0.0102574093159288,0.0492231089203152,188
1733298858136784600,-0.1206885726511478,-0.1230979718804359,0.0054535892307758,5.681072290760278,1.786619505138695,7.791264701589942,-0.0261466167867183,0.0504573546350002,-0.0776522532105445,0.6376059827301831,0.2908730660577655,-0.1347179549495792,0.7005017506466258,0.0582718662917614,0.0397331751883029,-0.041371215134859,-0.0007100105285644,-0.004463255405426,-0.0120524615049362,-0.0454676039516925,0.0033670912962406,-0.0218657948493957,0.0112464148551225,-0.0144927087981253,0.0422412689426448,189
1733298858176784600,-0.2573328393250703,-0.1608124932467937,-0.0519037902384996,5.66478692639172,1.7930596211887897,7.801635288956761,-0.0152826365083456,0.0030698573682457,-0.049330361187458,0.6387442675475827,0.290190702166974,-0.1342261253920586,0.6998417572773151,0.0532808378338813,0.0235658194869756,-0.0228764936327934,-0.010075569152832,-0.0169127583503723,-0.0146604627370834,-0.0493152290582656,0.0057952906936407,0.0060492170363664,0.0075212195515632,-0.0187157333206385,0.0352674387414939,190
1733298858216784600,-0.1274310326486825,-0.1491496741123497,-0.0795674577116966,5.666715848627686,1.7968094752416013,7.799371435678005,-0.0064191911369562,-0.0108384592458605,-0.0044833687134087,0.639104096101202,0.2903451493944652,-0.1343220823549306,0.6994306777037652,0.0123669588938355,0.0112951984629035,-0.0208533573895692,-0.0128081440925598,-0.0173948109149932,-0.0104408413171768,-0.0450968071818351,-0.0019886270165443,0.0163707045644521,0.0022177384234964,-0.0209008222747594,0.0920764453466981,191
1733298858256784600,-0.1079728834629058,-0.0127107207521796,-0.1553179874837398,5.669404064798354,1.7881608893617986,7.799404753425716,-0.0346437059342861,-0.0162562783807516,0.0177297368645668,0.6391200335710128,0.2901347815159697,-0.1347695090195498,0.6994172639763815,0.0612127967178821,0.0009446630720049,0.009457011707127,-0.0070693492889404,-0.0073792338371276,-0.0109003633260726,-0.0324065200984478,-0.0195320285856723,0.0031628479450941,0.009160247631371,0.0051163201004266,0.1425630074647255,192
1733298858296784600,0.0822182644814252,0.1183412788726389,0.0509708933025598,5.686311360457539,1.7693372386872768,7.791386282142996,-0.0428630262613296,-0.0624153614044189,0.0112870847806334,0.63898791661339,0.290186559695643,-0.1361675769743003,0.6992458417004621,0.0004517103079706,-0.0034664368722587,0.0146138239651918,0.0024521350860595,-0.0110014081001281,0.0050586760044097,-0.015592036768794,-0.0281230919063091,-0.0288461552560329,0.0061863269656896,0.025991496477276,0.1240871747140306,193
1733298858336784600,0.1118833349049091,0.0825178319498896,0.1315408060550689,5.696749167841673,1.7590720113910734,7.786083499559759,-0.014735335484147,0.002693424699828,0.0095098102465271,0.6389795570523231,0.2902550971514929,-0.1370116334661166,0.6990600417790748,0.0220954865217208,0.00629777694121,-0.0022881948389112,-0.0014984607696533,-0.000305950641632,0.0093980431556701,-0.0100730862468481,-0.0213832482695579,-0.0570715482652187,-0.0034814998507499,0.0475919183887541,0.0889784975976683,194
1733298858376784600,0.0683382076889276,0.243304898494482,-0.2471031217336654,5.696151201948523,1.75211240151152,7.788090163207054,-0.0511912368237972,-0.0143599677830934,-0.01523192320019,0.6390773904080568,0.2899499805788352,-0.1372841148451397,0.6990437584279516,0.0380883030593395,0.0296674408018589,0.0057692658156156,-0.0063041448593139,-0.0059710443019866,0.0088024288415908,-0.0208066049963235,-0.0072648879140615,-0.057354456859827,-0.0242599882185459,0.0597463204324245,0.0808900024191942,195
1733298858416784600,-0.0329442382246255,0.0989100176937878,-0.0268307237803935,5.708997239518165,1.7395372898377477,7.781499678900837,-0.0637108907103538,-0.0744941085577011,-0.0386918671429157,0.6397508715737464,0.2899007420123775,-0.1386055080990785,0.6981867622970362,0.0210765600204467,0.0413887053728103,0.0090325037017464,-0.0131057500839233,-0.0076639652252197,0.0086631178855896,-0.0305507946759462,-0.0091648139059543,-0.0430377622157335,-0.0272448882460594,0.0594159924995154,0.0672654730240348,196
1733298858456784600,0.0425806660979986,-0.0788844438835978,0.3525257361918688,5.7240030854702,1.7358213380545378,7.771299771925807,-0.0091170258820056,-0.0243703704327344,-0.0248589180409908,0.6403095420428732,0.290296671860751,-0.1396489731545138,0.6973017321786298,0.0083842016756534,0.0379629246890544,0.0116418683901429,-0.0041775107383728,-0.001521348953247,0.0128365606069564,-0.0434848554432392,-0.0048120687715709,-0.0565963319689035,-0.0422527827322483,0.0531555438652634,0.0491659445061348,197
1733298858496784600,0.0355658188998699,-0.0081010349996387,-0.0374433032095432,5.718748233681917,1.7343205781027673,7.775502484312653,-0.0489706248044967,0.0348743088543415,-0.0158308129757642,0.6407092282820525,0.2899341769438451,-0.1396347527176301,0.6970883507755407,0.0320024453103542,0.0556700155138969,0.0251505523920059,-0.0117598176002502,0.001072883605957,0.0009892582893371,-0.0475219637155532,-0.0033946582116186,-0.0431774629473686,-0.0425093658268451,0.0670214990671724,0.0644062202685512,198
1733298858536784600,-0.0970078373342752,0.0055598260842263,-0.0805593913584947,5.715899858513474,1.7187141359090805,7.781060118439793,-0.0405224710702896,-0.0423324145376682,-0.0026019697543233,0.6411888928150856,0.2891307162043802,-0.1402845745272841,0.6968504360869583,0.0137025350704789,0.0528367273509502,0.0134807154536247,-0.0070337653160095,0.0005436539649963,0.0048354119062423,-0.0526631996035575,-0.0105226207524538,-0.0283189165115356,-0.0403276197612285,0.0640604573044925,0.044705640629027,199
1733298858576784600,0.0265443080544471,-0.0605384937234222,0.0493932687222957,5.736448725545406,1.7155305374369023,7.766627688461542,0.0046662241220474,-0.0471121966838836,0.020107127726078,0.640988846775106,0.2899350205802939,-0.1412440630547308,0.6965064465835998,0.0179441515356302,0.0505967959761619,0.0073965904302895,-0.0119935870170593,0.0067772567272186,0.0024410039186477,-0.0492691621184349,-0.0158030018210411,-0.0335474648147821,-0.0405828580260276,0.0634466362550854,0.0698390407059341,200
1733298858616784600,0.1082534539699554,0.1428233937002718,-0.1798947948575019,5.740332288980484,1.701609710242599,7.766819996163249,-0.0495519116520881,0.0109224775806069,0.0212083496153354,0.6407444009291928,0.2896301080931021,-0.1418336149042247,0.6967383636490715,0.0307824499905109,0.0452773980796337,0.0074200262315571,-0.0102975964546203,0.0067835748195648,0.0050268173217773,-0.0378718972206115,-0.0138804437592625,-0.0037742578417062,-0.0361793301999568,0.0795951494362205,0.0585607091107405,201
1733298858656784600,-0.0287906256765127,0.1242474341765046,-0.2381827331751584,5.747640566167235,1.6860684422396122,7.764804564687609,-0.027638554573059,-0.0673218369483947,0.0178264584392309,0.6406614468353019,0.2893792697449585,-0.1427052428309476,0.6967408785499998,-0.0051931254565715,0.0430731028318405,-0.0096516348421573,-0.0039611458778381,0.0033446848392486,0.0035886168479919,-0.0264746360480785,-0.011957885697484,0.0260229145288467,-0.0317758023738861,0.0957245925907045,0.0472721483824774,202
1733298858696784400,0.1147492457300424,0.1857392831020057,0.0548234770774841,5.779625603970885,1.6717122923679648,7.74413879327774,-0.0487971492111682,-0.1034007593989372,-0.0047324169427156,0.6404727590473548,0.2902558058263566,-0.1446041607889721,0.6961578911512223,-0.0037102778442204,0.0360336750745773,-0.0157473441213369,-0.0044060945510864,0.0014980435371398,0.0034764856100082,-0.0251106936484575,-0.0324593186378479,0.0162286657452583,-0.0360220484435558,0.1015412429802119,0.0202322388308122,203
1733298858736784600,0.1802554448634385,0.0737276456423103,0.2688952668249607,5.793576972433924,1.6598239939145742,7.73626762151122,-0.0417448095977306,0.0061817960813641,-0.0130555760115385,0.6407660014778233,0.29034898613713,-0.1457997849669262,0.6955996942923958,0.0277552381157875,0.0482379794120788,0.0075740902684628,-0.0064100623130798,0.0021587908267974,0.0026736855506896,-0.0254976972937583,-0.0224569533020257,-0.0208966575562953,-0.0335129648447036,0.1060503909677267,-0.0119206298204138,204
1733298858776784600,-0.0155564655721187,0.0648551878787577,0.0125730658471584,5.788874493831396,1.656725589507818,7.740450460153817,-0.0111555270850658,0.0022066382225602,-0.0115367453545331,0.6411076657478487,0.2899591944694631,-0.1458441473711779,0.6954380248973288,0.0128889391198754,0.049544371664524,0.004997082054615,-0.0096511840820312,-0.001213788986206,-0.0029286593198776,-0.0258847009390592,-0.0124545879662036,-0.0579886631101369,-0.0310038793832063,0.1105468256041407,-0.0440834353437647,205
1733298858816784600,0.0785655871927738,0.1466900060005486,-0.1505085413753986,5.791867245906591,1.649858918608725,7.739678891259431,-0.0612186416983604,-0.0145043078809976,-0.0325453877449035,0.6415725904555726,0.2897324656184067,-0.1464284967776008,0.6949809289863113,0.004360431805253,0.0264707431197166,-0.0139845982193946,0.0040205121040344,0.0031268298625946,-0.0010540932416915,-0.0887466371059417,-0.0084550622850656,-0.0055745852619409,-0.0511264652013778,0.2566747407425195,-0.1415867645774036,206
1733298858856784600,0.0774351218581199,0.1212615502335131,-0.3438181136012077,5.786264019072055,1.631593194077909,7.74773711003065,-0.1194495111703872,0.0205339808017015,-0.0371262617409229,0.6426021041738705,0.2885895761134721,-0.1472799794334385,0.6943249493701832,0.0113560231402516,0.0275575779378414,0.0092480862513184,-0.0114153027534484,0.0003788173198699,-0.0011717677116394,-0.4250819683074951,-0.0541747361421585,0.0037163901746273,-0.0539857409894466,0.5411559914950281,-0.2979683992372826,207
1733298858896784600,0.4996048876404762,0.489875520786643,-0.5922504381120205,5.792656350457668,1.5933793448872864,7.750913401979208,-0.2153392881155014,-0.0615574270486831,-0.1276034265756607,0.6444740146681495,0.2870268385603691,-0.1497630913432854,0.6927047315510418,0.0423778556287288,0.0353021062910556,0.0380312651395797,0.0022665858268737,0.0138362348079681,0.0044806599617004,-0.7614173293113708,-0.0998944193124771,0.01312953068614,-0.0568450167775154,0.8250846498660743,-0.4546709364145994,208
1733298858936784400,1.3435340848386288,0.8926372601352631,-1.0747978079676628,5.800165118652582,1.557080097146332,7.752675150954722,-0.4674811661243438,-0.1137283816933631,-0.4086218774318695,0.6495181380629294,0.2848692836217445,-0.1535352400471133,0.688042555960781,0.1461316794157028,0.1056040748953819,0.0938565135002136,-0.0165073275566101,0.0295354127883911,0.008853793144226,-1.255056858062744,-0.126288041472435,-0.1709229683727026,-0.1630826890468597,0.9446084165215493,-0.3391671094575896,209
1733298858976784600,1.4799439582347869,0.76233987827003,-1.3211843058645725,5.782417865037917,1.4796803388625384,7.781039660173654,-0.961661696434021,-0.015490892343223,-0.7766587138175964,0.6616307409718151,0.2784006525555554,-0.1605318507580359,0.6774713586421505,0.3254550993442535,0.1975401639938354,0.1695063263177871,-0.0290505290031433,0.0515875220298767,0.0099727660417556,-1.654242753982544,-0.0968422219157219,-0.291893865096569,-0.2800621092319488,0.8877056489519775,0.1110900291027501,210
1733298859016784600,1.603297366181016,0.0220319451965391,-0.6833043354779481,5.752587959441542,1.3389222071290017,7.828499915006756,-1.155936360359192,-0.1936221122741699,-1.0093486309051514,0.679558548674815,0.2673167229948117,-0.1714623950442325,0.6613189572871512,0.496665209531784,0.2993174493312835,0.2272188365459442,-0.0345751643180847,0.076549082994461,0.0108749866485595,-1.8984453678131104,0.063428409397602,-0.2554015790015458,-0.4814387857913971,0.9070227091666312,0.4433184253383427,211
1733298859056784600,2.309053771963715,0.1344349200613796,-0.8271347142636776,5.811030796059966,1.2815858704477547,7.794860095733403,-0.9027259349822998,-0.7006019949913025,-1.3459434509277344,0.6982537293501904,0.2622020872929581,-0.1839097438326845,0.6402101912290278,0.6856343150138855,0.3290002942085266,0.2817058265209198,-0.038962185382843,0.1041220426559448,-0.0021337270736694,-1.931785225868225,0.1424798369407653,-0.3147194448888302,-0.634269118309021,0.9212702110320328,0.9842302328139544,212
1733298859096784600,1.4591402396589517,-0.0484516039580106,0.1237643268346786,5.872054296821355,1.425416541494429,7.723829580220579,-0.4303525984287262,-0.0712510645389556,-1.309898018836975,0.717645200251922,0.2645083595138486,-0.1903407767672707,0.6154599950511623,0.7691521048545837,0.3389632403850555,0.2664649486541748,-0.0516543984413147,0.1056080162525177,0.0057251453399658,-1.8230152130126955,0.2591977417469024,-0.0809533591121435,-0.6901819109916687,1.0299084265358744,1.3228629066012798,213
1733298859136784600,0.2175011796742677,-0.3233822054244578,-1.4437246438622473,5.839978658124804,1.4936979044295846,7.735237693941593,-0.9144973754882812,-0.3687812983989715,-1.0993373394012451,0.7350042118909882,0.2607077007249498,-0.1940209262061586,0.5951103519174803,0.8766247630119324,0.3233655393123626,0.2692368626594543,-0.0691859722137451,0.1166651248931884,0.0061771869659423,-1.5916600227355957,0.2020325660705566,0.2915074961274862,-0.715908944606781,1.1773530502960086,1.35706196719259,214
1733298859176784600,-0.3475339192539453,0.8184557332456112,0.1510065540254116,5.878588667026162,1.461273160034418,7.712149663820862,-0.6745507717132568,0.2156059890985489,-0.6343631148338318,0.7489821067619558,0.2558897405253819,-0.203249175047017,0.5763990938106973,0.9295161962509156,0.2284047156572342,0.3332946896553039,-0.0250720381736755,0.125179648399353,0.0066078454256057,-1.3011887073516846,0.1050338298082351,0.3387468016862869,-0.6388067603111267,1.0670372569687665,1.4272737136684357,215
1733298859216784600,-0.7784101385831832,-0.0401648371279239,-2.04581901511848,5.745480757784844,1.2315794382631775,7.851309128186106,-1.009635090827942,0.1522600650787353,0.3814094960689544,0.7549785166322341,0.2396600435002859,-0.2055668006095728,0.5747285398244995,0.7089691758155823,0.0832596197724342,0.3714804053306579,-0.004572570323944,0.1147361993789672,0.0377498418092727,-0.9388059377670288,0.1071050912141799,0.4661310725837945,-0.4967142343521118,0.9920812385752796,1.2906256476022302,216
1733298859256784600,-0.6925836204767227,0.1492933203667402,-1.0169412468045949,5.82754763109684,0.7385065827399492,7.852686261758207,-1.561167597770691,-0.2330917418003082,0.3209949433803558,0.756184871379811,0.220778783388059,-0.2255685208660537,0.5732015127810394,0.4362647235393524,-0.0544635765254497,0.3596367239952087,0.01761394739151,0.1045495569705963,0.0458510071039199,-0.5474956035614014,0.0947361290454864,0.2302542782634496,-0.3048977255821228,0.7846566317573189,1.356032916405797,217
1733298859296784600,-0.4720218841880559,-0.202647583408188,0.2724760479211807,5.799120578035712,0.202497836206574,7.90566791036129,-1.0518587827682495,0.2455494850873947,0.362393856048584,0.7580215142250085,0.1963130560940463,-0.2416284508352612,0.5731320260067624,0.2014937400817871,-0.1351837217807769,0.3451314270496368,0.0364654064178466,0.0992315709590911,0.0637282729148864,-0.1789467930793762,0.1382600963115692,0.0555313330858945,-0.0701377838850021,0.5126905061196535,1.3687699406430125,218
1733298859336784600,-0.1784925268441438,0.2599959758534096,0.6393769309461116,5.757880220630764,0.0246145843841717,7.938298844853043,0.0129669047892093,0.1492135226726532,-0.1949329674243927,0.7596990591597031,0.1867736909495916,-0.2457132010197716,0.572361607562542,0.1069675013422966,-0.1051833182573318,0.2546504437923431,-0.0061281323432922,0.0822430551052093,0.0586199164390563,0.1605262160301208,0.1813189685344696,-0.0253372703522443,0.0982843935489654,0.107800011114031,0.8928627394542098,219
1733298859376784600,-1.0261702629208564,0.0292905380226671,-0.3599754676759242,5.689925459301471,0.1906766847052611,7.984909204858541,0.5988913774490356,0.2139791995286941,-0.2699110805988312,0.7622901214729798,0.1907785433365833,-0.2376688379290663,0.5709911108535399,0.248651921749115,0.0129276625812053,0.1111314371228218,-0.0185467004776,0.0712109059095382,0.0483203530311584,0.4999992251396179,0.22437784075737,-0.1052466733694076,0.2667065858840942,-0.2978099572725594,0.4161781241521239,220
1733298859416784600,-1.138427691835165,0.2080137318175285,0.3571761923462152,5.611394943422079,0.4673008835481479,8.028964035162328,0.9315382838249208,0.4488859474658966,0.0158273819833993,0.7622199493236981,0.2002613905615461,-0.2247935464320853,0.5730480870423118,0.4882211089134216,0.0582967959344387,0.0902597829699516,-0.0045474171638488,0.0489407926797866,0.0207525491714477,0.5481079816818237,0.2708386182785034,0.0554348869740962,0.3368739187717438,-0.68698901534006,-0.0015372925698757,221
1733298859456784600,-1.0624725794017311,-0.2699003522142768,0.0667383712768554,5.432638797205686,0.8419649113878607,8.12083217152059,1.485362887382507,0.3158226013183594,0.0629377514123916,0.7583279248031423,0.212048950368494,-0.2024549830495896,0.5822251170561342,0.6281326413154602,0.0721368119120597,0.0413659401237964,-0.0351775288581848,0.0051975697278976,-0.0107829719781875,0.5962167382240295,0.3172994256019592,0.2212035413235425,0.4070412516593933,-1.0806270986430346,-0.42352410300076,222
1733298859496784600,-1.5765817932128905,-0.021329057624191,-1.024143725529313,5.536740976715088,1.3435270705759526,7.981843387547135,1.279596924781799,-1.0376163721084597,-0.2660544812679291,0.7522081737617256,0.2386084105875154,-0.1900138647352421,0.5840751531269489,0.3989106714725494,0.0506979972124099,0.003928555175662,-0.0750387907028198,-0.1136556714773178,-0.0204368233680725,0.5870547294616699,0.2232425212860107,0.4323468764036893,0.3854192495346069,-1.2349611896559596,-0.3643636196322738,223
1733298859536784600,-1.5006003772944212,-0.6752354491822421,-0.0083902272045612,5.930322361394762,1.6136128623597323,7.641853307801485,0.2927480340003967,-1.183663845062256,-0.0021131734829396,0.7455010770974196,0.2653234691732499,-0.1999434281526221,0.577801280172116,0.0956410765647888,-0.0678003653883934,0.0796469524502754,0.044213593006134,-0.1332203298807144,-0.0088663399219512,0.5383062362670898,0.1020750626921653,0.3849491654127836,0.3278382122516632,-1.393303931788355,-0.2629436649441719,224
1733298859576784600,-0.3605366086900234,-0.007558744816482,1.2586246815770863,6.098090665128827,1.528475203300267,7.526448813033103,-0.598391592502594,0.0605845972895622,0.3275486528873443,0.7417163768911068,0.2686093005236142,-0.2100165125029963,0.5775801645749267,-0.1614828705787658,-0.1372060626745224,0.2224705517292022,0.0465282201766967,-0.1670581251382827,-0.0170302838087081,0.5203083753585815,0.0225418433547019,0.4991331784754991,0.2949191629886627,-1.3279944242708384,0.2008490278199315,225
1733298859616784600,0.4029173683017492,0.6081362817689776,2.927587236845493,5.954735502639412,1.203975026696548,7.698178421613574,-0.7957951426506042,0.8641586303710938,0.2606164216995239,0.7445468795422501,0.2490240385205342,-0.2132818501754455,0.5815048353277813,-0.434048056602478,-0.1177479550242424,0.3043486475944519,0.0191573500633239,-0.1900160610675811,-0.0038981437683105,0.5332217216491699,-0.0951834097504615,0.2252536934971809,0.3330921232700348,-1.2129789288200437,0.5297064497850835,226
1733298859656784600,-0.1796498801857232,1.1524318864639849,1.3407330559432509,5.587702517667412,0.9065816874008624,8.007876238948107,-0.9121343493461608,1.2847487926483154,0.1609138548374176,0.7505031043848915,0.2224354488161787,-0.2055101322783665,0.5873953411294137,-0.4214047193527221,-0.0232359338551759,0.478080153465271,0.0234835147857666,-0.148969754576683,-0.0076119154691696,0.5277016162872314,-0.1784988492727279,-0.0349894803166389,0.3647109568119049,-1.0843398355558511,0.6437744352526963,227
1733298859696784400,-0.4327209704130887,1.6748690028332174,1.7459686380594968,5.272300351211428,0.6516965334888547,8.243089600923657,-0.4221439361572265,0.6709176301956177,-0.1362639367580413,0.7571410110331055,0.1994070690774823,-0.1998905020406784,0.5890824829165818,-0.313675582408905,0.037267941981554,0.7472658753395081,-0.0151562690734863,-0.1165412217378616,-0.027933120727539,0.4753323495388031,-0.2411639392375946,-0.2568547004193067,0.3904300034046173,-0.9924262526206672,0.8359406826622784,228
1733298859736784600,-1.3970762899339195,0.9523976821582764,0.0471545498847961,5.141308411210775,0.6427391739208251,8.326116843700408,-0.0186724551022052,0.1483940333127975,-0.2188224196434021,0.7621924165260615,0.1932131826032372,-0.1953326711389029,0.586154086393456,-0.3748494684696197,0.1214023157954216,0.9202046394348145,-0.0701990127563476,-0.0783293098211288,-0.0242306441068649,0.424715518951416,-0.2826755940914154,-0.5144733709484338,0.5200253129005432,-1.0080345945104956,0.8348573444049805,229
1733298859776784600,-1.651621544367075,1.3542586002096533,-1.296399408698082,5.136681335932016,0.7114885927591472,8.323381281256676,0.1043905466794967,-0.0241767801344394,-0.0947113111615181,0.7634559125041789,0.1955322377799135,-0.1933721810051398,0.5843881893615878,-0.3412922918796539,0.1759315431118011,1.022621750831604,-0.0820103883743286,-0.0110451653599739,-0.0398864150047302,0.3452293276786804,-0.300004780292511,-0.7305290279895067,0.6025727987289429,-0.9331173006922006,0.8821370550394058,230
1733298859816784600,-3.0897546518325805,0.7468565509993582,-3.182790662926436,5.14577591201365,0.6682661946915089,8.321345976036786,-0.1459118127822876,-0.1519835144281387,0.412192702293396,0.7620786444731942,0.1944606595976094,-0.1947164080203653,0.5860945269376338,-0.4650693833827972,0.2166694402694702,1.094313621520996,-0.1059979200363159,0.0212854668498039,-0.0419638156890869,0.2575479745864868,-0.3415887653827667,-0.902129457232356,0.6415461301803589,-0.9338331938765942,0.8841485409922897,231
1733298859856784600,-1.3822463850706814,1.182793633914739,-3.877368087568879,5.2759664725035424,0.5131990036310627,8.250527057448029,-0.2301127463579177,-0.5421927571296692,0.4414501488208771,0.7551729036963692,0.1944115425001645,-0.2038243015235117,0.5919238302081306,-0.4805833399295807,0.2942929267883301,1.1027209758758545,-0.1316015720367431,0.1088629215955734,-0.0642192512750625,0.1490838825702667,-0.3506714105606079,-0.8388111235320568,0.6139364242553711,-0.8994375877998769,0.9829407775253056,232
1733298859896784600,-0.8655705356419086,0.7440050340257585,-3.105667091235518,5.536358114877343,0.336228644852899,8.087402195605636,-0.5312998294830322,-1.1452674865722656,0.1204858496785163,0.7504104423783582,0.1969394000628495,-0.2210704088605484,0.5909542294064001,-0.3470260798931122,0.3954511284828186,1.0576974153518677,-0.1577990055084228,0.1839794814586639,-0.0929875969886779,0.0764775872230529,-0.3604539632797241,-0.5726391441911458,0.5726510882377625,-0.9031666913256048,1.2894243089884518,233
1733298859936784400,0.7540414210021495,0.1567775751749053,0.410403924664855,6.016012685900926,0.0679781696043442,7.744246929827332,-1.022436261177063,-1.528390645980835,0.0816115140914917,0.7465290649201352,0.2020379917869351,-0.2536413778135049,0.5809829309165704,-0.1624096482992172,0.4565399289131164,0.999382257461548,-0.097932755947113,0.2589997947216034,-0.1287800073623657,0.0939509645104408,-0.365770548582077,-0.0776268450379371,0.531167209148407,-0.887667728094384,1.517717808572948,234
1733298859976784600,2.627549228259921,1.2513751488402485,2.9604876359283923,6.333199397686124,-0.2886067331846803,7.481822904843091,-0.9331337213516236,-0.8973608613014221,-0.1188733726739883,0.7437552612503517,0.1974773753421835,-0.2820210474361753,0.5729703028213046,-0.0892368927597999,0.4038255214691162,0.8472625017166138,-0.017668604850769,0.3179137408733368,-0.1733796000480651,0.1114243417978286,-0.3710871040821075,0.4239104719698429,0.4896833598613739,-0.8728717985659837,1.7464146282613275,235
1733298860016784600,2.60132874533236,1.4713346814520656,2.7086627463698387,6.581182809385657,-0.4325503996191546,7.257500939238071,-0.738511323928833,-0.5824320912361145,-0.4289189577102661,0.7449580486035511,0.1975979418276247,-0.301538528135747,0.5613084067539287,-0.2135239690542221,0.3942761421203613,0.6100647449493408,0.0037716031074523,0.3436869382858276,-0.1844033002853393,0.1475458443164825,-0.3420223891735077,0.8154407693386078,0.5309014320373535,-0.8245040734991431,1.9327292270332568,236
