time_imu,phone_acc_x,phone_acc_y,phone_acc_z,phone_gravity_x,phone_gravity_y,phone_gravity_z,phone_gyro_x,phone_gyro_y,phone_gyro_z,phone_ori_w,phone_ori_x,phone_ori_y,phone_ori_z,watch_gyro_x,watch_gyro_y,watch_gyro_z,watch_acc_x,watch_acc_y,watch_acc_z,headphone_gyro_x,headphone_gyro_y,headphone_gyro_z,headphone_acc_x,headphone_acc_y,headphone_acc_z,frame_imu
1733062185893522700,-0.5587202897582203,18.459703965127467,-2.0556405903004107,-0.0090046847206744,9.650467504641414,-1.7432094024792313,-0.6183098554611206,-0.4170307517051697,0.1780331283807754,0.3137870037453759,0.3749213767310739,0.6695617258942539,0.5591589854477862,0.9283998608589172,2.610766887664795,-2.4843649864196777,-1.1566340923309326,0.0912254154682159,-1.1212849617004397,-0.0044794245623052,0.4295781552791595,0.4209408085092902,0.1423151940107345,-0.584154371548444,-1.0028440401300789,0
1733062185933316900,-0.1067969532850198,12.343399013394116,-4.183125058323145,0.0505333695349749,9.754333537307382,-1.0103479129541664,-2.964948892593384,-1.3352210521697998,0.6544053554534912,0.338149486122931,0.3782991847815851,0.6390642644561775,0.5780497189407857,1.7813563346862793,1.6192660331726074,-0.6522558331489563,-1.30449640750885,0.1402564048767089,-1.3929741382598877,-0.1483900547027588,-0.0455966554582119,1.4471594406165182,0.006954554002732,0.87897501081191,-0.6452551022645086,1
1733062185973110300,-0.009210859405063,0.0324245982646942,-2.15702781176269,0.3952759501704946,9.798168002858755,0.1002592586119659,-2.3294153213500977,0.2057408988475799,1.022763729095459,0.3572223290719882,0.3778158116686768,0.5934167278018198,0.6144135922934946,2.2066845893859863,0.5761760473251343,-1.0847078561782837,-0.64593905210495,0.7923258543014526,-0.1554574370384216,-0.4199680089950561,-0.2340782731771469,0.4503053616162389,0.5093061923980713,0.6499225826188921,1.478943110629171,2
1733062186012903400,1.2123445764392613,-9.90754549242258,-4.65028138230145,0.6006645211162045,9.757308753725884,0.7775104863297194,-1.3691489696502686,0.9479885697364808,-0.0036548590287566,0.3526896367478969,0.3617074564558232,0.57404330333938,0.6444005699653049,2.2169840335845947,0.2180896997451782,-1.804716944694519,0.3174812197685241,0.8101569414138794,0.8255329728126526,-0.4416515231132507,-0.2388002574443817,-1.023518140976876,1.1395965814590454,0.1240908097095321,1.6121753769025209,3
1733062186052697300,-0.5969696121210232,-16.290751322293282,-3.863854526001215,0.4652884842798113,9.693080903965232,1.4135386183045804,-1.7709729671478271,0.1350871324539184,-0.2359632700681686,0.3615054790673984,0.3398537888646736,0.5589534769893181,0.6643676274847194,2.4759113788604736,0.2269915342330932,-0.4338897466659546,1.1047658920288086,0.2301039397716522,1.2127424478530884,-0.1791970282793045,-0.0864206850528717,-1.102757535777986,0.9546053409576416,-0.0149347489106236,0.0836678879010025,4
1733062186092490800,0.3922103520547971,-17.874399985152483,-0.4366553872525692,0.4665598924551158,9.608867666274309,1.903253541702032,-0.5152493715286255,-0.1497881710529327,-0.0562039576470851,0.3709898900632762,0.33143093213506,0.5414006008300103,0.6777945647715924,0.1310073733329773,-0.2993043661117553,-0.560326099395752,1.35481595993042,-0.1772474199533462,1.270657300949097,0.1663742363452911,-0.0206629000604152,-0.9952437211941928,0.4568635821342468,-0.1887257515668869,-0.1811528868935071,5
1733062186132285000,0.5729724677987397,-16.246005002593993,-0.633704730528593,0.321561054411903,9.625438277325031,1.848761780796945,0.6894908547401428,0.3320225179195404,-0.5995069742202759,0.374109449922917,0.327547932174151,0.5463073590972088,0.6740198159825129,-1.0900391340255735,0.3677144050598144,-0.2328430563211441,1.2446777820587158,0.0819833576679229,1.2554670572280884,0.3696433901786804,0.0030878188554197,-0.2755543045890517,0.1228005588054657,0.1134583748024422,-0.1717837316541932,6
1733062186172078000,0.1588197485269978,-11.15939264268875,0.13739961508587,0.0849398623318877,9.71120049802363,1.3622687420554458,1.8221534490585327,0.3428622186183929,-0.3793631792068481,0.3692613726957969,0.3260718320747127,0.569403888117039,0.658105263775712,-2.076368808746338,0.2094140797853469,0.3746781051158905,1.0508501529693604,0.1978614628314972,1.0886030197143557,0.4250923097133636,-0.1287713646888733,-0.4043032697021961,-0.0912084728479385,-0.1434513346065767,0.0706090706637827,7
1733062186211871200,-0.7611134052149952,0.8476976098209619,-0.2429512627512216,-0.0276263105878955,9.792882755932212,0.5187334395457058,2.291409730911255,0.1961693316698074,-0.1379295140504837,0.3543873741549279,0.3344168685122047,0.6014293921545912,0.633133233056238,-3.009427785873413,-0.0410162135958671,1.327273726463318,0.5071130990982056,0.0541525185108184,0.3392565250396728,0.2486239671707153,-0.1434955447912216,-0.4648178710933774,0.1580711901187896,-0.3866448634147644,1.109558667160198,8
1733062186251665400,1.4096436566926538,11.80043663006425,1.3504828810632228,-0.1076472956371959,9.796011701607704,-0.4438283476218581,2.536734342575073,0.4190850853919983,-0.4668879508972168,0.3358990469723945,0.3444981958101888,0.6355705633859652,0.6037740241980603,-3.0995523929595947,-0.4734066724777221,1.5757331848144531,-0.6301696300506592,0.1537849605083465,-0.3947278261184692,0.0274209082126617,0.0995323434472084,0.6350282342173159,0.7258872985839844,0.4630586794011294,0.893172316860035,9
1733062186291458600,-1.1356186988290398,11.959832242250442,-1.3280689508117736,-0.2048352296455763,9.721312142193316,-1.27457789138183,1.5240710973739624,0.0963789597153663,0.0084993820637464,0.3206336981611454,0.3514875728994081,0.6644109230969318,0.5763755442713819,-1.1805002689361572,-0.6492189168930054,1.1215901374816897,-0.9839966297149658,0.1433054804801941,-0.9208271503448486,0.0072761690244078,-0.3585214018821716,0.3733590096557512,0.6278734803199768,0.211895139828138,-0.3906066066525876,10
1733062186331252700,-0.7410255067583174,6.236648071947694,-2.372386134189368,-0.2076768280133605,9.674318335828184,-1.5921126859523356,0.1949768960475921,0.050059400498867,-0.0191828459501266,0.3153777068113833,0.3571353588837766,0.6735202251375807,0.5651210053860632,-0.5065198540687561,-0.7589654326438904,0.4739240109920501,-0.6799526810646057,0.0523232817649841,-0.8354023694992065,0.0561295598745346,-0.0177348442375659,0.4336679324069991,0.2761421799659729,-0.5173440675465389,-0.8461921006288379,11
1733062186371046100,-0.2839849734018556,1.814253069734573,-1.132288896819204,-0.2113154950429685,9.68165525458753,-1.5463735558234155,-0.2480961084365844,0.0625346973538398,-0.060905035585165,0.3147256964825159,0.3543629043993221,0.6732533285130499,0.5675425640344302,0.2655926048755646,-0.3815386295318603,0.2512179613113403,-0.3299201726913452,0.1430838406085968,-0.5036273002624512,0.1169951185584068,0.0567305572330951,0.2253294804134406,-0.0937120839953422,-0.1465515839105471,-0.5805019865207374,12
1733062186410839000,-0.1019859362741,-0.373340560683608,0.1384545309662818,-0.2243735679280944,9.684539870113134,-1.5263434519685803,0.2065749019384384,0.0367506220936775,0.0270077530294656,0.3152990677809459,0.3533751426518094,0.6730140179171745,0.5681237879443882,0.004303500521928,0.0355957373976707,0.1837066859006881,-0.0782674551010131,0.049583613872528,-0.1426916718482971,0.1282917708158493,-0.0047401520423591,-0.0984635708342306,-0.1174726262688636,-0.0818601626256015,0.0622326482222881,13
1733062186450633200,0.1187799990834668,-1.230281215146184,-0.3562203529261052,-0.1862665766454301,9.670140173360704,-1.6198944268472493,0.1757173538208007,0.1379264444112777,0.1274791210889816,0.3112115974819732,0.3547193481026919,0.6758445209528675,0.5661763364172094,-0.1056120842695236,0.1567842066287994,0.1286999732255935,0.0610320568084716,0.038602203130722,0.0256107449531555,0.096439354121685,-0.0422322861850261,-0.1269744479876011,0.0568545795977115,-0.0840020791582763,0.0894668291038833,14
1733062186490426600,0.3936051674140617,-0.969362918549776,0.4985632696330547,-0.1318888523077592,9.661512045747042,-1.6757624445416033,0.1925928592681884,0.0510253682732582,0.0741633474826812,0.3074296975912527,0.3561262594445464,0.6772105980196315,0.5657268562090343,-0.0729856938123703,0.1050352677702903,0.2078470438718795,0.0827311277389526,-0.0365040004253387,0.114854097366333,0.0399534925818443,-0.0137876626104116,-0.1510979860353749,0.1137468665838241,-0.1661012107720598,-0.2453331163864582,15
1733062186530219800,0.2672562674462795,-0.6354366688877344,0.8780958168245852,-0.1295895532562863,9.638831427383424,-1.8018087448336184,0.4864174425601959,0.0110620567575097,-0.0021191956475377,0.3047882925872209,0.3579138814094781,0.6810024471022508,0.5614600464910571,-0.3338013291358948,-0.0277829673141241,0.37082639336586,0.0772479176521301,-0.0679141879081726,0.1117674112319946,-0.0136606600135564,0.0055819982662796,0.0052225643745652,0.0956216230988502,-0.0426933007261948,-0.3750672748783603,16
1733062186570014000,0.2088968713276088,0.0821451992452144,0.5295956828869879,-0.1140264844134449,9.589680735245349,-2.048267577314377,0.7417120933532715,0.0246281530708074,0.015497195534408,0.2994031510038897,0.361945564787843,0.6880610388203103,0.5531050246590562,-0.4503939747810364,-0.1744785606861114,0.4251840114593506,0.0404905676841735,0.0074956715106964,0.0199536085128784,-0.0243259333074092,0.017952749505639,0.0101933436618593,0.0193730574101209,-0.1113833677598275,-0.4796630100583657,17
1733062186609807000,-0.2365297418037429,2.330536120453477,-0.7947825967133044,-0.1258925527687184,9.528842527922988,-2.314238627255708,0.5880613327026367,-0.119900494813919,0.0146009409800171,0.2949696141689175,0.3660159160542001,0.6957195425289099,0.5431386514240482,-0.5217863917350769,-0.0299730971455574,0.4512507915496826,-0.0222750902175903,0.0049889981746673,-0.0579282045364379,-0.0164667777717113,0.0477310940623283,-0.009854418005608,-0.0471867397427558,-0.2300439599810168,-0.4965124015178531,18
1733062186649601300,-0.2187058792889118,9.969231256484983,-1.5493115089714526,-0.0870038365238346,9.497423891830444,-2.4416724363833664,0.165368303656578,-0.178967535495758,0.2033322304487228,0.2934013555484259,0.3719970964227058,0.6972150403247775,0.5379823623635696,-0.1269645094871521,0.3534411191940307,0.1815593242645263,-0.2623627781867981,0.0668027997016906,-0.5260217189788818,0.0193968471139669,0.1452699154615402,0.0079394672127789,-0.1925711333751678,-0.197178321684245,-0.7110351499032229,19
1733062186689394400,-1.467098359056562,18.1752288518548,-6.9508069798946375,0.0183071719277009,9.543340424352884,-2.2571429674625394,-1.7026604413986206,-0.7373390197753906,0.6617015600204468,0.2979916172587424,0.3780111458581823,0.687160707755501,0.5441679138211877,1.30720055103302,1.496354579925537,-1.083720088005066,-0.951811134815216,0.2449551224708557,-1.2164998054504397,0.0028240378014743,0.109242558479309,0.680991966882348,-0.2815990447998047,-0.2020103814831934,0.0571743647522991,20
1733062186729059000,2.08948776871413,14.143767350161074,-5.356494299679994,0.176923323032353,9.73689724933803,-1.154087544716522,-3.4830543994903564,-0.5488230586051941,0.2337133139371872,0.3247396819502863,0.3772831357939374,0.6453677431480974,0.5793979998586587,2.5589702129364014,0.6771528124809265,-1.4123420715332031,-1.1840198040008545,0.5096539258956909,-1.3859200477600098,-0.0304736029356718,0.003078787587583,1.079846396594122,-0.271302193403244,0.7743141014412045,0.3056742426405661,21
1733062186768844300,0.5218050290107726,0.7365063488334417,-4.091034803646803,0.1885246212379075,9.80366601575315,0.1515254176672082,-3.0613722801208496,0.3732947707176208,-0.0899496078491211,0.3486231422395821,0.3549788934001534,0.6051977685717468,0.6214398444266496,3.258211374282837,0.0191616378724575,-2.0886006355285645,-0.7388200759887695,0.821734607219696,-0.18415367603302,-0.2117629945278167,0.0357441790401935,0.2790754827188327,0.0508787930011749,0.2436501682681962,1.2071158820055423,22
1733062186808632600,0.8848162111207842,-13.236063307666775,-3.590910276046395,0.0824413326475769,9.72990461397171,1.221698095718026,-2.4764552116394043,0.2176062911748886,-0.4383394718170166,0.3666009253526244,0.3283283869180914,0.57437896991313,0.6541353373393942,3.091689109802246,-0.737977921962738,-2.294344663619995,0.1942542195320129,0.6335325837135315,0.608562171459198,-0.2339679598808288,0.0350520275533199,-0.3419946245010942,0.3201808333396911,-0.011320850996091,0.4594220033992081,23
1733062186848422000,-0.3293851721663027,-23.128214831602573,-2.7548271161735056,0.0060182739088311,9.580175240275263,2.0953741964042187,-1.6810520887374878,-0.6209762692451477,0.0760213211178779,0.3866328823915875,0.3115504189629933,0.5441525373312431,0.676276126467164,2.921168565750122,0.2942081987857818,-0.5418859124183655,1.0714706182479858,0.2574614584445953,1.396485686302185,-0.0601833052933216,0.1253889501094818,-1.234084552951902,0.0201064106076955,-0.6178104843694716,-0.5929078060422093,24
1733062186888210200,-0.0520595561889465,-22.289926270639896,-1.4899118100196125,0.0023798023858122,9.525838085409998,2.3299773175269363,0.1186665445566177,0.1209930181503295,-0.150502935051918,0.3947177538647188,0.3099408356960577,0.5339858565854887,0.680436424546106,-0.874521017074585,0.2757908403873443,-0.687703013420105,1.8474256992340088,0.0560808181762695,1.6748957633972168,0.0443950928747653,0.0590398237109184,-0.9138067432835698,-0.2157613486051559,-0.1226076858791522,-0.4443016276894137,25
1733062186927999200,0.5560499745704234,-16.781711131185293,1.717448646017909,-0.0400995898719876,9.56813116673827,2.1493366727381944,1.125760793685913,0.097864344716072,0.0483977571129798,0.3897949437707548,0.3096759666024932,0.5426924735820816,0.6764950938611711,-1.0018727779388428,0.5653266906738281,0.3731870651245117,1.5092909336090088,0.2530520260334015,1.3050248622894287,0.0686004981398582,-0.1159393414855003,-0.5608750201066955,-0.1866499036550521,0.0197807093707611,0.0980209051006473,26
1733062186967787500,-0.4827599531603976,-5.886451655486225,1.3190106150873004,0.060632067458122,9.711938164648414,1.3583052452519535,2.693220376968384,0.018491743132472,0.4311693906784057,0.3745826950211332,0.3293907583483516,0.5676684212965313,0.6549368394715293,-2.781188488006592,0.1489613801240921,1.3035359382629397,0.8611043095588684,-0.0806741416454315,1.0601754188537598,0.088821068406105,-0.0932006537914276,-0.222984031532146,-0.0531601905822753,0.0789563857418019,0.6618325083822012,27
1733062187007575800,0.3363173095170408,7.991873198652267,0.4769768762469291,0.1734980612914078,9.801683317503333,0.2593897718548774,2.9343152046203613,0.3273902535438537,-0.0354253724217414,0.3473597906185509,0.3490365918511878,0.6041094765423154,0.6265511581906975,-4.446601867675781,-0.0844110399484634,2.230147361755371,0.0213042497634887,-0.0223685353994369,0.0812693238258361,0.0151860853657126,-0.0037599513307213,-0.0061698694325925,0.2478148490190506,-0.130686372049665,1.0474402838341892,28
1733062187047365000,-0.4824014220463111,12.302328167337178,-2.7180630273997783,-0.0001799228052434,9.772958742800354,-0.8121875396963208,2.1243786811828613,0.1295954436063766,-0.3432374894618988,0.3332235542856106,0.3620532575436224,0.6405680900892715,0.5895353729988658,-2.172735929489136,-0.0891816094517707,0.9582640528678894,-1.3936749696731567,0.3838623464107513,-0.7315400838851929,0.0436908528208732,-0.1672041416168213,1.0298653911117464,0.1393137574195861,0.729481783958897,-0.1846028264179825,29
1733062187087153400,-1.2304440044924616,9.6561584097594,-3.5249417200982567,-0.0853194179676938,9.723706343853474,-1.2698960171759128,0.3813115656375885,0.3299519419670105,-0.2579873204231262,0.3235813942951148,0.3628261575373279,0.6581062652846279,0.5749333633679018,-0.6968490481376648,-1.0544390678405762,0.471356987953186,-0.6781436204910278,0.278008759021759,-0.9479416012763976,-0.0105601521208882,-0.0171943362802267,0.2693885850335471,-0.0780581980943679,-0.1078060755286365,-0.2417122590081766,30
1733062187126942700,0.2717779826544225,4.028670994192361,-1.848838060903549,-0.1439873594457283,9.714495447915793,-1.3335052966468035,0.0402964651584625,0.0939022153615951,-0.1376765221357345,0.3213146217775166,0.3586448241906703,0.6628451823020837,0.5733821400777686,-0.084274835884571,-0.4445459842681885,-0.038921657949686,-0.5023849010467529,0.1708675920963287,-0.5774601101875305,0.0263012126088142,0.0183119010180234,0.1548826465400867,-0.0910616666078567,0.4365429398540407,0.0617706110679544,31
1733062187166731000,-0.1383294067492708,0.8388771745055913,-1.0439223388411103,-0.1694753999128937,9.724640994355084,-1.25421197970137,-0.3925586640834808,-0.1167202368378639,0.0851129591464996,0.3237582185212195,0.3567279248007144,0.6608269064115422,0.5755290987853889,0.1933040469884872,-0.0273902583867311,-0.2618832290172577,-0.0950235724449157,0.0666320919990539,-0.3135988116264343,0.0351523756980896,-0.1516885459423065,-0.2323821754039265,-0.0387827642261981,0.2220684510571882,0.057072091687913,32
1733062187206519000,0.0977745017246808,-0.4966004451274871,0.3648817982874811,-0.0971762618368957,9.74630045297742,-1.0819456338956952,-0.4876854121685028,-0.1066310182213783,0.2057394534349441,0.3264576395953988,0.3582052685424918,0.6533397755835437,0.581602697202219,0.3242833614349365,0.1300919502973556,-0.1261783987283706,0.0357034802436828,0.0037047266960144,-0.1307569146156311,-0.0474563352763652,0.0132272010669112,-0.4156996929854154,0.0488578118383884,-0.1587401256858371,-0.1075389124924316,33
1733062187246308400,0.2084238469883799,-1.1097820275872945,1.854475336138159,-0.0478625931228743,9.759582543876766,-0.9584455109551548,-0.0248783696442842,-0.0239726919680833,0.0697998851537704,0.3276891159660228,0.3582701667020144,0.6484671226511436,0.586304204292244,0.1448768526315689,0.2445263713598251,-0.0416631139814853,0.0034577846527099,-0.0502512454986572,0.1091833114624023,-0.1297547668218612,0.0799920558929443,-0.1046928388789296,0.0283759292215108,0.1176858197717461,-0.1980067535987123,34
1733062187286096600,0.2366737899169325,-1.5007505994200705,1.6315584150254725,-0.0401995887808967,9.74952350667715,-1.0562010248515754,0.4624687135219574,-0.0490845702588558,-0.0470335595309734,0.3262245342635169,0.3607932608396207,0.6509066668090489,0.5828604314884253,-0.2432354688644409,0.0655516162514686,0.0651873648166656,0.0864290595054626,-0.0753609538078308,0.150277554988861,-0.1618309319019317,0.0257292557507753,-0.0270760608605691,-0.0250203348696231,0.1477594344635028,-0.121121502442006,35
1733062187325885700,0.0635836792387534,-1.622454486593604,1.0743465570688246,-0.0912667363990098,9.722038702902196,-1.282193188691139,0.656754732131958,-0.0942571610212326,-0.1635430008172989,0.3241640323043658,0.3635589641051159,0.6581781982324626,0.5740592602798847,-0.6200495958328247,0.0329128168523311,0.3180006742477417,0.0941958427429199,-0.1040141284465789,0.1814206838607788,-0.1197197437286377,0.038059577345848,-0.0964253886706661,-0.0532746352255344,0.0561774672360159,0.0348109910777304,36
1733062187365674000,-0.0976778090177103,0.3071843732088804,1.1403611441157755,-0.1245340873644687,9.679630470761657,-1.5683249831296502,0.899253249168396,-0.0225485004484653,0.0318866670131683,0.3206923177249409,0.3682842253456329,0.6665801135827325,0.5631999306325647,-0.7469651699066162,0.1284337490797042,0.5546799898147583,0.0847794413566589,-0.0640476047992706,0.0239139199256896,-0.0283111929893493,0.0324853248894214,-0.1034705214092042,-0.0833745524287223,-0.1173080268347635,0.0238941999710397,37
1733062187405463600,-0.1749185042822733,6.723348469829559,-0.4529004196107387,-0.0597133908437797,9.614085108661651,-1.9329218269959088,0.8466746807098389,-0.4446041584014892,0.3606432378292084,0.3140130599892628,0.379246934864939,0.6743317801811461,0.5503128196474594,-0.5407171845436096,0.4638333916664123,0.5731842517852783,-0.0868200063705444,0.0030797123908996,-0.2956411838531494,0.1161401197314262,0.0130310617387294,0.048054983022972,-0.1576662957668304,0.0429104917074088,-0.1416411981783807,38
1733062187445251600,0.9243024914000184,16.755151625561712,-3.844553028681874,0.0260460373928188,9.587648937156796,-2.0607450738325714,-0.4921338260173797,-0.563934326171875,0.1483724415302276,0.3141802762588255,0.3907131517364259,0.6726157821293379,0.5442626890150378,0.1779786199331283,0.760588526725769,-0.0268293768167495,-0.5082275867462158,0.1339909732341766,-0.9112514853477478,0.1820798367261886,0.1124176308512687,0.0601226566312601,-0.3567874431610107,0.0405774365168064,-0.1123530439090449,39
1733062187485039900,-0.909290654098615,17.245577181446553,-7.039228775191306,0.037801119654288,9.705802438372372,-1.4022779502302407,-2.9412059783935547,-0.3126908242702484,0.3187030255794525,0.3333415825303744,0.3874938728854375,0.6491107564831522,0.5633713015169851,1.8594101667404173,0.93697190284729,-0.8681159615516663,-1.208389401435852,0.4386454224586487,-1.4677841663360596,0.1358670890331268,0.1279066354036331,0.8629144681751727,-0.3131898641586303,-0.017364846151357,0.0971322856978513,40
1733062187524829200,1.1200556573856622,4.913444242954254,-5.650214211159944,0.1491704520388972,9.805509013271331,-0.0113248102185782,-3.675028562545776,0.0587605647742748,0.1219004020094871,0.3589192888048149,0.3685632209521885,0.6039358879664155,0.608768870533079,3.6023592948913574,-0.550857424736023,-1.4643349647521973,-0.8358884453773499,0.8009806871414185,-0.8851501941680908,-0.0813934653997421,0.2460951060056686,0.848462164452672,-0.2499171793460846,0.4373603206515312,0.5589280872900039,41
1733062187564617500,1.3408300865769385,-8.443494099846482,-5.572856246191263,0.0587303620226448,9.730227854576706,1.2204971224304288,-2.7161364555358887,0.3400544226169586,-0.5164588093757629,0.3813231773723485,0.339913691555677,0.5676536321032268,0.6456165407960069,3.294804811477661,-1.388375163078308,-2.099093675613404,-0.0904324650764465,0.7212177515029907,0.402163565158844,-0.2776247859001159,-0.05302394926548,0.2688863893987611,0.0870638713240623,0.5172706735167653,0.8980421148534864,42
1733062187604406500,-1.5849701207213105,-20.436484515333174,-4.230276393337547,-0.1361616342561319,9.544961303552984,2.246231258956343,-2.4012205600738525,0.2978837490081787,-0.0772229135036468,0.3990411725695805,0.3083874454691342,0.538861078969356,0.6747532969744714,2.792454719543457,-1.0730401277542114,-2.077765703201294,0.7226715087890625,0.4595833718776703,1.0468785762786863,-0.1876985728740692,-0.218127429485321,-0.643906391069293,0.0830196440219879,-0.0888873487154953,-0.4150381603367626,43
1733062187644195000,-1.5219738585822282,-21.80805343904495,-1.1857637357667088,-0.1406496937898453,9.396062535461782,2.8043936956360933,-0.6521314978599548,0.0389594957232475,0.0937487706542015,0.4065416630679276,0.2951919208948024,0.5194973045253148,0.6911644422214664,1.2775092124938965,-0.3180048763751983,-0.9357940554618835,1.4402285814285278,0.1778033673763275,1.607903003692627,-0.1275664418935775,0.144050195813179,-1.6723258942216634,-0.2865805327892303,-1.093768173636496,-0.9544203470923006,44
1733062187683984400,-0.7306088882926851,-18.325239380580182,1.3813099810034035,-0.0488536454202607,9.380801253443956,2.8580729711145163,0.4299897253513336,-0.1441170275211334,0.2879102230072021,0.4052149644394743,0.2974672147295456,0.5155502727068689,0.6939179593996211,-0.5937785506248474,0.5861978530883789,-0.2653253078460693,1.4970765113830566,-0.0808334201574325,1.166960835456848,-0.1539427787065506,0.2020435035228729,-0.4740078338408842,-0.2722314298152923,-0.0467731676180847,0.2510789117631502,45
1733062187723772400,0.9897043533761054,-11.833894663029907,2.69271465113163,0.1304829858315177,9.519598898759485,2.3517191937357187,2.3071601390838623,-0.4585000872611999,0.5609031319618225,0.3951705345813123,0.3167137680680368,0.5289499811396244,0.6809878493050431,-2.047736167907715,0.9742477536201476,1.029434084892273,1.1578409671783447,-0.0187598802149295,0.9960223436355592,-0.0081701073795557,-0.0998456999659538,0.1346435669765342,-0.1652457416057586,0.5610281648417934,0.2052852567017078,46
1733062187763564800,1.5959648313358423,3.3289299031764266,1.4169862745404245,0.4347671988857909,9.72365841305852,1.1965842588581144,3.4278042316436768,-0.3538740277290344,0.6166725158691406,0.3692337129887847,0.3520445198261939,0.5612983506943776,0.651671080562231,-3.694844245910645,0.4439086019992828,2.090473890304565,0.6790646314620972,-0.0474529266357421,0.4598594903945923,0.0155341858044266,-0.3700630962848663,0.109936776547553,-0.0916302800178527,0.5194588312108069,0.9574459054585546,47
1733062187803353000,0.3921657457280904,12.932484849995374,-2.613212659871578,0.4990757491998374,9.79342694581151,-0.1004655400400981,2.7725887298583984,0.1466132849454879,-0.0771308094263076,0.3450634430618086,0.3796861079054724,0.6008001137075342,0.6130325364440242,-3.389064073562622,-0.5803075432777405,1.6690665483474731,-0.4921435713768005,0.1659982353448867,-0.5171988010406494,0.0503431446850299,-0.1920876055955886,0.6825832546617835,0.1098815649747848,0.2776775438207201,0.2043317188365384,48
1733062187842986000,0.6225497147858142,13.134875554299354,-4.170487695068121,0.5057178540954366,9.7629698482275,-0.7739872806396335,0.8800332546234131,0.452582448720932,-0.0388317555189132,0.326434354027604,0.3861376286280906,0.6247880432884484,0.5949607055875226,-1.0663652420043943,-0.2983500361442566,1.1271108388900757,-1.1117544174194336,0.4076178967952728,-0.8656819462776184,0.0517825148999691,0.0491200387477874,-0.1073188217346556,-0.2219061553478241,-0.2197544750263914,-0.311486235121265,49
1733062187882769700,0.5410587051330134,6.748302293822169,-3.856436943221092,0.5114922362457961,9.756426125672458,-0.8490669254127889,-0.3607925176620483,-0.0139669384807348,0.0151206040754914,0.3232380237699981,0.3859536301780923,0.6279571320026804,0.5934870170110669,-0.1814900785684585,-0.5349174737930298,0.1373351961374282,-0.6452648043632507,0.1620870232582092,-0.8256618976593018,0.1328509747982025,0.0771283283829689,0.221110474478919,-0.3248586654663086,0.1764269360838457,-0.1991784825255163,50
1733062187922552000,0.1637590680927038,1.6551047103077172,-1.605270127558708,0.520833005640842,9.773617498970031,-0.6128084382984786,-0.7451214790344238,0.0697044134140014,0.05627316609025,0.3268273650123813,0.3815190375481643,0.621037647130782,0.6016139928390695,0.4050178825855255,-0.0965804606676101,-0.4421930313110351,-0.3245020508766174,0.1851342320442199,-0.3561993837356567,0.1624642163515091,0.0358614549040794,-0.1281332078349776,-0.3530063927173614,-0.042901924808463,-0.2856906996075063,51
1733062187962335700,0.1529581630172208,-1.0992875215798616,0.2452139835188165,0.5385172039566561,9.786348385727406,-0.3282625248119235,-0.5948777794837952,0.1843838095664978,-0.0114479567855596,0.3310448651908407,0.3765313179024914,0.6123405079000576,0.6112875780295356,0.3233235478401184,-0.1177495568990707,-0.3780466616153717,0.0479984283447265,0.025778591632843,-0.0808655023574829,0.072692297399044,0.020515376701951,-0.1063632745754905,-0.2002544105052948,0.043158018461382,-0.1719404748521745,52
1733062188002118400,0.2615488495849072,-1.706926082959771,1.669225005596876,0.508037236953713,9.79064812874794,-0.235547251838725,0.1432288438081741,0.2531474530696869,-0.2146156430244445,0.3307053123060136,0.3709528046501738,0.6118852702634571,0.6153246391390366,-0.254247635602951,-0.1145220175385475,-0.0295219663530588,0.1770465970039367,-0.1452175974845886,0.1635900735855102,-0.005100842565298,-0.0146716842427849,-0.0910388824598863,-0.0662553086876869,0.0683699225680204,-0.2044296079867519,53
1733062188041901800,0.2841570237668231,-1.2650959234178063,0.9537246199131012,0.3893616846254095,9.793092599290608,-0.3378160236421972,0.2988123297691345,0.108534388244152,-0.3230206072330475,0.3304906935453572,0.3669405871841661,0.6185292468189343,0.611189081816965,-0.8877145648002625,-0.3027763366699219,0.2196053117513656,0.1174006462097168,-0.1323955953121185,0.1152987480163574,-0.0263666864484548,-0.0302519407123327,-0.1387342429568059,-0.0511498004198074,0.0253348637660266,-0.2038630601451732,54
1733062188081684500,0.6867237885326146,-0.0435761068761348,0.880148511570692,0.2407300613041035,9.79590648766756,-0.3906838000746443,-0.0621138736605644,-0.3313133120536804,-0.4943886399269104,0.3356964025627992,0.364738328898704,0.6220010297032565,0.6061258386742293,-1.7655832767486572,-0.3712195456027984,0.6221596002578735,0.1083629131317138,-0.2639079391956329,0.1715480685234069,0.0038006752729415,-0.0029466450214385,-0.1273179185298737,-0.1055218577384948,0.017492815346003,-0.1622194557015784,55
1733062188121576200,-0.2690051204076036,0.4563923533797264,0.7781155395507812,0.0116284590654715,9.80021675208211,-0.3549398846615105,0.0061906450428068,0.0085625667124986,-0.5659958720207214,0.3461449714380939,0.3596485262200017,0.6234980642475907,0.6017363906283811,-2.350116729736328,-0.4282255172729492,0.5138549208641052,-0.0414281487464904,-0.045035183429718,0.0094022154808044,0.0595636181533336,0.0072181685827672,-0.10657520029312,-0.1945718377828598,-0.0291004519607988,-0.1744776834459044,56
1733062188161250800,-0.5085791252780706,0.2967494884341955,0.1837023704469204,-0.0878764455067459,9.79286522027552,-0.5123069866947829,0.7155026793479919,0.4508279263973236,0.2669094502925873,0.3429729668184916,0.3557257647153731,0.6321230635026129,0.5968661581526506,-2.4853315353393555,-0.3408712744712829,0.5225790739059448,0.025378406047821,-0.0432513356208801,0.0449106097221374,0.0536536797881126,0.0151539985090494,-0.0248147351823281,-0.1896560043096542,-0.0413464389947708,-0.0494357424574205,57
1733062188201033500,0.5765919004049151,0.247462018173933,-0.7397919463753699,0.1201208009668625,9.773020117598772,-0.8025230547722428,0.6710720062255859,0.7687615752220154,0.5715575218200684,0.3237454492873427,0.3593315857069074,0.6417149667986254,0.5952072270750979,-4.093806266784668,-0.4497884213924408,0.6342227458953857,-0.1331098675727844,-0.2164572477340698,-0.0713541507720947,0.0328312292695045,0.0210265628993511,0.0080517553519253,-0.1434655040502548,-0.0092656486282445,-0.0259760294800857,58
1733062188240817000,0.890653758167848,-0.4268845193445682,-0.9543746082544328,0.3074947177996859,9.754693602791429,-0.9600888942480088,0.0655342563986778,0.2533095180988312,0.2151208370923996,0.3089551472550998,0.361397828006972,0.6467940332748521,0.5963185065812278,-3.145925283432007,-0.1912402361631393,0.6190462708473206,-0.0607082843780517,0.0484516024589538,-0.0103774070739746,0.0045260139741003,0.0392005145549774,0.0537930837169755,-0.0857775211334228,0.0172424344812403,0.0105237937507103,59
1733062188280599600,0.1070133725146763,-0.9042869275271892,-0.4159060292124748,0.3037417219417169,9.766424372595548,-0.8337179651115089,-0.6348883509635925,-0.2254767417907714,-0.1391879320144653,0.3106493820789492,0.3584590634114896,0.6434398844389813,0.6008237542360875,-2.6052699089050293,-0.1583839654922485,0.1931230276823043,-0.0166447758674621,0.1753116250038147,0.0163372159004211,-0.049876008182764,0.0553055144846439,-0.0331980622886447,-0.0126677080988883,0.0085473323037906,0.1208298442853614,60
1733062188320383000,-0.7720454989220946,0.0372094944536685,-0.0378138535549864,0.2073131640664301,9.792035199192163,-0.4933995301943272,-0.9391813278198242,-0.5728049278259277,-0.279701679944992,0.3268923915567134,0.3572009517905917,0.6305266491862187,0.6066176282682204,-1.566407322883606,0.0231864731758832,-0.1318129152059555,-0.0084859132766723,0.1647284030914306,0.0610891878604888,-0.0821516066789627,0.0702841728925705,-0.0227447285418165,0.0485092736780643,0.0126935801044222,0.1826140637535601,61
1733062188360166000,-0.3213042301066219,-0.2680792742669582,1.642467931574583,0.1353048895626328,9.802537888506054,-0.2496411157786846,-0.2003672271966934,0.4302912950515747,-0.0520169548690319,0.3342101312928067,0.3514727627622424,0.6238549925846518,0.6128420497082974,-0.1820823550224304,-0.3393295109272003,-0.0898109376430511,0.1303132772445678,0.1112372279167175,-0.1053228676319122,-0.0579943545162677,0.0834842398762703,-0.0250902048225747,0.0345143005251884,0.0802887851230334,0.101283605824178,62
1733062188399949300,0.0321610702239908,0.2564507957935333,0.6386661523282527,0.18436454241639,9.798598795491456,-0.3519605035245418,0.5878228545188904,0.2005341649055481,0.2027784138917923,0.3261214125254194,0.3499361034125791,0.6288797296064649,0.6129436752758878,-0.1348831504583358,-0.0114231156185269,-0.159134954214096,-0.0825344324111938,-0.0064790248870849,0.0899747908115387,-0.0073679741472005,0.0315815955400466,0.0239078449039021,-0.0505292415618896,0.1343418258172925,0.0760061713338131,63
1733062188439732000,0.5723304435681551,0.2210112336218357,-0.6214088741876185,0.2295772923173382,9.786604406315089,-0.583173909143731,0.5002068877220154,-0.1852244436740875,0.0503385104238987,0.3205539374297691,0.3552141696880734,0.6352609611257156,0.6062274689860258,0.1967954486608505,-0.0955580174922943,-0.1204464808106422,0.0008276104927062,0.0031937956809997,-0.0194976329803466,0.0163948312401771,0.024501958861947,0.013406534696347,-0.0726121589541435,0.112822862511035,0.1475114236523397,64
1733062188479515600,0.713489995709434,-0.3781804019302129,-0.4816144729197025,0.2172558631436899,9.779013220533727,-0.7029167253773659,0.1300677210092544,-0.5041202306747437,-0.0746196284890174,0.3245719323416546,0.3629425022786139,0.6356976634213891,0.5990110946767152,0.0927084609866142,-0.0777075439691543,-0.0310897007584571,-0.0246760845184326,-0.058113694190979,-0.0113379806280136,0.0228956155478954,0.0327382981777191,-0.0745557304969057,-0.0718849971890449,0.0524816677582683,0.1382388149895239,65
1733062188519298000,0.6932371159493923,0.3326052301913499,0.1191840863723307,0.1339595119688194,9.778556708937884,-0.7295561643693595,0.0567562580108642,0.5438808798789978,-0.3260119557380676,0.3253574441065748,0.3593177289484971,0.6388174882284833,0.5974491161622822,0.0068713203072547,-0.1744692474603653,-0.0096603762358427,0.0464280247688293,-0.0452952980995178,-0.0220661610364913,0.0039482675492763,0.0528344623744487,-0.0518870263333665,-0.0619218796491622,-0.0180881760068237,0.0856993297965265,66
1733062188559081700,0.4422411880282685,0.3030307606607675,1.2639865008711817,0.0618877392081776,9.770123811635374,-0.8433553428329527,0.8524770736694336,0.7438043355941772,-0.2194423675537109,0.3164626716319802,0.3490735449877098,0.6489582543795742,0.5973711340178434,0.1159338951110839,-0.0365742221474647,-0.1825954616069793,-0.006370186805725,0.0707016587257385,0.067575603723526,-0.0434895008802413,0.1114904657006263,-0.0156441655468137,-0.1081070899963378,-0.0713490205771988,-0.0994449922201689,67
1733062188598864400,0.3984885920740664,-0.4957172325521707,-0.0875659821849316,0.0169054404871712,9.737933606648443,-1.158765911791101,0.56651771068573,-0.2255734652280807,-0.0947750732302665,0.3097368221761886,0.3499267968342311,0.6607812461290552,0.5873520483999604,-0.2895214557647705,0.0091928942129015,-0.091033861041069,0.0114796757698059,-0.042502224445343,0.0912951231002807,-0.0643227696418762,0.1072517484426498,0.0648896381376311,-0.1728705912828445,-0.0367367212761891,-0.0797667066108435,68
1733062188638648000,-0.042520775437192,-0.3321013723224401,0.0105332305826246,-0.070156299094716,9.72290788695216,-1.2769159789405762,0.2095093131065368,0.1517863720655441,-0.2588637173175812,0.3125236899790214,0.3514645324031515,0.6645128157705698,0.5807101504479776,-0.2979445159435272,-0.1690329909324646,0.0155909843742847,0.0251727700233459,-0.0894417762756347,-0.1083091348409652,-0.0324822962284088,0.0762037485837936,0.0267126663416973,-0.2055253535509109,-0.0231336936100735,0.0059395855035429,69
1733062188678430500,-1.0065303274273871,-0.3790226979732513,-0.4509748583756387,-0.1103646831034216,9.696655839842558,-1.4604958920516071,0.6677812337875366,0.1068763956427574,0.0074432427063584,0.3051810936803921,0.3469390729733558,0.673867825994126,0.5765412518484603,-0.1286958307027816,-0.032625712454319,-0.0276694037020206,0.0074883103370666,0.0615363121032714,0.0383109003305435,-0.0171255022287368,0.0759528428316116,0.040026926494576,-0.1773460358381271,-0.0954558769182302,0.0040870284266828,70
1733062188718213000,0.2794679343688301,0.1680868681639432,-0.4979002756796777,-0.1331222939596977,9.65472340852022,-1.714342350565642,0.5483667850494385,-0.2487762868404388,0.0423651188611984,0.305298393850286,0.3549468185657324,0.6792789495885918,0.5651421950487187,-0.5534319281578064,0.0699361339211463,0.0254131890833377,-0.0582146048545837,-0.0467061400413513,0.0020489245653152,-0.0378208383917808,0.0786499306559562,-0.0453299602395622,-0.138292446732521,-0.1337611033198889,-0.0546073866413906,71
1733062188757994800,-0.093924319969397,-0.4138087646722793,-1.1593053524300456,-0.0519722295319428,9.644352236631512,-1.7759857367910443,-0.2838654816150665,0.2583202719688415,0.1914546191692352,0.301808634542243,0.3588028432326822,0.6795664759914939,0.5642351717243735,0.0284610353410244,-0.0817869156599044,-0.1120461970567703,0.0198516845703125,0.1006253361701965,-0.0842346101999282,-0.0909923687577247,0.0672106146812439,0.076829529780941,-0.0999415218830108,0.0101824181257572,-0.0433710721235955,72
1733062188797777400,-0.1680981384766288,0.5861088666170835,-0.0271697464764118,0.0100807718241005,9.675589086416364,-1.597894045832753,-0.4545779824256897,1.0542795658111572,-0.0618619285523891,0.2957143860339574,0.3492625559501719,0.6778536669600843,0.5753982322220004,0.2441435158252716,-0.0079264920204877,-0.0129278087988495,0.0198820829391479,-0.0232628583908081,0.0074625164270401,-0.1369802504777908,0.0208085961639881,-0.006932939926692,-0.0865287110209465,-0.0114712809010059,0.0019428109098895,73
1733062188837560800,1.3274791682250795,-0.4141752598971128,-0.7494821502625941,0.124454501055926,9.695896545907855,-1.4644060512326658,-0.2419117838144302,-0.1083306297659874,0.3526537418365478,0.2848954619407228,0.3398761113177539,0.6776047193132219,0.5866605999652451,-0.0598725527524948,0.0704020857810974,-0.0945062264800071,-0.0126824975013732,0.0011372566223144,0.041559413075447,-0.1128760054707527,0.0606747083365917,-0.09017996407561,-0.1188033521175384,-0.0419981900349259,-0.0977105513766873,74
1733062188877500700,0.7407222860280424,0.2646861246973276,0.6528022297084332,0.2467363707805052,9.692349667081237,-1.472367239370197,0.1745342165231704,0.0022408976219594,0.2233000993728637,0.2828466712701468,0.3463235485146524,0.6746331152562791,0.5873056722577832,-0.1076483353972435,-0.2181896567344665,-0.0664110034704208,0.105044424533844,0.0132002830505371,-0.1174707263708114,-0.0670560523867607,0.0534008033573627,-0.0425045275552896,-0.1575110703706741,0.0241677105496404,0.0382272931940853,75
1733062188917290500,0.2315600636323913,-0.4828197570562362,-0.4615536816656589,0.3295808043362572,9.682091307917236,-1.522790874053538,0.0697706043720245,0.0081611536443233,0.2286685705184936,0.2783053168291793,0.3486461052597827,0.6753418555011003,0.5872865628498832,-0.3211901783943176,-0.0959031656384468,0.0323297530412673,-0.0037912130355834,-0.0138592720031738,0.0186582207679748,-0.0352594293653965,0.0306353121995925,-0.0408340918587287,-0.1104693338274955,0.0986955255597364,0.0121610121642588,76
1733062188957079000,-0.0615313772182911,0.0131850602656602,-0.434947414290905,0.3633503874691203,9.673305943915247,-1.5701964760899545,0.0984307006001472,0.0680429115891456,0.0023879164364188,0.2765588927319216,0.3506583310853515,0.6760891027699952,0.5860524331249437,-0.2133105844259262,-0.1176143735647201,0.0523637123405933,0.035291850566864,0.0198726058006286,-0.0114072412252426,-0.0192842166870832,0.0125400917604565,-0.0688096017600735,-0.1427558064460754,0.0645495559956878,-0.2420764161454513,77
1733062188996868400,-0.4830152796283364,-0.2031470756292343,-0.4279940880216658,0.3550751284137368,9.68658102055192,-1.4881157203830775,-0.464937686920166,0.7324954867362976,-0.1416478306055069,0.2744434061000203,0.3447872430438395,0.6760137133486426,0.5905998653677418,-0.3051150739192962,-0.0128203695639967,0.0704395845532417,-0.0510560274124145,-0.0524993538856506,0.0416774600744247,-0.060679979622364,0.0084786592051386,-0.0807494979699608,-0.1673421859741211,0.0176304120271641,-0.2784720551992766,78
1733062189036657000,0.3164909480733797,0.2152770738840103,1.2928969535350798,0.3538854802377522,9.71153192193508,-1.315791214649379,-0.0809187665581703,0.9930564761161804,-0.2010598927736282,0.2650098348109497,0.3282085263661645,0.677765331080317,0.6022318150156755,-0.1504267007112503,-0.0669768676161766,0.0087617738172411,0.0101443529129028,0.0482202172279357,-0.007938377559185,-0.114386923611164,0.0349577330052852,-0.0582484191580209,-0.1287679672241211,0.0425744418531889,-0.0508953027491224,79
1733062189076446500,0.5918445241922512,-0.3189028680533171,0.6357376976609229,0.2802435035848989,9.692052729961276,-1.4683220556326209,0.7738949060440063,0.5371555685997009,-0.3762311637401581,0.2567453660286923,0.3185713987781299,0.688023150125307,0.5993482094787235,-0.8189733624458313,-0.1013557165861129,0.1245828494429588,0.0331027507781982,-0.0585992336273193,0.0377233102917671,-0.0917803794145584,0.0028841975145041,0.0123356951610185,-0.0777484327554702,0.1509325115416664,0.0382551584485452,80
1733062189116235000,-0.3625944545352831,0.2395429156124591,-0.8949391073368489,0.2244791654607281,9.649107322204111,-1.736287640392035,0.4698736369609833,0.5164587497711182,-0.0640176013112068,0.2472652601442817,0.3120995782504225,0.7007994622013269,0.5918899807215842,-1.003703236579895,-0.1785116493701934,0.139836311340332,0.0108283758163452,-0.0446171760559082,-0.0665898919105529,-0.0471550747752189,-0.00547840539366,-0.0777644725434947,-0.0881988629698753,0.0423094251082977,0.066726598640671,81
1733062189156024600,0.2338227296010591,-0.3218628869026899,-1.5673301268734037,0.2610286616357043,9.645633508613706,-1.750435408210009,-0.434991180896759,0.771004855632782,-0.1086934432387352,0.2379089578403813,0.3041281964295929,0.7048073532089644,0.5951067433496655,-0.5967682600021362,-0.0734934136271476,-0.0416921451687812,-0.0436773896217346,0.0991739630699157,0.0524607896804809,-0.0155320828780531,0.054515067487955,-0.0374975746970274,-0.0694306418299675,0.0596155701922252,0.0765657414453337,82
1733062189195812900,0.3500789640942588,0.5856757358968258,0.5357493832111359,0.2267740166659466,9.680511345249414,-1.5513395076677203,-0.288608968257904,0.1734446287155151,-0.1569007188081741,0.2358899301930166,0.2932161036056038,0.7022254767055686,0.6043671329250668,0.1566594690084457,0.0731604248285293,0.0179257113486528,-0.0286293625831604,0.0273468494415283,-0.015512641519308,0.002079511526972,0.0304665528237819,-0.0640344917461741,-0.1118672117590904,0.0508697847153758,-0.069770811475045,83
1733062189235602700,-0.0405837749260477,0.2509218032389879,0.6548679300665855,0.2015939461694099,9.67873030705154,-1.5658623924084007,0.3020116686820984,-0.1217481195926666,0.0098230643197894,0.2368490360019809,0.2929374669040391,0.7028686959105084,0.603378616244052,-0.4378560781478882,0.0785483196377754,0.0124732879921793,-0.0083527565002441,-0.0756590962409973,0.0359904766082763,0.0116941565647721,0.0307656433433294,-0.0265287931081955,-0.1225190982222557,0.0548886056024115,-0.0066172741317306,84
1733062189275391000,-0.1866915788581594,-0.285758138820529,-0.6921111806593835,0.194323279312998,9.655615388923882,-1.7034376563221216,0.2538206577301025,0.0174347348511219,-0.0452916994690895,0.2362352165386459,0.2958282871690808,0.706637652548257,0.5977806598846749,-0.3038159906864166,0.1021956950426101,-0.0240005664527416,-0.001291275024414,0.0025773644447326,-0.001419723033905,0.0348254442214965,0.0117242010310292,-0.0194400290071964,-0.1136348769068718,0.0576112446324899,-0.012452672604192,85
1733062189315180500,0.1673264965170063,0.0549643468528985,-0.2028301186345517,0.1537958559503778,9.664446345633268,-1.6568660208918151,-0.3160329461097717,0.0695623531937599,-0.1858009845018386,0.2368222600296358,0.2921502681296223,0.706487707242958,0.5995319563047307,-0.1019603535532951,0.1221661046147346,-0.0072448225691914,0.0112810134887695,-0.0109259486198425,0.0241727195680141,0.0389140471816062,0.015160521492362,-0.0597069291369523,-0.0894348472356796,0.0403050995485624,-0.0222918108422774,86
1733062189354969000,-0.6480389608293772,-0.2491764208763837,1.4240310784853991,0.1507931213372852,9.673052261415124,-1.606139311608672,0.1097557768225669,0.0256443787366151,0.2318637669086456,0.238105230129185,0.2919157727988686,0.7047520829050556,0.60117843177869,-0.1714153289794922,0.0424455516040325,-0.0558609589934349,0.0401737093925476,0.0151070952415466,-0.0102004390209913,0.0412114411592483,0.0006803267169743,-0.0461526976321823,-0.0508809760212898,0.0807449405258521,-0.0183922552536241,87
1733062189394758700,0.254882815824449,-0.2625987970292568,-0.1298281569182872,0.2746847369465977,9.65205915774703,-1.712510020571947,0.2364863455295562,0.5517346858978271,0.2125661373138427,0.2282935616764168,0.2926121568428848,0.70830207835864,0.6004734402360823,-0.2287140488624572,0.0587593279778957,-0.0850120559334755,0.0008270740509033,0.0035297274589538,0.0123258829116821,0.0312300603836774,0.0071468069218099,-0.0678945829741191,-0.0453838780522346,0.0351885511192726,-0.1289275730830617,88
1733062189434547200,-0.7273134269438684,0.1308247667402029,-0.2600992352984845,0.4349216222625225,9.63572177093029,-1.770332679465413,0.1643245071172714,0.8577254414558411,0.4472374320030212,0.2132604284211467,0.2883671862803436,0.7121139022405476,0.603537973664249,-0.3387270867824554,-0.1206200122833252,0.0828049704432487,0.0291166305541992,-0.0749686360359191,-0.0870526432991027,0.0240634344518184,-0.0169852804392576,-0.0460050008237594,-0.064706452190876,0.0083619104297744,-0.1620041324504651,89
1733062189474336500,-0.3755889241322875,0.1277495970785618,0.0135176532208919,0.7143684590443968,9.609468554776909,-1.8215894039720293,0.1977940797805786,0.8302544951438904,0.6133585572242737,0.1938937331752811,0.2877214000814219,0.7142069784541947,0.6078898292557313,-0.418295681476593,-0.1677429527044296,0.0547847263514995,-0.017792522907257,-0.0129190683364868,-0.059463620185852,0.0130984205752611,-0.0184758808463811,-0.0299494654389913,-0.0599625073373317,-0.0275421006198739,-0.0806667059241794,90
1733062189514125000,-0.0460042838711291,-0.0254343009859323,-0.288661751307547,1.0219408817227928,9.576205167600513,-1.849959173887968,0.1106591522693634,0.7353979349136353,0.6284539699554443,0.1734776374224715,0.2875004483612873,0.7153077395057758,0.6128490592608962,-0.4536438286304474,-0.0375008955597877,-0.0249866694211959,-0.0203451514244079,0.0524236559867858,0.0695449113845825,0.0247130058705806,-0.0268234983086586,-0.0198077777574886,-0.0325233414769172,-0.0058985782105417,-0.0110972964894608,91
1733062189553914600,0.1014466965645551,-0.0151981536537408,-0.4298927612498402,1.299161274626851,9.543673601830005,-1.8441499030873176,-0.0076179550960659,0.6405065655708313,0.590600848197937,0.1563047769797417,0.2881259263470635,0.7148488870641481,0.6176920342912104,-0.5774720311164856,0.0139525486156344,-0.0298783630132675,-0.019814908504486,-0.0053395628929138,0.0184700489044189,0.0439594611525535,-0.0242583472281694,-0.0653652288932818,-0.0290458463132381,-0.000651751040155,-0.0482748043526895,92
1733062189593703000,0.0588838583841919,-0.0001648351728916,-0.61494376982674,1.5763557293720545,9.515469836130736,-1.7723741221651437,-0.1809799522161483,0.5305370092391968,0.623802661895752,0.1406781016396445,0.2891181557543001,0.7118824528948036,0.6243746542068459,-0.3247721493244171,0.0289159975945949,0.0006197583861649,0.001101791858673,0.0044739842414855,-0.0389945544302463,0.06372582167387,-0.0330837592482566,-0.0443825370213482,-0.0375951118767261,0.0655170036552008,-0.0547809257105458,93
1733062189633492700,1.27399979923293,0.0092366149008274,-0.0023825112223625,1.8107794022746384,9.49290086144805,-1.6662265544332562,-0.2300602793693542,0.06464334577322,0.3924836814403534,0.1310660309083725,0.2931515233661327,0.7064107156546674,0.6307676609746645,-0.1385199725627899,0.0364924259483814,0.0785102248191833,0.0207085609436035,-0.0091887712478637,0.0154257975518703,0.0467025302350521,0.0024091135710477,-0.1000299251018091,-0.0408623144030571,-0.0580081486953189,-0.038560753798997,94
1733062189673281300,0.0614363193459808,-0.1177840833812952,0.0638299364842474,1.891932814003527,9.488539159107209,-1.5995609561316668,-0.1418104320764541,-0.1037276163697242,0.1685287356376648,0.1302401692559566,0.296642068241765,0.7025371137263337,0.6336265177303166,-0.1574625074863433,0.2626042366027832,0.0825517773628234,-0.0476343035697937,-0.0260863900184631,0.0850476026535034,0.0394365042448043,0.00849777366966,-0.0386245123507454,-0.0501148328185081,0.0167181080713926,-0.0391203193439403,95
1733062189713070600,-0.3268471050560474,0.0533510664373636,-0.0228780406318604,1.998149355318397,9.477665882915256,-1.5335023838125168,-0.1368304789066314,0.3841162323951721,0.3764233589172363,0.1263631207638091,0.2986249951101002,0.6992924819896323,0.6370600288012659,0.2531266212463379,0.2340603619813919,-0.0190783124417066,-0.0081113576889038,0.0492781400680542,-0.0455156564712524,0.0492418222129344,0.0040336600504815,-0.0714910045974655,-0.0714720785617828,-0.0153626782993786,-0.0625800368878524,96
1733062189752859100,0.0246224000811576,0.0780050307005643,0.3806149356007576,2.1994411584697664,9.4438846093446,-1.4648890124440193,0.060217835009098,0.6001089811325073,0.5217515826225281,0.1135335332831241,0.2978603320220435,0.6971138897998279,0.6422006412806861,-0.009599532932043,0.2011896520853042,0.0529213771224021,0.0299036502838134,-0.0546722412109375,0.011215329170227,0.0531486496329307,0.0088166892528533,-0.036882404224039,-0.0713926255702972,-0.0390133838041685,-0.078723892160179,97
1733062189792648700,0.3302493147149682,-0.2559428462713957,-0.1714448002897202,2.447174102539569,9.390120285931228,-1.4168085798859595,0.0135109852999448,0.845475971698761,0.5285851359367371,0.0956150200389278,0.2957362862712212,0.6962594224542829,0.647008918271353,0.3428746163845062,0.0490026250481605,-0.0342372246086597,0.0042713284492492,0.0723612904548645,-0.0560083389282226,0.0458174087107181,-0.0120017174631357,-0.0004475445505668,-0.0900544971227645,0.0031150809760991,-0.1248266131707932,98
1733062189832437200,0.4769125788390636,-0.2341092001259326,0.2939842615045607,2.6499147893249986,9.350180489730834,-1.312417646563053,-0.0693651288747787,0.7159803509712219,0.3198615312576294,0.0792582370744935,0.291053208280351,0.694408172695185,0.6533019031049583,-0.1014295890927314,0.1016619950532913,0.0655784532427787,-0.0018328428268432,-0.0678147077560424,0.0130597352981567,0.0302813798189163,-0.0056762928143143,-0.0033645690750068,-0.091007612645626,-0.0014236036331538,-0.067619624790526,99
1733062189872226800,0.4567126713752746,-0.0318541049003601,-0.1077810141526162,2.7729154383108017,9.324797626671195,-1.2367131478898226,-0.055979661643505,0.5911040306091309,0.1914787888526916,0.0680909376963731,0.2868319476925045,0.6933846369494622,0.6575018972566823,0.3375296592712402,0.1061170995235443,-0.0127335311844944,0.0158643722534179,0.0311172604560852,0.0248789750039577,0.0319822058081626,-0.0369843095541,-0.0190006101100472,-0.0663571804761886,-0.0091382262812257,-0.0273453359387582,100
1733062189912015000,-0.3931850788384676,-0.1995318077415227,-0.2572223646879196,2.8592127887994048,9.309918037447332,-1.149221326919645,-0.1201521009206771,0.7584351301193237,0.2984110713005066,0.0589923028759959,0.2819919711986209,0.6921520849450458,0.6617597130723272,0.6771647334098816,0.1947649866342544,0.0057866903953254,-0.0398470163345336,0.0270431041717529,0.0242833495140075,0.0453562252223491,-0.0266215428709983,-0.0599188548545818,-0.051487635821104,-0.0319533663070411,-0.0248290240025846,101
1733062189951509000,0.3924669936969876,0.0937374373614788,-0.1529870603181421,3.014930881516636,9.276571063640713,-1.0128392183132469,-0.1410766988992691,1.002177596092224,0.3044431209564209,0.0438589613499056,0.2753427967442065,0.689801981131636,0.6681587539080129,0.6929048299789429,0.1444758772850036,-0.0054579079151153,0.0160024762153625,0.0064048767089843,0.0315954089164733,0.0752425268292427,-0.043777585029602,-0.0180095669458154,-0.0561500564217567,0.0193770376404281,-0.0442710668703541,102
1733062189991286500,-0.2520958154544234,-0.0272276141434907,0.0218552003901451,3.164791772638261,9.242810248336196,-0.8514458564385772,-0.0388029627501964,0.8881723880767822,0.3447772860527038,0.0272868206562856,0.266767101033327,0.6872022768439671,0.6751621215013072,0.4970940053462982,0.1256784349679947,-0.0435793250799179,-0.0227240920066833,0.0020084381103515,-0.0139707922935485,0.0781803354620933,-0.0497124679386615,-0.0010708366812177,-0.0833892524242401,0.0381096444640541,-0.1092562560706399,103
1733062190031065000,-0.1808764993712306,-0.0844978998512029,0.4369580965261906,3.349153483776748,9.18979762007296,-0.707952089196071,0.1172094643115997,1.392701268196106,0.4840869009494781,0.0058201070755453,0.2565783032482719,0.6857573091843933,0.6810805462634714,0.4097756147384643,-0.0558572672307491,-0.0878598392009735,0.0281542539596557,0.0425236821174621,0.0283019542694091,0.069156527519226,-0.0338393934071064,-0.0318754467991995,-0.0670943558216095,-0.0035655235907615,-0.0403854439089307,104
1733062190070842400,-0.0020560557469725,-0.0645358927965164,0.2732873643040657,3.595603110037744,9.10264715988636,-0.6195484140779822,0.3475559055805206,1.235295295715332,0.6089845895767212,-0.02160098854914,0.2463236964496506,0.6862308749362146,0.6840652152115869,0.2839287519454956,-0.0289895385503768,-0.1471402645111084,-0.0355089902877807,0.0161621570587158,-0.025221824645996,0.0853510275483131,-0.0534195266664028,-0.0426123764105141,-0.0687840580940246,0.0502890667845495,-0.0911695961674675,105
1733062190110620700,-0.0139084061041474,-0.0297469034880399,0.1904010643679648,3.847323954699933,9.002465368691086,-0.5692830752288922,0.4352400600910187,1.296301245689392,0.6318997740745544,-0.0488726123073277,0.23747549121998,0.6874814547145112,0.6845334546608353,-0.0770898908376693,-0.1088127344846725,-0.0156184658408164,0.0226633548736572,-0.0554537773132324,-0.0332680344581604,0.0947374999523162,-0.0482190325856208,-0.0908032653394155,-0.0752067863941192,-0.0070036248345044,-0.082140194276534,106
1733062190152886000,-0.3460226379081607,-0.060398062339425,-0.5926853223979472,4.188117752043903,8.85415112248957,-0.4838080374412238,0.3413648605346679,1.4225553274154663,0.7569333910942078,-0.0861669284976699,0.2254566062365559,0.6883579472266559,0.6840379942294795,-0.0248242914676666,-0.141464427113533,-0.0225330982357263,0.0267726778984069,0.0163406729698181,-0.0032700970768928,0.0898226350545883,-0.0310148075222969,-0.0384686916013713,-0.0530169382691383,0.0079694679129315,-0.0430129109022673,107
1733062190192664300,0.0314054843500256,0.1658890658587217,-1.0061094716668129,4.494234203760326,8.709865401151776,-0.332399368888326,0.1673010140657425,1.4478459358215332,0.8212814927101135,-0.1176350751331006,0.2167907423769881,0.6855285730085926,0.6849922209187416,0.01296117156744,-0.1029929295182228,-0.0820353105664253,-0.0004143118858337,0.0549131035804748,0.0342760197818279,0.0756109207868576,-0.0220483504235744,-0.050720233876584,-0.0380174554884433,-0.0214523917429149,-0.0716233668394386,108
1733062190232441600,0.8221732924640178,0.0013040683358907,-1.2987982865333556,4.75915910564959,8.574126558884977,-0.0715828841320006,0.0039436724036931,1.427850604057312,0.6119199395179749,-0.1486204969189939,0.2057700174764294,0.6791968870016827,0.6886669343724385,-0.0098125841468572,-0.1781514883041381,-0.105669729411602,0.0418462753295898,0.0171818733215332,-0.0128906331956386,0.062881514430046,0.0093568051233887,-0.0722981699616182,-0.0543554909527301,-0.0121230296578723,-0.0463319951552664,109
1733062190272220200,0.5339332736998796,-0.1078150625526905,-2.121476021388173,4.945795191460848,8.464774788284302,0.2388855294159613,-0.4551137089729309,1.4432694911956787,0.5085822939872742,-0.1734064182201366,0.1957311423886208,0.6704547318931069,0.6943413548616248,-0.0189418997615575,-0.0527006722986698,-0.1244325637817382,-0.0029919743537902,0.0278568267822265,0.0381794571876525,0.0598687082529068,0.0155681110918521,0.0188728372782235,-0.0400686897337436,0.0583904168780194,0.0344528252898249,110
1733062190311997700,0.6272188756406307,-0.2653852128773927,-0.2477156276088208,5.04105413930118,8.377689794549346,0.7566332641262561,-0.4288995862007141,1.7128746509552002,0.2946825325489044,-0.1990685410463463,0.1792133901300633,0.6552137062506795,0.7063635325605505,0.1933277398347854,-0.0106178289279341,-0.1879727989435196,0.0248867273330688,0.0578999519348144,0.0062183141708374,0.0611163638532161,-0.0100092347711324,0.0148569218759716,-0.0500462986528873,0.0514578274361323,-0.0208113493264419,111
1733062190351776000,-0.4185293634533882,-0.6050888768970966,-0.2411560498975217,5.0774967410355805,8.306787873852253,1.1775883934218436,-0.1434743106365203,1.70936918258667,0.3574488162994385,-0.2242944114249785,0.1604062101664419,0.6436066735583291,0.7139555138886319,0.2244614213705063,0.0222735404968261,-0.187959536910057,0.0210528969764709,0.0509889125823974,-0.0027662515640258,0.0742613151669502,0.0290219374001026,-0.0663562720575137,-0.0693165734410286,-0.0291670166742755,-0.0313490779876709,112
1733062190391553500,-1.2996528575360775,-0.4590881683349609,0.7034415529690683,5.1597038996011015,8.198643140953779,1.526457433737069,0.2655564546585083,1.6571372747421265,0.7771888375282288,-0.2539337161125366,0.1424956799094064,0.6339300541436241,0.7164811544229338,0.3501660823822021,0.0958078950643539,-0.1436249762773513,0.0347146987915039,0.0509428977966308,0.021738052368164,0.0890997201204299,0.0075946301221847,-0.0318473965983605,-0.0851746425032615,0.0369380297016818,-0.0371705438329023,113
1733062190431332000,-1.592571974027157,-0.6091437052458525,-0.1815367168456315,5.401148264920711,7.99720111567676,1.744352288904041,0.3995297253131866,1.7377521991729736,1.3658045530319214,-0.2913704007343874,0.130243362702998,0.6277734084419168,0.7099581205344536,0.4827118813991546,0.1051185727119445,-0.1077304780483245,0.0379844307899475,0.0361058115959167,0.0009850934147834,0.096743032336235,0.0198187120258808,-0.1040177982947323,-0.0926154628396034,-0.0244371956903836,-0.0906100260559469,114
1733062190471109600,-1.5921230612158774,-0.5473638331592082,-0.7335971833884716,5.7324459196448325,7.675351088255644,2.0972446664512154,0.121395468711853,1.8007481098175049,1.7437827587127686,-0.3375396923129048,0.1204839460037688,0.6152673422434046,0.7021372596091172,0.3144744038581848,0.1607374101877212,-0.0320174135267734,0.0230072736740112,0.0143975019454956,0.0464492440223693,0.1019716262817382,0.0225149635225534,-0.0701883153679082,-0.1279301941394806,-0.004344695836291,-0.0872909372363705,115
1733062190510888200,-1.7501169899106024,-0.8151099299490452,0.884438025458157,6.168766375854611,7.198501053258776,2.509642103020847,0.1053031459450721,1.9343466758728027,2.361224412918091,-0.3877678333992219,0.119497578913709,0.5981339203873919,0.6910805909331665,0.1815435141324997,0.1731444895267486,0.067172884941101,0.024363100528717,-0.0318987965583801,0.0491433814167976,0.1121811792254448,0.011147073470056,-0.0188167357349011,-0.1376564502716064,0.0226166862819343,-0.0280230251377681,116
1733062190550665500,-1.1836842991441487,-0.9407306983053684,1.6674363686144351,6.669398852977157,6.597630670839548,2.8567069434583185,1.0746444463729858,1.8420847654342647,2.77256441116333,-0.4473484130830688,0.1184723397523586,0.5833633387783282,0.6674810142113746,-0.0539976209402084,0.1628713458776474,0.1298083662986755,0.0172168016433715,-0.0350571870803833,0.0573996156454086,0.1268728971481323,0.0472622141242027,-0.1134002879396546,-0.1534637063741684,-0.0666930845301365,-0.0431379940200829,117
1733062190590443800,-0.2134785000294446,-1.0329682524979114,0.3987485581845045,7.1906310505360365,5.970859538966417,2.9688460066899656,1.1315566301345823,1.172355890274048,2.625117063522339,-0.5028705640502935,0.1202766718274063,0.5780696347468792,0.6312607945799056,-0.0171693004667758,0.0912213996052742,0.1491885334253311,-0.0041436553001403,-0.0640569925308227,-0.0109715312719345,0.1471395939588546,0.0814132243394851,-0.1085772060316055,-0.1811258345842361,-0.0630001391631783,-0.004121857711469,118
1733062190630221300,0.2926806315600871,-1.9054788165360688,0.6989625078588724,7.615217814332246,5.379315787819028,3.040032589547336,1.3095691204071045,1.2741302251815796,2.258666753768921,-0.549214295836271,0.1223984436589275,0.5744737532948709,0.5944427305885512,0.0168946590274572,0.1500927656888961,0.0908978581428527,-0.0475456714630126,-0.038103699684143,0.0249987691640853,0.1642329394817352,0.0972500666975975,-0.0546002536477055,-0.1985578387975692,-0.0140027881230227,0.0057242474110535,119
1733062190669999900,2.7640514561146494,-1.840214609465003,0.7807482261419296,7.694719221070408,5.092139598894119,3.32141675106734,1.660372972488403,2.853076696395874,0.7122424244880676,-0.5925281727623106,0.1008277796387452,0.5661171587380717,0.5641414547307045,0.0133033860474824,0.0703867971897125,-0.0093050440773367,-0.0324854254722595,-0.0173561573028564,0.0162935256958007,0.1380611360073089,0.0954575389623642,0.0072445871336618,-0.1960884183645248,-0.0060259999867383,-0.0097279877474997,120
1733062190709777400,0.9026713090240956,-0.1221937165170908,-1.9426842193365097,7.338768771126866,5.168721903315186,3.9493244857549663,0.7269047498703003,2.5421712398529053,0.42013019323349,-0.6326723695840972,0.055013550533304,0.5437039615271163,0.5487122811302435,-0.0566972680389881,0.1797187179327011,0.0123338727280497,-0.0464752912521362,-0.0669829249382019,0.0512481927871704,0.0810829475522041,0.1012762412428855,0.0342969497415237,-0.1932781785726547,-0.006153422333757,-0.0083586778638942,121
1733062190749553700,-1.101256191304326,1.1808449840649962,-1.547140302412212,7.318249130189418,4.873492171794176,4.343118636402488,-1.0306531190872192,-0.0040965778753161,1.1369694471359253,-0.6539568955839496,0.0550913540101823,0.5249071490977235,0.5420126599702418,-0.3345158398151397,0.0492194034159183,-0.0336729697883129,0.0051546692848205,-0.0627548694610595,-0.0053707808256149,0.0737509354948997,0.028196033090353,0.0541888826681068,-0.1865488588809967,0.1212558146124705,0.0123833177120075,122
1733062190789331200,-0.3638490942388773,0.9228437439590692,0.7286740477725863,7.52565386326313,4.36729416949898,4.523455914330482,-0.6572540402412415,0.176772654056549,1.12862229347229,-0.6649817767361677,0.0793812015538674,0.5129001503562475,0.5370579082236012,-0.2508670091629028,0.0319230780005455,0.0383500270545482,-0.0003586411476135,-0.0500019788742065,-0.0143231749534606,0.0655224993824958,0.0004554417682811,-0.0685739800730254,-0.1764906495809555,-0.010823991406837,-0.1197870207015424,123
1733062190829109800,-0.594213262617588,0.0851081407040357,0.1664806020110845,7.649626864412427,3.977253526166081,4.672799503579736,0.2722042798995971,0.4974733591079712,1.326166033744812,-0.6815128035912278,0.0892361571615869,0.503776173403282,0.5232464192696364,-0.1066818758845329,-0.0104942582547664,0.0978435799479484,-0.0088275074958801,-0.031535267829895,-0.0325592905282974,0.0112882684916257,0.0091746160760521,-0.0142853759155783,-0.1471278816461563,0.0206760736081749,-0.1177260878500528,124
1733062190868888000,-0.3086030078351497,-0.0869715964883565,-0.0638747985392809,7.734219456809758,3.604802023276687,4.832974575705826,0.4387470781803131,0.9497708082199096,1.6379791498184204,-0.7041356426979635,0.0910901456302613,0.4952670591816581,0.5006058279655445,-0.0408831536769866,-0.1180305704474449,0.1710314303636551,-0.0099176168441772,-0.0383483171463012,-0.076569378376007,-0.021401347592473,0.0582405366003513,-0.1167648598687723,-0.101124957203865,-0.0681166830258909,-0.1107576188106089,125
1733062190908665600,0.15998013407588,-0.0275301042214035,0.4700198967158794,7.766922287493943,3.0979440957680344,5.123284094220399,0.3517725169658661,1.3716915845870972,2.0463995933532715,-0.7337572451107147,0.0933094306798754,0.4796650540381462,0.4720328363609154,-0.2673141658306122,-0.2705270648002624,0.2300725877285003,-0.0169880986213684,-0.0346897840499877,-0.0660055205225944,-0.0135012557730078,0.0688414871692657,-0.0770932039521168,-0.0714927911758422,0.0246875765551463,-0.0821332256796304,126
1733062190948444200,0.144875503924489,-0.1102294302180409,1.8404431575238704,7.682218051415681,2.690131064379215,5.46965247682631,0.7715506553649902,1.9279911518096924,2.238786697387696,-0.7610383714405008,0.090707840947315,0.4614080943824088,0.4468726413283013,-0.5392812490463257,-0.1574968546628952,0.2360468655824661,-0.0711944103240966,-0.0549578070640563,0.0118107795715332,0.0127006769180297,0.0413453504443168,-0.1257035786684136,-0.0887242406606674,0.0110135203462792,-0.1947155482999049,127
1733062190988221400,3.043803632518649,1.8462528667159377,-0.7193769348561764,7.528841261127591,2.1837872238725424,5.892199259227514,0.9796358346939088,1.2645022869110107,2.2803940773010254,-0.7984586972754507,0.0824823184422657,0.4390650394395634,0.4035868650381625,-0.4527894854545593,-0.071847528219223,0.2467942386865615,-0.0223836302757263,-0.0127346515655517,-0.0119095370173454,-0.0428009107708931,0.0689470842480659,-0.1682442872153595,-0.1255119442939758,-0.0689567140466067,-0.299422433970496,128
1733062191028075000,2.708850377896428,0.6840761966332792,-1.814866817718744,7.4754849339932194,1.9137825345009565,6.051855568176507,-0.0747281908988952,0.0137675106525421,0.7457859516143799,-0.8155073366686073,0.080157605334069,0.4301348524166222,0.3788227468189985,-0.3434203863143921,-0.0405030772089958,0.2061561346054077,-0.020171046257019,0.0170660614967346,-0.0254388526082038,-0.1085918918251991,0.0837704762816429,-0.0950828423547558,-0.1354172229766845,0.0209337701297132,-0.2629086666960269,129
1733062191067855400,0.381546663492918,0.1300527594543993,1.2045973233133551,7.565556834584474,1.735927867168933,5.993270108217001,-0.0257463883608579,-0.2232274711132049,0.0671982318162918,-0.8168674230924222,0.0883233846253173,0.4320037672262148,0.3718860800064195,-0.310772955417633,-0.0550087839365005,0.1264965981245041,-0.0232359766960144,0.0497767329216003,-0.032095730304718,-0.1471524238586425,0.1080670654773712,-0.1331600960862822,-0.134086400270462,-0.0552189472350524,-0.1875247600129805,130
1733062191107636500,-1.1264221967428922,0.1483656841278076,0.2176578315407037,7.7025453846514225,1.6588075103484092,5.8386243209064,-0.207325592637062,-0.5512054562568665,0.3546981811523437,-0.8137014291184483,0.0950039065628052,0.4396444806904138,0.3682076452097946,-0.1935531347990036,-0.1113027334213256,0.0713089704513549,-0.0091708898544311,0.031482458114624,-0.0326004028320312,-0.1442544162273407,0.0825755447149276,0.0314640781028894,-0.0863464698195457,0.1108185460844542,0.0584930096028139,131
1733062191148727300,-0.1451747791320085,-0.8563853586673736,2.4590987874805927,7.698731379321217,1.3633575602054595,5.919558975318074,-0.0138084888458251,0.888197124004364,0.7673851251602173,-0.8197286025167753,0.1053479509599126,0.4325370401981125,0.3603590051851045,-0.1586758345365524,-0.1162783727049827,0.0764515399932861,0.0087695717811584,0.0261877179145813,-0.0231339912861585,-0.0895701795816421,0.0721978619694709,-0.0307485045789042,-0.0379948243498802,0.0393319391008932,0.0753006214469205,132
1733062191188440300,0.2686076820552349,-0.5684726721614599,1.1781646589398382,7.537237918072939,1.1608880185116082,6.165450383174419,0.4681105315685272,0.6163176894187927,0.8862970471382141,-0.8338515846421868,0.1022110480007659,0.418571893353851,0.3450247468102697,-0.1213050261139869,-0.1259605139493942,0.1358099430799484,0.0173543691635131,-0.0205206871032714,-0.0190263409167528,-0.0191446281969547,0.0479707047343254,-0.0366904047662974,-0.0259609222412109,0.056375921550719,0.0603176997127477,133
1733062191228220700,1.2570277677744626,-0.047227980447188,0.8905044858902692,7.412376443651318,1.0658112953703849,6.331754459574818,0.5660091042518616,0.8455072641372681,0.6824998259544373,-0.8451892234104393,0.0954620806403813,0.4099479942901253,0.3293704989981785,-0.0720088481903076,-0.1224118992686271,0.1253358572721481,-2.819299697875977e-05,0.0225154161453247,-0.010996401309967,0.0391684211790561,0.0698713436722755,-0.084725470662536,-0.0346666947007179,-0.0096654096559737,0.0654545100453542,134
1733062191268001800,1.150505083119869,0.5532266607780009,-0.2080745951592922,7.166353518369793,1.0238041913766414,6.615556788152456,0.556501030921936,1.105289340019226,0.5854026675224304,-0.8590354288118733,0.0839976403880017,0.3945185192796243,0.3152106385725306,-0.1225966587662696,-0.1540365666151046,0.124369665980339,0.0086342096328735,0.0094174146652221,-0.0065889358520507,0.0751194953918457,0.0686492845416069,-0.0634111996155232,-0.0484487153589725,0.0158752240815316,-0.0853411640086211,135
1733062191307782100,1.3723749793976543,0.809658313479647,-1.2725579298615457,6.94388448715508,1.0160701630584894,6.849851281717419,0.1575947403907776,0.7851095199584961,0.2215344905853271,-0.8689233112489254,0.0749575387168002,0.3809673962821671,0.3069488786838848,-0.0603841468691825,-0.1414134949445724,0.1189506649971008,0.0055821537971496,-0.0059926509857177,-0.005862534046173,0.0223951544612646,0.0657906681299209,-0.1052444540128577,-0.1165322810411453,0.0224210860780207,-0.1959736951348371,136
1733062191347563300,1.0161322685092686,0.7442872850332408,-1.3045184177458289,6.695441641250253,0.9608333559397608,7.1005807772547005,-0.2506402432918548,1.0105605125427246,0.0498722791671752,-0.8764642331056243,0.0715015419190004,0.3644978028738392,0.3063321960983333,0.0137060564011335,-0.1144159659743309,0.131474032998085,-0.0023178458213806,-0.0038721561431884,0.0034990312997251,-0.0153471287339925,0.0490962080657482,-0.1119698258782736,-0.0883964225649833,-0.1049272960887756,-0.0749563837196677,137
1733062191387344600,0.6351672042965889,-0.0748477357134222,-0.4651905768632888,6.435059935748577,0.8677773980364203,7.348969262623786,-0.2862011790275574,0.8017372488975525,0.0178296566009521,-0.8825854107570373,0.071416882403654,0.3467080335370608,0.3094125939774949,0.002184156794101,-0.0878911986947059,0.1267497390508651,-0.0121185779571533,0.0120293498039245,-0.0037419791333377,-0.017376298084855,0.0632645934820175,-0.0603663976926822,-0.0733564719557762,-0.0288382870434084,-0.1496556326068006,138
1733062191427124700,0.7379284905910491,-0.2791228655245155,0.1133750347673892,6.220070446634292,0.7892375298067927,7.540438759940862,-0.197044089436531,0.6313658952713013,0.0122929038479924,-0.8873620067358354,0.0713278479430298,0.3323506730276135,0.3115189672004316,0.0930054038763046,-0.0685561746358871,0.1110702976584434,-0.0082135200500488,0.0199209451675415,-0.0037198066711425,-0.023683862760663,0.0549928620457649,-0.0314079777012113,-0.0334422104060649,-0.029811445207789,-0.0520632048841798,139
1733062191466906000,0.8788689931541681,-0.4343958448227494,0.04545008405447,6.09394465136528,0.751627710923925,7.646521299612521,-0.1881659775972366,0.190594732761383,-0.1740192472934723,-0.8891785801522614,0.0716928267649205,0.3240309583210415,0.3150009919061387,0.1603745818138122,-0.0506087057292461,0.1153828203678131,-0.0060784816741943,0.0090032815933227,-0.0038502216339111,-0.0146314548328518,0.0423980690538883,-0.0378453971874318,-0.0084349839016795,-0.0270250955750234,-0.0585832588692661,140
1733062191506686200,0.4552881915301084,-0.4472632174413651,0.6443149718701839,6.028509179380536,0.754020451279357,7.697981437736749,0.0741469636559486,0.3253511786460876,-0.0297617614269256,-0.8898022550807625,0.0709807730017607,0.3201154589622017,0.3173954639612704,0.1904890835285186,-0.0630953684449195,0.0968947634100914,-0.0033261179924011,0.0105343461036682,-0.0092570781707763,-0.0210686791688203,0.0325739942491054,-0.0556991411005845,-0.0127306003123521,-0.0163966952389455,-0.1067469127313699,141
1733062191546467600,-0.1209668050706386,-0.0101806908179074,-0.4282493779569864,5.9905018125474445,0.7989204271703958,7.7230819767236705,0.0824936404824256,-0.1233004853129386,-0.1910768151283264,-0.8901359671069192,0.0682651322918384,0.3187040391173381,0.318473707477569,0.0776019468903541,-0.0844869911670684,0.1367805898189544,0.0018269419670104,-0.02653169631958,0.004098355770111,-0.0330923274159431,0.023402739316225,-0.0433198214269708,-0.0216922033578157,-0.0362270318881142,-0.0852439415786881,142
1733062191586247700,-0.7211696634918451,-0.0929025939725339,-0.2975841856926679,6.047370531716942,0.8466273502409458,7.673520950219035,-0.0363002493977546,-0.1484884470701217,-0.0819371491670608,-0.887633144313608,0.0682260583724939,0.3226523195568654,0.3214782144656245,0.0426948331296443,-0.1023761853575706,0.1676484942436218,-0.0034311413764953,-0.0204744338989257,-0.0137589573860168,-0.0460824519395828,0.0082413777709007,0.0026053784591145,-0.0066256807185709,0.0220359660678193,-0.0494218098301906,143
1733062191626029000,-0.0385650007158517,0.0979919530007988,-0.6566378623485565,6.05369739665091,0.8192865580465644,7.671499673524498,-0.076072946190834,0.0167440697550773,0.0636152476072311,-0.8877206935562852,0.0695953525976442,0.3225195598874265,0.3210757954474296,0.1792643815279007,-0.0614927783608436,0.1416967809200287,-0.0201831459999084,0.0055256485939025,0.0096576213836669,-0.0411764867603778,-0.0055463472381234,-0.054911899713031,0.006010397337377,0.0034944933355436,0.0135094242486637,144
1733062191665809200,0.253655612117052,0.0344406142622232,-0.5904132858127356,6.062248367375135,0.7782412117570638,7.669020131668448,-0.1910926550626754,-0.0017404110403731,-0.02912238240242,-0.8872523466399974,0.0722483136515915,0.3221319219437175,0.32217156324106,0.374339610338211,-0.0825759023427963,0.0979155525565147,-0.0075991153717041,0.017970323562622,-0.0180107355117797,-0.0261400286108255,-0.0025863961782306,-0.0557190650771837,0.0006851989310234,0.0067341419770498,0.0297574614146724,145
1733062191705590500,0.2112538097172975,0.0742949241362512,-0.39739539000988,6.029981005498766,0.7111528579987585,7.700907554316521,-0.2916611433029175,0.1860636174678802,0.0405188389122486,-0.8876112031544359,0.0754356166915728,0.3188611724960635,0.3237026412756146,0.4191584885120392,-0.0870940685272216,0.1292216181755066,0.0078920125961303,0.0058592557907104,0.0068306922912597,-0.0109128979966044,-0.00438964786008,-0.0136539552773989,-0.0153453554958105,0.0493159063368802,0.0064228326967975,146
1733062191745371000,0.7712199348181485,-0.0235365045405924,-0.2289361814022064,6.010655542781949,0.6128094246791675,7.724433391332626,-0.3301316201686859,-0.0654536634683609,-0.110897809267044,-0.8874619080681669,0.0807349055912001,0.3156665553840522,0.3259570489331315,0.5457568764686584,-0.1287623196840286,0.1422527879476547,0.0255290865898132,0.0264770984649658,-0.0252456665039062,-0.0020797699689865,-0.0154995247721672,-0.0270243146903114,-0.0209349021315574,0.0406309750686399,0.0018455907632451,147
1733062191785144000,0.2590413968086242,-0.1404706565616652,-0.5199719683647156,6.080505324077606,0.5769635467289015,7.672350152873992,-0.3634985685348511,-0.2767556607723236,-0.2420164793729782,-0.8838083154586779,0.0862369290906645,0.3184057260244977,0.3317586987981558,0.9057512879371644,-0.1527959555387497,0.2383787930011749,0.0379238724708557,0.0288010835647583,-0.0237612798810005,-0.0209057200700044,0.000765515374951,-0.0602024530023569,-0.0263691078871488,0.0260474690147908,-0.0138289465181238,148
1733062191824925200,-0.2136959421724081,-0.50954866442997,-0.3378717724174261,6.180645029696822,0.5131400399854407,7.596492655596137,-0.401229590177536,-0.2258836030960083,-0.1287714093923568,-0.8796103150899729,0.0937641457005518,0.3223273850577396,0.337044807597581,0.8588799238204956,-0.2925321757793426,0.3476147055625915,0.0561462640762329,-0.0087640285491943,-0.0161410048604011,-0.0303729120641946,-0.0048142215237021,-0.01331425786959,-0.041159201413393,0.0723221764582907,0.0018525593601487,149
1733062191864705500,-0.2822323027819395,-0.3518218622388318,-0.0375151994019746,6.237957985502481,0.4163155963940546,7.555458049896359,-0.2414937019348144,-0.086698904633522,0.0851263403892517,-0.8779605587101301,0.1004727780639421,0.323549180206134,0.3382401516788598,0.3947668373584747,-0.2729629576206207,0.3867267370223999,0.0502107739448547,-0.0165045261383056,0.0815193131566047,-0.0571599677205085,0.0071654077619314,-0.0526661437799688,-0.0213103331625461,0.0256550264979479,0.1051622647552751,150
1733062191904486700,-0.4406470872372388,-0.1611582014119252,-0.1354775609821081,6.258856981146336,0.2870034261738881,7.544184960731863,-0.3314988911151886,-0.0544872768223285,0.2087303698062896,-0.8780087872773723,0.1071357937959168,0.322297274045067,0.3372640089398735,0.3871914744377136,-0.2890847623348236,0.409986138343811,0.0140966773033142,-0.0126615166664123,0.0251262784004211,-0.0518824346363544,0.0110347662121057,-0.0144330727240012,-0.0336280167102813,0.093059108841652,0.025885771080479,151
1733062191944267000,0.1504571034491062,0.0774119327787775,-0.2124059023618698,6.279770005315542,0.1358217987093608,7.531030880126357,-0.3450853228569031,-0.145335704088211,0.1444900631904602,-0.8781985955294953,0.1147381804032131,0.3207170454756962,0.3357722789764894,0.4806492626667022,-0.2972265779972076,0.4586889147758484,-0.0015646815299987,-0.064123511314392,-0.0121268033981323,-0.0399306118488311,0.0164102911949157,-0.0486022507753456,-0.0807051658630371,0.0499603371536824,0.0271369653015281,152
1733062191984048000,-0.0969365256637334,0.0539488222679588,0.1101683476805686,6.344156845030188,0.0044098959993993,7.4781041765809055,-0.2787990570068359,-0.2799889743328094,0.1174167245626449,-0.8768890380406048,0.122798437915614,0.3219368619413712,0.3351758030017523,0.7758931517601013,-0.2682825028896332,0.4443624317646026,-0.0064260959625244,0.0431904792785644,0.0222171694040298,-0.0211316086351871,0.0253617670387029,-0.0366904047662974,-0.1035952866077423,0.056375921550719,0.0603176997127477,153
1733062192023828500,0.1156739593595266,0.1559112406691536,-0.055075406011939,6.4314201179414985,-0.0950088820694014,7.402580441302061,-0.2221589982509613,-0.253438264131546,0.1093063727021217,-0.875239916359704,0.1295566507703165,0.3252514763953385,0.3337388307371481,0.6185157895088196,-0.181597352027893,0.4453350901603699,-0.0196674168109893,-0.0009982585906982,0.0417929887771606,0.0202844943851232,0.0273180194199085,-0.1032024998564738,-0.0973139852285385,0.0359575490306597,0.0328612132834037,154
1733062192063609600,-0.1200929448455572,0.0914316994360648,-0.0543903463572263,6.493008851370215,-0.1993203204153105,7.346529468256235,-0.2580104768276214,-0.1823381185531616,0.1387647837400436,-0.8739777792035123,0.136116977960899,0.3269608512230885,0.3327637109858375,0.4827315807342529,-0.1834799349308014,0.4266077280044555,-0.0148561596870422,0.0228253602981567,0.0044431090354919,0.0523516237735748,0.0239355564117431,-0.0347644211228005,-0.0781337544322013,0.0323993450924288,0.0200364422640763,155
1733062192103215400,0.0248778361469507,0.2082045416818931,-0.0845937614411115,6.53747927673757,-0.3138487630015238,7.302961544686555,-0.2484410256147384,-0.1065396070480346,0.2064312994480133,-0.8734731797630146,0.1423979777314906,0.3276818624090806,0.3307445216690511,0.3127958178520202,-0.1630232334136963,0.3712839186191559,-0.0193096995353698,0.0301239490509033,-0.0033726692199707,0.0574874207377433,0.0337412245571613,-0.0772490247014909,-0.0567490309476852,0.0334362161427852,-0.0782406386878807,156
1733062192142990300,0.0818675513476133,0.1257218175780028,0.1100450135618448,6.550669013178348,-0.4499867241211235,7.283997901019454,-0.2598384618759155,-0.0493481010198593,0.2188188731670379,-0.8736953258545824,0.1489872745687738,0.3262242456990843,0.3286896924519388,0.340241014957428,-0.1024045273661613,0.3664285540580749,-0.0287023782730102,-0.0029387474060058,0.0089248567819595,0.0510355830192565,0.0266779884696006,-0.0777445440003182,-0.0344791412353515,0.019178583325725,-0.0697777755053713,157
1733062192182765300,0.0386041636824607,0.0137004259092733,0.2382522912800312,6.576275163599848,-0.5775349899413064,7.251857380393147,-0.1893233954906463,-0.1513630449771881,0.226955235004425,-0.8739030117897452,0.1551218168645901,0.3258763336097071,0.3256306833737521,0.3616536259651184,-0.1512171328067779,0.3294190764427185,-0.0148408710956573,0.0132304430007934,-0.0267813205718994,0.0445519611239433,0.020408621057868,-0.0514993513231864,-0.0104250302538275,0.0222908107618568,-0.0521604273141128,158
1733062192222539000,-0.443224244248867,-0.060628510094434,0.1376554895430803,6.633581689664721,-0.6781323396675288,7.190695932465792,-0.0973593294620513,-0.3061615228652954,0.2605534791946411,-0.8735048666183449,0.1604738805717892,0.3280619995129792,0.3218891167142912,0.1908976137638092,-0.2654862403869629,0.2854441106319427,-0.0105213522911071,-0.0026569962501525,-0.0101338028907775,0.0438397228717803,0.0080675799399614,-0.0508760591925354,-0.0006707122083753,-0.0127037498719873,-0.0677307798476889,159
1733062192262313700,-0.1239285774856805,0.0296619286183267,-0.0936123496770858,6.738209354352951,-0.7688719103872775,7.083484096503257,-0.0638063624501228,-0.4993987679481506,0.2525660693645477,-0.8723412455443633,0.1659798441857206,0.3336068174953396,0.3165088379369873,0.3985408246517181,-0.1588566154241562,0.2607931494712829,-0.0296581089496612,-0.0004159212112426,0.0165388584136962,0.0417037717998027,0.0233062487095594,-0.0770134075810201,0.0032010681461542,-0.0419373312597395,0.0440487613226054,160
1733062192302087400,0.1735837120145559,0.2513463122613728,-0.4680769459545612,6.87778850543499,-0.8611196937128901,6.9372092471748585,-0.1801508367061615,-0.5111148357391357,0.2016150057315826,-0.8698046249122605,0.1727568521626214,0.341256243328778,0.3116714355042812,0.3836702406406402,-0.0824408307671547,0.1700529903173446,-0.029074877500534,-2.6702880859375e-05,0.0407084375619888,0.0545187257230281,0.0167029816657304,-0.0177458973412169,0.0106433751061558,-0.0154929581821197,0.081233235499449,161
1733062192341862400,0.5725029505908489,0.2481868983823806,-0.4288964436888695,6.987936979371309,-0.995477018493414,6.807946907445788,-0.3871727287769317,-0.1862292736768722,0.2464357316493988,-0.8672299826254675,0.1816096176759395,0.3462791401936125,0.3082544959063897,0.4887703061103821,-0.006922319997102,0.1386007964611053,-0.0127991139888763,0.0302305221557617,0.0487300753593444,0.068762220442295,0.0069426535628736,-0.0277037095059291,-0.0061403312720358,-0.0053815691699361,0.0109861437155865,162
1733062192381636000,1.4392629882782697,-0.4857552990514784,0.5558756409168243,6.876997062796354,-1.2021565790977329,6.887098185572028,-0.5082589983940125,0.6333733797073364,0.2121833115816116,-0.8693714031288119,0.1898026826233878,0.3359027333506929,0.3087682379754849,0.0698383003473281,-0.0419313833117485,0.121140718460083,-0.008296251296997,-0.0118759870529174,0.048460841178894,0.0680963769555091,-0.0089530935510993,0.0107649820954422,-0.0247357450425624,-0.0133510370828676,0.0539990500512765,163
1733062192421411000,0.5810422308772802,-0.3538698442772031,1.0915993051648138,6.772299255481362,-1.3017206037208435,6.972221523845195,-0.0333461910486221,0.1095919013023376,0.0158274061977863,-0.87154618859501,0.1926020872406405,0.3277499909783483,0.3096638931570391,-0.0294179767370224,-0.1619633436203003,0.0890122056007385,0.015069156885147,-0.0325304865837097,-0.0385400503873825,0.105646327137947,-0.0159902404993772,0.0153243932572484,-0.055144052952528,0.0252119041066383,-0.0324891148682683,164
1733062192461186000,-0.2013262899428606,-0.2346218258231878,0.3310299436986446,6.765927966883778,-1.283601301923394,6.981759167519211,0.1207865253090858,-0.0377973616123199,0.0227255374193191,-0.8718504366622097,0.1914289624135198,0.32769542209478,0.3095922766502857,0.0101115889847278,-0.1964286416769027,0.0861218720674514,0.00874724984169,0.010607361793518,-0.0063530057668685,0.1075426638126373,-0.0276388060301542,-0.0721704016963718,-0.0713075324892997,-0.0613752231087768,-0.0534394845063332,165
1733062192500959700,0.0306616802453994,-0.0195835291311144,-0.4244985009908676,6.776352914786338,-1.280617317676544,6.972191128706932,0.0405494011938571,-0.0417793467640876,0.1108906045556068,-0.8723397893596208,0.1907348874625369,0.3288425019655683,0.3074186445641267,-0.1802367866039276,-0.1746175289154052,0.1822714358568191,0.0299826860427856,-0.0352144837379455,0.0149008780717849,0.0831646099686622,-0.0067870104685425,-0.0330223129960941,-0.0318451672792434,-0.0233321479247766,-0.0195671259855851,166
1733062192540734500,0.0410427890062332,0.0125869482420384,-0.574647561404109,6.76253014113903,-1.325657067364454,6.9771917134732,-0.0887872874736785,0.0755632296204567,0.1830166280269622,-0.8732760558683481,0.1919324441881251,0.3277562587823835,0.3051667457126219,-0.1699780225753784,-0.0686657950282096,0.2505372762680053,0.0163888335227966,-0.002466082572937,0.0199389606714248,0.0509296916425228,0.0039812824688851,-0.0705560618349118,-0.007278339471668,-0.0678545203917892,-0.0859355588383506,167
1733062192580508200,0.1971498810410499,0.0458652407266199,-0.3013116817831993,6.721793641602993,-1.412205908396095,6.999539738881587,-0.1510244756937027,0.1402661353349685,0.2019345611333847,-0.874688953869375,0.1946786605504139,0.3243809517361258,0.3029795912098897,-0.0845118537545204,-0.1023353934288024,0.3124296963214874,0.0152790546417236,-0.0138914585113525,0.0053131878376007,0.0257993545383214,0.0079024378210306,-0.0058141250722808,-0.0158846415579319,-0.0322082087177899,-0.0220904065186623,168
1733062192620283100,0.3459931195527315,-0.0200236741140484,0.2046130565285682,6.687723029696941,-1.495057210084051,7.014951827546954,-0.1182838454842567,0.1636950075626373,0.1552412360906601,-0.8756565670535523,0.1976835228396087,0.3213381600160986,0.3014773423847678,0.2801569104194641,-0.1762522310018539,0.3823815584182739,0.0312983095645904,0.0033277869224548,-0.0488291978836059,0.0193735733628273,-0.0006103197811171,0.0583045195596991,-0.0036594062112271,0.0384326658733421,0.0573251029011793,169
1733062192660057000,0.2203536464959382,-0.0740728058181703,0.1778641658127308,6.668212858062982,-1.5340823756575583,7.025091528767347,-0.0242801159620285,0.0569190755486488,0.0786902382969856,-0.8763031404425063,0.1988989314259034,0.3197799491778977,0.3004544945141078,0.795722246170044,-0.236527070403099,0.5457069873809814,0.0293211042881011,-0.0109546184539794,-0.0221206843852996,0.0233537405729293,-0.0245985127985477,-0.0309323823789833,-0.0036053573712706,0.0075770253960887,0.0759783060793532,170
1733062192699831800,0.0598041880995035,0.0062241352118551,0.0169189860969781,6.674485946983099,-1.544049642920494,7.016946216234564,0.0143778882920742,-0.0267543122172355,0.0404726043343544,-0.8763470683652578,0.1993049758343895,0.3201762624496582,0.2996340340217369,1.1894078254699707,-0.1379543244838714,0.5972469449043274,0.0032042562961578,-0.0455092191696167,0.0412262380123138,0.0310923904180526,-0.0147560341283679,-0.0312720786451478,-0.0163988508284091,-0.0154292464377882,0.08054858683669,171
1733062192739606500,-0.0418517673015594,0.1063828377924859,-0.1679115115970373,6.672293989896774,-1.5574186814509332,7.01607644766271,-0.0054781381040811,0.0332959070801734,0.0983448475599289,-0.876791670613099,0.1994673335208283,0.3201444031014129,0.2982561619608433,1.4759352207183838,-0.0588291399180889,0.6420684456825256,-0.040911316871643,0.0613591074943542,0.0208911597728729,0.046160627156496,-0.012589949183166,-0.0563984621760901,-0.0235082749277353,-0.0392784005490597,0.0388980137961916,172
1733062192779378400,0.0679436554133892,0.0566708585098385,-0.092052845275402,6.644649027124047,-1.6046717232741414,7.031646357238293,-0.1055579781532287,0.118661530315876,0.1435189694166183,-0.8776996233488059,0.2008104415442775,0.3180581173602141,0.2969135295358234,0.7918106317520142,-0.0008561182767152,0.4030040800571441,-0.0423106253147125,-0.0339329838752746,0.058548629283905,0.0601009503006935,-0.0171724446117877,-0.0475395397475454,-0.0490152202546596,-0.0517836983896326,-0.0033260517082584,173
1733062192819153400,0.2723018603980541,-0.1456942729614675,0.1923719991147518,6.620753772273659,-1.6450189312316477,7.044850122204423,-0.0160846170037984,0.0180530007928609,0.0860896930098533,-0.8784787050343948,0.2019487797203342,0.3162740892636773,0.2957405775654741,-0.3195049464702606,-0.0770294442772865,0.2692853212356567,0.001135379076004,0.0139548778533935,0.0411034226417541,0.0450644940137863,-0.0201323945075273,-0.0528581409544218,-0.0436900220811367,-0.0697342742903623,-0.0338793225510744,174
1733062192858927000,0.06040741468966,-0.1049137881532311,0.0895008227050304,6.6282432512462135,-1.649138056988269,7.036839834228157,0.0328041575849056,-0.0020467799622565,0.0931023955345153,-0.8786982789859108,0.2018830567171175,0.3169609563852824,0.2943947812290478,-0.9448031783103944,-0.260915458202362,0.1317858397960662,-0.0377675890922546,0.0296734571456909,-0.0570300817489624,0.0499492324888706,-0.0080479467287659,-0.0884098034647759,-0.0511178448796272,-0.0572261269055772,-0.134099221833609,175
1733062192898701800,0.1244441257923841,-0.0997878234416246,0.0544195724517106,6.615232963025569,-1.6728190845660864,7.043490524289012,-0.0495529659092426,0.1555094867944717,0.0831956192851066,-0.8793147907193031,0.2023745849850227,0.3161114693487025,0.2931273845455629,-0.9305869340896606,-0.3865834772586822,-0.0069583998993039,0.0108954608440399,-0.0106259584426879,-0.0685749351978302,0.0745351165533065,-0.0316959768533706,-0.0436034195747459,-0.0765042901039123,0.021773801150429,-0.0742438652358716,176
1733062192938476800,0.3606611118525266,-0.0610701163820922,-0.0532423453658819,6.561574438074231,-1.6997154209285974,7.087107547697425,0.0593875721096992,0.1029174774885177,0.0622740238904953,-0.8809600464592096,0.2020402510559452,0.3127903626588318,0.2919783594329735,0.4867058396339416,-0.3576819598674774,0.1613429337739944,0.0217740535736084,0.0478042960166931,-0.0240023136138916,0.1203633397817611,-0.0335864201188087,-0.07037218860141,-0.0556047968566417,-0.0360996061161626,-0.0866132571705151,177
1733062192978250500,0.1308072310835123,-0.027493863864243,-0.0411199458956718,6.545573735865951,-1.6970795194670556,7.102518467319011,-0.0112108886241912,0.0906488820910453,0.0071802111342549,-0.8814140381792764,0.2014784908262749,0.3118954358742453,0.2919535954894156,0.6199376583099365,-0.2899490594863891,0.3644514381885528,0.0429244041442871,-0.1569626331329345,0.0051358640193939,0.097950130701065,-0.0775770619511604,-0.0491058985817013,-0.0022227652370929,-0.02793168445935,-0.1041194503046106,178
1733062193018025500,-0.0860772779971361,0.0033821897841989,0.0089414313465356,6.542939880231023,-1.7050608736097812,7.103034600147605,-0.0005988050252199,-0.0436378978192806,-0.0147558925673365,-0.8814340684764072,0.2018390318353434,0.3116200165424996,0.2919385326998902,0.0606565214693546,-0.350203663110733,0.1729407310485839,0.0282298624515533,0.1492639183998108,0.0080435574054718,0.0260121449828147,-0.0464999303221702,-0.1320693234411999,0.0318428799510002,-0.116459428915102,-0.2147728872215375,179
1733062193057799200,0.0852116010785102,0.1602136505708098,-0.1081149222820997,6.554957065761089,-1.7073168358430266,7.091402614542842,-0.0080388830974698,0.0783990398049354,0.0471454374492168,-0.8812641621132835,0.2020908570923028,0.3124073818807261,0.2914351560204744,0.0426231920719146,-0.2589841783046722,-0.0647057220339775,-0.0486197769641876,0.0521711707115173,0.0717166364192962,-0.0148343397304415,-0.0064118392765522,-0.0465285680401371,0.0111406939104199,-0.0463992745380848,-0.1567561670606956,180
1733062193097574000,0.1512193199932575,-0.1157674828618764,0.0355915378630161,6.508551872938871,-1.738990469609946,7.126362868764996,-0.047853872179985,0.1115190908312797,0.0697007328271865,-0.8823681300694207,0.2025281718431621,0.3092554574372819,0.2911527127034812,0.2495220452547073,-0.2359233200550079,0.0541157387197017,0.0103437602519989,-0.0692864060401916,0.069939911365509,-0.0083180535584688,-0.0247033312916755,0.0476953604969196,0.0236713327467441,0.0430350588019937,-0.0005665352834912,181
1733062193137394400,-0.055770987060666,-0.1648888027749955,0.080499185603857,6.500512943390011,-1.7561589004233478,7.12948889183104,-0.0478901416063308,0.0182799529284238,0.0278552118688821,-0.8825078129790788,0.2032040458408862,0.3085536132441292,0.2910028259340125,-0.2788637578487396,-0.2219235301017761,0.1263325363397598,0.0391546189785003,-0.017291247844696,0.0045043528079986,-0.0130365192890167,-0.0116066569462418,-0.0460810252020368,0.043416254222393,-0.0495143560850061,-0.0319295447567477,182
1733062193178412300,-0.0952209539175033,0.0296345291547477,0.3033218525618315,6.480556781554221,-1.779347029917687,7.1418971225053065,0.0084330393001437,0.1129629015922546,0.0801133587956428,-0.8830824765952189,0.2037291826024983,0.307179118683573,0.2903459707201082,0.6512311100959778,-0.2218482494354248,0.1720698624849319,-0.0430437922477722,0.0127943158149719,0.026503175497055,0.0042255045846104,-0.0269226338714361,0.0092266711788368,0.0206061694771051,0.0510045307106804,-0.0435794450441142,183
1733062193218188800,0.081918404752016,0.1226782851636409,0.0279337165862321,6.462780886366963,-1.78964119104743,7.155419451901317,0.05464643612504,-0.036495603621006,0.0388766191899776,-0.8839363206220077,0.2033495687173293,0.3063072029705564,0.288931370956317,-0.0213363487273454,-0.1301818788051605,0.2233292609453201,-0.0171265304088592,-0.1305150985717773,0.0181099474430084,0.0229618400335311,-0.0401504151523113,-0.0562426368601387,0.0396534837782382,-0.0480270401366986,0.0350054268044419,184
1733062193257964300,0.0517699347257614,-0.0684400606282055,-0.1246300037533044,6.4612067689180375,-1.7890113687112927,7.156998830047249,0.0009939167648553,-0.0108436327427625,0.0106856757774949,-0.8841671609418906,0.2030792056614203,0.3063551220632596,0.2883639317713188,0.091911643743515,0.1642211526632309,0.0485476031899452,-0.0740726888179779,0.1043667793273925,0.1290815472602844,0.0008574071107432,-0.0126344477757811,-0.0170746264665503,0.0462590306997299,-0.0331148021686938,-0.0676265933874296,185
1733062193297741000,-0.3017009733617306,-0.0713505412474274,-0.1048082819521427,6.4515072126805775,-1.797324000634998,7.1636623795896766,-0.0343727469444274,0.0161519311368465,0.0368724167346954,-0.884429926746133,0.2032131691300825,0.3057110764370502,0.2881471770240906,-0.0214370153844356,0.3488429188728332,-0.1569858491420745,-0.0451580882072448,0.0780956149101257,0.0855756998062133,-0.0207963958382606,0.0044230376370251,-0.0462087980338605,0.0361458472907543,-0.0002621632049238,-0.0248220576889696,186
1733062193337516500,-0.0336760596305131,-0.1773810584709048,-0.0091278938293457,6.434274922850728,-1.827463702832908,7.171531797790527,-0.0384988784790039,0.1002439185976982,0.0643700584769249,-0.8848545106363478,0.2042118983283699,0.3043865021566738,0.2875393712268207,0.2389016151428222,0.0972406715154647,-0.0974742472171783,0.0073859989643096,-0.1319347023963928,-0.1458226442337036,-0.0165342781692743,0.0011291877599433,-0.0708595839592861,0.0248592384159564,0.0132771498627495,0.0615688916505081,187
1733062193377293000,0.3635392976373434,-0.1831713323101401,-0.1217769524097442,6.41399727397561,-1.8493563856892288,7.184072714933753,-0.0160496197640895,0.0162182245403528,0.0107001541182398,-0.8853725760115925,0.2047320523597008,0.3029835068361571,0.2870559269239992,0.0743536949157714,-0.0774701014161109,0.0216293707489967,0.0401444435119628,0.089639663696289,0.0468748807907104,-0.0240064859390258,0.0385088846087455,-0.0250983310468145,0.0145086012780666,0.0166543963270611,-0.0384356661146041,188
1733062193417069600,0.3264613206088543,-0.1088033429376781,-0.2755354354918003,6.407530123788118,-1.863270637012273,7.186248305407166,-0.0929231420159339,-0.0476448908448219,-0.085113413631916,-0.8851904464676648,0.2055859456461931,0.3022213066731832,0.2878101222660361,-0.2871456742286682,-0.4230181276798248,-0.0543958209455013,0.1019550859928131,-0.0196388959884643,-0.110039472579956,-0.0461835116147995,0.0099673215299844,0.0647899086567806,-0.0095334285870194,0.0530190260379807,-0.0694443194670369,189
1733062193456845300,-0.3389887937486172,0.1085157581679523,0.112506435239315,6.446447591203451,-1.869600716816633,7.1497057504296295,-0.0854191109538078,-0.0407742448151111,-0.0597520284354686,-0.8835878841844603,0.2074830780944711,0.3040019995558805,0.2894929170032297,-0.0578943602740764,-0.3750494718551636,0.2634235620498657,0.0698647201061248,-0.1759222745895385,-0.073715716600418,-0.0280217472463846,0.0063013369217514,-0.0966373143882956,-0.0097168302163481,-0.0160809963362989,0.0322737756341346,190
1733062193496621800,-0.0428571449518203,0.1519558175742626,0.4353782069236039,6.380757267674803,-1.9167815701864657,7.195989362698793,-0.0609758719801902,0.323908269405365,0.1083085164427757,-0.8848554458507769,0.2084710491378555,0.2994102002709142,0.2896964807934755,0.8897038698196411,-0.0048536295071244,0.2618039548397064,-0.0996905267238617,0.1079668998718261,0.1371850371360778,-0.0108639569953084,-0.0032165434677153,-0.068749729365576,0.0076516950502991,0.0210554853967973,0.0206099427195382,191
1733062193536397300,-0.1874222677528858,-0.1612694432340562,0.3887900587499141,6.339772346335649,-1.9387448340609668,7.226267596584558,-0.0081478310748934,-0.043453674763441,0.0035617526154965,-0.8856571363928453,0.2087155657879308,0.2966491453466948,0.2899113413638858,0.2422265708446502,0.1717366874217987,0.0557268187403678,-0.039124459028244,-0.0020649433135986,0.0682201981544494,-0.0044902912341058,0.008195262402296,-0.1129047686408273,0.0155157651752233,-0.0524354448632104,-0.0516008572025923,192
1733062193576173800,0.1070388174831867,-0.0775458887562155,0.0545090043008327,6.367630659598111,-1.9073967789866029,7.210097383028268,0.1005334332585334,-0.1052833497524261,-0.029994923621416,-0.8853086703484696,0.2075840146965287,0.2988247347257119,0.2895535190543803,-0.0036255288869142,0.3537102937698364,-0.0462972819805145,-0.0743064880371093,-0.002740740776062,0.0917006433010101,-0.0091738030314445,0.0164259187877178,-0.0244750366328749,-0.0096098966896533,-0.0183401620234944,-0.0540060186481801,193
1733062193615950300,0.0812982270270585,-0.0507515514634549,-0.3287649213761091,6.395016679173708,-1.8843616480968888,7.19189244877398,-0.0152009688317775,-0.0787612721323967,-0.0271998532116413,-0.8848144554649033,0.2069836402707958,0.3007877857732591,0.2894612501711014,-0.7099882364273071,0.2065423429012298,-0.2213715612888336,-0.0211450308561325,0.1139694452285766,0.0260230600833892,-0.000873680866789,-0.0130995158106088,0.0415976418434409,-0.0326713360846042,0.0688276808394584,-0.0116568654593371,194
1733062193655726000,0.1665712029039859,-0.1659869732752442,-0.2850561280310154,6.39922757486701,-1.891230657083541,7.186342997953295,-0.0238452870398759,-0.0188272707164287,0.0069295833818614,-0.8846305566060348,0.2074878031871486,0.3009107823471793,0.2895347200193016,0.314346581697464,0.1318797171115875,-0.3609903752803802,0.0189159214496612,-0.0357106328010559,-0.1571590304374694,-0.0079897083342075,-0.007563694845885,-0.0165709798018389,-0.0160190537571907,0.04477721716105,0.0636298199354205,195
1733062193695502600,-0.0875263077616691,-0.3535578557185828,-0.2100362506210804,6.423481141635775,-1.902827571374923,7.161600186362862,-0.1420355588197708,0.04877245798707,-0.0076468498446047,-0.883677704745017,0.2089783448290295,0.3019735921356752,0.2902647872759903,-1.0692942142486572,-0.387915700674057,0.0609183870255947,0.1500270366668701,-0.0365590453147888,-0.0700781643390655,-0.029605122283101,-0.01441141217947,-0.0010907642254554,0.0187129359692335,0.0612404816800495,0.0272481180754024,196
1733062193735279000,0.1797948416143655,-0.1457169231846928,-0.2909545384198427,6.446008030742407,-1.9366399707362048,7.132236144712567,-0.1300592571496963,-0.0182810928672552,-0.0287249088287353,-0.8826505593302376,0.2115808659761855,0.3026395626599772,0.2908106700869882,-0.1284558922052383,-0.370820015668869,0.084226369857788,0.0737628638744354,0.0423222780227661,-0.1076513528823852,-0.0449676364660263,-0.014816160313785,-0.0335895047250669,-0.0177268125116825,0.0926695250021759,0.0024330249875813,197
1733062193775053800,-0.136199445515871,0.2954926202408969,0.0360416197180748,6.389854181843996,-2.0040549261003733,7.164070960390568,-0.1783548891544342,0.1336930990219116,0.024023262783885,-0.8833078586341666,0.2141044657210938,0.2981498356123419,0.2916043571249279,-0.2208577245473861,-0.183480679988861,0.1705524623394012,-0.0185109972953796,-0.0425012707710266,0.0454015135765075,0.0006991411210037,-0.0174650754779577,-0.0793507553542498,-0.0392529740929603,0.0892922762545757,0.1024375890317372,198
1733062193814830000,-0.4482587312847376,-0.0607386924706399,0.9288672420322894,6.364181395927071,-2.0522939102210103,7.17326081354022,-0.0726172104477882,0.1643550395965576,0.0772679075598716,-0.8831607234165705,0.2165065087269969,0.2956186984013704,0.2928508225664172,0.229501724243164,-0.1589781045913696,0.2691590785980224,-0.0200300216674804,-0.0077422857284545,0.0401177406311035,0.0123119484633207,0.0217212922871112,-0.1125370221738237,-0.0885517597198486,0.0110743745548883,-0.0529562310340348,199
1733062193854605600,0.4930605805635452,0.2143750104777514,0.2749117506355047,6.33520196968019,-2.053271523081511,7.198588731542229,0.1191858872771263,-0.0873399376869201,-0.0425704382359981,-0.8842491798888364,0.215464199515029,0.2941926343449572,0.2917691288398608,0.1964513659477234,0.054212462157011,0.0581321194767952,-0.0636111795902252,0.0379984378814697,0.1584160327911377,-0.0172711759805679,0.0336995013058185,-0.0397994287484791,-0.0751660987734794,-0.0435520684134215,-0.0215169037799118,200
1733062193894382300,0.1535930633872747,0.0107359135478734,-0.1810036328822374,6.367314433255792,-2.0187229184001683,7.180003273537754,0.0193549245595932,-0.0751553624868393,-0.01976222358644,-0.8837233437650754,0.2143790912601615,0.2965860946921014,0.2917385012682831,-0.0423417650163173,0.2693143784999847,-0.1099351197481155,-0.0600691735744476,0.0566636323928833,0.1336974501609802,-0.0196572989225387,0.0274499636143445,0.0567381607255432,-0.0617378912866115,0.0622846752370474,-0.0434682899869512,201
1733062193934158800,0.0479793102711439,-0.074020052717626,-0.1139823530107736,6.376860844758153,-2.011927997563034,7.173435585585236,-0.001985830720514,-0.0069078528322279,-0.0113215539604425,-0.8834272177541667,0.2143585518546757,0.2971649017124821,0.2920614184897656,-0.5778432488441467,0.1767697930335998,-0.2112068682909011,-0.0212807059288024,0.0451655983924865,0.0155499875545501,0.0113984812051057,-0.010934853926301,-0.0003116469215587,-0.0462439619004726,0.0174972803169221,0.007785176266788,202
1733062193973934300,-0.0307131181716918,-0.1406188693933188,-0.4039122245579957,6.39704497013092,-2.0141627708777783,7.154812718179821,-0.0032042264938354,-0.1816242635250091,-0.004418640397489,-0.8830409355646246,0.2148393090684925,0.2984126961539853,0.291603499105327,0.514030396938324,0.2423256933689117,-0.2978130280971527,0.0257604122161865,-0.0805338621139526,-0.1654178202152252,0.017438082024455,-0.0173183418810367,-0.0466762694151373,-0.0069499351084232,0.025983756128815,-0.0131442921471432,203
1733062194013710800,-0.010684475621581,-0.3018302988298237,-0.2903419594794512,6.425049998387694,-2.0289248712018133,7.125488424018025,-0.1156251654028892,0.0736125260591507,0.063605397939682,-0.8821456320993044,0.2164118119777162,0.299778445322137,0.2917499705932548,-0.180485263466835,-0.4481582641601562,-0.1505501121282577,0.1729309260845184,0.0606412887573242,-0.2333017289638519,-0.0084680523723363,-0.0241504926234483,-0.0408422203662572,-0.0022334675304591,0.0350611276306095,-0.1275582666243892,204
1733062194053486600,0.2710059753686189,0.0378561217941343,0.1372930859714746,6.393852311569452,-2.0685880424179137,7.142127424129844,-0.0725087746977806,0.0885558575391769,-0.0309310443699359,-0.8826041219536217,0.2178079595613496,0.2973424779501966,0.2918169193571842,0.4753660857677459,-0.1870436817407608,-0.1663600355386734,0.0368318259716033,0.1620994210243225,-0.0209529101848602,0.010931578464806,-0.0262103360146284,-0.0806054681230802,-0.0159375257790088,0.0956470064430031,-0.0061409909688023,205
1733062194093263000,-0.4344079005867242,0.0936867300875484,0.6135714585602283,6.399112424054741,-2.07548686202094,7.135411852139234,0.0130685679614543,-0.0305236261337995,-0.0094153461977839,-0.8821295458623569,0.2186061503852334,0.2973324392531319,0.2926642041291892,0.2180048525333404,-0.0731402188539505,0.1410403251647949,0.0242151021957397,-0.193074345588684,0.0572406351566314,0.0399541221559047,-0.0225876253098249,-0.1195977360739838,0.0193137321621179,0.0488552893880754,-0.043905932485545,206
1733062194133039600,-0.1134767415761947,-0.0130110188730061,0.5492781423479318,6.394664212474226,-2.057374866747111,7.144638530167937,0.1199712008237838,0.1128773093223571,0.0362550541758537,-0.8825569279069672,0.2173366177326065,0.2974720334672674,0.2921787787061944,0.5028728246688843,-0.0569517724215984,0.3300811052322387,-0.0094155371189117,-0.0505775213241577,0.064232051372528,0.035899844020605,-0.0220900047570467,-0.0724259427934419,0.0446762628853321,0.0371291615097434,-0.0392245058041997,207
1733062194172608300,0.0910708485007286,0.1649266505673527,-0.041819034075737,6.365941391336918,-2.0231262679256496,7.179981646227836,0.1095894798636436,-0.0162766054272651,-0.0170889422297477,-0.8838039965859535,0.2145021936995205,0.2964989346318902,0.2914923345211855,0.0463942289352417,-0.0339049361646175,0.013229627162218,-0.0857772827148437,0.0268357992172241,0.0567409694194793,0.0225592628121376,-0.0047518368810415,-0.0772770817521959,0.0410002954304218,-0.0070673371496581,-0.081455545613775,208
1733062194212591600,0.247111305040121,-0.1009400622166693,-0.2753390361368656,6.373904333040118,-1.986803931570053,7.183059738498926,0.0814364850521087,-0.0637521669268608,-0.0463555678725242,-0.8839251579550482,0.2126877849257304,0.2975395538404359,0.2913941104736504,0.5252348184585571,0.2909390330314636,-0.3804863691329956,-0.0665704011917114,0.1609165668487548,0.1411485075950622,-0.01164953969419,0.0132136363536119,-0.0260893742110463,0.0174314174801111,-0.0118608670237706,-0.0215099374662968,209
1733062194252356400,0.0788344672620296,-0.1485463013917207,-0.3262345261156559,6.393291170555353,-1.9593986227720968,7.173351414433121,0.0297925006598234,-0.0522248558700084,-0.0172970574349164,-0.8836109177436959,0.2117181650956299,0.2990590002106283,0.2914975252097556,0.2611395418643951,0.1823690831661224,-0.3038017749786377,-0.0154334604740142,-0.0907706618309021,-0.0541349053382873,0.0086221154779195,-0.0042414935305714,0.0301613888733321,0.0234208889305591,0.0998005641921889,0.0832039145179092,210
1733062194292132400,0.1197223579674959,-0.2249620170742273,-0.3153226714789867,6.444280768558382,-1.9545095355562865,7.128921321076154,-0.0307441782206296,-0.1201359778642654,-0.0226894542574882,-0.8825107777495828,0.2125586701904643,0.3022333006791077,0.2909443254696073,-0.244107648730278,0.0835993215441703,-0.223040297627449,0.0623729526996612,0.0743464231491088,0.0407888889312744,0.0115592926740646,-0.0013764144387096,0.0038881419996061,0.0906148180365562,0.0561847828927915,0.0623716639673337,211
1733062194331908400,0.4234685734212398,-0.0317423150889575,0.0590536619931459,6.409134051853418,-2.0016830824024976,7.147493335077166,-0.0643602386116981,0.27906334400177,0.0982540547847747,-0.8831663925879182,0.2141186840671681,0.299553743759381,0.2905822263972623,1.4096251726150513,-0.1043938547372818,-0.4034788012504577,-0.0141498148441314,0.1538788080215454,-0.2142980694770813,-0.0313457362353801,-0.0026600223500281,-0.0559546867642318,0.0690416321158409,0.0821076893795747,-0.0925319340292364,212
1733062194371683600,0.0973883610844612,0.214314220201224,0.2255330949604511,6.344360843169689,-2.02852038205415,7.1975395147502415,-0.0225987080484628,0.0636180862784385,-0.0410741157829761,-0.8843378358378944,0.2142236547915859,0.2951877787500233,0.2914088298577733,1.6345219612121582,0.2938248515129089,-0.122204303741455,0.0364394783973693,-0.0856938362121582,0.1564267873764038,-0.0363258123397827,-0.0123628722503781,-0.1014323392456397,0.0818221420049667,0.0207296098767197,-0.0035274571735179,213
1733062194411459800,0.2432435236960649,-0.0164566292822361,0.206278943914175,6.383008845993876,-1.9994611685693264,7.171453471857309,0.0499494634568691,-0.0647416412830352,-0.1171255409717559,-0.8832060290274397,0.2140008678698682,0.2975924633943684,0.2925568352853057,1.5528600215911863,0.3332675993442535,-0.0415599197149276,0.0234132707118988,0.0593668222427368,0.0684553384780883,-0.0608913637697696,0.0091799767687916,-0.0508480067084077,0.0889034941792488,0.0277998017079895,-0.0645158820549491,214
1733062194451236000,-0.0677951868534088,0.096724636478722,0.0241039291650056,6.370081559881568,-1.957767514438927,7.194413491684198,0.080641284584999,0.1454552859067917,-0.0217758081853389,-0.8836162393852771,0.2116557759249411,0.2973025886658662,0.2933177173964651,0.9608805775642396,0.0823565870523452,-0.0710634142160415,-0.021548181772232,-0.1258752346038818,-0.0858134627342224,-0.078084111213684,0.023563876748085,-0.0748474480190547,0.1164055466651916,0.0468481097175506,0.0095196136853366,215
1733062194491011000,-0.2279536001056432,0.1729350388474762,-0.0315384630799293,6.349478332313895,-1.9382098504014311,7.217884383642673,0.0061042392626404,-0.0395468287169933,-0.0625995770096778,-0.8839613200295292,0.2104056351060628,0.2961752433730637,0.2943164391321816,1.189681053161621,0.0655167251825332,0.0047977920621633,-0.015935331583023,-0.029672086238861,-0.0165674686431884,-0.0437278524041175,0.0003177523612976,-0.0331500858279177,0.1145324409008026,0.0259200455261277,-0.012459638917807,216
1733062194530787300,-0.2890501661032438,0.0680341101758182,0.1491010126650333,6.374511651283502,-1.9195001814953985,7.200798224285244,0.0912717431783676,-0.0912244394421577,0.0176616981625556,-0.8835385077076652,0.2099511405361715,0.2979630331953428,0.2941057592837023,1.9157085418701167,0.0414127744734287,-0.2397413104772567,-0.0588584244251251,0.1008680462837219,-0.0216799974441528,-0.0272545870393514,0.005504107568413,0.0106091567794908,0.144588440656662,-0.0046023969244066,0.0578916416096035,217
1733062194570563600,0.3777309045970439,0.0300533390887081,-0.073982935577631,6.371673212987184,-1.898578243367374,7.208853520447016,0.0935645997524261,0.0591043159365654,0.025263674557209,-0.8841866880721089,0.208319640040415,0.2984186634727248,0.292853348580923,2.057849168777466,0.1042912304401397,-0.3240170180797577,-0.0152186453342437,0.0480571389198303,0.0927785634994506,-0.0134624866768717,-0.0460595339536666,0.0444947378247045,0.1699146479368209,0.0964972026647068,0.0676405260146595,218
1733062194610338600,0.3701934948295354,-0.0261046014629304,-0.1572270359754562,6.3551189685493705,-1.8677089117206631,7.231494391322135,0.0711422264575958,0.0117105534300208,-0.0609216429293155,-0.8847788637391035,0.2062892772921366,0.297894496119045,0.2930357508451604,1.7253577709197998,0.1904156804084777,-0.2938297688961029,0.0075490474700927,0.0257683992385864,0.1175708174705505,0.0169771611690521,-0.0469051972031593,0.003392619846668,0.1644190400838852,0.0419271523590199,0.070834527149843,219
1733062194650114800,0.1954658734768629,-0.0568942920021712,-0.0053092123240232,6.358959861886501,-1.831232846108079,7.237443655115365,0.0589170902967453,0.0397021174430847,-0.0853297561407089,-0.8846190637573657,0.2047450606599131,0.2984501902348834,0.2940339534494646,2.150320291519165,0.1945965737104416,-0.1790392845869064,0.0412640869617462,0.0421364307403564,0.0503382086753845,0.0163024198263883,-0.0593844503164291,0.0211185932112857,0.1806495636701584,0.0805509523237124,0.1261056657964363,220
1733062194689889800,-0.03151858933568,0.1005194987170398,-0.0083171619683504,6.357746978965401,-1.7796030505053697,7.251375734356046,0.1321702748537063,0.0590590387582778,-0.1041226163506507,-0.8845791856721437,0.2023690633766047,0.298880411454492,0.2953587873616042,1.4300180673599243,0.1041246205568313,0.0113817919045686,0.0287605822086334,-0.1189387440681457,0.1337077617645263,-0.0058142207562923,-0.0854415893554687,0.0422571103991707,0.1961254179477691,0.1379710674314294,0.1157069574468303,221
1733062194729666000,-0.2990957592993974,0.2331147822611033,-0.4167617692589759,6.371538772952556,-1.7223080687478185,7.2531053346276275,0.0911354348063469,-0.0644777938723564,-0.1008372977375984,-0.8842570410765928,0.1999992956873266,0.3003245456292173,0.2964709845282613,0.5216579437255859,-0.0171068347990512,0.2511356770992279,0.0287309885025024,-0.1012879014015197,0.0893346071243286,-0.0187620148062706,-0.0763185173273086,0.0122596696410968,0.1875596046447754,0.0930562501642853,0.168329737009108,222
1733062194769434000,-0.1546393575698137,0.4120024459026754,-0.4965437465041875,6.424155679896473,-1.67314817038998,7.2181152697891,0.0921001732349395,-0.2456316649913787,-0.1258141547441482,-0.8830038014121446,0.1989239008890543,0.3039865663842698,0.2971965007990813,0.5914860367774963,-0.0768247619271278,0.4396741092205047,-0.0002646148204803,-0.0282346010208129,0.0033813714981079,-0.0232955235987901,-0.0686406940221786,0.0969652037689462,0.1883387416601181,0.1258525038861203,0.2393795965432189,223
1733062194809209300,0.513801755297184,0.5085191387191415,-1.2453542811155318,6.525300763165951,-1.5884535789228975,7.14616296325624,-0.0190791562199592,-0.3912208676338196,-0.3454315066337585,-0.8800117474236309,0.1978852225776187,0.3106260050790427,0.2998870747839233,0.1622995138168335,-0.0836045816540718,0.6982166767120361,0.0100418031215667,-0.078158289194107,0.0094806551933288,-0.0042633949778974,-0.1161967739462852,0.1564165963754057,0.1948710530996322,0.1840517684064805,0.2758863860876299,224
1733062194848985300,0.3769266024768352,0.6898242387659848,-1.4206342756539585,6.673698011475801,-1.5159734491236507,7.023814348438382,-0.2930529415607452,-0.3943023383617401,-0.5367846488952637,-0.8740169896576638,0.200432916452672,0.3189228488132178,0.3069351724702784,-1.049655199050903,-0.0568466298282146,0.8270538449287415,0.0197820365428924,-0.108928769826889,0.1233923435211181,0.0041721081361174,-0.1435142010450363,0.1731515128760598,0.2242799401283264,0.1941603073036298,0.3480832602323964,225
1733062194888761900,0.487842553654313,0.3144993723973631,-1.1816449022710322,6.774219994410872,-1.4520445823095738,6.940597720569372,-0.1829018294811248,-0.5195960998535156,-0.5721220970153809,-0.8678171693037672,0.2036447103316086,0.3235070645418885,0.31743575594675,-1.682395339012146,0.2127035111188888,0.8566809296607971,-0.0033950507640838,-0.0462370514869689,0.2186110019683838,0.0076984763145446,-0.1529717594385147,0.1238698787015397,0.2841390669345855,0.1981081133476458,0.3843607710655778,226
1733062194928536800,-0.6804542067438364,-0.0377006389714777,-1.210217501282692,6.925429962053895,-1.3991196323297916,6.800828015351295,-0.5264394879341125,-0.3706544041633606,-0.3718094527721405,-0.8601137877246992,0.2088360380002814,0.3311219909931149,0.3270320556367356,-1.644051194190979,0.3682044744491577,1.490619659423828,0.0564143657684326,-0.1554747223854065,0.114179790019989,0.0168951656669378,-0.1667750477790832,0.1513180402605328,0.3267906606197357,0.3019940380241722,0.3875896334515884,227
1733062194968313000,-0.6609855361640453,0.6886299144148826,-0.5948638354808091,7.040934410065412,-1.492782397019863,6.660873016694188,-0.5417760610580444,-0.5471724271774292,-0.2094780504703521,-0.85361652077685,0.2197979431698565,0.3347818038187194,0.3330898886222624,-1.8284825086593628,0.4375684857368469,2.159169435501098,0.0595373511314392,-0.3025771379470825,0.188378632068634,0.0395285375416278,-0.148036316037178,0.1009094478826969,0.3423743844032287,0.2630443853722885,0.3081810560960322,228
1733062195008088000,-0.9594751462638378,0.7344137604683637,-0.5304390018433333,7.306653384941816,-1.4992116994149982,6.366754461285471,-0.1795307546854019,-1.3504396677017212,-0.4230295121669769,-0.8433613341027962,0.2302797193600988,0.3497958062550914,0.3366835379735129,-1.7732906341552734,0.6229071617126465,3.006620645523072,0.0675638616085052,-0.2971566319465637,0.2248222827911377,0.0167534202337265,-0.1608387529850006,0.045989428795292,0.3604930937290191,0.2029044807787053,0.1819712175390683,229
1733062195047864300,-1.3959966780036688,0.5701949659094214,-0.4376929136067629,7.618226933020352,-1.375394765610248,6.020073359468579,-0.0434996113181114,-0.9363178610801696,-0.3364354372024536,-0.8373611902498799,0.2293121563513446,0.374803439810613,0.3252144290462928,-1.482063055038452,0.4452128112316131,3.136427640914917,0.0575051233172416,-0.1723081469535827,0.1215956211090087,-0.065781183540821,-0.1095229759812355,-0.05554699187933,0.4174352884292602,0.1252542822646442,0.3053034365667961,230
1733062195087640600,-1.869884940585494,0.5780829426802695,-1.286102471089363,7.8245637446016065,-1.3958523010969162,5.7444046529859305,-0.6291210055351257,-0.7685185670852661,-0.1003114804625511,-0.8348780077648514,0.2307222452735808,0.3922806461389276,0.3096157521604865,-1.3021657466888428,0.7233321666717529,3.625434637069702,0.0508505403995513,0.0070890188217163,0.1300582885742187,-0.1170636191964149,-0.1006995737552642,0.0026297525652567,0.4874264597892761,0.2129391507220454,0.3697360333856195,231
1733062195127415600,-1.0752110649436712,0.0860338772468268,-0.6023375323623419,7.932952807649969,-1.5194126297920942,5.561477358564734,-0.8020960092544556,-0.030199721455574,-0.1474746614694595,-0.8334972147619959,0.2362623266653866,0.4007788464683348,0.298058418645637,-2.0971570014953613,0.8042277693748474,3.748342990875244,-0.0340514779090881,-0.2058137059211731,0.1269285082817077,-0.0943040251731872,-0.0613693110644817,-0.1230220753663219,0.4575043022632599,0.1168242071068845,0.2979875788617879,232
1733062195167191800,-1.2153326523393393,0.3712811439357698,-0.2037403653472662,7.909519909614324,-1.7011103824183345,5.5422115170806645,-0.9778674244880676,0.2093109041452407,-0.024847712367773,-0.8355983793784388,0.2422724777707335,0.3984092202882372,0.290430016329001,-2.717162609100342,0.7710137367248535,4.307519435882568,0.1055946052074432,-0.0921300053596496,0.0393685698509216,-0.0730169489979744,-0.0716612339019775,0.0304132584422826,0.4624626636505127,0.1516957966648973,0.4849318538393825,233
1733062195208210200,-0.4082154747098684,0.4776254032835364,-0.1260714347332716,7.864956545266509,-1.926865449566394,5.531729870554805,-0.850452721118927,0.0503454208374023,0.2955490946769714,-0.8389105080426446,0.2488407545819391,0.3950171486903344,0.2797658983289662,-3.197731733322144,-0.0654363930225372,4.183698177337647,0.2727624773979187,0.0374633073806762,-0.1448806226253509,-0.1118144392967224,-0.1150755211710929,0.1417074592144694,0.566608726978302,0.0861093719021417,0.8252853600699454,234
1733062195247985400,-0.1089239005774259,1.0242207362882791,0.3851689456433058,7.919107822170853,-2.30107840917036,5.306895279252529,-1.084017634391785,-0.6901240348815918,0.5814465284347534,-0.8368567221616666,0.2662887257826368,0.3981381135313881,0.265041596100773,-2.4371376037597656,-0.0327445976436138,4.668127536773682,0.2792587280273437,0.1493127346038818,-0.1195121854543685,-0.2374338507652282,-0.2632882297039032,0.4486541603431105,0.7821153998374939,0.213728839795012,1.0690993771303443,235
1733062195287630000,0.6827262433290481,0.6677601448655128,0.8560159408330917,7.944480163836479,-2.717496041166782,5.066640415978432,-1.286839246749878,-0.1164490655064582,0.623022735118866,-0.8304785683656124,0.2916703068376609,0.3957292685139162,0.2619775882420978,-2.5240135192871094,-0.1124966293573379,4.382155895233154,0.3442023396492004,0.1332406401634216,-0.1722148060798645,-0.2774457931518554,-0.2384571880102157,-0.0008114385388267,0.7746305465698242,-0.1589974797140806,0.8049848417758941,236
