frame,pose_x,pose_y,pose_z,ori_x,ori_y,ori_z,ori_w,phone_acc_x,phone_acc_y,phone_acc_z,phone_gravity_x,phone_gravity_y,phone_gravity_z,phone_gyro_x,phone_gyro_y,phone_gyro_z,phone_ori_w,phone_ori_x,phone_ori_y,phone_ori_z,watch_gyro_x,watch_gyro_y,watch_gyro_z,watch_acc_x,watch_acc_y,watch_acc_z,headphone_gyro_x,headphone_gyro_y,headphone_gyro_z,headphone_acc_x,headphone_acc_y,headphone_acc_z
0,0.052482,0.233951,0.292692,-0.014356,0.056407,-0.695789,0.715884,0.1155551278859842,20.398303545498848,-4.658530739730597,-0.0940072581456508,9.639950202280282,-1.7980321489043534,0.0752943158149719,-0.1099080592393875,0.3486874401569366,0.3104809212005227,0.3671690762684634,0.6759149349580469,0.5585047020559332,-0.0839021429419517,-0.0558975040912628,0.3556233048439026,16.656967145663497,-8.852909597995877,9.165615364974736,-0.0744985863566398,0.3083717823028564,17.174814961481093,0.415212482213974,1.813302344880998,0.7118013850353658
1,0.049957,0.22187,0.285181,-0.022726,0.038054,-0.69366,0.718938,1.4330378301531077,2.6150638406962154,-1.8231752118587488,-0.0068415501575684,9.783757784712314,-0.6696375561099499,-1.4878689050674438,-0.1828804463148117,-0.4803867042064667,0.3291585327481737,0.3520096922749938,0.640492926755861,0.5979235647356007,0.6878779530525208,1.5026339292526243,-1.354658603668213,4.236012598901987,-4.242073506376147,-1.00191844971776,-0.4370414614677429,-1.4708682298660278,-2.243500080426782,0.3280947208404541,0.0791228374830447,0.3920836204025894
2,0.048105,0.165808,0.274483,-0.0403,0.014633,-0.694417,0.718294,-1.1762898049786683,-12.847806332880255,-1.316847153443098,-0.2277598310992121,9.803877612677216,-0.0497936753498855,-2.034485340118408,-0.3306447863578796,-0.3483694195747375,0.3514659020316393,0.3388851620602573,0.6226520840755457,0.6115005319182552,0.7582820653915405,1.1912431716918943,-1.3632676601409912,-7.732511483848095,6.4748489253014325,-3.7121018297836175,-0.299352765083313,-0.7049821019172668,-11.751987948715684,0.5050374865531921,-2.700692790403962,-0.7622063150182365
3,0.047656,0.123909,0.271302,-0.048904,0.010699,-0.694718,0.717538,0.1408282743602991,-16.06958226776123,4.260739628401399,-0.2891193588819354,9.769541043311357,0.8017996358685195,-1.7544203996658323,-0.0544951818883419,-0.0912267044186592,0.3697712743038895,0.3232040349611297,0.5955323218478394,0.6357277083764937,1.0047005414962769,0.3213821947574615,-0.7526984214782715,-13.871613958323,4.940947166907787,-8.055582577496766,-0.2063135951757431,0.1414791047573089,-7.45453976112008,-0.0046215173788368,-1.437057879449427,-1.2861144537881015
4,0.046213,0.076875,0.26955,-0.054151,0.006113,-0.692651,0.719211,0.4817922406394034,-14.351232873511314,4.194697422695159,-0.3061175111623481,9.746883221301436,1.0367826962195337,0.5167582035064697,-0.1857655197381973,-0.121132031083107,0.3757376787411779,0.319627532708691,0.5873474567302787,0.6416247025451397,-0.4336260557174682,0.0375376380980014,0.1454266756772995,-11.99877542862892,5.116770182281733,-10.102374821561574,-0.2281229943037033,0.0824049860239029,-9.19593100826144,0.0148602221161127,-2.290076392032206,-0.4517977921310812
5,0.043528,0.005022,0.264066,-0.066001,-0.001505,-0.692793,0.718109,1.3078826334819198,-12.941106547868252,-0.396485289427638,-0.3762390586040914,9.7755236248523,0.68408890998438,0.9953002333641052,-0.2354304939508438,-0.2533386349678039,0.3752265346243114,0.327131113689754,0.5984199249729852,0.6277610775796851,-0.920872151851654,-0.2525530159473419,0.5251803398132324,-10.544922189462184,5.205004346051812,-6.791397339183091,-0.1048051714897155,0.1147123724222183,-9.35203810029626,0.1202725991606712,-2.028589355637133,-0.6923202203001827
6,0.042584,-0.011393,0.264386,-0.066079,0.000158,-0.691949,0.718916,0.657781041034311,-10.77758995860815,-0.3672854618957266,-0.4494856427311897,9.791779178604482,0.2990509520432912,1.1023218631744385,-0.4217800199985504,-0.1460790783166885,0.375086670475021,0.3362136786495676,0.6096827102496893,0.6120109922560456,-0.9826457500457764,-0.4655815660953522,0.5839177370071411,-8.436252458155154,4.086164275000989,-5.81727115175426,-0.0482682511210441,-0.0910166129469871,-9.366264194047451,-0.069401741027832,-2.077305894141644,-1.219559403188899
7,0.043493,-0.011499,0.258853,-0.076579,-0.009368,-0.695654,0.714222,-0.8051241041161119,-9.83688147213459,-1.32117027733922,-0.4837048693276941,9.793787011295557,-0.1348040821673348,1.0031942129135132,-0.2203541994094848,0.0168508272618055,0.37269558183838,0.3476290558315715,0.6213108198152915,0.5951680627485215,-0.671699047088623,-0.3543162047863006,0.5016677379608154,-6.749602270504832,3.112126058116555,-4.705910038281977,-0.0088165020570158,-0.0940796360373497,-9.48124257235825,-0.2405152171850204,-2.0333817044802007,-1.087267194244638
8,0.043453,-0.006951,0.257994,-0.07727,-0.006204,-0.695705,0.714132,0.1943821333607658,-8.80094443295896,-1.1105927594482898,-0.431258533177711,9.787954067358374,-0.4246893108552321,0.4915446043014526,0.1761339157819748,0.1854046732187271,0.3663466967988892,0.3552343124295575,0.6288574660231304,0.5866319283704314,-0.166849210858345,-0.1891947239637375,0.4506183266639709,-5.8991550697147845,3.121617232300341,-4.048786145982146,0.0245273765176534,-0.1896228790283203,-9.885213249105217,-0.3534855544567108,-1.8789260329142208,-0.8615421569086611
9,0.042692,-0.007211,0.25835,-0.076768,-0.004107,-0.692118,0.717678,1.1174660792838782,-6.049218789932131,-0.3275263925570994,-0.3975597502587363,9.7784877353549,-0.6273112300992012,0.6109050512313843,0.0630009174346923,-0.0233187805861234,0.3592688821814485,0.3575041465420031,0.6357473987487242,0.5821872354845774,-0.3334528505802154,-0.1078673899173736,0.2055023312568664,-6.08366700297892,3.1102050269261,-4.102002480123937,0.1498363018035888,1.284388542175293,-8.297697389423847,-0.1860982179641723,-3.046147565296292,-0.7192896949641406
10,0.042429,-0.033909,0.26246,-0.078084,-0.007242,-0.685926,0.723433,0.8190954924538731,4.690729712545871,1.1384954233091324,-0.4596658951576799,9.765461080521344,-0.7712843783564866,0.3007416129112243,0.1489549130201339,-0.2087377607822418,0.3578229793508378,0.3573949909341858,0.6415554391807825,0.5767479815321449,-0.7876315116882324,-0.9301679730415344,0.0909914672374725,-2.251777641037106,1.5948217987805604,0.6485083319067955,0.2656967043876648,1.686557650566101,-0.4056003603080287,-0.0379964299499988,-1.3931786979734897,0.3818156531600281
11,0.044631,-0.05878,0.266878,-0.080216,-0.003737,-0.687664,0.721574,0.0535333642017096,12.3258645257473,-2.409908932375908,-0.424634511928074,9.749722244119644,-0.9659148239225148,0.3095245957374573,0.1576507985591888,0.1322903633117675,0.3526103711424359,0.3614231608653592,0.6470094656249481,0.5713300500483607,0.3220070004463196,0.0488692261278629,0.1193608567118644,13.664192858636378,-6.944110697126388,5.663514422237872,-0.4124515950679779,-1.2120730876922607,8.860990613120794,-0.1842849552631378,3.1411490312442183,0.3162682817660271
12,0.046724,-0.080888,0.268397,-0.089201,-0.008098,-0.688291,0.719884,0.2706678294554352,13.154475742304324,-2.860364881443977,-0.4120753650084137,9.744716983178256,-1.020336661396548,-0.2048949003219604,0.0089068217203021,-0.1317217200994491,0.3497267848029921,0.3611102027511934,0.6493243509934963,0.5706737700766821,-0.1700442135334015,-0.0579335987567901,0.2111653536558151,9.097975660943984,-4.989665897369385,4.821178631711006,-0.0004814310232177,-0.3627245128154754,16.369312233310936,0.1100684627890586,3.203572461931407,0.9477637387473136
13,0.054652,-0.058447,0.268865,-0.088725,-0.001685,-0.700964,0.707654,-0.8879441338829696,9.838284324669836,1.8582967941224573,-0.4038772263098508,9.741944595855474,-1.049655914057046,0.6053812503814697,0.0706703588366508,0.2637834846973419,0.34767721149617,0.3604653986556296,0.6508319714322287,0.5706163128543736,0.1748074442148208,0.0289356801658868,0.4501530230045318,8.577222186812758,-7.153079026255012,4.796570552416146,0.0170273631811141,-0.9219764471054076,5.153227397063374,0.4596984386444092,1.6165068302355703,1.3561536201760171
14,0.059165,-0.00539,0.273614,-0.067791,0.015496,-0.704995,0.705795,1.1029089269474148,-4.672964923274517,-0.318646409074217,-0.3123735758824273,9.72667688409686,-1.2102012808002531,-0.1560661494731903,0.1281485855579376,-0.2710668444633484,0.3404977704977433,0.3646338087598612,0.6547864362105597,0.5677660600906722,0.3326676487922668,0.0992472320795059,0.0006790827028453,-2.7522739245593546,1.951850107088685,-3.2791198703467845,-0.0559293366968631,0.0406828448176384,-5.136951385045052,0.0129727432504296,-1.2556781067311764,-2.849752594275772
15,0.064627,0.128273,0.28637,-0.033909,0.029761,-0.706976,0.705798,0.3993686993768438,-8.015451642638444,-0.2328689908064901,-0.4457564296076074,9.721770407354832,-1.2078422965839504,0.1656549721956253,-0.1300136297941208,-0.3551566898822784,0.3447753089900909,0.3604972207607543,0.6569814099684782,0.5652851243675973,-0.4293319880962372,-0.2531218528747558,-0.2012343406677246,-6.588192980408668,3.5138170994937417,-4.48720386673212,-0.084532044827938,-0.1123279333114624,-6.221187467965484,-0.3641632199287414,-1.148463348159194,-2.450838031874597
16,0.066445,0.181939,0.294907,-0.017779,0.053092,-0.706302,0.705693,-0.4865608798133209,-8.461445351600647,-1.3565864586353302,-0.550577497976087,9.708076228523254,-1.2729947138436135,0.0030766744166612,0.0399812757968902,-0.1050037369132042,0.3473504452581335,0.3589747487006425,0.6603346087089093,0.5607522024526896,-0.0729754567146301,-0.2948310673236847,-0.0781483575701713,-7.072778578093647,2.152905178874731,-3.659906947644055,-0.1149276569485664,0.1183151975274086,-5.900574873384833,0.0650389716029167,-1.4177648576974868,-0.772477460598573
17,0.066759,0.218261,0.299579,-0.007093,0.061555,-0.704074,0.707418,-0.5203147904530168,-2.571550277662277,1.2593560645915567,-0.5189182945933193,9.71360288299024,-1.2437931692786517,0.0599497817456722,0.2621081471443176,0.2106765657663345,0.3447867128905145,0.3569639043633041,0.6602973374300817,0.563654411686095,-0.0553706288337707,-0.4815822839736938,0.2744691073894501,-4.443570476710796,0.8238444405466318,-1.719132653582096,0.0561230108141899,0.4166481494903564,1.0341006175287066,0.2453581839799881,0.5337720187235623,-0.2864878048019483
18,0.066056,0.240336,0.295154,-0.031687,0.027555,-0.696532,0.716296,-0.2176690835870802,14.225942944544553,2.1639446054138243,-0.4549516895847394,9.690185182523727,-1.4365566519290207,0.936112344264984,0.0198913253843784,0.0243907868862152,0.3368782259778385,0.359586738443971,0.6662892632903841,0.5597043552526996,-1.1209636926651,-0.9296405911445618,0.1836747378110885,7.0186167797952885,-3.477760282206535,4.001340504196286,0.1688904613256454,0.4045776724815368,10.16954340094924,0.2762554287910461,1.944088240915537,0.6086630821220577
19,0.067955,0.231503,0.294258,-0.04443,0.019841,-0.695706,0.716677,-3.02565539688766,25.693117926335333,-8.063719122201205,-0.281934434080217,9.66011270034313,-1.6652683769255876,-0.5067166090011597,0.2035916298627853,0.8565879464149475,0.3274364496437137,0.3693029439751501,0.6697166506926397,0.5548696259850859,0.6888428330421448,0.1348516196012497,-0.5144569277763367,21.421151385998726,-11.335904224848749,12.769481568706034,0.180717721581459,0.5150193572044373,23.147277259469032,-0.1361355483531952,3.97571711037904,0.8031308114070445
20,0.070705,0.212259,0.29603,-0.053385,0.013864,-0.695683,0.716228,1.257525634294003,22.259079881477355,-4.488831175673008,-0.0876589394317008,9.747505737113952,-1.071852182969823,-1.7196228504180908,-0.0409126244485378,0.1236371472477912,0.329075475499187,0.3614018289208608,0.6511819809684438,0.580568888005018,1.218727946281433,0.9069930911064148,-0.8662288188934326,19.277702602255346,-11.287432162624595,9.165528855735063,-0.0057027526199817,-0.1231509894132614,18.68905515707135,0.1081430912017822,3.351460007153451,2.6874124530702828
21,0.076059,0.14487,0.303963,-0.06066,0.008026,-0.696097,0.715336,1.1725621627576648,8.510691905328631,-1.1175333723664282,-0.0832004165197256,9.789238846471903,-0.5781599169066175,-1.0845997333526611,-0.6395780444145203,-0.0080418400466442,0.3446412005090124,0.3602355650243182,0.6322248723375048,0.5930805262617966,0.3917416036128998,0.9018449783325196,-0.6803207993507385,8.36536924215853,-6.69332041131258,3.251643834400177,-0.2132012397050857,-1.4169505834579468,6.078698566916585,0.5753432512283325,2.220305375061184,1.6147763531811534
22,0.078295,0.098561,0.308543,-0.064567,0.008378,-0.697088,0.714023,0.2767193480467423,-8.378340367412566,-1.24166477894783,-0.0964058985189069,9.803937233909965,-0.2095209032437764,-0.969572126865387,0.0267470180988311,-0.0440498404204845,0.3563493992462605,0.3579817164791795,0.6184914578231681,0.6019405928371436,0.9740793704986572,1.479129433631897,-0.915861427783966,-2.4748224263131617,-0.5837652261003852,-3.5180700807631013,-0.1719676554203033,-1.094565510749817,-11.652542070579528,0.1696612536907196,-2.653951497495174,-0.9810840437427164
23,0.081906,0.010139,0.313319,-0.074497,-0.000573,-0.695063,0.715079,1.694570459255576,-15.55051280119419,0.7393482942610978,-0.1396860272563062,9.79784359320998,0.3913133666824549,-1.7457256317138672,0.2188730090856552,-0.182282879948616,0.3651336492026825,0.3422905598029649,0.6023999865689114,0.6217948293135233,1.006775975227356,0.2944000661373138,-0.8545284867286682,-13.950607415539023,8.048779911744594,-7.846259443581104,-0.1462097764015197,0.6225019693374634,-8.349989886718989,-0.2774399220943451,-1.8050385205350816,-1.1782022144712507
24,0.083576,-0.014797,0.313447,-0.083252,-0.00427,-0.695381,0.71379,0.6391435605816542,-15.541663139784337,5.038523159518838,-0.2240490304151549,9.78510627671182,0.6098474330684169,0.8206928968429565,-0.3598854541778564,-0.2690604329109192,0.3732603867679352,0.3371724168882195,0.5960043579769951,0.625915658474967,-0.7117071747779846,-0.6869766712188721,0.2202412039041519,-14.505899703609945,3.669207859952748,-11.249924562007187,-0.0966141894459724,-0.247546374797821,-8.268161498337983,-0.272144615650177,-1.797144114023447,-0.6507545764636248
25,0.08562,-0.022867,0.31235,-0.093112,-0.015143,-0.6942,0.713574,-0.4345108495045453,-13.632163397169112,-1.0266016400754452,-0.3433053783060982,9.800243055567146,0.0880749637535307,1.375206708908081,-0.0748919397592544,-0.2864785492420196,0.3709694212581179,0.3464119210774562,0.6127872448855168,0.6056997889547552,-0.9397981762886048,-0.7065637707710266,0.7893610000610352,-10.636953991949555,4.15651148442477,-7.425323018985987,-0.0355857461690902,0.0481575466692447,-9.819761995029449,-0.2850363850593567,-2.558335114519298,-1.1461771369181573
26,0.089375,-0.008344,0.315572,-0.099846,-0.006484,-0.695119,0.711898,-0.6951822586677968,-10.5178529807508,-1.361851831817627,-0.3928327582694589,9.793307703346011,-0.3274074423525482,0.8071486353874207,0.262976199388504,0.025976363569498,0.3636635241753465,0.3511583654767971,0.6272008739270608,0.5924995781016328,-0.0995343700051307,-0.5414636135101318,0.8468793034553528,-7.006949138355255,3.039890258467197,-4.4942935327321285,0.0223685782402753,0.0971742495894432,-9.578879355245828,-0.3720918297767639,-2.1416123620964584,-1.1777869116686284
27,0.08945,-0.000212,0.31863,-0.098839,-0.000624,-0.694984,0.712199,0.6049193655490875,-9.139299604979158,-1.1983961305856703,-0.3693899233616888,9.781244340586662,-0.6009964564843103,0.6039860844612122,0.0539095215499401,0.0441096983850002,0.3556088040490935,0.354346410898443,0.6364596712356433,0.5855767447325876,-0.2165794819593429,-0.1866576522588729,0.6601625084877014,-6.30327187693417,4.477410786992311,-4.442452286335826,0.0457709841430187,-0.0483746826648712,-9.773160402852296,-0.490784078836441,-1.9910230105698108,-1.0763466448448598
28,0.088569,0.001833,0.320597,-0.100942,0.001315,-0.693089,0.713749,0.7399988671243191,-7.952346074905991,0.4056945048648864,-0.3314882819253951,9.76565397274494,-0.832161529449746,0.1549611836671829,0.1878488212823867,0.1000254079699516,0.3491892902228335,0.3585738260144953,0.6433142633552944,0.5793430466586499,0.0552813149988651,-0.1037515252828598,0.1495499163866043,-6.662613722881674,3.368184347461164,-3.679235040709376,-0.0140591766685247,0.1103043183684349,-9.512591065824031,-0.3315464556217193,-2.393425268956274,0.1683493184924125
29,0.086825,-0.019589,0.318859,-0.110835,-0.009993,-0.689796,0.7154,-0.8210879814453422,4.616409507837892,1.838267567050457,-0.3342637745207175,9.748799868577718,-1.0097233513150363,0.6390777826309204,-0.1774962246417999,0.0188022721558809,0.3436762154450223,0.3590223557458336,0.6500650051468359,0.5748086947398693,-1.234601378440857,-1.4658803939819336,-0.2302619963884353,4.245639674425125,-1.643258205169439,2.672639831352234,0.5876722931861877,0.6852189302444458,20.4929890773654,-0.8652610182762146,4.183540361125767,0.3475994587708264
30,0.08626,-0.040307,0.317705,-0.117419,-0.014874,-0.688501,0.715513,-0.2169500668638385,14.704590384352208,-0.2908847611192613,-0.3040879415635019,9.728685301309824,-1.19606352291964,0.5381031632423401,0.3053180575370788,0.1297371834516525,0.3385140353259414,0.3623555580654962,0.6555003574235195,0.5695839238792322,0.1966760009527206,-0.6138163805007935,0.1915454417467117,13.020788571870328,-8.786401528343557,5.173175960114598,0.0699276104569435,-0.0263746362179517,21.537496961009506,-0.4103459119796753,4.391449244329333,0.6289790171809494
31,0.086162,-0.072639,0.316654,-0.125068,-0.01289,-0.694562,0.708361,0.2614553260825574,15.915585299748182,-0.1355376206062734,-0.2839009849128313,9.692496382075548,-1.464686183348298,1.000649333000183,-0.0857590809464454,0.0402913764119148,0.3317368750891129,0.3663346493719605,0.6636845171468484,0.5614912662601353,-0.4904459416866302,0.0014671451644971,0.550324559211731,14.319751693576574,-7.01572456548512,6.677735304167866,0.0822799503803253,-0.3652406632900238,10.54890044544339,-0.2550760805606842,2.5325831258863207,-0.1333244928677566
32,0.086745,-0.066679,0.316048,-0.1275,-0.004271,-0.69863,0.704018,0.839783329565078,8.897717292493581,-4.130710980474949,-0.2532039593594148,9.6549513720572,-1.6994691910825668,-0.0624943450093269,0.3749716579914093,0.0183566305786371,0.3250291378483265,0.3697567064274913,0.6707673159054256,0.5547137065265958,0.7422727346420288,0.4626149535179138,0.2996053397655487,6.325916254940629,-4.791151157715916,4.1985710492581125,0.1713300347328186,-0.7612907886505127,2.4536387685090304,-0.2846600413322449,0.590965878194198,0.2072695075877942
33,0.087057,-0.037628,0.316823,-0.121921,-0.006064,-0.698627,0.704996,1.5809782746061682,0.7574176194369793,-1.087109154138714,-0.2237654277008026,9.682499888718128,-1.5393300670526922,-0.4689811170101166,0.3077762126922607,-0.007837732322514,0.3223479276236974,0.3622728992397482,0.6687617954931381,0.5635671823236471,0.6665817499160767,0.3713287115097046,0.2600523829460144,-0.986444401732087,0.0862836142241954,0.448811688992381,0.0574563592672348,-0.421637624502182,-3.2679993413954973,0.3275960981845855,-0.9276723331592976,0.8467441084884106
34,0.08918,0.078494,0.327988,-0.087848,0.010483,-0.705416,0.70325,0.0743321143414825,-7.683909073242544,2.6759447181165217,-0.2865181634075939,9.687256727856395,-1.4984465602613986,0.3114095330238342,0.0546646043658256,-0.0603897646069526,0.3212453152437603,0.3550472981886472,0.6710744566532084,0.5660405402817846,-0.119669996201992,-0.0704807117581367,0.3958397805690765,-5.662555806338787,4.004381771588325,-2.432254911957681,-0.0486780405044555,0.0162209346890449,-6.040368544000387,0.4088281393051147,-1.4151871161639689,-0.6896209712788463
35,0.09141,0.142669,0.337993,-0.064301,0.035648,-0.70658,0.703803,0.4900147465942427,-6.6251721732378,1.9469734409630293,-0.3073074515992775,9.65668097232878,-1.6806189446620643,0.5912801623344421,-0.1050875484943389,-0.0836652442812919,0.3191510233406004,0.3581282562287566,0.6763370992729767,0.558976721162364,-0.385448157787323,-0.2121681720018386,0.4411452710628509,-5.425977001228929,4.641628120246529,-3.0092233175247904,0.0523948483169078,-0.0727098807692527,-5.985656710603833,0.360400378704071,-1.5518068329185246,-0.3096917894525453
36,0.093489,0.194952,0.349452,-0.03903,0.073601,-0.704814,0.704483,-0.5097002747951075,-3.2297908990323543,-0.0403808179661631,-0.3257262477999553,9.6181177251786,-1.8857536869771776,0.3781728148460388,0.177574798464775,0.0277152024209499,0.3156743919755607,0.3606336067215819,0.6827079058180892,0.5515458963028695,-0.1445063650608062,-0.4288317263126373,0.3410490453243255,-2.636696995833516,1.5310557213127611,-1.0173922054424882,0.3082700371742248,0.2067054063081741,-2.361856118477136,0.4373329281806946,-0.4686817434472963,0.1341686155417002
37,0.096983,0.246451,0.352989,-0.025466,0.070983,-0.70994,0.700213,1.041431983330101,6.1767491913020605,-1.1986758243098854,-0.2784300609547644,9.59161374913454,-2.0233214982368053,0.271359384059906,0.1797461658716201,0.1792357414960861,0.3093589750626976,0.3616010975767588,0.6873174883176699,0.5487589862711376,-0.1253553032875061,-1.1260602474212646,-0.2102051228284835,3.590311725631356,-2.7482904078811408,4.196111381146311,0.6010637879371643,0.5281835198402405,5.01210919984579,0.5838662385940552,0.6414901237078011,1.3742080400437116
38,0.098305,0.247572,0.351184,-0.026135,0.05832,-0.71314,0.698102,-0.9519004001606256,15.4614971316576,-2.693644040936232,-0.0710222637077094,9.614323593592642,-1.93135472380966,-0.4866548180580139,0.5282045602798462,0.5120896100997925,0.3018455721629199,0.3634747039230999,0.6829039637252665,0.5571513172068575,0.4717453718185425,-0.0211305227130651,-0.3824414014816284,15.78764748662114,-8.492520288822055,3.200930130729079,0.9794133305549622,1.052905559539795,15.029080697149038,-0.0597752705216407,2.524880296424031,-0.9026892830722032
39,0.097424,0.212562,0.346097,-0.042522,0.034116,-0.703751,0.708352,1.1852810668163,21.93483389883041,-5.750774188017845,-0.0077829238025529,9.62702993043065,-1.8683238287486128,-0.122465968132019,-0.2893673777580261,-0.054849911481142,0.2976119364570933,0.3603709650023852,0.6821955514715385,0.5622892522262646,-0.3198685944080353,0.351142019033432,-0.3958972692489624,17.68096298715472,-10.671270103049276,9.778763629686832,0.5298279523849487,-0.0904940813779831,19.92231100411415,-0.343693345785141,2.928238394230604,1.1904568620190024
40,0.096353,0.179011,0.344269,-0.053631,0.023344,-0.696899,0.71478,-0.6417255398988724,4.15163394151628,-2.049206319469213,0.0072621707394137,9.729947284069656,-1.2241161897104234,-1.4224933385849,0.0130665227770805,0.048088252544403,0.3194762424677624,0.362677691787616,0.656412559841105,0.579242921613995,1.4512804746627808,1.2077488899230957,-1.0256716012954712,4.424049783682823,-3.1372529005885124,-0.1913070002317428,-0.2596354484558105,-1.2614469528198242,-6.730139445143938,0.3150438368320465,-1.2413979447051882,0.0938102560025174
41,0.096554,0.13624,0.344041,-0.064982,0.016569,-0.695291,0.715593,0.3307683701530098,-9.736408589038252,-2.267670206695795,-0.0383763280096463,9.79536463587582,-0.4687527263242751,-2.6552183628082275,0.3655571043491363,-0.3341154754161834,0.3339610455024707,0.3478405283611691,0.6347493249225178,0.6037965183914958,0.7638337016105652,0.7835070490837097,-1.5782690048217771,-6.316117329981923,7.645861958920955,-5.874985089576244,-0.1003429442644119,0.3474858701229095,-9.98721816407442,0.3396225571632385,-2.555603643728793,0.0190555585926107
42,0.097382,0.049094,0.348623,-0.079496,0.015328,-0.689482,0.719764,0.0983628138734959,-15.291044703406095,5.268745289078354,-0.1604624011674895,9.793359141272306,0.4845211906792596,-1.464324712753296,0.1041166558861732,-0.1321736425161361,0.3480996531810288,0.3213562739183189,0.6099397022579437,0.6352404156026451,0.473952054977417,0.1149170100688934,-0.856817901134491,-14.486070383024217,3.015132833829522,-6.520090335041284,-0.1282547116279602,-0.3156738877296448,-7.069004904773831,-0.0884588882327079,-1.2277185250513254,-0.8458364921241999
43,0.094876,0.017517,0.35067,-0.08954,0.010159,-0.682638,0.725179,-0.0776497418563347,-15.817030232971906,1.7673890272289514,-0.0987732943705283,9.786935245704653,0.6136445237964392,0.3840029537677765,-0.5697138905525208,0.3278901278972626,0.3524320801637296,0.3249628579168833,0.602587735360278,0.6380274156678468,-0.6221232414245605,-0.0969384685158729,0.0246303565800189,-12.794039671379329,5.155404741102457,-6.767613143491745,-0.1239553168416023,-0.0299578178673982,-9.366848131415248,-0.2155077904462814,-2.401209639222175,-1.1042039351940154
44,0.093439,-0.003388,0.357524,-0.076814,0.009421,-0.682685,0.726604,0.3186156120771542,-13.411048118650912,-0.0862322128305211,0.0405147282778285,9.797149181205034,0.4296505865244194,0.5385510921478271,-0.5122104287147522,0.2455265074968338,0.3521268512844724,0.3395168558735877,0.6023472602570721,0.6308032034329709,-0.6392636299133301,-0.2051267772912979,0.5014013648033142,-10.974726980167627,4.994938869336247,-7.547280004137754,-0.1084276735782623,0.0343620702624321,-9.763650816228983,-0.3379220366477966,-2.3106560925938187,-0.7581322705123573
45,0.09224,-0.013465,0.361991,-0.0793,-0.005818,-0.690495,0.718954,0.7862199355512857,-10.76412491235733,0.0820955148845911,0.0429219172837212,9.805097509860992,0.1691461314259097,0.821597158908844,-0.157850757241249,-0.3017165660858154,0.3514730823254798,0.3481289096565568,0.6084260099625695,0.6205568333446108,-0.7551966309547424,-0.377957820892334,0.6356604695320129,-9.145193923714755,4.151076307633519,-7.134215920352935,-0.078044481575489,-0.0578689090907573,-9.702240361976624,-0.4566948711872101,-2.047794260714203,-0.8752289561513811
46,0.091656,-0.008038,0.361974,-0.087656,-0.007941,-0.693185,0.715365,0.7146944761283696,-9.572934767627716,-0.3247019097208976,-0.1580427180062048,9.803078571254014,-0.212347742433846,1.0591787099838257,-0.0915355309844017,-0.5966240763664246,0.3522658351579376,0.3499781226139404,0.6231709518092275,0.60422033762664,-1.0813124179840088,-0.6479591131210327,0.4817741513252258,-7.632410356673597,3.949510948237776,-4.846725745421648,-0.0539698638021945,-0.0585758537054061,-9.85377766187787,-0.6376826167106628,-2.147146030826121,-1.1056695507671683
47,0.08774,0.008405,0.3685,-0.082029,0.000259,-0.696741,0.712617,-0.4287544414022937,-8.724156961354613,-0.8148796283245087,-0.3318534619759768,9.784339383992553,-0.5718118630541488,0.7773492932319641,0.2072244882583618,-0.1891518384218216,0.3506279682486992,0.3502956683081099,0.6375321453491909,0.5898353920561702,-0.4729716181755066,-0.649466335773468,0.3384862840175628,-6.827437205335498,2.2442469532713294,-2.416915596267581,-0.0172485783696174,0.0113615067675709,-9.618311201924085,-0.6040058732032776,-2.408392828724533,-0.1556658876059576
48,0.085286,0.015271,0.371343,-0.083855,0.005141,-0.696874,0.712256,-0.4027953858898952,-3.84379665735662,-2.173278104817867,-0.3025962782336399,9.765703657105565,-0.8425185266826302,0.4341054558753967,0.0759903043508529,0.1906502693891525,0.3427977579642468,0.3537811244338377,0.6463709520387321,0.5826947288219794,-0.4604640603065491,-0.7485211491584778,0.0854493007063865,-4.711403082740307,1.8437018670588727,-0.9162728411361576,0.6059955358505249,-0.5092352628707886,8.414820963069795,-1.590629816055298,4.51508614539206,-0.386259700022079
49,0.082228,0.020438,0.374744,-0.08438,0.013128,-0.69519,0.713736,1.7053664324276148,7.427119839274883,1.0775286942362785,-0.370898282098025,9.757561267182233,-0.9070910251624882,0.4492241442203522,0.40070241689682,-0.5661551356315613,0.3406114731856395,0.3492296525023956,0.6513734894863077,0.5811497781338235,-2.0086770057678223,-0.4537495374679565,0.5774108171463013,5.440515814191103,-2.774778017312288,0.2925201803013682,1.0717397928237915,-0.407412439584732,14.366293664520978,-1.142310380935669,4.49557889636755,0.720476858922094
50,0.077344,0.026102,0.379034,-0.085719,0.028344,-0.694054,0.714239,0.6492445372268557,8.718051045694947,-3.170086664175987,-0.5923824304612353,9.717302906551955,-1.1804773928616197,0.5729613900184631,-0.0672972053289413,-0.354763388633728,0.3381765881062877,0.3417761514965143,0.6658653462311179,0.5704815040653756,-0.2973084449768066,-0.2557571828365326,0.1656573265790939,6.517515516117215,-7.162817160937189,5.732576852548122,0.9943280220031738,0.7793484926223755,10.2669715095222,0.1669684648513794,1.5429225385867058,1.3256960842005907
51,0.075903,0.02746,0.380053,-0.086463,0.03315,-0.694216,0.713785,0.0649451311845332,10.116360092294215,-1.4959911299332975,-0.6584075023695826,9.727231010848284,-1.0572754491500556,-0.9059830904006958,-0.6587564945220947,-0.082429900765419,0.3482221984575228,0.3442513293193061,0.6598462448546442,0.5699431009180488,-1.0712268352508545,-0.2175663411617279,0.4734681248664856,9.43129809949398,-3.110013596007228,3.432259344747662,0.4593111276626587,0.4355036318302154,13.54751527519226,0.0260726679116487,1.6263833504751324,-1.722871401719004
52,0.074681,0.0284,0.380661,-0.08903,0.029638,-0.694151,0.713688,-2.144174321538955,9.526959198394415,3.778970257180929,-0.5910514375858008,9.738584179511664,-0.9904734380524604,0.8197750449180603,-0.2100608944892883,0.5535995364189148,0.3527835115477795,0.3514718129243523,0.6534276214222074,0.5701261003075946,0.1017920896410942,0.0070527526549994,0.4405750930309295,8.045853795164824,-9.672842418056726,1.199765665373206,-0.0918451622128486,0.2962529361248016,3.125525930176676,0.1252499222755432,-0.5765071447309106,-0.1813581271420233
53,0.071137,0.032507,0.379744,-0.096818,0.014811,-0.686342,0.720653,1.2064290687851609,3.948405032822489,-2.5554502067327496,-0.3883599967695772,9.702882751533387,-1.3687959518671036,0.5802891254425049,0.3290898203849792,0.3265919089317322,0.3383214315373314,0.3631810103515552,0.6617316086674885,0.5619157674186215,0.5057001709938049,0.4112952053546905,0.1186620444059372,4.293580406251549,-1.7142068876177072,1.7165706941395995,-0.2223635762929916,0.1049560531973838,2.2274532009892165,-0.2815646529197693,0.333052316371724,-0.7064956067774444
54,0.069844,0.034163,0.381182,-0.097539,0.012477,-0.684595,0.722261,1.0347755941808223,1.4026082050979136,-1.1878946103155612,-0.3172633572179824,9.70992974743545,-1.3367910403192045,-0.472145140171051,-0.0404287129640579,0.0940705612301826,0.3348601984337135,0.3627071252686673,0.6607578336595025,0.565430221043123,0.135772705078125,-0.0209322236478328,0.0896164774894714,0.5693003551572561,0.9449632213085888,0.7796952099576592,-0.1942358314990997,-0.0917679145932197,-0.6077033337118104,-0.2405703067779541,-0.0699880663883406,0.3450257723579183
55,0.072164,0.036041,0.383615,-0.0991,0.016166,-0.692692,0.71421,0.0267155364355072,-0.7658458405643701,0.4490926978908479,-0.2716723303228616,9.726445413428545,-1.221821502901986,-0.0945930555462837,0.1683540493249893,0.1376300156116485,0.3353558068738206,0.3619041531340839,0.6567502901734821,0.5702990351916347,0.3148529529571533,0.0920606404542923,-0.1743786782026291,-0.5824217025369406,-0.7868792762428521,-0.8217837086245418,-0.1479460448026657,-0.0329438000917434,-1.7876145075254142,-0.056393589824438,-0.3293779387079179,0.4566679189180955
56,0.07263,0.035476,0.383718,-0.105481,0.024173,-0.694707,0.711106,0.7468461026705802,-1.7892928160011767,-0.1523730200730264,-0.2484032080141827,9.732354929733276,-1.1789528867080807,-0.2292521148920059,0.3543858230113983,-0.1025721728801727,0.3324384131866759,0.3584789324930419,0.6569647820549938,0.5739118043688507,0.3187960386276245,0.1132379919290542,-0.1515225768089294,-1.6164309885203838,1.4184797279685737,-0.1831321693435311,-0.0686619132757186,0.076160155236721,-1.49107690827623,0.0397210642695426,-0.0640307973851682,0.2491516700276173
57,0.073477,0.033681,0.383343,-0.112925,0.027677,-0.695934,0.708631,0.0820312357430346,-1.5178729991346598,0.8967338087338954,-0.3018488939324393,9.743900406098366,-1.065675174835324,-0.3275003135204315,0.3313170373439789,-0.1949892342090606,0.3320797503254262,0.3501832971281981,0.6570433551494977,0.5791275140636368,0.222403198480606,0.0485308468341827,-0.0562691539525985,-1.2144780813366174,1.5093676211178302,-0.2708826412498951,-0.0944115594029426,0.1216926127672195,-1.1863921698633582,0.0532115846872329,-0.0858406379633583,0.121874275304377
58,0.073657,0.029685,0.381082,-0.120298,0.01877,-0.695035,0.708592,-0.7065079548023641,-0.8781149599164724,0.789489239545539,-0.3345206353586167,9.75356956719756,-0.962470309491828,-0.2851667702198028,0.3169466257095337,0.0195312518626451,0.3310619357929097,0.3430051023227435,0.6568255695989785,0.5842307810270058,0.2203171402215957,-0.0467965230345726,-0.1007679104804992,0.0472130020737648,0.970374141418934,-0.2227998706042766,-0.1757540702819824,0.1693692654371261,-0.5838915193611756,0.030549706891179,0.0037098828020272,0.0154113991121994
59,0.073816,0.027146,0.379668,-0.119563,0.012996,-0.698464,0.705467,-0.3292281549736857,-0.8370394376844167,0.3072820614296943,-0.316607523657754,9.763519883325696,-0.8624377175088971,-0.1676125526428222,0.2281770855188369,0.0199443344026803,0.3283691772259164,0.3375606463404341,0.6557628367314366,0.5900860002354503,0.3327432870864868,-0.0562368966639041,0.0319977216422557,-0.4374637810260057,0.4967933373510837,-0.6927066623345017,-0.2010989785194397,0.1381362378597259,-0.0228201683982042,-0.1078038811683654,0.2674540550407022,-0.0601052077395375
60,0.073508,0.024829,0.378739,-0.12171,0.008577,-0.70063,0.703015,0.5736912105273455,0.552521069791913,0.4871919807910919,-0.2857884791598655,9.760801856538652,-0.9030343701828272,0.3477275371551513,-0.020324757322669,-0.0283432081341743,0.3264466413626242,0.3389563615328168,0.65662053328415,0.5893986170790948,-0.1914978325366974,-0.1278727352619171,0.0068771908991038,-0.3568400922596454,-0.210769825592637,-0.8694435776829719,-0.1764602363109588,0.0267604067921638,0.0830120908733923,-0.1839525997638702,0.4444356293326243,0.2767695986629463
61,0.072762,0.021563,0.377309,-0.139418,0.016009,-0.700162,0.700056,0.5187749771324918,0.2338151856154203,-0.1202490121901035,-0.3658454556878656,9.73923182976544,-1.0880742728438229,0.5779808163642883,-0.1566561907529831,-0.2924161851406097,0.3263535257491222,0.340162537334373,0.6631483976891148,0.5813923335081559,-0.6581267714500427,-0.0588569715619087,-0.0472501590847969,0.0919394480288028,0.3078197485029697,-0.1875736589223146,-0.0826222151517868,-0.048075646162033,-0.2633980393818579,-0.1489839553833007,0.4466699642559513,0.4228113516215235
62,0.072784,0.020766,0.377045,-0.143379,0.014228,-0.701046,0.698408,-0.0611642609389498,-0.278512405475974,-0.8735704483546316,-0.4763341578966006,9.713314129176736,-1.2629554042577742,0.2474545687437057,-0.1791396886110305,-0.2026211470365524,0.3291305032430135,0.3422926037840355,0.6687515072323885,0.5720843363292079,-0.4129759073257446,-0.0722365826368331,-0.0697847008705139,0.1609627153724432,-0.2162941419720649,0.5411024346768856,-0.0474730059504509,-0.0586014911532402,-0.5409749358396977,-0.1393985599279403,0.2108243322588503,0.2584821920232847
63,0.072318,0.022177,0.379379,-0.14122,0.021481,-0.700593,0.699117,-0.945865723106265,-0.8631938696384429,-0.2171240169249474,-0.4994838550766929,9.70767349294126,-1.2969095501773058,-0.0134547166526317,0.1204473078250885,0.1167719811201095,0.3293492728596063,0.3422299710406952,0.6700765866482512,0.5704428737921341,0.0031422132160514,0.0347397215664386,-0.1275434046983719,0.0961649567693471,-0.4524801483720541,0.6530339926376938,-0.034356515854597,0.0382131561636924,-0.3340744259610771,-0.1309290081262588,0.1531668647313024,0.1842969022739678
64,0.071715,0.023591,0.381609,-0.139115,0.031083,-0.69864,0.70113,-0.5935043106306344,-1.138050675216317,0.429319783667475,-0.3556468273544684,9.71707318944931,-1.2737244894228874,-0.1315783858299255,0.1409332305192947,0.5020671486854553,0.325085393148709,0.3462784569017271,0.6671080139324458,0.5739142179460928,-0.2266907095909118,0.0059867962263524,0.0047655701637268,-0.7727700868695974,0.8157295231521129,0.5343041528388858,-0.0508614182472229,0.094882421195507,-0.2013899297636002,-0.0901588127017021,0.1709973305168561,0.2437801513234153
65,0.071355,0.0247,0.383172,-0.139365,0.038338,-0.697454,0.701902,0.2979129975219257,-0.0873217251002788,1.6417689895249905,-0.2281816367078572,9.728471366298198,-1.214553192399442,-0.0068352785892784,0.6441636085510254,0.1376660019159317,0.3163646483863327,0.3427670473476542,0.666660132362211,0.5813676488100749,0.1099538803100586,0.1840575188398361,0.0103221889585256,0.6348971551835536,0.667166855147481,-0.1923947954684496,-0.0637748837471008,0.1079394444823265,-0.2873183556082658,-0.0491620898246765,0.0605582122040446,0.323623174573481
66,0.070807,0.026061,0.382875,-0.133425,0.03433,-0.699615,0.701112,0.3974444533159956,-0.4020142819821834,0.2437492812611162,-0.14575390332737,9.722939451134204,-1.2702629507921634,0.1929229944944381,0.3159701824188232,0.1094025075435638,0.3067859106543152,0.3394566728418321,0.6704733799885836,0.5840521670900803,-0.5474583506584167,0.0862633138895034,0.1448174268007278,-0.2220686337202787,1.5963456473469733,-0.2136202465876936,-0.0509680658578872,0.1570144593715667,-0.222712320184987,-0.0322850234806537,0.0818223148332443,0.2548565488720312
67,0.069539,0.026609,0.381911,-0.12651,0.02164,-0.699773,0.702741,0.4047935374371707,-0.4301297848761081,0.8278044302187859,-0.1511579817274585,9.706166010987758,-1.3920875417359173,0.4371270537376404,-0.1030090674757957,-0.0728263184428215,0.3044191949590892,0.3407279861432835,0.6744487731992747,0.5799589360282019,-0.7199680209159851,0.0406673848628997,0.266788125038147,-0.3972171108335256,0.2572352241694927,0.1575251421391963,-0.0040495651774108,0.1009490564465522,-0.0437429878756403,-0.0685061737895011,0.1577912274631671,0.2090872793331742
68,0.067594,0.027288,0.37959,-0.124578,0.009133,-0.697561,0.705553,0.1260593881024513,-0.3746165719687938,-0.68986559368968,-0.1266579567837994,9.688061029976604,-1.515194427575171,0.1543731391429901,-0.1825424134731292,0.2558802962303161,0.3026163488311064,0.3447980165470505,0.6770286145573794,0.575473637697687,-0.4902328848838806,-0.274846076965332,0.2295499593019485,-0.4627729943275451,0.1149853925734758,1.453445827409625,0.0373388193547725,0.0758600309491157,0.047895486178901,-0.0651580244302749,0.2020587324032559,0.2781943342364393
69,0.062927,0.028469,0.374245,-0.130038,-0.014502,-0.690108,0.71178,0.1026608033283613,0.4925158061623573,-0.1521311741411685,0.0026839712516914,9.661592709767818,-1.6804804129742086,0.1818275898694992,0.584086000919342,-0.0511797852814197,0.2949971772034311,0.3509252028280267,0.6800971691147518,0.5720979511873423,-0.2155962437391281,-0.0956820398569107,0.1406879872083664,0.4744634321212768,-0.1621288365423679,-0.7874968236193061,0.0573440305888652,0.0111827244982123,-0.0416973621911369,-0.0360244251787662,0.0209280619081342,0.0219792514614993
70,0.06156,0.028821,0.37269,-0.131916,-0.015901,-0.688184,0.713266,-0.0252319833468645,0.70064534637928,0.0478388788871467,0.0520171829185215,9.647091890728474,-1.7610390736803412,0.3005739152431488,0.5413455367088318,0.0988504812121391,0.285386934326488,0.3459004970482743,0.6856681768998903,0.5733813017328635,0.2016268074512481,-0.1388358622789383,0.0284680351614952,0.3475894488334655,-0.611813216716051,0.1709649078182876,0.0596396476030349,0.0442365184426307,-0.045996872316231,-0.0742085129022598,0.0719963009382132,-0.0222848445286625
71,0.061335,0.030733,0.370308,-0.13199,-0.012288,-0.687483,0.713999,0.3251825328446924,0.0826519797235727,-0.6340075128674507,0.1101131468946114,9.628678866681456,-1.8565612025015048,0.1344922184944152,-0.2485449314117431,0.0635175853967666,0.2807838730605503,0.347983076885085,0.6881613614171141,0.5714037074611438,0.0087026273831725,-0.0920367091894149,0.0001239468110725,0.5969593464553355,0.2377010871380567,0.2944299594454467,0.0390224866569042,0.0425850376486778,-0.0424764796377392,-0.0652888715267181,0.064671264412906,0.0414421909868251
72,0.06141,0.031094,0.370255,-0.129467,-0.015712,-0.688614,0.713304,1.1900756076164545,0.3543541206628084,-1.5748866797327994,0.1246402420195285,9.629616439792514,-1.8507665447480977,-0.3424077033996582,0.2314366400241851,-0.1552595347166061,0.2804366493036392,0.3483925714886814,0.6877393747243299,0.5718325410463543,0.4895720481872558,-0.0493589080870151,-0.1247139945626258,0.8210878353148698,-1.1024129601240158,0.7004933706879616,0.0082862740382552,0.0254971999675035,0.0440553234941326,-0.0218871068209409,0.1632466798574663,0.0825331939158029
73,0.061723,0.031517,0.369273,-0.128862,-0.018006,-0.688853,0.713128,-0.1546201231463812,-0.101620299565792,0.138108347877115,0.029223591999989,9.667354926556348,-1.6467549612440169,-0.4544725120067596,0.3164959847927093,-0.3019377887248993,0.2829350091971545,0.3372802896000614,0.6857136031657184,0.5796436351035005,-0.069704033434391,0.0410212129354476,-0.0300644487142562,0.1049006364107131,0.4308008160054683,-0.1813426555782556,0.0021791707258671,-0.0147212222218513,-0.0232919962941901,0.0108648454770445,0.1055644066822249,0.0681098422931507
74,0.064165,0.031742,0.365891,-0.129555,-0.026163,-0.688495,0.713096,-0.1802292327099479,-0.0507850153416395,0.0232603179477155,-0.0252232474845601,9.687597504118084,-1.5232278041660785,-0.2809566855430603,0.8824640512466431,-0.1781844496726989,0.2815029945129819,0.3274386875777179,0.6858913263790903,0.5857415199359014,0.0635203346610069,0.0826758220791816,-0.0957734212279319,-0.0100631288528442,-0.6228712018251419,-0.1148825167208909,-0.0037307671736925,-0.0067853932268917,-0.0542325026141246,0.0157806947827339,0.0495070358616532,0.004368870154678
75,0.066155,0.031568,0.364571,-0.129601,-0.024861,-0.68895,0.712695,-0.8086868380989879,-0.016494038683176,0.1135864855609834,0.0423926464123418,9.702537299096583,-1.4245612398393452,-0.1592911183834076,2.1485424041748047,0.1129863709211349,0.2618286671126639,0.3061045522903159,0.6920494293761974,0.599010376436306,0.0072509380988776,0.0171506609767675,-0.1169091984629631,-0.0661029959827661,0.3588929331362247,-0.1231425416745245,0.0074942018836736,-0.0109900729730725,-0.0042995118375605,0.0050233635120093,0.0510682390300789,-0.0442640982734505
76,0.068095,0.031306,0.363232,-0.129335,-0.025229,-0.68928,0.712411,-1.7142093718357383,-0.2443207975387573,0.1389946291923522,0.7390209620028734,9.671340196800232,-1.4454802553579211,0.1429788023233413,3.0505905151367188,0.9177291393280028,0.1712391138841612,0.2537612342968082,0.7136555332238489,0.6300620555696702,-0.1909859776496887,-0.1696331351995468,-0.0085885841399431,-0.0848714093387126,0.2887637503772974,0.0729489163547754,-0.0138713018968701,0.0186174474656581,-0.1080617581896018,-0.1026031896471977,-0.0718733412788249,-0.1490891030315309
77,0.070807,0.030307,0.359533,-0.128571,-0.031212,-0.68826,0.713297,-1.181112841220945,-0.4966922150641679,-1.5115888042986392,1.63122275333032,9.627429158881306,-0.9067047292586417,-0.8108183145523071,2.291987180709839,0.8036375045776367,0.0659343951360238,0.1941961383552874,0.7131037338013819,0.670390647208998,-0.1746104657649994,-0.0895153880119323,-0.0801207572221756,0.1082043541312217,0.2231336326032877,0.2737717868201434,-0.0637839213013649,0.050294179469347,-0.0984355229166802,-0.0833781212568283,-0.0413566087623359,0.0654475460150279
78,0.072139,0.029504,0.358423,-0.127899,-0.036156,-0.68788,0.713551,0.8604265968821943,-0.4705722699016332,-0.6049509297311305,1.953508687950671,9.601458851322532,-0.4076468810416758,-0.9543740749359132,3.0572733879089355,0.4943651258945465,0.023890722742638,0.168199187469619,0.7017786262268428,0.6918417448144405,0.021262627094984,-0.0431628003716468,-0.090286374092102,0.1532446883410215,-0.1174246024191379,-0.1157220362849533,-0.0651334002614021,0.0253356751054525,-0.0297855161820887,-0.0509170852601528,0.0273436508717481,0.0551599881560076
79,0.074244,0.027338,0.357471,-0.133752,-0.042756,-0.688358,0.71165,-0.1586230203785002,-0.3799135093331336,-0.4786468552857637,2.0908933977283537,9.577987374842166,0.246409129853826,-1.0193843841552734,2.243023633956909,0.2644282877445221,-0.0179720788323535,0.1317346513493548,0.6856257087000673,0.7157097431925992,0.1037183552980423,-0.0742707625031471,-0.1101238653063774,-0.0039753333717584,0.0830418558239936,0.2968919656448066,-0.0601858720183372,-0.016429403796792,0.0193964090611785,-0.0365221872925758,0.1131516012750565,0.0292048599000554
80,0.075027,0.026613,0.356584,-0.137963,-0.051395,-0.687547,0.711058,1.0197305852621794,-0.0497802222132682,0.5946803686726838,2.0880929533548653,9.550572129172084,0.7725587091412395,-1.0328774452209473,1.9309276342391968,-0.0836319252848625,-0.0427934681570991,0.1060810380626273,0.6703411690119992,0.7331837259175272,-0.0109262019395828,-0.0778252780437469,-0.120854802429676,0.2490840664178132,0.2166933704227209,-0.1119634144037961,-0.0905807763338089,-0.0476332493126392,-0.0206947440593154,-0.072354108095169,0.0639659748209174,-0.1210312486089766
81,0.075725,0.026073,0.355122,-0.137601,-0.055354,-0.688672,0.709741,-0.4242005409575998,-0.3836556184709072,1.903015641292929,1.989559513888508,9.516786763948202,1.281721479526162,-0.6295928955078125,1.5402967929840088,0.0588996037840843,-0.064974638003769,0.078640836291572,0.6545731521477111,0.7490847341818517,-0.019250176846981,-0.0387675203382968,-0.1241811588406562,0.2973468698054552,0.3362695979177951,-0.1590454835742712,-0.1070581078529357,-0.0249804593622684,-0.0918940197181888,-0.0976927280426025,0.0542368545622564,-0.0548920762011315
82,0.077002,0.025688,0.355773,-0.133213,-0.050843,-0.694352,0.705369,-0.2069245483413338,-0.1590168420016765,1.974156485312432,1.97145117187649,9.491015778353807,1.4847161410726606,-0.0634491965174675,1.1696892976760864,0.1794031858444214,-0.0829326701389166,0.061972867883267,0.6484287978370461,0.754202647495074,-0.204354241490364,0.0360324755311012,-0.0995228886604309,0.3755067988067865,0.3825070329576731,-0.3175334793962538,-0.1297444850206375,-0.0170531552284955,-0.0767254574851133,-0.1315561085939407,0.088197402823111,-0.0834886040776502
83,0.077426,0.025453,0.35665,-0.129213,-0.052788,-0.69634,0.704009,-0.4758963875338435,-0.4121948997348547,1.409791394600272,1.9929224144503472,9.477540210708977,1.5410620054118334,0.2791590392589569,1.015963792800903,0.3108881115913391,-0.1019480605361965,0.047234288061606,0.647453954162376,0.7537763963324813,0.0437333174049854,0.1422282010316848,-0.0887474715709686,0.0593751490324735,-0.0686304686337709,-0.1323778414011001,-0.1432505697011947,0.0273656845092773,-0.1475133690142538,-0.1729403436183929,-0.0287847462082863,-0.0354570042135543
84,0.076591,0.024794,0.359029,-0.126699,-0.051758,-0.697231,0.70366,-0.2440010640650987,-0.0647439825892448,0.3738146079361438,2.068532220577449,9.474405419814586,1.4584979962326583,0.363039880990982,0.293851226568222,0.2417911142110824,-0.1142053924038119,0.0415212206094315,0.6510862353375884,0.7492128777226674,0.1858686208724975,0.184417262673378,-0.0299144461750984,-0.0912017814040184,-0.1938596073240041,-0.1721902118295431,-0.1563524305820465,0.0648807510733604,-0.126586772977421,-0.2026936113834381,-0.0436230969561729,-0.0483929234401788
85,0.076355,0.024038,0.363366,-0.125633,-0.015551,-0.700421,0.702414,0.2371291324689984,-0.0104617727816104,-0.1450764333240687,2.134776670857519,9.481176521384716,1.3116514844961464,0.5079418420791626,0.1530645191669464,0.1523013263940811,-0.1202932137308743,0.0401256890194754,0.6568974893006092,0.7432397338248862,-0.0754751041531562,0.1405977755784988,-0.0264312326908111,-0.1266694006264209,0.2243254727363586,-0.0252051684051752,-0.1479952186346054,0.1179406717419624,-0.0676870137711986,-0.2069109231233596,-0.0806885432966519,-0.0098530708653153
86,0.076087,0.023324,0.364869,-0.129931,-0.006202,-0.698659,0.703531,0.1112540970906615,0.034062428599596,-0.5145037660866976,2.1924169589214024,9.48737829863429,1.1633320506628602,0.2985109984874725,0.3619374930858612,0.2441175132989883,-0.1255355911510299,0.0387767764931785,0.6627087838477174,0.7372612841844902,-0.0247517377138137,0.1080601662397384,0.0136505411937832,-0.3482745084881782,-0.1155032789677381,0.1852991381190717,-0.1462528258562088,0.0586552955210208,0.0570018303301418,-0.1805016845464706,0.0274146794144995,0.0820360123828519
87,0.07482,0.021284,0.367102,-0.131137,-0.00938,-0.694259,0.707615,0.3178326084733009,-0.1618763230860233,-0.2393909399211406,2.279427279984951,9.461254846340417,1.2079951490581036,-0.0628764629364013,0.4387043118476867,0.0384683161973953,-0.1465216230914775,0.0262324344019085,0.661605054777342,0.7349299512719459,0.2850860059261322,0.1283407211303711,0.0481314174830913,-0.1650841792166233,-0.6954425170391798,0.5768874492853879,-0.0388141386210918,0.0218475572764873,0.0376615216706413,-0.0788284912705421,-0.0047298192714253,0.059260948068276
88,0.074194,0.019361,0.369137,-0.130404,-0.006965,-0.693584,0.70844,0.5280995991103351,-0.0572469048321247,0.302828516086936,2.295113071025163,9.44551016471982,1.2981444987997413,0.121390201151371,0.4886258244514465,0.156184583902359,-0.1620841463504809,0.0139991478674179,0.6584960685014668,0.7347895381900775,0.1525380909442901,0.1015752106904983,-0.0001015564193949,0.0066103580504655,0.4464648336052894,-0.1383154147565364,0.0331166088581085,0.0226817224174737,0.0305926838295301,-0.0650904029607772,-0.0305832995132543,-0.0714080298885935
89,0.073376,0.017769,0.3708,-0.130876,-0.010406,-0.692706,0.709169,0.3715658060960471,-0.1895177787274122,0.260620628824085,2.303954256867617,9.44116073733866,1.3140158755399285,0.015804685652256,0.4779905974864959,0.0311061292886734,-0.1697955889600785,0.0078329822350701,0.6579836478085096,0.7335976132502219,0.2327834069728851,0.0257065966725349,-0.0558208115398883,-0.2022410667002201,-0.2462643328219652,-0.068043754786998,0.0391536653041839,0.011570424772799,-0.0496294703646562,-0.0771431550383567,-0.0826928779895417,-0.0988714849148411
90,0.071105,0.012846,0.372559,-0.134444,-0.032257,-0.690071,0.710413,0.0287974938087165,-0.1376081432700157,0.5013670750074088,2.294475796034932,9.441624263197182,1.3272040045455098,0.1433122605085373,0.4168794155120849,0.0618153288960456,-0.1760119222441846,0.0017129532224225,0.6575169170548562,0.732590074453051,-0.0800546780228614,0.0295450650155544,-0.0695508047938346,-0.2141600525528192,0.0559480971932411,-0.5967880815416574,0.0458769015967845,0.0142496936023235,-0.1098599667179863,-0.0889055728912353,-0.0971489628380164,-0.115915330367349
91,0.070585,0.009836,0.374255,-0.134807,-0.040483,-0.689988,0.710003,0.3335084626413881,0.1360515614777803,-0.1701777029633522,2.3020585062488914,9.44629167048633,1.2800398100495338,0.2144846469163894,0.2068440169095993,0.0411282815039157,-0.181478114296749,-0.0031291561402965,0.6593378056648076,0.729609235901309,-0.5526469945907593,-0.0025871447287499,-0.0604245513677597,-0.2588894211173057,0.2947533461809158,-0.2880029951378703,0.0641445517539978,0.0332804135978221,-0.1003497042412403,-0.1162897795438766,-0.1041452605993021,-0.1704948426211252
92,0.070539,0.006368,0.37591,-0.137862,-0.04594,-0.689914,0.709156,-0.0840245832510292,-0.1571077935099601,-0.0548936197042465,2.2895332250662146,9.4525957390666,1.255735243745893,0.0380729399621486,0.3205595910549164,-0.0165669489651918,-0.1848027129075982,-0.0072552254365766,0.6602444093587123,0.7279235603391128,-0.6678840517997742,0.0506904572248458,-0.115802988409996,-0.2408282792478799,-0.5239619147837161,-0.2206979298889637,0.0583649091422557,0.03396862372756,-0.1010010442894417,-0.161597192287445,-0.1096542515454348,-0.1581394015800207
93,0.071234,-0.000789,0.380705,-0.138687,-0.051164,-0.692113,0.70649,-0.7356630298770964,-0.1276034666061401,0.3482688093997538,2.293689906354248,9.450476262694597,1.264076809503138,0.0992656499147415,0.3409829437732696,0.1664844751358032,-0.1898396391289646,-0.0114489822453187,0.6598628196578815,0.7269188598577941,-0.669905424118042,0.0879285335540771,-0.2193470895290374,0.0572469048321247,-0.5023579857409,-0.785788558396697,0.0403514876961708,0.0085869673639535,0.0223851060157641,-0.1484867930412292,-0.01256900844326,-0.0415394134167581
94,0.069909,-0.00523,0.382415,-0.14218,-0.065802,-0.688551,0.708062,-0.3869027836985886,-0.1705745933264494,0.1750618217431008,2.391448123664409,9.429400741440055,1.2400607047520578,0.2410615980625152,0.2923049032688141,0.4065665006637573,-0.1987874447869142,-0.0130183112325563,0.6607609424732334,0.7236774021165413,-0.4841931164264679,0.1693507879972458,-0.2278512418270111,-0.1683966647654771,-0.1335357792645692,0.0261649533480405,0.0310725644230842,0.0545779727399349,-0.0957104910001158,-0.1562870442867279,-0.1322072432077024,-0.1308010296715889
95,0.065452,-0.014228,0.386682,-0.148574,-0.080665,-0.685002,0.708654,0.2448874915108084,-0.103252284681797,-0.4204669073872268,2.5337334649652243,9.400985963338613,1.1713483299884944,0.1610418856143951,0.4461724758148193,0.4374497532844543,-0.2085075120252795,-0.0127236845378075,0.6634123640971755,0.7185032059600596,-0.350223571062088,0.1739884167909622,-0.1108256056904792,-0.1811433336138725,0.165839966019988,-0.3348082931935787,0.0446143746376037,0.0575549080967903,-0.0822559844096191,-0.1851645708084106,-0.0020116446414438,-0.1165790823725517
96,0.063315,-0.019116,0.388642,-0.152723,-0.081484,-0.68428,0.708377,0.6019312896490097,-0.0107201314568519,-0.4080237515300512,2.6743840446710583,9.353493559801578,1.237015784098208,-0.067362941801548,0.7538552284240723,0.4575454294681549,-0.2241608365246918,-0.0164363696426099,0.6608022372660519,0.7161160068647134,-0.3477891981601715,0.0571908615529537,-0.0504379644989967,-0.6022340719878673,0.2895148610055446,0.6729758336871862,0.0497516877949237,0.0347936227917671,-0.0692253201212268,-0.2198439985513687,-0.0163329869195469,-0.1074315705272834
97,0.06146,-0.023755,0.391089,-0.156042,-0.082606,-0.684276,0.707526,0.2413663316473364,-0.1950894413799047,-0.0641870793588459,2.7898423154532908,9.301584508866071,1.3666323440924286,-0.1053804010152816,0.8915219306945801,0.4245391190052032,-0.2412626423633962,-0.0222770187185504,0.6556103067552898,0.71517213145788,-0.3548409640789032,0.0883873403072357,-0.0365166887640953,-0.3447562712341547,0.1594645857691764,-0.433207292625308,0.046531043946743,0.0438011549413204,-0.0888772748460527,-0.2196331322193145,-0.0309802035760832,-0.1224214517252054
98,0.058879,-0.033763,0.395845,-0.161893,-0.080654,-0.684999,0.705735,-0.0779363493785262,-0.1465156723469495,-0.022931962776184,2.915214954267442,9.24358415531814,1.492672506904602,-0.0342119485139846,0.9273602962493896,0.5502361059188843,-0.2597482893323483,-0.0284894133678808,0.6504484871236496,0.7131872455809397,-0.5545146465301514,0.1459673941135406,-0.021670963615179,-0.0339852717101573,-0.123453945711255,-0.2080781022906303,0.0253825355321168,0.052228920161724,-0.079862531668134,-0.2152075618505478,-0.0522341455708723,-0.1685381190627813
99,0.058788,-0.039461,0.398326,-0.16427,-0.079358,-0.686389,0.70398,-0.1996411133348941,-0.5623083043128252,-0.0580873011790215,3.082858462578058,9.167070239958166,1.6220998279370369,-0.0041370969265699,1.187191605567932,0.7221869826316833,-0.2820852700304188,-0.0349266833693294,0.6450395738084413,0.7093180329046572,-0.5137802362442017,0.1348820328712463,0.0238968543708324,-0.3060264353454113,-0.3136632138341665,0.2559083594799041,0.0184832382947206,0.051552016288042,-0.1561965421502478,-0.2193053066730499,-0.0481589320212136,-0.1336298964219633
100,0.059567,-0.045553,0.401013,-0.164949,-0.075365,-0.689431,0.701282,-0.424898606224358,-0.398294384676218,-0.536732987421006,3.289411547258496,9.0657544762969,1.778276770337671,-0.0648898482322692,1.2434566020965576,0.8777130842208862,-0.3092264212930919,-0.0422063043094664,0.638397798288342,0.7035950507925006,-0.4791919589042663,0.1466315239667892,0.0869273468852043,-0.12984160092175,0.422642059469223,-0.1749088231384754,0.040458146482706,0.0835454687476158,-0.1010209728326182,-0.2010787725448608,-0.0865234143294394,-0.0216350228674011
101,0.062321,-0.056527,0.403945,-0.164872,-0.077989,-0.691032,0.699435,-0.6456701858714222,-0.407216526800394,-0.5159085183180868,3.545048104059696,8.923989797869325,1.9913355836503208,-0.1607775539159774,1.190311312675476,1.0468326807022097,-0.3372965880119614,-0.0452767233388307,0.6296190573909614,0.69839874531889,-0.4914875030517578,0.2052858918905258,0.0355373285710811,0.0220090027123689,0.120097036498785,-0.3484048568695783,0.0805458799004554,0.110699824988842,-0.1171045584182255,-0.2060326784849167,-0.0911229622804559,-0.1061873426198493
102,0.062662,-0.060494,0.405822,-0.161053,-0.073697,-0.689845,0.701958,-0.9275105667263268,-0.5127408480674028,-1.24331576102525,4.267422467166186,8.454907474264502,2.5444153102383016,-0.0840185582637786,1.8198914527893064,1.730052471160889,-0.415639018625179,-0.0509607827817972,0.6063612121678967,0.6759980832095713,-0.306545078754425,0.141910970211029,0.1209417134523391,-0.433716411191225,-0.1601537370771169,-0.2611094352543354,0.095654159784317,0.1174555122852325,-0.0981039528747554,-0.1553191244602203,-0.0819847388533409,-0.0788420112476684
103,0.062644,-0.066838,0.407341,-0.152234,-0.059542,-0.687633,0.707418,-0.3688908877983689,-0.9110358172655104,-1.4715414560705422,4.662891565288603,8.127009983372687,2.894744705429673,-0.30194091796875,1.477326273918152,1.6738723516464231,-0.4582734545138284,-0.0503811277105096,0.5914987989830588,0.6614956063336965,-0.4316939413547516,-0.1046596691012382,0.2001812756061554,-0.981157401239872,-0.4535533305615186,0.859329595425725,0.0769913047552108,0.1629738211631775,-0.2536690743868239,-0.1053498834371566,-0.101503833579272,-0.0883229836978483
104,0.062678,-0.068995,0.407512,-0.150898,-0.056124,-0.68415,0.71135,0.9720587335050106,-0.5813035121619701,-1.8923487013280391,4.999229260006547,7.745054154556989,3.345479763700068,-1.1320829391479492,0.949521005153656,1.2813820838928225,-0.493597049859851,-0.0423072042650697,0.5723968102720305,0.6534018825448389,0.0389089994132518,-0.101467490196228,0.1903819739818573,0.0654646980792284,-0.01952653824687,-0.2951151652306318,0.0730746984481811,0.1853742897510528,-0.0261972207829821,-0.1089723855257034,0.0142604869278497,-0.1509068291111383
105,0.061903,-0.071555,0.407747,-0.148516,-0.054579,-0.67918,0.716714,-0.0681675272971391,-1.4700456645548343,0.7506792510926723,5.10496926985085,7.368161454349756,3.977419822643697,-1.1708003282546997,1.5871490240097046,0.6756570935249329,-0.5192068386677614,-0.0337746142070026,0.5441206617211582,0.6581916620729189,0.0910747274756431,-0.1851030439138412,0.1734928041696548,0.0708697719931602,0.1758592557311058,0.3512450487315655,0.0754135102033615,0.0818549767136573,0.0444866138837533,-0.1377016603946685,0.0328628138687345,-0.0720787550572771
106,0.063089,-0.076472,0.409385,-0.139382,-0.054812,-0.678211,0.719443,1.071393552482128,-0.7931295688092708,2.500894148419797,4.878347210609912,7.222607905033231,4.495112740160525,0.8031806349754333,2.9814815521240234,0.4910931885242462,-0.5509991023179608,-0.0557387428359713,0.5174033462696853,0.6523702105561354,0.2883196175098419,-0.1955801844596862,0.2568134665489197,-0.0523456887871027,0.1899035631746053,0.2230149746596813,0.0799542665481567,0.0422658659517765,-0.0168907520914042,-0.1862845122814178,-0.0013598924596444,-0.0683042825864395
107,0.06459,-0.079352,0.410335,-0.140555,-0.056114,-0.679803,0.717609,-0.7277858667612075,1.952991678339243,-3.808523683923483,4.474562119562924,7.30209411420226,4.777876373340189,-0.6829686164855957,0.3260723352432251,0.3197688460350036,-0.5810299006769734,-0.095416139946979,0.4972844908240031,0.637187668973056,0.2074415534734726,-0.1445647925138473,0.3276138007640838,0.1745698004424571,-0.0038356326401233,0.0180184717714786,0.0913324058055877,0.0334361866116523,-0.0762779100804356,-0.2142234146595001,0.0850823212761897,0.041338009093143
108,0.065937,-0.082132,0.411193,-0.139122,-0.056414,-0.681133,0.716604,-2.136003143912553,-0.8825766155004501,2.862362485001981,4.913725397983193,6.971629403170943,4.83963432585597,-0.3677586615085602,-1.126125693321228,1.4153656959533691,-0.5836599317758076,-0.0640275453879616,0.4991470624011948,0.6372548182097555,0.1299475729465484,-0.0317326188087463,0.4733167886734009,0.0612199001163244,0.5393231500446796,-0.2639190858475864,0.1017220839858055,-0.0077732056379318,-0.0089586450595292,-0.2128069102764129,0.1022610451547429,0.0525464583564782
109,0.068043,-0.0877,0.41203,-0.137034,-0.051698,-0.68386,0.714762,-0.8370996434390544,-0.7496738734424114,1.3273366910144686,5.41750669452548,6.702855716899037,4.678967378559708,0.9114535450935364,0.1918470412492752,1.988378882408142,-0.6026840964892569,-0.0497528526299949,0.5088847723976714,0.612644136463857,0.1791127175092697,-0.0045876577496528,0.5588999390602112,-0.0211912565886974,0.3496633324980736,0.1779107814334332,0.0867238938808441,0.0413904264569282,-0.1441207400344312,-0.2263966798782348,0.0131424095756665,0.0353775252195773
110,0.06848,-0.090272,0.413318,-0.136193,-0.051651,-0.6851,0.713738,-0.4532353506535291,-0.8905576773822307,0.1349824709415435,5.918150277563929,6.351881301802396,4.560645242778957,0.3803009688854217,0.6613706946372986,2.0816681385040283,-0.6292325203682202,-0.0392064048849531,0.5156885368237709,0.580167798254003,0.0312108658254146,-0.015651760622859,0.5538864135742188,0.660881491267681,0.501212907359004,-0.0655069297857582,0.1065636053681373,0.0037937983870506,-0.0029687729779863,-0.2349713444709777,0.1025897656524553,-0.0657601008292287
111,0.069813,-0.0939,0.41355,-0.132888,-0.06026,-0.684502,0.71426,-0.6413233888387679,-0.8117956908345222,0.067265025499463,6.2385179574728005,5.879422779762745,4.762737840919196,0.2655301988124847,1.3895559310913086,2.3566372394561768,-0.6654981059547852,-0.0340497876030878,0.5059728940013293,0.5476717731056044,0.0663086622953414,-0.0632115006446838,0.4526184499263763,0.4616121338546275,0.2814882064163684,0.0471245931379497,0.0968690067529678,0.055377259850502,-0.1473095718041528,-0.2709234356880188,-0.020160675998521,-0.1726390698418952
112,0.071191,-0.095707,0.413909,-0.132761,-0.061412,-0.686508,0.712257,-1.1309820520043372,-0.5653606776207685,0.174338914296031,6.451645744368434,5.280291934487224,5.163832962229848,0.0357640609145164,2.3573920726776123,2.75426983833313,-0.7086850972143959,-0.0297743149490134,0.4856246290019921,0.5109282558695284,0.360337883234024,-0.1132816448807716,0.3874231278896332,0.2234972052186727,0.3661947805821895,0.3576531622081995,0.059291336685419,0.0353691317141056,-0.0749552968742791,-0.2434482872486114,0.0729694613858824,-0.1198772745345719
113,0.072867,-0.09714,0.415646,-0.128827,-0.056559,-0.690487,0.70953,0.3103232557564974,0.4336965374469756,-1.056603979629278,6.454193675285578,4.435211813688278,5.902767414993048,-0.5775347948074341,2.79440975189209,3.177885055541992,-0.7645253844671088,-0.0246993818577042,0.445457696308105,0.4652508348973861,0.2166459709405899,-0.183741956949234,0.3089944422245025,0.7925847944080829,-0.2160638403475284,0.2963647269003093,0.014722348190844,0.074055291712284,-0.2185368976638652,-0.1887625753879547,-0.0703933546870248,-0.1097148043599445
114,0.075834,-0.100122,0.419238,-0.117814,-0.051949,-0.698239,0.70419,1.3084107490092516,0.0538572623938322,-0.1380757607817649,6.297069515162706,3.4582869354516266,6.675144118630886,-1.641615629196167,1.959644794464112,2.136617422103882,-0.8077744036145508,-0.0039041205850285,0.399558668561295,0.4334029673619726,0.0085042212158441,-0.1374750882387161,0.2004536390304565,0.6484533868491649,0.3258551714092493,-0.0432610495775938,-0.0004306659102439,0.0993491187691688,-0.0849692071573808,-0.1981486082077026,0.0020737443840014,-0.196554161903914
115,0.077456,-0.102769,0.42038,-0.115049,-0.051166,-0.703716,0.699235,0.8418091363042592,0.35090076533854,2.9317993015825747,5.958172491350769,2.5751129385799167,7.351147191184759,-0.8691439628601074,2.317342758178711,2.086401462554932,-0.8408119021912914,0.0160727460948521,0.3534649427236532,0.4096824441391202,-0.0582058317959308,-0.1388332396745681,0.1825271099805832,0.1142722758680582,-0.0296767608612775,0.237145645212382,-0.0148306535556912,0.0567448325455188,0.0764661398286465,-0.1901389360427856,0.1348081555542536,-0.1585529873495921
116,0.079705,-0.106242,0.421073,-0.108824,-0.048682,-0.711812,0.692178,2.1120395000010728,0.8643491771534084,1.5484680438846348,4.955045250365138,1.4895999675914644,8.330606556335091,-0.3874204158782959,1.3205597400665283,1.0225695371627808,-0.8930738331831498,0.0240739409579376,0.273272244043406,0.3565977604262083,-0.0635510683059692,-0.1038094758987426,0.2028098106384277,0.2627484346330165,-0.2782154683560133,-0.0402392175383865,-0.0458894930779933,0.0231730137020349,0.0582247186220251,-0.0987863689661026,0.1050575714049395,-0.0688568886676337
117,0.084609,-0.112942,0.425333,-0.095794,-0.040276,-0.724307,0.681602,2.010780727224052,0.5546138042874634,1.748812337052822,4.561751742716133,1.257497577243298,8.589500069105625,-0.0177596509456634,1.310718655586243,0.5713732838630676,-0.9055341663892492,0.0232645245852437,0.2480244927091898,0.3434392967477796,0.0648250207304954,-0.0749018192291259,0.2750713527202606,-0.0923714097052812,0.0773205555677414,0.4550701648652553,-0.0179654862731695,0.0755872279405593,-0.1193421904103364,-0.0660216808319091,-0.0496490929471561,-0.0581209111876785
118,0.086259,-0.114658,0.428224,-0.087704,-0.036604,-0.726259,0.68082,0.7721165913969278,0.3517530713189393,0.7643921346247196,4.118938125094771,1.2209381441961973,8.815556895679235,0.0774096995592117,1.275077223777771,0.175140306353569,-0.9139767919929692,0.0147943887474912,0.2243051774692964,0.3378087421690963,0.0939488112926483,0.0012351305922493,0.3118396997451782,0.0790934104591608,0.0764221454232931,-0.2003489693433046,-0.0259291399270296,0.0665740072727203,-0.1157457642204128,-0.0920853838324546,0.0009021313340956,-0.1244684473828878
119,0.086739,-0.116447,0.429287,-0.082843,-0.03778,-0.721709,0.686182,0.504387153480947,0.3440509725090116,-0.2781517554700374,3.771208391007781,1.2040997490547596,8.97209653391242,-0.0145930014550685,0.6907556653022766,0.1259920597076416,-0.9194861096825784,0.0082490377738096,0.2061124296792944,0.3346565657042065,0.2498771697282791,-0.0221386346966028,0.3369852602481842,0.0898076966971159,-0.1722130081832408,0.1259450318746268,-0.0168996136635541,0.0513565875589847,-0.0710235332161886,-0.1001198589801788,-0.0416086016288725,-0.0742578024296788
120,0.08666,-0.117279,0.428586,-0.086223,-0.041453,-0.718301,0.689123,1.1443103201329707,0.2764801689960062,-0.1747340510934591,3.4969992356836794,1.2016400078777223,9.082810240516066,-0.0094839632511138,0.8824769258499146,-0.116670548915863,-0.9223228836064136,0.0033979404116016,0.1920781418495174,0.3352832822450277,0.0998077690601348,-0.0540493242442607,0.2781382501125335,0.2251683533012866,-0.0135427876621484,-0.1156402032203972,-0.0005486317677423,0.0841410607099533,-0.0876506099947728,-0.0930355116724968,-0.0778384876277763,-0.0170577803630265
121,0.086312,-0.118966,0.426898,-0.091699,-0.045121,-0.714531,0.692098,0.5563476423427463,0.1262402884941548,-0.8257324462503194,3.2339728608921168,1.18593185887523,9.18179551540315,-0.1826920360326767,0.4091527163982391,-0.2030259519815445,-0.9240211222930432,-0.0001237646021316,0.1784900512566442,0.3381215728399662,-0.1354082077741623,-0.110362559556961,0.2228658199310302,0.2504126846730709,0.2190659447729587,-0.3431248706400394,0.0013273647055029,0.0745976716279983,-0.0235120459527708,-0.0908939093351364,-0.0303284525359282,-0.0741466473725158
122,0.085902,-0.121669,0.426442,-0.093363,-0.053466,-0.705385,0.700612,0.5299757682457565,-0.3755241152677684,-0.1817781243860721,3.154550949130952,1.1751873966947195,9.210761497646567,-0.0864582657814025,0.1675526648759842,-0.3425855338573456,-0.9232134630138852,-0.0002401557473968,0.1743037726047918,0.3424835080490623,0.0482444465160369,-0.0759798213839531,0.1027678996324539,0.2447995209664106,-0.6503852316945791,-0.1676625052720308,-0.0342773124575614,0.0711593478918075,-0.0051908312291634,-0.0536520257592201,-0.0672027693516341,-0.0376607590522384
123,0.086408,-0.122848,0.427219,-0.089687,-0.054873,-0.70105,0.705319,-0.4914236270114779,-0.725686483329162,-0.6320189693987369,3.153775288583338,1.17624523518458,9.21089184602797,-0.1399834901094436,-0.221174731850624,-0.2692767083644867,-0.9208943220986044,0.000865727946886,0.1742826828407777,0.3486810016577413,0.1593422144651413,-0.0331083536148071,0.0927593410015106,-0.1950362498879432,-0.0349579161345958,0.0622404753357172,-0.0354189574718475,0.0434046126902103,-0.0027331507201161,-0.007115067448467,0.027216227383085,0.0565292991812573
124,0.08683,-0.12446,0.429275,-0.082449,-0.055391,-0.697251,0.709912,-0.3198869106546044,-0.4314714818086475,-0.0119306762903928,3.220761204880476,1.1440458239778877,9.191748754140734,-0.16971156001091,-0.0195880904793739,-0.1113462001085281,-0.9187721209104937,0.004492191749877,0.1770058430373417,0.3528550333933756,0.4812845289707184,-0.0452067740261554,0.1218307390809059,-0.1737894637197256,-0.4982914669543504,0.5498556499749422,-0.0069685732014477,0.0002551717916503,0.0071448656443215,-0.0087897032499313,0.0837297467566095,0.0005944005379511
125,0.090714,-0.128865,0.431022,-0.07829,-0.052569,-0.696292,0.711537,-0.1420236216247081,-0.0172486564427614,-0.4302297381192445,3.1154724459350107,1.0621679704319684,9.237749457815289,-0.326480358839035,0.5083824992179871,0.0498817414045333,-0.9196497650496208,0.006601060185542,0.170183090200103,0.3538903906608423,0.1618959158658981,0.0345071740448474,0.1996139585971832,0.0163870711773633,0.4952589673906564,0.0908611512728035,0.0192960277199745,-0.0050617093220353,-0.093224765998451,-0.0679585933685302,0.002715320519192,-0.0333960736453533
126,0.092555,-0.132348,0.433067,-0.074303,-0.050837,-0.698206,0.710213,0.3105582335561513,0.2242549647834152,-0.5740232920259237,2.980571223536133,0.9019176411125808,9.299092692050335,-0.4821727573871612,0.1460269391536712,-0.072155624628067,-0.9207897718786754,0.0119673971031405,0.160421326920597,0.3553421585969351,0.6300628781318665,0.1182971447706222,0.2868732213973999,-0.0767787037760019,-0.248980021521449,-0.044100861402601,0.0371749550104141,-0.0056550446897745,-0.0722701220440678,-0.0951703041791915,0.0283805219221045,-0.0431170927959494
127,0.096422,-0.138703,0.437173,-0.06407,-0.045165,-0.701967,0.707883,-0.095074238923192,0.0393057360805571,0.0655675739318132,2.847508030219376,0.564631632693857,9.367138054272532,-0.4436299800872803,0.1680879145860672,0.0760698914527893,-0.9206718003007776,0.0264248226019442,0.1473451935372586,0.3604921828451036,1.0754977464675903,0.2828695774078369,0.2892355322837829,0.2464209846884012,-0.2477104399770498,-0.344076764537394,0.0420018546283245,0.0086727952584624,-0.0825875544515438,-0.0907692462205886,0.0386164751747623,0.0277104634737013
128,0.097972,-0.142213,0.439804,-0.056831,-0.043323,-0.703278,0.707314,0.6629632659777999,0.0368457757078111,0.0386678765684366,2.8328704330578445,0.4086254072176292,9.37967254167497,-0.3596890270709991,0.0584934838116169,0.0647188276052475,-0.9212730749102084,0.0335098122787785,0.1436902428009612,0.3598420023797287,0.278001993894577,0.1757971942424774,0.2239217460155487,0.06639408788383,1.3417144681960345,-0.2923535915628075,0.0561932362616062,0.0018115163547918,-0.1755766941963694,-0.087463654577732,-0.0340417488544597,0.1166037966887
129,0.099156,-0.145715,0.441171,-0.051836,-0.041997,-0.704039,0.707021,0.6063552435711026,0.0107719895082525,0.2765460738390684,2.7676734460040926,0.2904484885938465,9.40351051338017,-0.2814134061336517,0.2031223475933075,-0.0816243067383766,-0.9213997800854372,0.0381087029394455,0.1382104460821425,0.361203539937638,0.336656242609024,0.0694081634283065,0.2336356937885284,0.0286228678941726,-0.4008206882834434,0.2024102857872843,0.0906945392489433,0.0296186953783035,-0.0654930017251055,-0.0970835611224174,0.0486004424107493,-0.0411673150016227
130,0.100651,-0.152063,0.443982,-0.046512,-0.038181,-0.703877,0.707768,-0.0915329130545258,-0.1378497517398558,0.4880693481475114,2.733235169829428,0.2238913373691029,9.415396181485056,-0.099317692220211,-0.1224823743104934,-0.2006536573171615,-0.9204330795308492,0.0411072507720107,0.1351243773162727,0.364492002328147,-0.0776948481798172,0.0149816758930683,0.2041439265012741,0.3207458655714988,0.2969008796036243,-0.3464092991381883,0.0834227874875068,0.0350516960024833,-0.1482725624842569,-0.1145965084433555,-0.0081723860569094,-0.1524984456841368
131,0.101093,-0.154598,0.444497,-0.047213,-0.038858,-0.705333,0.706234,-0.2061883430212736,-0.3028432569983415,0.0183481421172618,2.839659947067499,0.2539117423025891,9.383082642379405,0.0245113931596279,-0.317141056060791,-0.2257217913866043,-0.9180377555160076,0.0423463154913332,0.1407220856605712,0.3682535866329904,0.0976868271827697,-0.002165513113141,0.1390054672956466,0.0492097288489341,-0.0115682727187871,0.0099456399530172,0.0467121936380863,0.0512544102966785,-0.0560388396500377,-0.101079411804676,-0.0394029676436446,-0.1021766365406103
132,0.101731,-0.157322,0.444711,-0.049495,-0.040379,-0.707552,0.703768,-0.3694692722082138,-0.0466765388431958,-0.2974620206177234,2.948623010611534,0.2775673614445142,9.348741396838426,0.0328905619680881,-0.3774698078632355,-0.069350279867649,-0.9160200941763572,0.0438185419454669,0.1463789113105867,0.3708912803359649,0.3929879665374756,-0.0419037118554115,0.279319703578949,-0.3529495145618915,0.3124351333439349,0.1874523706302046,0.0335803367197513,0.042029358446598,-0.050720233876584,-0.0523104853928089,-0.0214523917429149,-0.0716233668394386
133,0.102181,-0.16345,0.445977,-0.050414,-0.042067,-0.708445,0.702705,0.2465665306389331,0.0296934928003698,-0.4855664254158735,3.0521947365060447,0.2745197739095427,9.315531785675883,-0.0873484909534454,-0.1179161071777343,-0.0117662781849503,-0.9150142324477646,0.046095884177057,0.1513777837933245,0.3710914648256294,-0.1706980168819427,-0.0644711777567863,0.2599485218524933,-0.1756336302816867,0.4761830955207347,-0.2846355645313859,0.0190695095807313,0.0283345058560371,-0.1446524448914919,-0.0507516264915466,-0.1052531670422758,-0.099093795029167
134,0.102772,-0.167138,0.446726,-0.049791,-0.041729,-0.710669,0.700521,-0.138883277772367,0.1683189598867669,-0.8221160093188286,3.088090810273588,0.2229834287439472,9.30507176645994,-0.2203819453716278,-0.1256694793701172,-0.0144870691001415,-0.9143382344172974,0.0494463561332996,0.1520803605971716,0.37203807898299,0.402030736207962,-0.0437538623809814,0.2906644344329834,-0.0736310534000396,-0.3757739253103733,0.3448670381322503,0.0156149696558713,0.041587796062231,-0.0980758958240505,-0.0545720122754573,-0.0414811758569208,-0.0756271088883513
135,0.102135,-0.17297,0.448336,-0.050792,-0.041917,-0.711322,0.699775,0.1278159403130412,0.0059985097624361,-0.6365104355990886,3.1455063496708866,0.1131130593629553,9.287807912448049,-0.3647557497024536,-0.1244957223534584,0.0058481153100728,-0.913571816758954,0.0559905996699642,0.1527043769701263,0.3727371538256653,0.3893373012542724,-0.0053304671309888,0.3385424017906189,-0.0972153426051139,-0.0170505035221576,0.1575850556328892,0.0189627315849065,0.0294047910720109,-0.0926014738678,-0.0619197972118854,-0.03227923954383,-0.0489664261789293
136,0.101225,-0.174919,0.449262,-0.050496,-0.041292,-0.709072,0.702112,-0.2154080067873001,-0.2093746631735004,-0.0330395152926445,3.1710499562501906,-0.033936064556858,9.2797456020236,-0.3416506350040436,-0.1322133988142013,0.0211088359355926,-0.9129305102973502,0.0637196917306187,0.1510114369830256,0.3737557504615886,0.4639982283115387,0.0264722034335136,0.3325238525867462,0.1376461371928453,-0.3964332669794559,0.0480395160257816,0.0374537259340286,0.0191114526242017,-0.105164657641761,-0.0634246096014976,-0.0442038148869993,-0.0697917126991786
137,0.100371,-0.175549,0.449202,-0.052794,-0.042595,-0.704898,0.706058,-0.2280512152612209,0.0774819018756039,0.0618850860267877,3.3439550383508205,-0.2453752750277519,9.21564634707868,-0.2065364271402359,-0.329443097114563,0.0685457661747932,-0.9117227422431436,0.0772128481947195,0.1554701569841119,0.3723290298511799,0.2896698415279388,0.083897940814495,0.4419488310813904,0.0028530513435602,-0.2164975555896759,-0.0308963657841086,0.0512620992958545,-0.0067182257771492,-0.0772770817521959,-0.0516861043870449,-0.0070673371496581,-0.081455545613775
138,0.097725,-0.176362,0.449985,-0.057259,-0.047167,-0.695983,0.714215,-0.1902060532525181,0.0598485386978834,-0.2225374202758073,3.446320311065018,-0.325754560578987,9.175355253222584,-0.1860449165105819,-0.2869301438331604,0.1362674385309219,-0.9112616396416316,0.0829407998797493,0.1590845635404193,0.3706953572410066,0.3067502975463867,0.114723339676857,0.422512024641037,0.1192974105536937,-0.0350894335597753,-0.1065574637070298,0.0510510876774787,0.0001501574879512,-0.0726378685110714,-0.0226756706833839,-0.0351293043458601,-0.0417617189645068
139,0.097611,-0.177016,0.450207,-0.059146,-0.048045,-0.695218,0.714749,0.3694192955866456,0.2277669914923608,-0.2692816357940435,3.5525822989568114,-0.4342668481482192,9.130221980032324,-0.3210315406322479,-0.2627339959144592,0.1060042008757591,-0.9109489043965984,0.0899937076124472,0.1624480105250849,0.3683530586805832,0.2853054404258728,0.1024118140339851,0.4353080987930298,0.2211953580170869,-0.1111865848124027,0.0247547942891716,0.0631162971258163,-0.0186559427529573,0.0209546439543832,-0.0119552453979849,0.0256652008320903,-0.0097210214338847
140,0.097947,-0.177819,0.450296,-0.061175,-0.049714,-0.69562,0.714072,0.1056847725257277,0.0684752780720591,0.2114467019408941,3.634956046260893,-0.5639254206532612,9.090625298181177,-0.3077913522720337,-0.1863303333520889,0.0270571876317262,-0.9098661476056148,0.0979934564924439,0.1640255722545102,0.3682885076928469,0.191120907664299,0.0706183090806007,0.4066401124000549,0.0060474634706974,-0.125251935043931,0.0921481223434209,0.0881154537200927,0.0084375143051147,-0.0362790360699873,0.0085053406655788,-0.0508771049387287,0.0422101340188644
141,0.098544,-0.180124,0.44828,-0.066755,-0.05556,-0.695787,0.712978,-0.0003586041793227,-0.0411043099351227,0.2920966941922903,3.677253803764284,-0.8782691275648772,9.0485818076998,-0.5092683434486389,0.0701271817088127,0.1004111915826797,-0.9090968965644868,0.1139737363968469,0.1601896050212373,0.3672766746757286,-0.0072054993361234,0.0675854459404945,0.3003058731555938,0.2315691602542996,0.0634708939135074,-0.324824367056787,0.0996598750352859,0.0247889664024114,-0.075427124770265,-0.0071164467372,-0.0889201824060175,0.0083377789230493
142,0.098594,-0.180759,0.447897,-0.068222,-0.057928,-0.695574,0.712859,-0.5403869798839092,-0.0215307176761329,0.3504518525272607,3.640728492182493,-1.040148080999404,9.04619111317098,-0.2649990022182464,0.0089707486331462,0.2122428566217422,-0.9096583408101228,0.1208123988139028,0.1554894711637275,0.3657174493223976,0.0263553895056247,-0.0405217967927455,0.2154660820960998,0.207742878986895,-0.2293792489945888,0.1749611378476023,0.074826993048191,0.0228766351938247,-0.0412859957781154,-0.0152599327266216,-0.0863249600147362,0.003871689192549
143,0.098948,-0.180414,0.447444,-0.067358,-0.060119,-0.696473,0.71188,0.4303066027477383,0.1280606357891112,0.0284825826406478,3.681435473363101,-1.173279298051074,9.01336962454319,-0.3142244517803192,-0.2570076584815979,0.1292890459299087,-0.9099179599286285,0.1276889177946496,0.1553756386656438,0.3627714316227892,0.1070241332054138,-0.0495531633496284,0.0952362790703773,0.4586395477846264,-0.4181055850833654,0.1447699977234005,0.056934967637062,-0.0063361474312841,0.0415134889576351,-0.0175468660891056,-0.0526829761837609,-0.021301564545778
144,0.099079,-0.180443,0.447451,-0.066894,-0.060599,-0.696788,0.711575,0.3707379769697785,0.069558981655538,0.0881768806248903,3.7829023359328495,-1.3531503467068076,8.94589417116344,-0.197695180773735,-0.2211716175079345,0.0333844572305679,-0.908953547780634,0.1382991395666795,0.1573521368003708,0.3604401301139185,-0.009155198931694,0.0010597348446026,0.1383183002471923,-0.1307940793409943,-0.1934837597489357,0.0986816157653927,0.0398244634270668,-0.02413996681571,-0.0362790360699873,-0.0248961430042982,-0.0508771049387287,0.0422101340188644
145,0.099468,-0.18016,0.44698,-0.066815,-0.061177,-0.696931,0.711393,0.0866293589219451,-0.1244739364087581,0.0925093568712472,3.950593190516531,-1.4720096581041813,8.854173334321379,-0.12098890542984,-0.224805399775505,0.0548482164740562,-0.906877790895108,0.1475768235515249,0.1636578028333843,0.3591795468936822,-0.0352821387350559,-0.0071332673542201,0.1547795683145523,-0.0164215579688549,0.2627308989763259,-0.2138607773452997,0.0432374365627765,-0.0094159012660384,-0.0409182447445346,-0.0228345766663551,-0.0228151360300602,0.0025163130778179
146,0.099778,-0.180861,0.446121,-0.067986,-0.064028,-0.69738,0.710591,0.5662184634938836,0.0217228792473673,0.0627624533832073,4.005210331366956,-1.536953254918754,8.818528604966401,-0.2107519805431366,0.0474811494350433,0.1172527447342872,-0.906515543548415,0.1516965963163989,0.1654336964703944,0.3575602730312746,-0.1733191013336181,-0.0459013804793357,0.0982489138841629,0.1173980066731572,0.2986901011079549,0.0615583382904529,0.0360349677503109,-0.0049149747937917,-0.0491538750424282,-0.0356555506587028,-0.0453044011066202,0.0291700283319805
147,0.099985,-0.181256,0.445779,-0.068365,-0.065626,-0.697659,0.710135,0.3037605362400412,0.0708542821630835,-0.1977291422337293,3.946545960952341,-1.640702529337257,8.826282287833093,-0.2574608325958252,0.0673040822148323,0.0689006075263023,-0.9069493242290962,0.1554774715748499,0.1606599234464467,0.3570127606309125,0.1003510504961013,-0.1464539319276809,0.1384884864091873,-0.1630865756586194,-0.1910784521728754,0.3243611334592103,0.0328461043536663,0.0032986940350383,-0.0291622217681491,-0.0372288934886455,-0.0076509120453847,0.0395896356224315
148,0.099904,-0.181555,0.445559,-0.068898,-0.066654,-0.697652,0.709994,-0.3266553818762302,0.1506184314906597,-0.0475005868434906,3.9336695282444354,-1.7454560123622416,8.811924092134833,-0.3066824376583099,0.0464481003582477,0.0976783260703086,-0.9066656381870932,0.1603622051654785,0.1581165997122243,0.3567077239403083,-0.0503146201372146,-0.1262580156326294,0.1226794198155403,0.0162023622602224,0.2005745947927236,-0.5555234664782881,0.0324141532182693,-0.016842808574438,0.000679395957262,-0.0517930351197719,0.0460125448093982,-0.0091405523815192
149,0.099958,-0.181581,0.445178,-0.07061,-0.067605,-0.697655,0.709733,-0.8608160345911979,0.1341178169362246,-0.112526893505454,3.93676661747694,-1.8820348125845192,8.782380017742515,-0.3220097422599792,-0.1586161404848098,0.2575331032276153,-0.9067752133683222,0.1668412821300963,0.1561641157109158,0.3543097400441503,-0.1528340727090835,-0.0895414277911186,0.1596042215824127,0.1321390642091632,0.207092013862729,-0.3778323191449046,0.0244676675647497,-0.0238890573382377,-0.1101634888423606,-0.0530754663050174,-0.0160172857336117,0.0315891224047984
150,0.099567,-0.181832,0.444823,-0.071257,-0.068149,-0.69734,0.709926,0.8875491432160139,0.0210166306741535,0.7774830868661403,3.876762522891164,-2.2548067795999347,8.721063086992501,-0.2412668466567993,0.1584745347499847,0.2674438655376434,-0.9100335082024216,0.1821655126166429,0.148879971019866,0.3413056130685538,-0.3107723295688629,-0.0966838672757148,0.1900292336940765,0.0503147674813866,0.1983218474298715,-0.242545896820724,0.0015963349724188,-0.0105428919196128,-0.0664559969717869,-0.0679730772972107,0.0605887352064717,-0.0210266908438643
151,0.098998,-0.182612,0.443034,-0.073691,-0.068357,-0.697319,0.709678,-0.0387456179797649,-0.2665628783546388,0.7566045494884253,3.913611075077951,-2.271141097676754,8.700341786003113,0.197295144200325,-0.2799024283885956,0.1239571422338485,-0.910423211820368,0.183350895665365,0.1509584785239328,0.3387086574685742,-0.5303941369056702,-0.1304395347833633,0.147232636809349,0.0098781276747584,0.1270055007129907,0.2002864255011081,0.0001995707862079,-0.008179698139429,-0.0482906047100201,-0.0455312840640544,0.0324630534118274,0.0193517913180286
152,0.099123,-0.183019,0.442236,-0.076938,-0.066587,-0.698735,0.708107,0.6676967242404818,0.0931516002975404,-0.1001835447609424,3.781627785952389,-2.226235788023472,8.770036668998003,0.0112268412485718,0.3786621391773224,0.1489258557558059,-0.9148334812440932,0.1772195997672204,0.1464437573759243,0.3320045162820718,-0.1582607924938202,-0.1582548320293426,0.1483078896999359,-0.1417325297236442,-0.0108697690606117,0.2988131429657339,0.0120382672175765,0.0064104180783033,-0.0808173938407097,-0.017603900283575,0.0233885383041109,-0.0086782029874651
153,0.099213,-0.18288,0.442783,-0.076022,-0.064546,-0.699146,0.70799,0.6073629593089223,0.1302775081209838,-0.0645569355845451,3.7188098029896617,-2.213382590060681,8.800100967872142,0.1425211578607559,-0.0793288797140121,-0.0442034192383289,-0.9159674384931942,0.1751516469915502,0.1436719163999894,0.3311857909295673,-0.0007702368311583,-0.1281435638666153,0.1814443469047546,-0.0876937732830643,-0.0909948606550693,0.3325970468848943,-0.0035930972080677,0.0151174450293183,-0.113655833603302,-0.0132043352350592,0.0318113046549609,-0.028923017601238
154,0.100489,-0.183719,0.441582,-0.071686,-0.069866,-0.699906,0.707186,0.1083271037280559,0.0019582944609224,-0.1869055504024028,3.804845872193576,-2.1194800252653656,8.786429000872372,0.2481427490711212,-0.1970701366662979,-0.1037211343646049,-0.9153708979621156,0.1722409669738705,0.1494986220862272,0.3317820884255589,0.0781221762299537,-0.0814676880836486,0.2197641730308532,-0.0248266904816031,0.1179413197696208,-0.0665074851304292,-0.0068455198779702,0.0249188505113124,-0.1197816047409083,-0.0112092290073633,0.0171003751124488,-0.0432282432865351
155,0.101216,-0.184424,0.439495,-0.077488,-0.069374,-0.701147,0.705391,-0.1098702415168285,0.0908522373139858,-0.6202110427051782,3.859190041321516,-2.052601076474041,8.77860283729136,0.0841673985123634,-0.1658251285552978,-0.0142426500096917,-0.91519328591258,0.1699469349548424,0.1534075161665063,0.3316705870235141,0.2681067585945129,-0.1633210629224777,0.3063919842243194,-0.2383221416458487,-0.0092751933455467,0.3960661872327327,-0.0036346614360809,0.0430947989225387,-0.0980478479065,-0.0149631574749946,-0.0009776242769439,-0.0724122065290343
156,0.100576,-0.184415,0.43878,-0.075525,-0.071755,-0.699253,0.707243,-0.0309203311815857,0.0303827171735465,-0.3704997842997312,3.918056364049017,-2.057224060099572,8.751402695676683,-0.1002641916275024,-0.0949361696839332,0.0044891950674355,-0.9145453885967628,0.1713401528950279,0.156349571792254,0.3313671570275378,1.3105385303497314,-0.2163722366094589,0.39051353931427,-0.0650368280559778,-0.4229658845961093,0.5028215115994215,-0.0078128818422555,0.0426957383751869,-0.0632553742995718,-0.0255500804632902,0.0071265850647148,-0.0892337510003708
157,0.099893,-0.184567,0.437628,-0.075714,-0.070594,-0.699293,0.7073,0.0051931847289204,0.0075998074792325,0.0378653280138969,3.907231603173911,-2.104022636153549,8.745113824665546,-0.0876306891441345,0.0798149853944778,0.0802739113569259,-0.9145682910998898,0.173399190806082,0.1550999832421093,0.3308195383796532,2.4439690113067627,-0.0273059140890836,0.4173400104045868,0.2368245965644717,-0.9326794937968254,-0.3145025872677564,-0.0118728820234537,0.0425377003848552,-0.0953346251587383,-0.0084479767829179,-0.0050630133023892,0.0075628718606836
158,0.100277,-0.184301,0.434972,-0.076125,-0.071411,-0.699539,0.70693,0.1631324606269598,0.1609013405740261,0.0152162738323211,3.8912984132438897,-2.1331249581277367,8.745167600679396,-0.050258345901966,0.0286694020032882,0.0340794995427131,-0.9148108021171087,0.1744372227988594,0.1539226764411717,0.3301524749234338,2.661317586898804,-0.068672738969326,0.4520785510540008,0.0107505265951156,-0.5290414100050926,-0.2707993468806147,-4.0639424696e-06,0.02783914655447,-0.0078678809767792,0.0047173779457807,0.0410205634746933,0.0252983379977871
159,0.099965,-0.184579,0.432545,-0.078098,-0.072132,-0.699935,0.70625,0.0764437727332115,0.1075100882567465,-0.0125198743551969,3.875934255373478,-2.1594906947448846,8.745520067378878,-0.0878353640437126,0.0348368771374225,0.0148555971682071,-0.9148688349438516,0.1754394472589766,0.1527205608845415,0.3300190887452482,2.273630380630493,0.1488925516605377,0.2508254945278168,0.4116261599361896,0.0960936450988054,-1.265684536960721,0.0169499535113573,-0.0067216497845947,-0.078288048893027,0.0032926038838922,-0.012451761572028,0.0719745640304405
160,0.099483,-0.184588,0.431705,-0.076803,-0.072499,-0.699172,0.707109,-0.0138087451219558,0.1430104407049715,0.2039519622713327,3.872513925535977,-2.1617713530279694,8.746471669015287,0.0236648526042699,0.0047405203804373,0.0185353178530931,-0.9148458767980204,0.175508011034719,0.1524827523031649,0.330156107062087,0.6218243837356567,0.1030227467417717,0.1107096448540687,0.2839902523651719,0.38503041395545,-1.0844435881912708,0.0331941545009613,0.027133110910654,-0.0750313212525565,-0.0007912212749943,0.015093195441924,0.0101973017427022
161,0.101855,-0.184844,0.4308,-0.072901,-0.075853,-0.703017,0.703349,-0.0090054364934563,0.0326353184059262,0.065903674018383,3.874144741608202,-2.1500075577370823,8.74864901305437,0.0005620003212243,0.0160845126956701,0.0324930250644683,-0.9150301816925,0.1748862066924542,0.1528327970088963,0.3298132459387236,-0.7086946368217468,-0.0695758759975433,-0.0801727548241615,0.0814282831475138,1.199746960672736,0.6026368075698614,0.0218770243227481,0.0296472404152154,-0.0806615730913355,-0.0277675688266754,0.014639898716472,-0.0125707894083927
162,0.101929,-0.184855,0.428124,-0.072698,-0.073719,-0.702259,0.704353,0.1040147934868931,-0.0813023186802864,0.0045545945644378,3.8295091888070094,-2.111936039626598,8.777526732492447,0.1465786099433899,0.0731083452701568,0.0809117332100868,-0.9163835769538284,0.1717864987554006,0.1515258743205529,0.328284241649853,-1.3707195520401,-0.2794273793697357,0.0782650858163833,-0.4881947280928492,1.8462375230163333,0.8373667699426413,0.0195805206894874,0.0203604418784379,-0.0958020965400151,-0.0279524624347686,0.0211829088854603,0.0192406385441543
163,0.101017,-0.184825,0.427098,-0.073849,-0.071866,-0.701315,0.705365,0.5507824094310403,0.0841828425526619,-0.4133715422987937,3.843475462578237,-2.070023628178984,8.781405619752407,0.096994437277317,-0.1435223072767257,-0.0492273308336734,-0.9168704939553992,0.1697660640047613,0.1531417939811034,0.3272239483500511,-1.114690899848938,-0.3751919269561767,0.0918146446347236,-0.2785805022761226,-0.8064046454459428,-0.0904430719912052,-0.0046354588121175,0.0331707522273063,-0.0780842425497714,-0.0404975861310958,-0.0038276879373297,-0.0652074993146117
164,0.100383,-0.185472,0.426357,-0.074149,-0.071039,-0.701389,0.705344,0.2770619144067168,-0.0158522336483001,-0.2904968577802181,3.896929404868185,-2.048697785425186,8.762828345054388,-0.0212176218628883,-0.016689259558916,-0.0996416881680488,-0.9159829495763616,0.1699445427372663,0.1560094039669105,0.3282608918757004,-0.0485579967498779,0.0155496215447783,0.4276939928531647,1.2343696535035966,-0.8604986392050981,-1.6459259630739689,-0.0057347686961293,0.0297004580497741,-0.0068768383833696,-0.0175929814577102,0.0695358245422365,0.0083726127744128
165,0.100735,-0.186322,0.423489,-0.07507,-0.073155,-0.702322,0.7041,-0.1627417077437043,0.0915196151815354,0.2377086859226226,3.856246681345999,-2.1062401660725474,8.767183033132552,-0.0360174663364887,0.0053683542646467,-0.0296113137155771,-0.9153986193704884,0.1723645945829594,0.1526057467970766,0.3302231344236774,0.5930888652801514,-0.0573204308748245,-0.0315875113010406,0.5476183924421668,-1.4868278725296258,-0.9076660485714674,0.0404169633984565,0.0205270033329725,-0.1304667927485425,-0.0062753269448876,-0.036173497902858,0.0289546936644241
166,0.10079,-0.186612,0.422008,-0.076034,-0.073402,-0.70258,0.703714,-0.1195703822761774,0.1116824055053293,0.1886515172868967,3.8479409175544976,-2.1084464439451693,8.77030145741403,-0.0101781655102968,0.073147639632225,0.0193089637905359,-0.9154138188616172,0.1723395921190278,0.1521122198221927,0.3304217899188094,1.6334859132766724,0.1745696365833282,-0.0400758720934391,0.6632832917124033,-1.7657178791463377,-0.5893161382257938,0.0594498589634895,0.0252327248454093,-0.0193122561753727,-0.0251341760158538,0.0083590540356963,-0.0195601596719701
167,0.104959,-0.187734,0.418885,-0.074204,-0.07954,-0.70714,0.698656,-0.0687722151920199,0.0818305803380906,0.1611836646467447,3.8130043364688753,-2.1092703275486824,8.785349388942121,0.0232007317245006,0.0361630618572235,0.0372683443129062,-0.9158986979550628,0.1716372972947897,0.1503744896139434,0.330238967851077,2.0116846561431885,0.4332238733768463,-0.1008960157632827,0.5160393050909042,-0.0601011252194643,-0.5889075574249029,0.0454761013388633,0.0021142864134162,-0.0373218231211882,-0.0108208050951361,0.0277360911053023,-0.0638312242590356
168,0.104825,-0.1873,0.418014,-0.071433,-0.082555,-0.7069,0.698838,0.1812140607625245,-0.0103667879745364,-0.0477186135083436,3.80333575989157,-2.1023663933791217,8.791193438795208,0.0152941551059484,-0.0075943120755255,0.040318064391613,-0.9163615687936556,0.1709534537550752,0.1501625878967361,0.3294051000445632,0.936890184879303,0.4305455684661865,0.1224933341145515,-0.1478729321748018,2.0273820256739854,0.113543377071619,0.0090947393327951,0.0116896471008658,-0.0717745981786632,0.0013748755445703,0.0426381547391647,-0.051579960545036
169,0.103867,-0.186275,0.417621,-0.072107,-0.07721,-0.70641,0.699875,0.2888815315380692,-0.0491221966959536,-0.2009153710544109,3.8004149040088056,-2.100272489839792,8.792956356814503,-0.0044773835688829,-0.0235959198325872,0.0190752651542425,-0.9166050043492138,0.170699227042329,0.1501524271678944,0.3288636286819261,-1.1788259744644165,-0.4326192140579223,0.2952791452407837,-1.8810253432810304,0.8582254335761069,1.2363824546307325,-0.0351002737879753,0.0116989472880959,-0.1038818969553802,0.0134116495028138,-0.0100549957787385,0.0420017610983457
170,0.101995,-0.187325,0.414846,-0.077191,-0.076172,-0.704593,0.701276,0.2473720018029213,-0.0659735243842005,-0.2056605197548866,3.8332454527258872,-2.12202737166062,8.773460798227786,-0.145324632525444,0.1107667237520217,-0.0445647351443767,-0.9157162355112832,0.1726299038206613,0.1512511350767204,0.32982705568936,-0.4891250133514404,-0.0055862367153167,0.1282846480607986,0.7424582429751754,-0.6993880397945642,-1.93669637709856,0.0096944794058799,0.024445317685604,-0.055818789991457,-0.027808042243123,0.0964898961410857,0.0400798531250562
171,0.101621,-0.188641,0.412448,-0.081738,-0.078227,-0.703163,0.701969,-0.2092179199755191,-0.0263790344901382,0.2259597959399223,3.8089001160204408,-2.1638664256110784,8.773844829109311,-0.0834497436881065,0.0913925692439079,-0.035483818501234,-0.9151740125028148,0.174506863913903,0.1490160296566631,0.3313580740243703,0.3079039752483368,-0.0540743581950664,0.1837588250637054,0.0619739333540201,0.4592635249018669,0.1190583411008119,0.0263901986181736,0.0240746065974235,-0.0410179650922305,-0.0102416286244988,0.0669406067175324,0.0128387013632687
172,0.101716,-0.189325,0.410947,-0.084211,-0.078199,-0.703788,0.701054,-0.1419742295250296,0.0696909374721348,0.1338730483949184,3.824854640999436,-2.1664128952234982,8.766272348028421,0.0053857043385505,-0.056774653494358,-0.0569472536444664,-0.9146318558273928,0.1751129387371137,0.1495993637590295,0.3322711412010057,0.2068146467208862,-0.112633541226387,0.048819713294506,0.3477010925143957,-0.8526543554455042,-0.4420926098704338,0.0362518392503261,0.0499340556561946,-0.1014323392456397,0.0126364063471555,0.0207296098767197,-0.0035274571735179
173,0.102814,-0.18863,0.410037,-0.077898,-0.077419,-0.703778,0.70188,-0.2798053678959608,0.0596697480648756,-0.02612871299088,3.838786135718226,-2.1652204705685376,8.760475644448398,-0.0320960767567157,-0.0116533758118748,-0.0014899773523211,-0.9142600153624274,0.17543434645225,0.1502093514414335,0.3328493733643782,0.7931205034255981,0.2943926751613617,-0.244957834482193,0.8015838011607527,-1.498618263566494,-1.1523901662141085,0.0219691861420869,0.0313377901911735,-0.0387803376666968,0.0099661089479923,0.0254667488006758,-0.0352277323521906
174,0.104222,-0.189323,0.408524,-0.079307,-0.078088,-0.706214,0.699196,-0.0758338241413235,-0.0073025780983269,-0.008502455407381,3.8341318801715967,-2.179950276058168,8.758860610467195,-0.0512675978243351,0.0125707946717739,0.0209511239081621,-0.9142898975312131,0.1760525403659543,0.1497594862921817,0.3326435394933711,0.7972268462181091,0.3598003685474396,-0.1300853937864303,0.4520572467848658,-0.484026794758439,-0.3876958337724208,0.0021376074291765,0.0132561326026916,-0.0213460863908054,0.0091060232371091,0.058456988441362,-0.108675789301563
175,0.104616,-0.188072,0.405748,-0.074463,-0.076717,-0.705051,0.701051,-0.0242962368667125,-0.0783671420112252,0.1195452478349208,3.816562028950453,-2.193131683062017,8.763242186552286,0.0121692828834056,0.0221908874809741,0.025880143046379,-0.9144927147499022,0.1763236188001388,0.14869086315516,0.3324216814717008,0.9051786065101624,0.2483859062194824,-0.0210110321640968,-0.3497358132123947,1.1322913810372353,-0.01113397295475,-0.0311991702765226,0.0158263202756643,-0.1108946343948133,0.00523067638278,0.0450986311351414,-0.082237416706467
176,0.104994,-0.187821,0.404402,-0.073096,-0.076128,-0.705088,0.701222,0.0573909894779324,0.0446830452047288,-0.2400456044375896,3.8228614213556047,-2.165795932368934,8.767294092291593,0.1147869378328323,-0.1230038478970527,-0.0207026191055774,-0.9147799693943292,0.1749867198910784,0.1495729249119005,0.3319416383304954,-1.6613521575927734,-0.492628812789917,-0.340453952550888,-1.957621968488395,4.446034820997714,2.808043742576241,-0.0609249174594879,0.0575078278779983,-0.1661462372238747,0.0139497686177492,0.025586852065986,-0.0641577162670437
177,0.10525,-0.187942,0.402317,-0.072757,-0.075373,-0.703926,0.702505,0.0651627925232052,-0.0044923429831862,-0.3957493763685226,3.891105813281238,-2.139964156498015,8.743582377314567,-0.0146903749555349,-0.2038847208023071,-0.0862009972333908,-0.9140213772260938,0.175126539105791,0.1534016024915318,0.3322103185319372,0.1841247826814651,0.2376484721899032,0.1822370290756225,0.8598153331160545,-0.9165548729479313,0.7248147419959307,-0.0712526962161064,0.0686346888542175,-0.0690133989701746,-0.0040130000561475,0.0559254789360566,-0.104894352800399
178,0.104854,-0.188553,0.39794,-0.0747,-0.076484,-0.701809,0.704297,0.1003936803802847,-0.037320553612709,0.0984556980550289,3.93802596988827,-2.164896207050234,8.716396264225244,-0.0854309424757957,0.1474808007478714,-0.0091801118105649,-0.912614413620152,0.1776687054899137,0.1549881125271635,0.3339871093178642,-2.085005760192871,-0.4315180480480194,0.053173117339611,0.4864283029422164,0.8882529075711965,0.3104465898752212,-0.056649699807167,0.0840201005339622,-0.1221513660795521,0.032161820679903,-0.0803091337913181,0.1284829619875643
179,0.104336,-0.18844,0.395915,-0.075708,-0.075708,-0.700963,0.705116,0.0463239442795515,-0.0498474422305822,0.1709767443865537,3.9011163351640095,-2.186187124621123,8.727672275999188,-0.0361063815653324,0.0409715324640274,-0.0303379073739051,-0.9125821304045272,0.1781395013317529,0.1525741511566065,0.3349348541454501,0.0385393537580966,-0.2168421745300293,-0.2641110122203827,0.6838663532748818,-2.604318574798107,0.2585831316471099,-0.0248727891594171,0.0545598231256008,-0.0412859957781154,0.0030754983890801,-0.0863249600147362,0.003871689192549
180,0.103988,-0.187973,0.394958,-0.074527,-0.074058,-0.700377,0.705998,0.0028036592438817,0.0036598376818001,0.2176186685740947,3.923986338619888,-2.173704367405921,8.720534679204224,0.0531152449548244,-0.1122936680912971,-0.0536300204694271,-0.9121640214537732,0.1780836945425797,0.1538267607769316,0.3355297656997036,1.0538175106048584,0.1839750111103058,-0.088058240711689,0.5329653054505586,-0.570069001442194,-0.4628542428702116,0.0073042954318225,0.046034924685955,0.0399272015803027,-0.009662453085184,-0.0057001250374829,0.0144094155704893
181,0.103965,-0.186019,0.393318,-0.069421,-0.065947,-0.700523,0.707177,0.0316980375558137,-0.129675596705079,0.1580178940922021,3.9785897432059047,-2.143020329198241,8.703371362957357,0.0655991584062576,-0.1721459478139877,-0.0938840880990028,-0.9114208992943832,0.1777941108977122,0.156973909300584,0.3362446698083887,1.49810791015625,0.3131758272647857,-0.1694530993700027,-0.2842743300035595,-0.0211035783052444,-0.4238689709156751,0.0153656899929046,-0.0036674053408205,0.005502477865311,-0.0066466075368225,0.0497054901763563,0.0298755827854503
182,0.103904,-0.184626,0.392435,-0.065112,-0.061546,-0.700668,0.707839,0.0446396444544196,-0.1496884571641683,0.1220493396103382,4.053335772110522,-2.086346401948482,8.68262726561427,0.1655782908201217,-0.2375393509864807,-0.1252296864986419,-0.910499706637454,0.1766573007472558,0.1615593222724921,0.3371663121350562,-0.5098528861999512,0.0152824530377984,-0.217697262763977,-0.4738882625818252,1.520218685477972,-1.1758756712198255,0.0077875917777419,0.0110155837610363,-0.1570236406241543,0.0102035589516162,-0.0217884415971348,0.0191225148900877
183,0.103967,-0.182592,0.389356,-0.060973,-0.05514,-0.70158,0.707833,0.2598766785889864,0.0803380036927759,-0.224201554095745,4.193188771697878,-1.991060419970751,8.638473651111125,0.2206200659275055,-0.5244400501251221,-0.2722780406475067,-0.9087587154113828,0.1750533497011382,0.1700491989110841,0.3385221740339356,0.3010396659374237,0.0742989555001258,-0.0235317144542932,0.2427013796433806,-0.6603694500923156,0.3514092993825674,-0.0213057491928339,0.0408919043838977,-0.0384686916013713,0.0263244844973087,0.0079694679129315,-0.0430129109022673
184,0.105056,-0.181685,0.386011,-0.062817,-0.0523,-0.702484,0.70699,0.3038461686968803,0.2061243378743529,-0.4188333148360252,4.449541952335834,-1.8584229047201573,8.539217158067226,0.2100017517805099,-0.8775349259376526,-0.4491990804672241,-0.9047641851071369,0.1745344104715007,0.1848211029057035,0.3417320029895208,1.2044299840927124,-0.1022233515977859,-0.0558986440300941,-0.8829059935852884,-0.0200339032471179,0.5340016627609729,-0.0506826974451541,0.0215790811926126,-0.0476953604969196,0.040808267891407,-0.0430350588019937,0.0005665352834912
185,0.105406,-0.181708,0.382632,-0.06842,-0.049977,-0.703649,0.705478,0.0819584445014595,0.0517845477730035,-0.1543891822010278,4.85383791551441,-1.6844805885262786,8.353033492198586,0.1833203136920929,-1.2578063011169434,-0.615674614906311,-0.8974658663731346,0.1760091955522072,0.2076886354709036,0.3470466238674277,-0.1545731127262115,-0.0334042310714721,0.0361953973770141,0.0752934336543083,-0.1739215656667947,-0.3869815480232239,-0.0567718669772148,0.0355894267559051,-0.0137381070215604,0.0729503184556961,-0.0721947552529163,-0.0032218669604655
186,0.105057,-0.181537,0.376552,-0.07315,-0.046956,-0.703785,0.705075,0.0494774398744106,0.0424494409337639,0.439742247352004,5.305753123480081,-1.5009671647801994,8.109652605858445,0.2012340873479843,-1.1084328889846802,-0.5529240369796753,-0.8883926588216342,0.1788075953784321,0.233560778597632,0.3524706968273453,1.36093270778656,0.2363558262586593,-0.019187232479453,0.0860115192845463,-1.3398615338057278,-0.2247878295511007,-0.0427630357444286,-0.0221869442611932,-0.0141775270603538,0.0775265172123909,-0.0054452803434454,0.011670798086567
187,0.105436,-0.181357,0.373636,-0.07343,-0.0454,-0.704078,0.704856,0.2659375860631466,-0.1168606849260628,0.5639706845670938,5.59072858749032,-1.3130762566022574,7.949211868533491,0.2891459465026855,-0.5685837864875793,-0.4967668950557709,-0.8818019109587354,0.1777386294172741,0.2512209666230507,0.3573826025318162,2.8005614280700684,0.1032833606004715,-0.0839722827076911,-0.2150923649668693,-1.6501877121716737,0.1165641861975192,-0.0337335132062435,-0.037404365837574,-0.0935644554147496,0.0694920420646667,-0.0202909513146849,-0.0288257974545937
188,0.105678,-0.18181,0.370385,-0.075077,-0.045208,-0.703772,0.704999,0.0369277549028396,-0.006135360949859,0.3852975404590368,5.807168859934807,-1.0705071250364184,7.829507630744576,0.4796644151210785,-0.8209152817726135,-0.5285709500312805,-0.8762548717316021,0.1725350596932294,0.2665292852497943,0.3624517743409964,2.5662193298339844,0.0395379923284053,-0.166240394115448,0.3578495615631342,0.3929916020929813,-0.4168915331184863,-0.0364717468619346,-0.0396491773426532,-0.0705280093507841,0.0511999577283859,-0.0273509665285237,-0.0827206610456109
189,0.106551,-0.182377,0.363234,-0.078948,-0.042825,-0.704623,0.703875,-0.2746890477955341,-0.0153295980136841,0.3252782483041286,6.2539084188282485,-0.7597929702661931,7.51543291350007,0.7174502015113831,-1.9029639959335327,-0.5883225798606873,-0.8663285440075598,0.1694958737367179,0.2968008011133217,0.3642188705001786,1.72152578830719,0.0045466115698218,-0.1104856580495834,0.021359891153872,0.6087307405307889,-0.3173690826147795,-0.0326708145439624,-0.0575628541409969,-0.074719675187231,0.0784802138805389,-0.0024040843041759,0.002412128330025
190,0.107063,-0.182529,0.359523,-0.08047,-0.041325,-0.704645,0.70377,0.1695622014135122,0.0751122318685054,0.3765998547405004,6.90275986508429,-0.3471533589711412,6.957139105525612,0.940778374671936,-2.337926149368286,-0.7284637093544006,-0.8504612133586341,0.1668911799115917,0.3426834588615528,0.3625345080125705,1.6955459117889404,-0.007430262863636,-0.1000994592905044,-0.1705401065349578,-1.091464865130186,0.4038771532446146,-0.0087294047698378,-0.0619170442223548,-0.0331220356270787,0.1236042231321334,0.0664235971061047,-0.0092447382709564
191,0.107646,-0.182387,0.350336,-0.084363,-0.042272,-0.704709,0.703194,0.60075581612885,-0.6811210731547326,0.6761737529456615,7.414133516451716,0.141228543990571,6.417247800204158,0.9190929532051086,-1.3425930738449097,-0.8234036564826965,-0.8338269849585421,0.1587241104066353,0.3842109967903269,0.3632095367296164,0.7899854183197021,-0.0897547528147697,-0.063800573348999,0.0502630372941493,0.9671914197295904,-0.4846060559511184,0.0135739687830209,-0.0888127461075782,-0.0569937018226133,0.1659005284309387,0.0362197116647614,0.0576832686890847
192,0.109362,-0.18333,0.345101,-0.087352,-0.044515,-0.705358,0.702038,0.6545370906770229,-0.0367488181393593,-1.24254156178236,7.641520714846253,0.9806627495907246,6.067605510494112,0.5859107375144958,0.348175436258316,-0.5999231934547424,-0.8217791822581761,0.1254731363933029,0.4182041404556682,0.3661156888159256,-0.2346263974905014,-0.1156790778040885,0.1756611466407776,0.0004909983873367,0.3237143599882722,-0.2969792055368423,0.0574374571442604,-0.1018895357847213,-0.069373021496227,0.2366404831409454,0.0560500505972187,0.0361802998196915
193,0.110897,-0.184215,0.339938,-0.091448,-0.047564,-0.705284,0.701391,-0.8141594973564148,0.599067351585254,0.0239320797294378,7.787420885643362,1.1290971881058067,5.852486257520318,0.0690135210752487,-1.1777360439300537,-0.183878555893898,-0.8132143905188104,0.1254858121942579,0.4311143338931265,0.3702377556813642,-0.5212589502334595,-0.1487504839897155,0.2902997732162475,-0.0073129533618688,0.7114759524732828,-0.393754987680912,0.0603689104318618,-0.0996801108121872,-0.0030167471554246,0.2955739796161651,0.085217062704917,0.0675293755240738
194,0.113751,-0.186945,0.328037,-0.103031,-0.053313,-0.705513,0.699138,-0.5709077903538942,-0.6428888845898211,0.0828968943953514,8.034831465891003,1.2013364948865026,5.492600221693516,0.4355221688747406,-1.082622528076172,0.159368559718132,-0.8045677821947456,0.128146286006944,0.4511472485525223,0.3643012057658065,-0.0497252605855464,-0.2439921051263809,0.2632605731487274,-0.1005000633642077,-0.0203413617610931,-0.14099427857697,0.0186880342662334,-0.1203637346625328,0.0507763342782622,0.325414627790451,0.1024594903362914,0.0780531715580727
195,0.114681,-0.188707,0.321182,-0.110557,-0.056216,-0.705044,0.698233,0.9337047451913356,0.8684542743846774,-0.2757347574561834,8.356695521837473,1.2177931972339748,4.985279060587287,0.1450196206569671,-1.6701502799987793,-0.264635682106018,-0.7915237845180512,0.1366960023299897,0.4765875643196865,0.3573074984854522,0.3097237050533294,-0.1245611459016799,0.3575222194194793,0.2354617837786674,-0.0198456871986389,-0.2993132014423608,-0.0196018777787685,-0.1527129113674163,0.0410821940014371,0.3626441359519958,0.0777008966548368,0.1333103730108588
196,0.114333,-0.191744,0.313704,-0.119152,-0.060352,-0.704609,0.696912,0.5300128853857516,-0.0142956518560647,-0.1197176817923784,8.538175540059804,1.4838867045111954,4.589991748772562,0.2286123782396316,-0.8401197195053101,-0.9014520049095154,-0.7763547397924342,0.1348778342397913,0.4977785888446037,0.3623502780452621,-0.6479513645172119,-0.1758558750152588,0.406033843755722,0.0586406972780823,0.996465445008874,-0.5088678060263395,-0.0477409623563289,-0.1704196035861969,0.0646503403558861,0.363607257604599,0.1890364249512553,0.2138868251020088
197,0.108339,-0.198015,0.294608,-0.140085,-0.066278,-0.699486,0.697641,0.9436544767975806,-0.8353767651692032,0.9703653735905884,8.512545424240827,1.8924172365196048,4.4861707242921,0.555257260799408,0.8467994928359985,-1.263588309288025,-0.7672650280960962,0.1212861723262591,0.5065161486827796,0.3742132714326278,-1.3220409154891968,-0.2697935998439789,0.5371717214584351,0.1529649946168065,1.1058788826689123,-0.4287707714825868,-0.0318324752151966,-0.1828549355268478,0.0442990691221319,0.3779755532741546,0.151507507551182,0.3445418978311121
198,0.105118,-0.200432,0.283405,-0.148159,-0.0687,-0.696447,0.698778,-0.1878109748095273,1.1231462438121438,-1.54636961030066,8.110524127995967,2.4168309867240487,4.954665895658732,0.174590066075325,0.9956942796707152,-0.901077151298523,-0.7746331818455217,0.0877793477377539,0.4895683000685337,0.3905908132976086,-2.155672073364258,-0.4091778099536896,0.8688895106315613,0.2114040318429469,1.7393273003488778,-1.1061708513528108,-0.0324909389019012,-0.1696002185344696,0.0427327057213988,0.3806183934211731,0.1753595260480418,0.2437484775435179
199,0.100453,-0.203932,0.258888,-0.155292,-0.072515,-0.695755,0.697533,0.0185696759134531,0.8212637764036655,-0.2878840449333191,7.733556024464964,2.668734348346293,5.40743538236618,-0.1890166997909546,0.1457680016756057,-0.3883952796459198,-0.7786786327393477,0.0726006363969774,0.4680028497544222,0.4115362590912853,-0.9019314646720886,0.5466417670249939,2.6853737831115723,0.0646405222147703,3.164948716765642,-2.3863135372549293,-0.0093313185498118,-0.1703963428735733,0.0147454003509832,0.2980026304721832,0.227978807612136,0.2657347021684981
200,0.09641,-0.207031,0.24511,-0.160439,-0.073891,-0.696031,0.695945,-0.3186538617283105,0.0724661012738943,-0.787547384762764,7.613038132205605,2.827660297194123,5.496942050290107,-0.3085411787033081,0.2288425266742706,-0.9763294458389282,-0.7740353895219851,0.068702719237822,0.4636959079516122,0.4255998191240652,-0.8857927322387695,1.0232361555099487,3.3009109497070312,-0.482885515768826,1.3812842620402574,-2.5307220081895587,0.0010877299355342,-0.1560656577348709,0.1218316874048206,0.3153300881385803,0.0600704743528738,0.4117824464764446
201,0.089496,-0.21145,0.229699,-0.169581,-0.074654,-0.694162,0.695564,-1.4286632683306932,-1.4071326967850326,0.4770242225199937,7.412072492268681,3.1233263743057846,5.610383136031032,0.7945517301559448,0.7194957137107849,-1.0615378618240356,-0.7702818257414115,0.0550050817552669,0.4592651768608683,0.438994174157589,-0.0786043182015419,1.520847201347351,3.825421094894409,-0.4817995471630245,2.522540455299616,-2.399816577428579,0.0193489044904708,-0.1899523884057998,0.302111819184944,0.3050766289234161,0.2106917736540548,0.4810215119952336
202,0.072359,-0.220283,0.193807,-0.186547,-0.074235,-0.68969,0.695714,-1.1286842964559791,-0.1744914745092391,-0.3215384772539139,7.234497080269455,3.713570441031456,5.481043639412522,1.5077413320541382,-0.6993862986564636,-0.703334629535675,-0.7645225780979866,0.0232368285906368,0.4690464884725717,0.4415436118740543,-0.3131963312625885,2.259061098098755,3.770514249801636,-1.830546325148642,-0.6331663858681916,-1.4817781879246237,0.0331393443048,-0.2700108289718628,0.1010491120817139,0.3174250423908233,0.1529254206582438,0.6970494407791644
203,0.064086,-0.223598,0.175875,-0.189075,-0.070418,-0.688553,0.696554,-1.479175311949849,-2.0730194489941,-0.9019371495306492,7.109140515807271,4.214782471607625,5.278837059503793,0.6978445053100586,0.9856102466583252,-0.9923028349876404,-0.7554669777866094,-0.0011563204942603,0.4804715109709918,0.4454385674118372,0.8603349328041077,2.2884461879730225,4.260017395019531,-2.8451220118656755,0.5189169063538313,-1.4234709603846072,-0.0159247703850269,-0.2475520670413971,-0.0198836948212003,0.4177350699901581,-0.0378764019637601,0.7911768273063003
204,0.056054,-0.226585,0.156067,-0.187605,-0.066385,-0.688664,0.697237,-0.9791326174139976,-0.0311956409916281,-1.5664099432885643,6.5727358835577965,3.466576040369272,6.399405269521474,-1.819387674331665,1.889702320098877,0.6037269830703735,-0.7894170795468302,0.0139166006628535,0.4165662817697289,0.4506658256258821,-1.2270702123641968,3.211909532546997,4.497623920440674,-3.849413328194618,1.2057996848404406,-1.0136503885656594,-0.00304866861552,-0.1994091123342514,0.1348461951428558,0.4393040835857391,-0.0556212078930111,0.8136909299965948
205,0.038854,-0.232609,0.108338,-0.183639,-0.067572,-0.68904,0.697807,-1.5975503469616177,0.4339715549960732,-1.319293962073326,6.32086130963862,2.748071796694398,6.976044297003746,-1.9042078256607056,0.8968427181243896,1.007191777229309,-0.8068865866458134,0.0382422651434041,0.3779659594544625,0.4523419100063499,-1.5449235439300537,3.246746778488159,4.63381814956665,-5.044265502563119,0.5116697117045521,-0.5457648735299706,0.026330716907978,-0.0993396863341331,-0.0450624364437535,0.4124069809913635,-0.2672338364187628,0.9993529831439256
206,0.028103,-0.234674,0.08026,-0.182273,-0.071043,-0.688711,0.698145,-1.2482207764625548,0.0024335107572376,-0.8216986606895923,6.220828571525216,1.9648522120028733,7.321956168013811,-1.676255702972412,0.3460853993892669,1.0869404077529907,-0.8195125944111434,0.0691078444890735,0.3491536026591935,0.449127055128246,-1.6197692155838013,2.6301064491271973,4.549418449401856,-7.467554140993952,-1.4679922391563651,0.4911123691052198,0.0040340851992368,-0.0344935730099678,-0.1449483316986821,0.4857819974422455,-0.2472253964064642,1.2331233067043126
207,0.005269,-0.22625,0.020609,-0.167185,-0.066783,-0.692559,0.698535,-0.7899334031164645,0.9666324706725776,-0.1960971571177244,6.4047852089941495,1.2505479042358696,7.320193834516406,-1.307802438735962,-0.9453032612800598,1.1899088621139526,-0.8247080087663076,0.1041056274675012,0.3404937640817418,0.4394116902502075,-1.2994338274002075,1.8471975326538088,3.554518699645996,-5.704582345685362,-3.155284231841564,0.6806136350892483,-0.0307083521038293,-0.026143692433834,-0.1466343120242469,0.5391743779182434,-0.110486793379439,1.2791565974742174
208,-0.007461,-0.218185,-0.00699,-0.156155,-0.054861,-0.694377,0.700319,-0.9535317276895046,0.7369333420738577,-0.9875427183628082,6.854939544767141,0.5300481028296053,6.992798447927832,-1.245358943939209,-2.0753841400146484,1.5118898153305054,-0.8237004445722603,0.1461902877247947,0.349420791459515,0.4219609757945076,-0.5477960109710693,1.3742955923080444,2.1802732944488525,-2.945908490955829,-3.3198093158707023,1.9345500127196311,0.0079215858131647,-0.127401128411293,-0.2836582256655208,0.6062957048416138,-0.0309873753856751,1.448418062375486
209,-0.020683,-0.209742,-0.033408,-0.149284,-0.041921,-0.695476,0.70162,0.9185323105007408,1.504185980696231,0.5039841256380081,7.597044444260001,-0.2814969742447137,6.194842481875419,-1.524649977684021,-3.206947326660156,1.670234203338623,-0.811941219867973,0.2021637538367979,0.3785244456019346,0.3957280298854417,0.2668257653713226,1.2494854927062988,1.0927408933639526,-1.4015648335248232,-3.2010622326761484,2.5599790823340416,0.134903147816658,-0.2047719806432724,-0.2467920464904978,0.6044982671737671,-0.1192427668901626,1.2477034745901825
210,-0.046247,-0.201989,-0.084085,-0.141773,-0.027741,-0.694217,0.705119,0.5469698654055595,0.9368602135475724,4.110931928771734,8.317712003448605,-1.175532264609635,5.060057530456781,-0.931082010269165,-3.986541271209717,2.02160120010376,-0.7911797056495252,0.2658509204176116,0.413922876352541,0.3633536508590623,0.6660333871841431,1.0123738050460815,0.9752958416938782,-1.119900686019659,-2.182954572440684,2.60280232501626,0.2009880393743515,-0.1303609013557434,-0.3673335388211533,0.4613904356956482,-0.4200651947185397,0.7880280809517949
211,-0.055807,-0.203543,-0.110648,-0.143541,-0.03249,-0.692678,0.706072,3.3417315170824526,2.545055653968453,3.390565106095373,9.167224553737045,-2.157644190095365,2.734401583260297,1.6864616870880127,-2.017023086547852,1.080245852470398,-0.7596128573876489,0.3132927196347227,0.5122811596761205,0.2498080122083411,-0.2218094021081924,0.8246192336082458,1.194676160812378,0.4651695340752601,-1.4036682355448602,4.186479044926166,0.0672398880124092,0.0198420155793428,-0.1189269606729503,0.3964535295963287,-0.2555048567129299,0.8522275814007967
212,-0.064023,-0.20674,-0.140215,-0.148905,-0.044209,-0.690787,0.706178,3.486002625373006,2.344235267721116,0.5085843129098415,9.254292596337198,-2.2086634525842963,2.377026945732534,1.1398649215698242,-0.8132113218307495,-0.0065549705177545,-0.7572981410084482,0.3031646969264408,0.5356272230938706,0.2183898775621756,-0.7911117076873779,0.7513485550880432,0.9450286030769348,0.1878980685710906,-2.623764156763256,4.39115522981882,-0.0243822280317544,0.0275568552315235,0.3670526395205408,0.4042170941829681,-0.2458101593136787,0.8970157674804329
213,-0.077941,-0.210335,-0.197547,-0.149054,-0.058769,-0.69118,0.704698,0.3287105608403682,1.004505543601513,-0.4030675904273986,9.336681541210412,-2.0081248058877885,2.2280478058815003,0.9018906354904176,-0.5366250872612,-0.4565498530864715,-0.7549444735960192,0.2880726809037343,0.5508314718227725,0.208944139422936,-0.3899896442890167,0.4458648264408111,0.589911162853241,-0.8287859886020421,-4.566686276508867,4.683139111286401,-0.0895058438181877,0.0257090311497449,1.1451618223957716,0.3568430840969085,-0.2062155050228349,0.9334205944877118
214,-0.084874,-0.211045,-0.223895,-0.142153,-0.05598,-0.692747,0.704812,-2.2052081975638864,-0.3108928723379969,-1.234663668014109,9.428815050506593,-1.7410874418891966,2.058269039107859,1.1974520683288574,-0.8635966181755066,-0.4719842076301574,-0.7513550327057534,0.2700007569848595,0.5675888260867902,0.201018176583348,-0.0199468620121479,0.0095825958997011,0.0908432006835937,-1.2947042952179908,-5.397360563075543,5.061633401471376,-0.127497911453247,0.1307839900255203,1.152026812794432,0.1725819259881973,-0.2148845491687767,0.5290721339369192
215,-0.099655,-0.216209,-0.28189,-0.139837,-0.050326,-0.68956,0.708816,-4.139859917092323,-2.731138782072067,-2.0735721144407986,9.509006777596474,-1.561964215926081,1.819188188049197,1.420592188835144,-1.3045300245285034,-0.1368097066879272,-0.746249394703546,0.2551580724677977,0.584928692373391,0.1893795720863615,-0.7506521940231323,-0.3040284812450409,-0.5652391314506531,-0.4918354226827621,-4.732110355204344,4.996348151612281,-0.2278719246387481,0.2172167301177978,0.9241716315619648,0.0489545837044715,-0.1828922779067419,0.6129784611031412
216,-0.105695,-0.221245,-0.315679,-0.142971,-0.057289,-0.687769,0.709402,-7.63496121020019,-5.308324435272812,-4.200779957479238,9.570223755103347,-1.7460412649042902,1.2379558414272964,0.627469003200531,-2.089521646499634,1.649441838264465,-0.7337521214197423,0.2522526771271847,0.6109422279879421,0.1572449988600978,-0.5964381098747253,-0.8094169497489929,-1.2417590618133545,-0.795473501586914,-6.044136372101306,4.8650177734375,-0.3079039752483368,0.3225570619106293,1.4539353644922377,0.0434196181595325,0.2998198905891738,0.7744818592235445
217,-0.109886,-0.227522,-0.351766,-0.14487,-0.068012,-0.687707,0.708128,-2.950499325877428,-5.930307748347521,-1.5654045656383038,9.079804044437408,-3.699769294694066,-0.1980751609261147,-1.178232192993164,-0.2700515687465668,3.018324851989746,-0.6962964871401089,0.3354073742779456,0.630556037145466,0.0712184836741249,-0.4810630977153778,-1.582695722579956,-2.4909346103668213,-1.9416653976827856,-4.698085336005687,2.7195886295318603,-0.2059280574321746,0.0280847605317831,-0.4554291709033772,0.0330105423927307,0.8075552037205547,0.4993672794923186
