time_imu,phone_acc_x,phone_acc_y,phone_acc_z,phone_gravity_x,phone_gravity_y,phone_gravity_z,phone_gyro_x,phone_gyro_y,phone_gyro_z,phone_ori_w,phone_ori_x,phone_ori_y,phone_ori_z,watch_gyro_x,watch_gyro_y,watch_gyro_z,watch_acc_x,watch_acc_y,watch_acc_z,headphone_gyro_x,headphone_gyro_y,headphone_gyro_z,headphone_acc_x,headphone_acc_y,headphone_acc_z,frame_imu
1733314012622568000,0.1785081628046929,13.1149456959486,-1.7958382921218872,-0.1397520508303772,9.802052735337616,-0.2657193219362758,-0.4612070024013519,-0.2139557003974914,-0.8279451727867126,0.531559823127032,0.5527220494986349,-0.4561208730427922,-0.4515486622915695,0.0458578020334243,0.0060583129525184,-0.0272073596715927,0.0018820166587829,0.0101948380470275,-0.0043531656265258,-0.0154951363801956,-0.0087244911119341,-0.056004211294651,0.0069616097025573,0.0463133498203009,0.0177702874303795,0
1733314012662568000,4.239242082342505,12.980744146251675,-1.0484218422174454,-0.5951174083830788,9.788563139167428,-0.0163996909136301,-0.6807915568351746,-0.1732321381568908,-1.583166480064392,0.5262260428939447,0.5547921932789607,-0.4393651941033876,-0.4714340883994711,-0.0187286473810672,0.0199727434664964,-0.0121567714959383,-0.0094850659370422,-0.028932511806488,0.0172209739685058,-0.0174568947404623,-0.0072075189091265,-0.029787820020318,0.0038657959084957,0.0248403171481564,0.004421058712108,1
1733314012702568000,6.641513067185878,4.82971148225665,-0.999881975454092,-1.3913283939316867,9.703990420514344,0.2591758185769431,-0.6528303623199463,-0.2469212114810943,-2.4838218688964844,0.5120806595777172,0.562920753597578,-0.4121964772238093,-0.5009867631458261,0.0236957743763923,0.0218966640532016,0.0099834185093641,0.0060594081878662,-0.0001010298728942,0.0011196732521057,-0.0204031188040971,-0.003258186392486,-0.0259282219827175,0.0044801235198974,0.0236778127074241,0.0147837732997257,2
1733314012742568000,3.607699790544808,-5.705622210127115,-0.835507332746312,-2.382168254143745,9.497889171254634,0.5345861846506595,-0.8249751329421997,0.1311609894037246,-2.4625802040100098,0.4922873490741683,0.5750973367491093,-0.3768378215753815,-0.5337692480922862,-0.0236099548637866,0.0219416189938783,-0.0090368781238794,-0.0034056305885314,-0.0045569539070129,0.005284309387207,-0.0233493447303771,0.0006911461241543,-0.0220686239451169,0.0050944508984684,0.0225177194194868,0.025145337109873,3
1733314012782568000,1.141753036865592,-12.8589180940032,0.5908961008936167,-3.1459991016238926,9.255046629574894,0.7856205083534121,-0.4774264395236969,0.098857544362545,-1.5846203565597534,0.4803026181009799,0.584864721118387,-0.3433333041073982,-0.5562058815329313,0.026425514370203,0.0135594783350825,-0.011334054172039,-0.0005608201026916,0.0039149522781372,0.0011905431747436,-0.0274191200733184,0.0010938725899904,-0.0385585709750652,0.0012746453285217,0.0043826720636337,-0.0153242642514407,4
1733314012822568000,0.2442714054390788,-15.835439165365695,-0.1667722784340381,-3.582985620526969,9.085286275240778,0.8889231349829584,-0.1774015575647354,-0.0349783897399902,-0.7466076612472534,0.4705938187524944,0.5903864727543192,-0.3257627134776552,-0.5690905214104597,0.0091045815497636,0.020970256999135,-0.0061604641377925,-0.0070288181304931,-0.0102364420890808,0.0024871230125427,-0.0175780393183231,0.0062356824055314,-0.0203857854247093,-0.0029011713340878,0.0006426087524741,-0.0229378353945445,5
1733314012862568000,-0.5310150481656194,-14.338396772813796,0.2276812129050493,-3.635195115713775,9.06262377705574,0.9080684918925166,0.0857651010155677,0.0940547510981559,0.4676494896411896,0.4698337219918951,0.5909697747425012,-0.3231967140896195,-0.5705741569356994,0.0131384711712598,0.0108423084020614,-0.0061262426897883,-0.0016666054725646,-0.0031217336654663,0.0027999877929687,-0.0090612582862377,0.0053321463055908,-0.0265185890913009,-0.0058692013844847,0.0081574778946116,-0.0062893185357097,6
1733314012902568000,0.201584648618102,-10.38357310512066,1.058403649462387,-3.311652312900126,9.193803933104872,0.8229896503482014,0.3940555453300476,0.0813713297247886,1.2616101503372192,0.4780367781489211,0.5878876147903483,-0.3353018926570872,-0.5598585627505869,0.0025287037715315,0.0076508829370141,-0.0092083197087049,-0.0021462440490722,-0.0040764808654785,0.0024117231369018,-0.0122036263346672,-0.0007547829300165,-0.0274935716032981,-0.0025875431019812,0.0138145903408527,0.0063863674357067,7
1733314012942568000,0.4757873742014169,-4.7356776922971004,0.3912987536352127,-2.715562735016644,9.406763962218164,0.5557576405603438,0.7501533031463623,0.447567343711853,1.9386039972305296,0.4897085446975811,0.5853095571449045,-0.3592728334217083,-0.5371416533371745,0.0203748121857643,0.0107086179777979,-0.0055535295978188,-0.0055761337280273,0.0011326670646667,0.0002359151840209,-0.010649717412889,-0.0092805130407214,-0.047180853369832,1.60716008394e-05,0.0166478410053998,0.0119660855304915,8
1733314012982568000,2.5273878953307864,3.193820006462932,0.0075888476938009,-1.9831557843260463,9.600943303015828,0.243652853415627,0.7789551615715027,0.4497127830982208,1.7852458953857422,0.5059138702730618,0.5832247193643852,-0.3839610512009782,-0.5064326238125261,0.0218406170606613,0.0142863085493445,-0.0153652150183916,-0.0072473883628845,-0.0030385851860046,0.005084216594696,-0.0069499127566814,-0.0026737009175121,-0.0166565357685089,0.0011437513167038,0.0274340965010225,0.0334505803115665,9
1733314013022568000,1.700167256349325,7.265380878832936,-1.5158254189550875,-1.36827075894922,9.710106273046136,-0.10968741402952,0.8166433572769165,0.2156319320201873,1.3887243270874023,0.5137790061933899,0.5822106716569052,-0.4081950950817939,-0.4800400904207549,0.0101402848958969,0.0250227358192205,-0.0142049416899681,-0.0003325343132019,-0.0008817315101623,0.0044960379600524,-0.0081948470324277,-0.0006283605471253,-0.0292196647435426,-0.0062573296017944,0.0220945255713537,0.0475609478617552,10
1733314013062568000,1.755444322413206,7.176223170477152,-0.5496107353031635,-0.9593723434764893,9.751231479638816,-0.4043293174589052,0.6565936207771301,-0.0362744443118572,0.7530577778816223,0.5159875366635654,0.5822423906500789,-0.42615590667633,-0.4616728639494999,0.0012373371282592,0.0190624743700027,-0.0115524996072053,-0.0060186386108398,-0.0044392347335815,0.002886414527893,-0.0241031777113676,-0.0061375806108117,-0.04904956985116,-0.0024730085860937,0.0191434937460348,0.0410358021430205,11
1733314013102568000,0.5245426372811198,5.621506587591767,-1.121094279718399,-0.7292470984201878,9.762436179742217,-0.5774427450805902,0.2483447641134262,-0.0187932960689067,0.3675355017185211,0.5156442658082205,0.5811829531810717,-0.4377987686849056,-0.4524043197376236,0.0030693255830556,0.0153451282531023,-0.0126690967008471,-0.0104841589927673,-0.0077446699142456,-1.7762184143066406e-05,-0.0207003951072692,-0.0023924468550831,-0.039825229910016,-0.0006996084703132,0.0119607791677117,-0.0207862925169989,12
1733314013142568000,-0.2916846062600612,2.409927052554488,-0.114352282301709,-0.6302325243733823,9.764587804818152,-0.6526894900489598,0.1698185950517654,0.0780303999781608,0.2311218231916427,0.5161163992900835,0.5813611180847368,-0.4419243753340833,-0.4476001688566255,0.0136207696050405,0.0278972461819648,-0.0027805799618363,-0.0090921521186828,-0.0026888251304626,-0.0041552782058715,-0.0093481410294771,-0.0099751083180308,-4.20855760574e-05,-0.002169004175812,0.0346157881660386,-0.0156561356874648,13
1733314013182568000,0.1974358583755791,0.665076020348072,-0.2350900278568267,-0.5553691526994109,9.76526409664452,-0.7082249147880822,0.0872092843055725,0.0662497505545616,0.1171283349394798,0.5166336910190961,0.5815896863020406,-0.4448177803445192,-0.4438245813646973,0.0270745269954204,0.0144407721236348,-0.0100409565493464,0.0049830079078674,0.0018932223320007,-0.0032480359077453,-0.0035814167931675,-0.0136148585006594,-0.0016512743383646,0.013066828250885,0.0481981406535953,0.0283998271274846,14
1733314013222568000,-0.0729955319754779,-0.2412742694497108,0.0191981100101023,-0.4977223252968862,9.7664553522557,-0.7341664346437901,0.0452867224812507,0.1061806008219719,0.1882829219102859,0.5180450125925782,0.5818472022618905,-0.4459662608988431,-0.4406781932426354,0.0279885232448577,0.009942639619112,-0.0128440000116825,-0.0031101703643798,-0.0034005641937255,0.0026285648345947,-0.0052867415361106,-0.0058724298141896,-0.0157820910215377,0.0124663952738046,0.0798255606586113,0.0376937708392739,15
1733314013262512000,0.0934848508398979,-0.0605985533475875,0.0500760633546859,-0.4128112780675291,9.768486565822364,-0.7593583782412111,0.0762214958667755,0.1056227758526802,0.233075812458992,0.5201800202804283,0.5815709461183902,-0.4477630371845408,-0.4366877422258949,0.0209543164819479,0.0284664686769247,-0.0075166127644479,-0.0085268020629882,-0.0069584250450134,0.0046463012695312,-0.0154031887650489,0.0038056154735386,-0.0232483740648836,-0.0001704078167676,0.0651984483584761,0.0513576549972873,16
1733314013302512000,0.4070874205280095,1.7951508943796155,-0.2424748043458908,-0.3120673229448497,9.769440505546331,-0.7943634945183992,0.0884272828698158,0.049965314567089,0.208731546998024,0.5221432611057026,0.5809789340586377,-0.4505160874375044,-0.432278918568877,0.0202512424439191,0.0259055737406015,-0.0097153177484869,-0.0019674897193908,-0.0003814697265625,0.001641035079956,-0.0183353759348392,0.0065128137357532,-0.0183282683730125,0.0025203383993357,0.0585891497539356,0.0446032899328274,17
1733314013342512000,-0.262624515992403,7.587643578708171,-0.7092483395516872,-0.2908851081791334,9.768822081387045,-0.8098723946217447,-0.0340588688850402,0.0132003268226981,-0.092012383043766,0.5223688181115359,0.5811331152821144,-0.4511943063931278,-0.4310903013821651,0.0285262167453765,0.0258180610835552,-0.0088719613850116,-0.0077265501022338,-0.0010057091712951,-0.0001035332679748,-0.0212675631046295,0.0092200115323066,-0.0134083476275205,0.0052110841497778,0.0519817143129184,0.0378513634206261,18
1733314013382512000,0.0797418644305318,14.880351440405844,-1.4535375973463058,-0.3820097509600222,9.768402979192135,-0.7763624122731387,-0.0884068459272384,-0.1964217722415924,-0.4131462275981903,0.5210781361253705,0.5820557713811557,-0.4481010447445815,-0.4346194051388783,0.0329031199216842,0.0281376764178276,-0.0034483009949326,-0.0049931406974792,-0.0021240711212158,0.0024999976158142,-0.0237224381417036,0.0166007280349731,-0.02847849098742,0.0049231024459004,0.0367274830903857,0.0426660976254381,19
1733314013422512400,5.043576935777068,11.43276651623249,-2.490631405341625,-0.7064807014692575,9.759659700766203,-0.6483160972703248,-0.4780272245407104,-0.3976251482963562,-1.2186886072158811,0.5144503324612193,0.5829235213002678,-0.439607882971493,-0.4497621071141486,0.0280902571976184,0.0395361110568046,-0.0082497801631689,-0.0073163509368896,0.0011420845985412,0.0051272511482238,-0.027901591733098,0.0096798539161682,-0.0428115522444248,0.0022977541666477,0.0291385623313486,0.0447038961965125,20
1733314013462512000,5.588625477731227,0.9423258585423232,-1.5447826333701609,-1.2744240159943698,9.714415368416905,-0.4199586656041443,-0.5300771594047546,-0.7707191109657288,-1.6225886344909668,0.5023787598920341,0.5844916655436475,-0.4240063976422919,-0.4756087546548996,0.0199479088187217,0.0427013859152793,-0.0114590898156166,-0.0053679347038269,-0.003514289855957,0.0036379098892211,-0.0285063832998275,0.0057880571112036,-0.041595162191987,-0.0046792095527052,0.0186577925883233,0.018910844900785,21
1733314013502512000,4.734781620240211,-9.504420618849991,0.1246901912416331,-2.085298792591691,9.580886603415012,-0.1689827940903604,-0.4954864084720611,-0.8476191759109497,-2.391086339950561,0.4807104098216442,0.5882694581528891,-0.4031808144526871,-0.510197931210035,0.0298311654478311,0.037915900349617,-0.0035359857138246,-0.0032083988189697,-0.0050406455993652,0.0014848709106445,-0.0205150954425334,0.0080201551318168,-0.0305465294331312,-0.0129683781415224,0.007673091911152,0.005570457076095,22
1733314013542512000,0.4032975997909903,-16.031238800841567,0.4597527697235345,-2.901348341478408,9.367129286444186,0.0973482026040088,-0.6805229187011719,-0.083740234375,-1.7983790636062622,0.4614217816088317,0.5947236306743956,-0.3759526915988775,-0.5404196766935571,0.0039513646624982,0.0277193468064069,-0.0007024488877505,0.0005022287368774,-0.010133147239685,0.0044156312942504,-0.0166453085839748,0.0099998386576771,-0.0327238734722137,-0.0155462753027677,0.0078960504794493,0.0113340895035769,23
1733314013582512000,-1.9164070377856488,-16.937472186261413,0.7668003648102283,-3.324050898963213,9.218864724603296,0.3655075655030086,-0.6747249364852905,0.0035843425430357,-0.4239357709884643,0.4581414560349983,0.5967798677815684,-0.3538616817600957,-0.5556456528154291,0.0168613046407699,0.0257147327065467,-0.0016311596846207,0.0005018711090087,-0.0015128254890441,0.0070112943649291,-0.0119027635082602,0.0071727260947227,-0.0387912106871604,-0.0208952873945236,0.0017101649187505,-0.0171178970694076,24
1733314013622512000,-2.6356296588629484,-12.249518952691554,2.265984445565939,-3.2535075824454425,9.23761384873688,0.5015630725035444,0.0091613214462995,-0.0285277366638183,0.742095947265625,0.4640606585755753,0.59165762775965,-0.3526593995618723,-0.5569742793091816,0.0050118351355195,0.0302277244627475,-0.0063511468470096,-0.0023638010025024,-0.0090564489364624,0.008644700050354,-0.0071602188982069,0.004345613066107,-0.0448509491175413,-0.0262442994862794,-0.0044807986758649,-0.045568614133913,25
1733314013662512400,-0.4513227950304746,-7.5394018181085585,0.7699579520583152,-2.834120725379884,9.378748412567376,0.421007991993986,0.2709514200687408,0.1935027688741684,1.3905508518218994,0.4747209918441796,0.5861058725319499,-0.367443154690207,-0.5441558116752974,-0.0166812092065811,0.0254987496882677,0.0031235814094543,-0.0001447200775146,-0.0107876062393188,0.0058916807174682,0.0027340748347342,0.0083405626937747,-0.0088163436621427,-0.0276957806199789,-0.011583141494356,-0.0670311436783522,26
1733314013702512400,1.7878228895790873,-1.2668196784704924,-0.0356435603111982,-2.28417082125023,9.532501634952425,0.2904762716499157,0.2695176005363464,0.3085103332996368,1.4977779388427734,0.4891293925755192,0.5805295243907178,-0.3849354528364715,-0.5249406538928115,-0.0063257738947868,0.0191123820841312,0.0088061671704053,0.0042797923088073,-0.0035831928253173,-0.0017375349998474,0.013553574681282,0.0038322545588016,-0.0206885677635669,-0.0202811863273382,-0.0202001266594976,-0.0535586995723657,27
1733314013742512000,0.8726555254667997,4.392118521893024,-0.3483089952796697,-1.7003011118620632,9.65690776682198,0.153331179314386,0.3482092618942261,0.2730199694633484,1.591253399848938,0.5036561081220354,0.5743921091457588,-0.402810116784758,-0.5041312437133537,-0.0178676471114158,-0.0016411524266004,0.0040630116127431,0.0028858184814453,-0.0070036053657531,0.0027966499328613,0.0195588264614343,-0.000130841974169,-0.0366442617863416,-0.0108350152149796,-0.0167374920502305,-0.0548563929663971,28
1733314013782512000,2.297942595362663,6.35114772683084,-1.1522831987082958,-1.131218052717298,9.741178872179985,-0.0123469746068585,0.405807226896286,-0.0320871025323867,1.227750539779663,0.5147932722471987,0.5679141245937981,-0.4220225913124533,-0.4841056923904305,-0.0184902939945459,-0.0037754629738628,0.0064593902789056,-0.0004812479019165,-0.007131814956665,0.0087164044380187,0.0239573791623115,-0.0032800412736833,-0.0409586178541183,-0.0068703098222613,-0.01361680274643,-0.0520773384408094,29
1733314013822512000,1.840615591481328,6.06376753976643,0.5665361511409283,-0.7867178751360625,9.774175717374682,-0.1301928255122154,0.2923423647880554,0.0354062914848327,0.5842095613479614,0.5195764962090313,0.5632513491741048,-0.4351849083070309,-0.4726545212691601,-0.0300955511629581,0.0130699360743165,0.0081949718296527,-0.0036812424659729,-0.0083447098731994,0.0091642141342163,0.0297127664089202,-0.0052669383585453,-0.0326531463235616,-0.0052466089837253,-0.0152096979610621,-0.0449334945681504,30
1733314013862512000,0.6028679494446143,3.860795722952485,-0.850832400715351,-0.5831159318787976,9.78600468685627,-0.2539417173157446,0.2478291690349578,-0.0561621263623237,0.470643937587738,0.5208487046864146,0.5619233698162174,-0.4440603009984011,-0.4645097258398758,-0.0266491547226905,0.0088626211509108,0.0027394206263124,0.000531792640686,-0.0002989172935485,0.000980794429779,0.033152487128973,-0.0055176964960992,-0.0288631063908338,-0.004172243643552,-0.0038840018264949,-0.0391193283966742,31
1733314013902512000,0.998709132282436,2.100050371521711,0.1048866078853607,-0.4850032020425424,9.789854348021745,-0.306448131356202,0.0897429287433624,0.1684968620538711,0.0742647647857666,0.5221146236606585,0.5615268016140239,-0.4475624624650146,-0.4601867409824124,0.0011233537225052,-0.0059773111715912,0.0072208549827337,0.0034384727478027,-0.0003336668014526,-0.0030092597007751,0.0353451929986476,-0.0019346200861036,-0.0264537071615457,-0.0065305102616548,-0.0089095749035477,-0.0473231844499707,32
1733314013942512400,0.1365595109999179,0.4134036910027265,-0.2188554803600534,-0.4569332553233951,9.790233702728152,-0.3360005351854488,0.0021363936830312,0.04267118871212,0.0973820313811302,0.5230597884791,0.5627820365011293,-0.4476691186390138,-0.4574680976886478,-0.0093207648023962,0.0037452508695423,0.0025524664670228,-0.0040207505226135,-0.0062605738639831,0.0042725801467895,0.0303437933325767,0.0038136299699544,-0.0255734171956777,-0.0102622890844941,-0.0037564299240708,-0.0467399412019178,33
1733314013982512000,-0.0697884430298581,0.0180915370076894,0.5737760757992044,-0.3885513180905953,9.793196644186972,-0.3357025020869448,0.0357236340641975,0.0214933007955551,0.2570388615131378,0.5248341412057016,0.5613767528922815,-0.4494131786584243,-0.4554481150760854,0.0034490923862904,0.0061327745206654,0.0015629690606147,0.0018075704574584,0.0014528036117553,0.0038236677646636,0.0190394353121519,0.0088332686573266,-0.0331879838526248,-0.007441075053066,-0.0047901934185996,-0.029590269887913,34
1733314014022512000,0.0238517262359149,1.612480205067992,0.18156181475427,-0.2755421392272226,9.796190565305947,-0.3593310688251629,0.0907624438405036,0.0448956154286861,0.3051135540008545,0.5269338462235879,0.5595664015908035,-0.4529969396521748,-0.4516857309822483,0.0183345638215541,0.0184999629855155,-0.0008603077149018,-0.0039082169532775,-0.0040853023529052,0.0068001747131347,0.0056227864697575,0.0106879891827702,-0.0395054964363574,-0.0005080946721136,-0.0126185489566996,-0.0381276139455847,35
1733314014062512000,0.3934415012849495,5.047407307720184,0.1657739150464534,-0.1962191943285055,9.795146609210969,-0.4324281614789739,0.2504170536994934,0.0182989444583654,0.0479683019220829,0.5271841429608063,0.560217576394806,-0.4562937303141324,-0.4472462568988906,0.0176868829876184,0.0163830146193504,-0.0026990873739123,-0.0027450919151306,-0.0079744458198547,0.0071595907211303,-0.0028297062963247,0.0107009271159768,-0.044735798305273,-0.001019220915623,-0.0307629121301695,-0.0669861902917735,36
1733314014102512000,0.097541505819559,10.740311490571498,-1.0101683916687965,-0.2622924162275157,9.791313314658405,-0.4814186946192756,0.0187334511429071,-0.157337486743927,-0.3919336199760437,0.5238153053740568,0.5626085481578329,-0.4560889657311898,-0.4484104855575636,0.0170650351792573,0.0066780834458768,-0.010373119264841,0.0024042725563049,-0.0049355626106262,0.0014330744743347,-0.0029709560330957,0.0080941403284668,-0.051457215514779,0.0032346625812351,-0.0306683657145127,-0.0691544559752568,37
1733314014142512000,2.82084126482904,10.657194815945624,-2.3229648084163665,-0.5382690744144841,9.780607796248791,-0.4694228441381827,-0.1386217474937439,-0.4583054780960083,-1.0208213329315186,0.5150054903413318,0.5659306335221391,-0.451283084876552,-0.4591682004754484,0.0216249004006385,-0.0058219423517584,-0.0201981198042631,0.0008640885353088,-0.0030673146247863,0.0013006925582885,0.0002741629723459,-0.0007947217673063,-0.0232376677244901,0.015524722635746,-0.0368130424819886,-0.0371824968488886,38
1733314014182512400,3.3754271581962705,5.403469985866546,-1.6047206769824027,-1.025817284764722,9.746738259872794,-0.3452067549480125,-0.2973180711269378,-0.6601336002349854,-1.3104746341705322,0.5015724890445875,0.5687865647503723,-0.4405479424779672,-0.4804418250837066,0.0295736379921436,0.00937938131392,-0.01482446026057,-0.0056697130203247,-0.0043842792510986,0.0091447830200195,0.0002782762167043,-0.002999028423801,-0.0412216527044773,0.015709850937128,-0.0292730023659765,-0.0207353112484328,39
1733314014222512000,3.979769600640237,-1.419267663475871,-0.6996013902842998,-1.5957431514091789,9.673576577550172,-0.2142357846701517,-0.2273342758417129,-0.7481991648674011,-1.5642962455749512,0.4834954773576658,0.5716423286811678,-0.429124728973974,-0.5052812021926646,0.0263109989464283,0.016426159068942,-0.0165116395801305,0.0009926557540893,-0.0053052902221679,0.0052411556243896,0.0002823894901666,-0.0052033350802958,-0.0592003769874572,0.0158949811011552,-0.0217334371739998,-0.0042883448436856,40
1733314014262512000,2.600907305049896,-7.901646984282135,0.7053928331673145,-2.197184757845104,9.557087794676422,-0.0695822255338076,-0.2082516700029373,-0.5265696048736572,-1.5404198169708252,0.4649707733234879,0.5758340814297617,-0.4146839964467536,-0.5293906646766801,-0.0072269877418875,0.0146731063723564,-0.0168872773647308,-0.0030202865600585,-0.0131841301918029,0.0091962814331054,-0.0026015941984951,-0.0069587789475917,-0.0455710800856351,0.0100109353661537,-0.0163617540730163,-0.0041327706894837,41
1733314014302512000,1.5059411538004874,-12.362666023921966,0.9757780462890864,-2.801054906602204,9.398046987277269,0.0347247558326926,-0.1488455235958099,-0.3133610785007477,-1.530656099319458,0.4456809482102623,0.5823105239534414,-0.3989285448024565,-0.5505806490565947,0.0167731530964374,-0.0038350645918399,-0.0156100252643227,0.0030733346939086,-0.0018921494483947,-0.0029218196868896,-0.0033170557580888,-0.0053696758113801,-0.028085107755661,0.00374161824584,-0.0089488109353929,-0.0058521235616877,42
1733314014342512000,-1.833955256809294,-14.211984561818838,1.8639602267116304,-3.275720291036367,9.24282018520832,0.1016793088771868,-0.1086136847734451,0.3755852282047272,-0.3401124179363251,0.4339351414087349,0.5908935689266462,-0.3816550642818601,-0.5629250526864685,-0.0056605162099003,-0.0066836345940828,-0.0130338836461305,-0.0031388998031616,-0.0074521303176879,0.0057655572891235,-0.0043726037256419,-0.0049162218347191,-0.0233195007890462,-0.0004451908171176,-0.0020475436469539,-0.0127137164268642,43
1733314014382512000,-2.870054500809312,-11.476897918903829,1.0689181022793055,-3.208524239119887,9.26645065164268,0.0930181009778287,-0.1657194942235946,0.5227842926979065,0.6794213652610779,0.4415075701136707,0.5936665440991524,-0.3779119358449289,-0.5566090731034827,-0.00187722989358,0.0045731742866337,-0.0116073610261082,-0.0011382102966308,-0.0031735301017761,0.0053986310958862,-0.0061911921948194,-0.004083527252078,-0.0224362882137298,0.0001238598488271,0.0107421971581876,-0.0062082617892883,44
1733314014422512400,-1.390425015351176,-7.90921069753468,2.049177093374729,-2.801073611302673,9.398104854944348,-0.0013868606670832,0.33372962474823,0.787350058555603,1.4681127071380615,0.4579193548472731,0.5928061302609935,-0.3855536306907253,-0.5387384945803263,0.0013795498525723,0.0022988878190517,-0.0130212334915995,-0.0032718777656555,-0.0028626918792724,0.0012565851211547,-0.0080097801983356,-0.0032508329022675,-0.0215524911165237,0.0006929105147719,0.0235326320830732,0.0002961699349805,45
1733314014462512000,0.8402094460226595,-1.5464976205945014,0.647448009198904,-2.1363708081811663,9.568121814388036,-0.2395354264257475,0.5557500720024109,0.6854496598243713,1.951041579246521,0.4771693649712946,0.5911035203446747,-0.4034966375104443,-0.5099966822560542,-0.0076128793880343,-0.0107324915006756,-0.0137651208788156,-0.003000259399414,-0.0053452253341674,0.0014566183090209,-0.0096869384869933,-0.0012860370334237,-0.0243652104496955,0.0028326446190476,0.0201915414942428,-0.0048266347051598,46
1733314014502512000,1.9101161209478967,5.487224958395958,-2.660501649791002,-1.380549079633504,9.698000240188836,-0.4618362614667042,0.1369852721691131,0.5349251627922058,1.769201397895813,0.4952758528700537,0.5850230838923908,-0.4257876077477225,-0.4807856978606457,0.0112058157101273,-0.0184266306459903,-0.0141954878345131,0.0019305348396301,0.0020959377288818,0.0003610849380493,-0.0047176610678434,-0.0031158784404397,-0.0223626384556293,0.0083366520702838,0.0224657335039228,-0.0155241707377135,47
1733314014542512000,3.170810594536364,6.890777166345715,-1.0691735383450984,-0.8559168643727898,9.753712190538645,-0.5503539548859,0.3463333547115326,0.196439653635025,0.9290239214897156,0.5095374880774528,0.5795260627087755,-0.4384173640447634,-0.4607725419610436,-0.0164657589048147,-0.0073360027745366,-0.008794130757451,-0.0093528628349304,-0.0080532431602478,0.0045279264450073,0.0002516163513064,-0.0049457200802862,-0.0204155960410833,0.0138406585901975,0.0275713860798627,-0.0229697557696141,48
1733314014582512000,1.449899094713479,6.3631199041754005,-0.7277016956090927,-0.5790083138968796,9.76931015716493,-0.6290620923545212,0.1037295833230018,0.1917486488819122,0.4731913805007934,0.5146406235285517,0.5762521715879879,-0.4472210595008738,-0.4506348878715467,-0.0025733800139278,-0.0088413283228874,-0.0084535125643014,0.0007504224777221,-0.0009716153144836,0.002794861793518,0.0040618320927023,-0.0065726218745112,-0.0398468572199344,0.018310323357582,0.0261747806223109,0.0062676546931732,49
1733314014622512000,0.7715837996944784,4.127174623042345,-0.7548468921661377,-0.4220305399747565,9.773560215824842,-0.6854149709563702,0.1147217974066734,0.1209331229329109,0.338083416223526,0.518465422200524,0.5760416988180268,-0.4506910229137517,-0.4429979293987166,-0.0061595924198627,-0.0143887987360358,-0.0116638205945491,-0.0042728185653686,-0.002287745475769,0.0030752420425415,0.0012318461667746,-0.0067451861687004,-0.0372597633361816,0.0148010235279798,0.0288859758097678,0.0145748432567808,50
1733314014662512400,0.3538497513372451,2.607382638543844,0.5063187060654163,-0.3584886631842702,9.772136320501565,-0.7397530026044696,0.2486915737390518,0.0617670081555843,0.0436627119779586,0.5188960120681827,0.576627758619296,-0.4530091982323662,-0.4393519004082381,0.0043170163407921,-0.0028080430347472,-0.0078132888302207,-0.0057443380355834,2.104043960571289e-05,0.002577781677246,-7.98072433099e-05,-0.0055869077332317,-0.0281032279342412,0.0066952407360076,0.0367534577818587,0.0076096986855845,51
1733314014702512400,-0.0076727813838981,1.2999544708311557,0.2506687783259898,-0.2996827288744971,9.762752990606426,-0.877051860729605,0.3875102996826172,-0.169725701212883,0.2524842619895935,0.5157626060095211,0.5784853252882168,-0.4583360421355949,-0.4350536611681113,-0.0051068449392914,-0.0088679064065217,-0.0062864320352673,-0.0007463693618774,-0.003709077835083,0.0022379159927368,-0.0030574263073503,-0.0042551355436444,-0.0240653507202863,0.0140867717564105,0.0354597281768918,0.0066248797661624,52
1733314014742512000,0.7952466340284794,0.0483715244591236,-0.8872866928875446,-0.2028312876783311,9.757530287522076,-0.9590920652303844,-0.0644963607192039,-0.0355443097651004,0.2056585252285003,0.5143824167988117,0.577187287608872,-0.4644942627074202,-0.4318688310520601,0.0041865217499434,-0.0141381425783038,-0.0085547128692269,-0.0060212612152099,0.001591145992279,0.0010758638381958,-0.0042665214277803,-0.0063769239932298,-0.029759762969613,0.0197486504912376,0.0348435690399259,0.0058034621143713,53
1733314014782512000,0.959432987622544,-0.0143681325703859,0.3868799142796546,-0.1543825515308417,9.766100547468662,-0.8773915410127491,-0.1888502538204193,0.0977458879351615,0.0609490610659122,0.5179878656177592,0.5740089965674174,-0.463948478179264,-0.4323817268219712,-0.0089873373508453,-0.006970137823373,-0.0126408673822879,-0.0073926448822021,-0.0012814402580261,0.0037122368812561,-0.0055779786780476,-0.007371190469712,-0.0293301393806934,0.019690902903676,0.0376371452812105,0.0123324802906252,54
1733314014822512000,0.6354222750362009,-0.4443213918358087,-1.5082570295274256,-0.2119479294613003,9.77108359657824,-0.8070857595779001,-0.4120409786701202,0.4107213616371155,-0.4178020656108856,0.522133755552627,0.5770586625696522,-0.4562381213548143,-0.4315395942108281,-0.0003467111382633,0.0027064050082117,-0.0137389553710818,-0.0088497996330261,0.0021361112594604,0.0008077025413513,-0.0068894363939762,-0.0083654569461941,-0.0288917479634284,0.0196331553161144,0.0404332788057625,0.0188601467600092,55
1733314014862512000,-0.4753428087716922,0.3235743669956922,1.4024071295678615,-0.295440652591642,9.776514973977209,-0.7091360382836311,0.0557246468961238,0.0474223755300045,-0.0056262677535414,0.525394755515426,0.5786813899799225,-0.4486465493773938,-0.4333642471623551,0.0132159693166613,-0.0048983050510287,-0.0204766858369112,-0.0048971772193908,0.0040791630744934,0.0006353855133056,-0.011369053274393,-0.0079280706122517,-0.0280541280955076,0.0152751673012971,0.0305948255542665,0.010085751676606,56
1733314014902512000,0.3708928022053092,-0.1617529889672994,-0.508134304120019,-0.2448982686331495,9.776868025198578,-0.7233836862795054,-0.1429560482501983,0.0778384879231453,0.1445038020610809,0.5253334177337807,0.5771114601549484,-0.4514694531491104,-0.4325998437784547,0.0117730684578418,-0.0026525675784796,-0.0239031761884689,-0.0046701431274414,0.0014533996582031,0.0017517209053039,-0.0156100038439035,-0.0082703717052936,-0.0351133989572525,0.0047399504110217,0.0360577306026592,0.0014532036161515,57
1733314014942512400,0.330909459124133,-0.021846505627036,-0.0101297643482685,-0.2354405948601663,9.784652687725425,-0.6128117627667263,-0.3023468255996704,0.5017138123512268,-0.0778496116399765,0.5321763211557906,0.5774057590754035,-0.4448002858810075,-0.4307478849438466,0.0020679770968854,-0.0077417087741196,-0.0185735896229743,-0.0085959434509277,-0.0053111910820007,0.003310739994049,-0.0157164297997951,-0.0108489897102117,-0.0221434427469968,0.0099256988614797,0.0388329309370368,-0.0061037054362706,58
1733314014982512000,0.1946053659236989,0.3048176440775394,0.436842507322505,-0.2511683070796541,9.785693721210956,-0.5894727900922299,0.1075231581926345,0.7119992971420288,-0.1196538209915161,0.5376065619371042,0.5823571757196946,-0.4369380595759716,-0.4253519976527634,0.0262441541999578,0.000903817708604,-0.0199650265276432,-0.0042452812194824,0.0020744204521179,0.0030025839805603,-0.0158228557556867,-0.0134276067838072,-0.009168225839734,0.0151114482432603,0.0416113461418077,-0.0136650258023291,59
1733314015022512000,-0.0485253998465836,-0.1666010135203599,-0.6738801621157675,-0.2730460663614794,9.782464237770435,-0.6318572029657662,0.0554258823394775,1.1330981254577637,-0.0349790304899215,0.5431411410488833,0.5914852842304925,-0.4270373647576728,-0.4156705896505729,0.008270745165646,0.0094582643359899,-0.0163611024618148,-0.0048177242279052,-0.0054743289947509,0.0099962949752807,-0.0133864404633641,-0.0008424883708357,-0.0039776714593172,0.0100641511380672,0.0409809027511626,-0.0077276077105198,60
1733314015062512000,-1.0506450712248685,0.179956169655919,-1.2732464966475965,-0.1202693699915427,9.784562086832524,-0.6467536702591925,-0.2092518210411071,1.641007423400879,0.6531140208244324,0.5585820984816243,0.6018442964087077,-0.4132296001728522,-0.3937142709537336,0.0129025150090456,0.0055169984698295,-0.0118518397212028,0.0003398060798645,-0.0021951794624328,0.0023534297943115,-0.0130079127848148,-0.0012233749730512,-0.0119189858525991,0.0061726681888103,0.0367468453779816,-0.0155817918096203,61
1733314015102512000,0.3664817077647894,-0.1338145962059497,-0.7182547989584506,0.2037871636310592,9.794120773294567,-0.4517621362958103,-0.6836631894111633,1.777711033821106,0.7905720472335815,0.583483078581754,0.6028299495565128,-0.3995366208309935,-0.3694783305249292,0.0040389825589954,-0.0070099253207445,-0.0127121731638908,-0.0001651644706726,-0.0074054598808288,0.0047656297683715,-0.0126293851062655,-0.0016042615752667,-0.019858546680212,0.0022811852395534,0.0325137378528714,-0.0234373184824362,62
1733314015142512000,-0.3707179205624386,-0.2118020912498235,-0.7187140870332718,0.6025064957210794,9.787709152686595,-0.0899270852930843,-0.9387982487678528,2.095174551010132,1.0591552257537842,0.6159947732317695,0.5993794404740924,-0.3812207909866537,-0.3405367614148968,0.0028887633234262,-0.0102516310289502,-0.0051984637975692,-0.0007898211479187,-0.0048155784606933,0.0054018497467041,-0.0012314058840274,-0.0036464801523834,-0.0226180745214223,-0.0016521043144166,0.0426210711736232,-0.0406212391259148,63
1733314015182512400,0.0830691822223365,0.0587070405125617,0.0467523805583827,0.9796568604838104,9.7540775167197,0.2619497037370689,-0.5494495630264282,2.044901132583618,0.9247990846633912,0.6461433852513154,0.5958353844563371,-0.3628008767589996,-0.3096036094987993,-0.0056802239269018,-0.0118342945352196,0.0003556250594556,0.0033060312271118,-0.0057511925697326,0.0066565871238708,0.0088963201269507,0.0017683489713817,-0.0166050978422164,-0.0030938922427594,0.0411429979776963,-0.0369793024269863,64
1733314015222512000,-0.5711369229346513,-0.5051180981040001,-1.0009190634168683,1.3299490654699504,9.69795347843766,0.5927075342297554,-0.719679594039917,1.8385157585144043,1.087705373764038,0.6729612672807349,0.5920059943753492,-0.3454116793955339,-0.2781055507898753,-0.0131783541291952,-0.0155840246006846,0.0043373168446123,0.0021227598190307,-0.0056241750717163,0.0031367540359497,0.0116727510467171,0.0021480056457221,-0.0146416888147592,0.0004184744320809,0.0274156109962612,-0.0204733541103079,65
1733314015262512000,-1.4683580037288366,-0.6309943025261163,-0.7318493168078363,1.7779580597773192,9.597579964062572,0.946429567534104,-0.3686712086200714,2.143449306488037,1.4684486389160156,0.7004440887624928,0.5854820983297239,-0.3300851896788127,-0.2400681160339526,-0.0112715298309922,-0.0208169780671596,0.0105767045170068,-0.0004546046257019,-0.0070636272430419,0.0047336816787719,0.0127099733799695,0.0047753057442605,-0.0213999309033155,0.0042448118329048,0.0368283131163567,-0.0206818731612991,66
1733314015302512000,-1.7308410654239357,-1.154216797119379,-0.2519124217115343,2.3118840269535776,9.448331067359447,1.2468531413711608,-0.1056564003229141,3.316373348236084,1.9436607360839844,0.7270999441345564,0.5824396122616033,-0.3117567646974825,-0.1868091476829333,-0.0143695846199989,-0.0212080888450145,0.0166066996753215,0.0005644559860229,-0.0064538717269897,0.0044487714767456,0.0128762749955058,0.0076281931251287,-0.0286059167593717,0.0054342439398169,0.0316562442407011,-0.0121170109090395,67
1733314015342512000,-1.4470473585441708,-2.107635712084174,0.561638296096772,2.8472064169242977,9.230534704130887,1.6914551037140189,0.2220783829689026,4.974093914031982,2.2696824073791504,0.7583028276253476,0.582530190090328,-0.2727972979765133,-0.1059101146886548,-0.0042937817052006,-0.021475151181221,0.0126952491700649,-0.003848373889923,0.0004869699478149,0.0028654336929321,0.013042576611042,0.0104810800403356,-0.0358113180935382,0.006623676046729,0.0264828601907938,-0.0035533085674047,68
1733314015382512000,0.4170014232337474,-1.510674612063169,0.167702106630057,3.2088670612081884,9.03086144209206,2.077759775388986,0.7805696129798889,4.140153884887695,1.503437042236328,0.7782270037722581,0.5867000493157382,-0.2232639331786235,-0.0172887835533677,-0.0092981280758976,-0.0229268390685319,0.0158847831189632,-0.0038013458251953,-0.0014796257019042,0.0027068853378295,0.0135377943515777,0.012607293203473,-0.03250701585114,0.0051621058955788,0.0198602637132629,-0.0041849758007563,69
1733314015422512400,-0.7359013686776161,-1.5498504381537437,0.2802054731294512,3.3473771217539903,8.955266979664563,2.183727310378849,0.8398686051368713,2.093607187271118,0.9002074003219604,0.7808964662281368,0.5941842228798537,-0.1886955177821523,0.0392421542670883,-0.0113953668624162,-0.0207599326968193,0.0199875831604003,-0.001646339893341,-0.0056564211845397,0.0034818053245544,0.014033013023436,0.0147335063666105,-0.0292009600430727,0.0037005362100899,0.0132363155288621,-0.004818917189585,70
1733314015462512000,-0.453183328205347,-1.2561474778085946,1.0557955858558417,3.4710745208323,8.918041703119874,2.1425584107749165,0.8508145809173584,2.2096025943756104,0.774217963218689,0.776489105836063,0.602581626376317,-0.1662988372865339,0.0794022061950449,-0.0184269119054079,-0.0162556208670139,0.0164825953543186,-0.0045646429061889,-0.0059914588928222,0.0049884319305419,0.009319482371211,0.0154436342418193,-0.0249859726965427,0.0069061266258358,0.0083220938717946,0.0179994839432183,71
1733314015502512000,0.0393245869114994,0.0825192932546138,-1.8941624727517363,3.513670676760375,8.8340862395823,2.404875760514289,-1.0684159994125366,1.5874779224395752,0.393653392791748,0.7813539577847552,0.5969000507218283,-0.145243907115256,0.1100024114898049,-0.0054863458499312,-0.0094984900206327,0.018010850995779,-0.004918098449707,-0.0020572543144226,0.0019633769989013,-0.0050983522087335,0.0221212785691022,-0.0131441437333822,0.0004797694273293,0.0127876949785277,0.010805416853819,72
1733314015542512000,0.5287985411599279,-0.1911485947996377,0.19600275683254,3.383775592085719,8.615445242223142,3.2395269878879187,-1.814963698387146,2.6534316539764404,0.2024789899587631,0.804325379988678,0.566181251950415,-0.1194524404392089,0.135020221109908,-0.0129426643252372,-0.0151974940672516,0.0094047803431749,0.0014583468437194,-0.0003190040588378,0.0104180574417114,-0.019516184926033,0.0287989228963851,-0.0012935469418764,-0.0059465877711772,0.0172539171397686,0.0036127243041759,73
1733314015582512000,0.5809618591174482,-0.0515104070067405,1.015614966636896,3.044458004774153,8.337393439996243,4.170076483918726,-1.6632142066955566,2.4946377277374268,0.0426080152392387,0.8284025421654082,0.5295264140213821,-0.0835885834632882,0.1623699281655745,0.0206685587763786,0.023343026638031,0.0095687638968229,-0.0072221159934997,0.0065301656723022,-0.0010828375816345,-0.0260356701910495,0.027863809838891,-0.0169978965520858,-0.0024909756612032,0.0153856755824759,0.0056918960652546,74
1733314015622512000,0.2673968449607491,0.1023036056548356,1.7107079395860432,2.620159994791448,8.089607012173532,4.885018651197851,-0.962483525276184,2.1784603595733643,0.0153119973838329,0.8454061514468959,0.4985582935900339,-0.0487134225062692,0.1853511478173723,0.0176072549074888,0.0126649755984544,-0.0019974773749709,-0.0078235268592834,0.0020118951797485,0.0015885233879089,-0.0362521409988403,0.0302481576800346,-0.0235205763190984,-0.0061495071277022,0.0041298663463443,0.0112020925877848,75
1733314015662512400,0.1187158112734556,0.3677916943848133,1.731337470638752,2.24615687854588,7.911956196850538,5.340984011337161,-0.7456542253494263,1.6138614416122437,-0.0244514066725969,0.8554164275364811,0.476673641880345,-0.0216293824291712,0.2014376156968505,0.0113272555172443,0.015412506647408,0.0078310519456863,-0.0097452402114868,-0.0043685436248779,-0.0020234584808349,-0.0425258465111255,0.0248090103268623,-0.0287456174910068,-0.0078484136611223,-0.0067502414451912,-0.0151914773177821,76
1733314015702512400,-0.0241790402278304,0.6379764164984226,0.7114975797832012,1.8889628582820293,7.765371550920605,5.683414469972252,-0.6744605302810669,1.566942572593689,0.112125240266323,0.8613507831489723,0.45848135928424,0.004619572269665,0.2187425394353737,0.0252555888146162,0.0108084334060549,-0.0018388198222965,-0.0092985033988952,-0.0005066394805908,-0.0036645531654357,-0.0369332991540432,0.0158632528036832,-0.0349713601380586,-0.0045088864862918,-0.0148701638083904,-0.0252302937132772,77
1733314015742512000,-0.3093244539774954,0.4819938276261091,0.8904062862128019,1.6057846529521047,7.584819168937206,6.005193770244717,-0.7023821473121643,1.1653319597244265,0.1421982496976852,0.8672144476529051,0.439621469057334,0.0235222239671659,0.2326343352273615,0.0326463915407657,-0.0046188859269022,-0.0005507818423211,-0.0084947943687438,0.0070198774337768,-0.0062342882156372,-0.0313407555222511,0.0069174952805042,-0.0411918420881032,-0.0011693590786308,-0.0229917666720226,-0.035258469983749,78
1733314015782512000,-0.0107920276492834,0.3232096253365278,0.6765209589481354,1.3596255340702832,7.427569336608052,6.257236686468124,-0.5126564502716064,1.3558815717697144,0.1609271019697189,0.8705633879231804,0.4234582317369881,0.0406552924194087,0.2472844055270811,0.0330250933766365,0.0074073635041713,-0.0159280076622962,-0.011948823928833,0.0052123665809631,0.0026844143867492,-0.0258611161261796,0.0042942082509398,-0.0319751009315252,0.0109127704054117,-0.0264349659284576,-0.0249258948060683,79
1733314015822512000,-0.4384937085956334,0.1595119320422411,0.1835749446749687,1.1078226371478288,7.313090139991044,6.439085538002848,-0.3120757937431335,0.8027920126914978,0.2276578694581985,0.8721713241358336,0.4103441400417684,0.0575820160515386,0.2600369040594236,0.0363830737769603,0.0110842296853661,-0.0183572098612785,-0.0053397417068481,-0.0024244785308837,0.002428650856018,-0.0160646103322505,0.001992646139115,-0.0509241315513849,0.0214864835143089,-0.0180750242643058,0.0144582996384473,80
1733314015862512000,-0.6331042804174125,0.1915086602836847,0.0030810148805379,1.0692978953771293,7.228271337622403,6.540571397534013,-0.3487298190593719,0.7465634346008301,0.453555554151535,0.871902390786751,0.4032352121048233,0.0626501380222329,0.2706703745877524,0.0055372770875692,-0.0275381039828062,-0.0196815319359302,0.0049588680267333,-0.0146726369857788,0.006197452545166,-0.0054291188716888,0.000865772133693,-0.0384475118160247,0.0227623749524354,-0.0257532672746106,0.0494112838695989,81
1733314015902512000,0.6827222247410565,0.2829015803456306,-0.2141337490677833,0.8996955080837011,7.065800555774569,6.740577837049961,-0.7160024642944336,1.133413314819336,0.2488963305950164,0.8726161512932886,0.3882041993233075,0.0749912324931972,0.2867312266308019,-0.0281855333596467,-0.0502315387129783,-0.0041463156230747,0.0106471180915832,-0.0189392566680908,0.0113213062286376,0.0050995349884033,-0.0070002349093556,-0.0444172338753938,0.0093001872301101,-0.0244973123967647,0.0284945219569024,82
1733314015942512400,0.4442036106750369,0.4137935671031474,0.0029915830314159,0.6514427779234946,6.868171366783976,6.969522201758623,-0.5915395617485046,0.9955257773399352,0.0882644280791282,0.8752384806567807,0.3699272527763828,0.0883577958717191,0.2988384380122647,-0.0729013383388519,-0.0296034906059503,0.0200786627829074,-0.0005353093147277,-0.0225739479064941,0.010473608970642,0.0330396220088005,-0.0088228108361363,-0.038465631994605,0.0042245625518262,-0.0043360199103131,0.0212753820750396,83
1733314015982512000,-0.2750563467379659,-0.1597474943637847,0.887161020681262,0.350174350760132,6.7809116010040045,7.075804063394665,-0.17655049264431,1.100303053855896,0.1686896234750747,0.8742963674082289,0.3576039870851791,0.1065541088327836,0.3104377970639767,-0.0585511624813079,-0.0534238703548908,0.0227640606462955,0.0064088702201843,-0.0065193772315979,0.0017030835151672,0.0703281313180923,-0.0166652183979749,-0.0317570742666721,-0.0041046044789254,0.0227327504096552,0.0155896760052652,84
1733314016022512000,-0.3813356510907411,-0.2926794625163078,-0.5810182654798031,0.2153876033200882,6.729190766116976,7.130356322315335,-0.2379041016101837,0.5497685670852661,0.3132449984550476,0.8727293011425233,0.3508007742953791,0.1157230569932182,0.3192028713015776,-0.0966998785734176,-0.0707890093326568,0.0415533296763896,0.004358947277069,-0.0168772339820861,-8.505582809448242e-05,0.1076166480779647,-0.024507625028491,-0.0250444248855113,-0.0124337691813707,0.049799913294427,0.0099234646538272,85
1733314016062512000,0.952133405198902,-0.3651432257026433,-1.1997083822280168,0.0490918426568852,6.596202099341154,7.256589669612049,-0.7374714016914368,1.3930940628051758,0.2919165194034576,0.8713113538074795,0.3377838316447216,0.1261704374160864,0.3328659082708028,-0.0747027024626731,-0.0357775501906871,0.0557300671935081,-0.0113484859466552,-0.0047602653503417,0.0009306669235229,0.112361766397953,-0.012084879912436,0.0013607669591903,-0.0299685690551996,0.0540683843938633,0.0395520618247101,86
1733314016102512000,1.7919176115468145,-0.0474053097754716,-1.819977877122164,-0.4695700705891474,6.271730491244792,7.5243129700481886,-1.4924300909042358,2.097214937210083,-0.301245242357254,0.8734188670441375,0.3066570186201336,0.1494265373559511,0.3475235821441758,-0.0195813924074172,-0.0048219254240393,0.0343474820256233,-0.0196398496627807,0.0155934691429138,-0.0089920759201049,0.085162229835987,-0.0020664501935243,4.61772292852e-05,-0.024266667664051,0.0599048354623839,0.1041487403311766,87
1733314016142512000,0.0912898980788886,-0.2296972289025783,-0.7053478249818086,-1.3575230088330803,5.695210121706128,7.867153178527951,-1.9705930948257449,2.8780975341796875,-0.3236966729164123,0.8778896713318819,0.2551521616954939,0.183804803065564,0.3611410838618057,-0.0117700742557644,-0.0203623753041028,0.0180185083299875,-0.011956512928009,0.0092658400535583,-0.0067059993743896,0.0583438202738761,0.0015687684062868,0.0007896890729665,-0.0003248490393161,0.0516774341367185,0.1049133132291957,88
1733314016182512400,1.8202210382282733,0.6078776308327913,-0.768330058595538,-1.5302232160113751,5.454091335079074,8.005103851625323,-0.3304454386234283,-0.5430890321731567,0.1687232106924057,0.8771859759845055,0.2366065367529684,0.1893954521486229,0.3724130427162532,-0.0256033316254615,-0.0126833105459809,0.0175614431500434,-0.0144385695457458,-0.0053980946540832,0.0013691186904907,0.0440567843616008,0.0014846746344119,-0.0666460168182849,0.0134198516607284,0.0669764543490484,0.084047918460844,89
1733314016222512000,-0.0530083904795348,0.0059065936952829,0.4074199404180049,-1.4399258361011742,5.290815666589141,8.130452817302942,-0.4844249784946441,-0.3569745719432831,0.1091336011886596,0.8797073931297895,0.2293762360973972,0.1812424096456669,0.3750366941900835,-0.0148982238024473,0.0241506025195121,0.0307390298694372,-0.019069492816925,-0.0030032396316528,0.0043438076972961,0.0356135554611682,-0.0037927713710814,-0.0446919591635465,0.0039715627208352,0.0578994869893416,0.0901074102960527,90
1733314016262512000,0.1097261568710207,0.5903150861352682,1.07631347322762,-1.2640304861433804,5.194075540280342,8.221568673989177,-0.0819986537098884,-0.4665494859218597,0.081770934164524,0.8816253429704686,0.2275898776331943,0.1703511624047662,0.3767227490480807,0.0290274228900671,0.0658408999443054,0.0094565115869045,-0.0182501077651977,0.0181636810302734,-0.0017375946044921,0.0330184735357761,0.0037383909802883,-0.0169201551407575,-0.018478937447071,0.0594121200419962,0.0438356208954239,91
1733314016302512000,-0.4962665369980037,0.2854296375185251,0.1750239739507436,-1.0892935124404728,5.19519723778665,8.245832177630067,0.0315968692302703,-0.5388073325157166,-0.0353223606944084,0.8832414403918957,0.2315799827248303,0.1610908657789471,0.3745730359869448,0.0476700849831104,0.0609551183879375,-0.0061392919160425,-0.005520224571228,0.0119574069976806,-0.0028269290924072,0.0179615262895822,0.0239264518022537,-0.0108422965317964,-0.0391646660864353,0.0378279916781932,0.0224182821995811,92
1733314016342512000,-0.0780432438191026,0.3016056962937116,-0.265880887439847,-0.951313832444325,5.185305958369374,8.26909848692715,-0.1131841838359832,-0.3973208963871002,-0.0530240349471569,0.8850075091320339,0.2343009756886851,0.1532852164593942,0.3719790718689942,0.0639952570199966,0.0563189275562763,-0.0072833858430385,-0.0074671506881713,-0.0049307346343994,-0.0033240914344787,-0.0226190518587827,0.040836215019226,-0.0221007726490497,-0.052718736231327,-0.0055524830279871,0.0250798843579599,93
1733314016382512000,0.0892863031715154,0.2135030499488115,-0.6453039829075337,-0.8341822946876287,5.102372823616862,8.333085513669252,-0.3939348757266998,-0.3049872517585754,0.111180692911148,0.8866553860128593,0.2322726000644371,0.1455345834734394,0.3724397972005521,0.0596194192767143,0.0572808608412742,-0.0099835656583309,-0.0053784251213073,-0.0114856362342834,0.0022459030151367,-0.061127483844757,0.0429897792637348,-0.0325683906495571,-0.04507602378726,-0.0276115354271605,-0.0193395095084793,94
1733314016422512400,0.1738560992151498,0.1024473980396986,-0.5208206941485405,-0.696839597420767,4.976701786378026,8.421237259852886,-0.4079522490501404,-0.3385238349437713,0.1933531761169433,0.8881270497228649,0.2281480944378185,0.1363262078198163,0.3749584760441952,0.0377199798822402,0.0315771996974945,-0.0074874507263302,0.0061889290809631,-0.010984182357788,0.0061277151107788,-0.0586532987654209,0.0412362068891525,-0.0341729032367467,-0.0215874928981065,-0.0533166161784902,-0.075192667560419,95
1733314016462512000,-1.028163336434215,-0.2397077507853507,-1.6603233217388391,-0.3449112791327759,4.787942424802482,8.551434250083565,-0.731321394443512,-0.9484375715255736,1.6158567667007446,0.8866357357013642,0.2239683939347941,0.1176279909986709,0.3871421183149205,0.016307633370161,0.0300182942301034,-1.6352045349776745e-05,0.0029432773590087,-0.0126418471336364,0.0056177377700805,-0.0276161227375268,0.0311180036514997,-0.0559089342266321,-0.0083164740353822,-0.0564903143111616,-0.1131538388979155,96
1733314016502512000,-0.1308361831833608,0.0031634324669837,-0.2842255224257707,0.2623675272903405,4.667475385947525,8.620686065486073,-0.0372562706470489,-0.3319023549556732,1.930812954902649,0.8746101093763468,0.2274798823351784,0.0933822651827575,0.4178395605948111,-0.0085183540359139,0.0430115908384323,0.0149756465107202,0.000460147857666,-0.0149421095848083,0.0092495083808898,0.0014716312289237,0.0260479822754859,-0.0562672461450099,-0.0158474612981081,-0.0639144546962343,-0.0941456437030341,97
1733314016542512000,0.7086954549092799,0.1644496807053685,-0.5599129336088895,0.6058708210550249,4.6311362445876,8.6229855746001,-0.0954012796282768,0.0326789543032646,1.2751189470291138,0.8611548863935462,0.2310280586545619,0.0835231384214873,0.4450419358161543,0.0035106113646179,0.0442173108458519,0.0245567020028829,0.0041897892951965,-0.0062645077705383,0.0030171275138854,0.0182712003588676,0.0177758336067199,-0.0492255109399557,-0.0186757016927003,-0.0519957428382709,-0.0546503307339735,98
1733314016582512000,-0.0467556867603212,0.5353054388359189,-1.060524367943406,0.7947939218249171,4.476506823889911,8.689049407616258,-0.6635060906410217,-0.0869188159704208,1.252534031867981,0.8521962779321748,0.2262642150043134,0.0760676405480651,0.4655962639700052,-0.0401023775339126,0.0024936716072261,0.0300209745764732,0.0047029852867126,-0.0195769071578979,0.0009535551071166,0.023638529703021,0.0053110113367438,-0.0249520704269409,-0.018284972757101,-0.0308045958474278,-0.0328080811569467,99
1733314016622512000,0.0397985610987991,-0.4632689611509442,-0.9199147047698496,1.1113635246250777,4.085695780706406,8.845470387905836,-1.2305448055267334,-0.0798069015145301,1.530518651008606,0.8424522362315353,0.2138038161112798,0.0573973653950235,0.4911900646053623,-0.0534735769033432,0.0176013577729463,0.0700184553861618,-0.0101730227470397,-0.015203058719635,0.0028822422027587,0.0261906255036592,0.0047305119223892,-0.0207920281380414,-0.0151082053780555,-0.0196019050380215,-0.0322165084719657,100
1733314016662512400,0.951261152409017,-0.606555734579265,-0.7914742028176784,1.136931608058512,3.409417690603435,9.124343443387746,-2.314448595046997,0.2310380041599273,0.967314839363098,0.8362218668478241,0.1815722686570766,0.0426551886074664,0.5156986895334219,-0.0608425438404083,0.0334326773881912,0.0764426067471504,-0.0015982389450073,-0.0075888633728027,-0.0002376437187194,0.0268564485013484,0.0079727936536073,-0.0065489832520484,-0.0082340333610773,-0.0102419742847792,-0.019022278519161,101
1733314016702512400,0.3777731363035738,-0.5631172826081514,0.2981856587171554,1.363110745837539,2.337819263198972,9.425864384007454,-2.901607036590576,-0.4707571566104889,1.053795576095581,0.8344139064285782,0.1392208065379913,0.0056782392125657,0.5332342709260005,-0.1237551942467689,-0.0015968373045325,0.1080855503678321,-0.0027393102645874,-0.0377789735794067,-0.0016166567802429,0.0209907218813896,0.0203671157360076,-0.0071183075726032,-0.0093363458290696,-0.0132664549387991,0.0027520751871168,102
1733314016742512000,0.8787738622166216,0.0699713618487119,1.7244038719832897,1.4331271158717571,1.336622113493085,9.608848377051949,-1.9367308616638184,0.5418777465820312,1.055781006813049,0.829481099625039,0.0976595727815718,-0.0234023391621305,0.5494325727833882,-0.0835941955447197,0.0317112654447555,0.1707507222890854,-0.0204306840896606,-0.0279977917671203,0.0029653906822204,0.0095486659556627,0.0099295675754547,-0.0391290643393993,-0.0031364792957901,-0.0067222026607953,0.0099577687822282,103
1733314016782512000,0.5041010300159454,0.2315397880293428,1.1469137806296348,1.1193173331737518,0.761754552662745,9.712736037027836,-0.6419733166694641,1.2161518335342407,1.639920711517334,0.8169308230033064,0.0647145202155306,-0.0245011543246245,0.5725693921990891,-0.1263816207647323,0.0362327247858047,0.1956660002470016,0.0029574036598205,-0.0190023779869079,5.200505256652832e-05,-0.003636504523456,0.0077864052727818,-0.0125146136581897,0.0039869132451713,0.0068292249655351,-0.0013217866556718,104
1733314016822512000,1.1779498471453784,0.3033341275215149,0.8839543335944413,0.6633408671185373,0.6908581118583679,9.759768421837688,0.4652236700057983,1.2788108587265017,1.1624951362609863,0.8000151862706103,0.0485200951573342,-0.0060082673412043,0.5979845270009815,-0.141895592212677,0.0325003042817115,0.1810019016265869,-0.0054075121879577,-0.0042639374732971,0.0054233372211456,-0.0138515289872884,0.0124400639906525,-0.018215455648303,0.0073742158710956,0.0195494989973492,0.0061354522814042,105
1733314016862512000,0.8876229391045868,-0.2367581071995198,1.0565279917836188,0.2669808480383828,1.023851976041123,9.749401926124095,1.2557978630065918,0.94404137134552,0.4596424698829651,0.7897740258739228,0.0496900248652025,0.0212074186309877,0.6110140477939391,-0.0941743999719619,0.0580615364015102,0.1725536882877349,-0.005597174167633,0.0163694024085998,-0.0059157013893127,-0.0332181826233863,0.015715604647994,-0.0207265616863965,0.0095465276390314,0.0155660371180623,0.0222244446944911,106
1733314016902512000,-0.0229808799518272,-0.4062278080239891,-1.424810100033879,0.167979699728731,1.4249606144204734,9.701116326382756,0.4169859588146209,-0.6569815278053284,0.0018421558197587,0.785928151330947,0.0626954340775962,0.0380790120572792,0.6139513922945067,-0.0429975017905235,0.0305499136447906,0.1234086379408836,0.0004326701164245,0.0365782976150512,-0.0036942362785339,-0.0338488407433033,0.0113927945494651,-0.0297030643463134,0.0007592719048261,0.0181631774717941,-0.024863040436618,107
1733314016942512400,0.5818135805759579,-0.6884513429775834,-0.7226350598692893,0.308230886587128,1.3788791005946694,9.70433236581981,-0.5105162262916565,-0.0621961057186126,0.152244746685028,0.7855461577737742,0.0652249933951513,0.0310231896393061,0.6145734384507404,-0.0600611716508865,0.0392757095396518,0.0767669752240181,-0.0156803727149963,0.0131030678749084,0.0020195245742797,-0.0344794988632202,0.0070699835196137,-0.0386766443967819,-0.0080279828980565,0.0207649940006434,-0.0719439770959317,108
1733314016982512000,0.1226295323847792,-0.2542368460711091,-0.4421335264027118,0.1884670275654643,1.0238230422075838,9.751238493901493,-1.3274956941604614,0.8492262363433838,0.0013121732044965,0.7851583161884118,0.047047469280543,0.0247333714483802,0.6170099478491494,-0.0154665410518646,0.0563668645918369,0.0892559364438057,-0.0163660049438476,0.000538170337677,0.0065671503543853,-0.0624209120869636,0.0097237369045615,-0.0409849213391542,-0.0114688081666827,0.0079332406846806,-0.0043053690437227,109
1733314017022512000,-0.3150743227411061,0.0555950094392523,0.0684364073663949,-0.0440559171491768,0.4585597970793023,9.795824070081114,-1.2743356227874756,0.1686823815107345,-0.1380890756845474,0.786255323192698,0.0170051271560726,0.0162111788961398,0.6174549024264635,-0.0084645580500364,0.054493386298418,0.0969407558441162,-0.0078866481781005,-0.0006377696990966,-0.0001668632030487,-0.0866364762187004,-0.005840222351253,-0.04448036223948,-0.0033535584807395,0.0086782138330861,-0.0211389418795704,110
1733314017062512000,-0.5545463285418227,-0.2962413562489673,-0.7321779642403126,-0.0244015763877308,0.090489641946135,9.8062022562325,-0.7719798684120178,-0.2602870464324951,-0.3787864744663238,0.7901385663364149,0.0028829762274111,0.0038108989001316,0.6129096917808127,-0.0274030957370996,0.0695131346583366,0.085669457912445,-0.0178409814834594,-0.0009925365447998,0.010639876127243,-0.0814137309789657,0.000648605171591,-0.0011672902137041,0.0128785446286201,0.0040537871691398,-0.0681507588254287,111
1733314017102512000,-0.4549733168946578,-0.0214055021275766,-1.378975400575995,0.135048120056279,-0.2190621088480576,9.80327263252139,-0.9113569855690002,-0.4675507545471191,-0.6414410471916199,0.7960775451650928,-0.0047261395975693,-0.0122413956886768,0.6050524087340494,-0.0053947325795888,0.1002410054206848,0.0776827707886695,-0.0026453137397766,0.0071872472763061,0.0013483464717864,-0.0598309300839901,0.0050286008045077,0.0001835398733615,0.0408983826637268,0.0316528832398355,-0.034285295836348,112
1733314017142512000,-1.0204789194114503,-0.5071629748698324,-0.8396680326223372,0.425819082070142,-0.6237980343464762,9.777522105193135,-1.1540770530700684,-0.7972202897071838,-0.405657947063446,0.802416468245873,-0.0126103167815767,-0.0364155168221004,0.5955187401947285,0.0117839882150292,0.0727559551596641,0.0288298763334751,0.0061933398246765,0.0157584547996521,0.0101125836372375,-0.0822848156094551,0.0097026042640209,-0.0446451974123716,0.0290636867284774,0.0488325113006867,0.0268238830476533,113
1733314017182512400,-0.2377882539648562,-0.4424876736026257,0.1872434040546417,0.698073450064659,-1.087257476568222,9.721159581980109,-1.2291064262390137,-0.4788387715816498,-0.3841306269168854,0.8053175227025763,-0.0237770286392388,-0.0615908887612585,0.5891560948568558,0.0144620621576905,0.1047442480921745,0.0075846426188945,-0.0120257139205932,0.0067282915115356,0.0055444836616516,-0.163627803325653,-0.0059096459299325,-0.0487836123913526,-0.0028488002717494,0.0416426728618331,0.0731968769335886,114
1733314017222512000,-1.0784399638623,-0.4624586676813662,0.511319290831685,0.8541331958264112,-1.519940453058481,9.65042074289024,-1.0106520652770996,-0.2428995221853256,-0.3768878877162933,0.8092056370079992,-0.0377211521780166,-0.0808862546734828,0.5807071172443968,0.085648089647293,0.0991564616560936,0.0068366276100277,0.0014671087265014,0.0176411569118499,0.0021836757659912,-0.2449707984924316,-0.0215218961238861,-0.0529167666733264,-0.0347612835466861,0.0344160095439292,0.1195718709803651,115
1733314017262512000,-0.4128733104530722,-0.4963305421449244,-0.5101794731467962,1.0115734361611306,-1.8760240278624,9.572232756838202,-0.9610187411308287,-0.5585815906524658,-0.2219237387180328,0.8109669085867777,-0.0485040178778678,-0.0979761247511448,0.5747875325216547,0.0266686622053384,0.1024432778358459,-0.01838044449687,-0.009768784046173,-0.0064390897750854,0.012717843055725,-0.2871629297733307,-0.0370512939989566,-0.0002688800692558,-0.0291013270616531,0.0167011238289065,0.0172093382125254,116
1733314017302512000,-0.9800031897034496,0.1603473599530756,1.5441887591302397,1.2138867643799631,-2.1627976273357867,9.48784299353659,-0.3872236609458923,-0.3767141997814178,-0.0634177401661872,0.8107873036734209,-0.0549426433574774,-0.1150474932336633,0.5712874921564881,0.0443528480827808,0.1127371490001678,-0.0159304030239582,-0.0028546452522277,0.0001221001148223,0.0102878212928771,-0.2864763438701629,-0.0305655114352703,0.0211918411105871,-0.0121240187436342,0.0017163571975193,-0.0346056503645144,117
1733314017342512000,-0.3326158977158367,-0.585873012034595,0.7696639375478029,1.3232168346054851,-2.1649150578811764,9.472730764600634,0.1918177306652069,-0.178690493106842,0.0350002832710742,0.8105213962553791,-0.0518256131733546,-0.1197466334300856,0.570990402132138,0.0814778506755828,0.131845474243164,-0.0254241731017828,-0.00168377161026,0.004837542772293,0.0138789415359497,-0.2676973044872284,-0.0271018929779529,0.0108142394810914,0.0084355026483535,-0.0036835656172595,-0.1030581503491848,118
1733314017382512000,-0.7237067807540297,0.2774763404265046,-0.099966102617979,1.353681092582643,-2.1666510878935457,9.468028285998106,-0.2028975039720535,-0.0217541456222534,0.1950359642505645,0.8088026402857444,-0.0506594725789023,-0.12123750238421,0.5732132865628639,0.0690312981605529,0.171311616897583,-0.0267692040652036,-0.0077979564666748,-0.0076436698436737,0.0109228491783142,-0.2288088500499725,-0.0206223614513874,0.0191126967489719,-0.0036968309432268,0.0245158709667623,-0.1567326400546357,119
1733314017422512400,-0.5156701795175671,0.4673030389726161,0.2967436432152986,1.395838418702036,-2.2855494161270555,9.43388986955285,-0.2543345987796783,-0.2833229899406433,0.1525662243366241,0.8059848485237271,-0.0539793433019133,-0.1268530446244751,0.5756586978294974,0.0897693336009979,0.2034960687160492,-0.003134780563414,-0.0087097883224487,-0.003491997718811,0.0017901062965393,-0.2235138565301895,-0.0298727452754974,0.0143973586648702,0.0756539031863212,-0.0017163754638284,-0.0290136938426643,120
1733314017462512000,-0.0413857572250068,-0.1082590069279074,0.6296458105266094,1.479402983225882,-2.341907117034495,9.40729646165967,-0.0575286597013473,-0.1787798255681991,0.0733948349952697,0.8040400548635127,-0.053558906482517,-0.1322604317596836,0.5771985358812012,0.1243874952197074,0.2060337513685226,-0.0111831864342093,-0.0098997354507446,0.0030677318572998,-0.0090532898902893,-0.2058984786272049,-0.0602609924972057,-0.0349018020331859,0.154885247349739,0.0119069666212424,-0.0156262976716272,121
1733314017502512000,-0.2109891674317419,-0.392205127890408,0.1672597696900367,1.499967486218363,-2.3813278577968475,9.394134197747707,-0.1359017938375473,-0.0167786125093698,0.2296294420957565,0.8021348616490832,-0.0542305031568491,-0.1345046421050988,0.5792644224406799,0.1017389073967933,0.1641436070203781,-0.0248723663389682,0.0019222497940063,-0.0009001195430755,-0.0030431449413299,-0.1909373104572296,-0.065184511244297,-0.0420616106599569,0.1963485479354858,-0.0015623904785141,-0.0377366532830637,122
1733314017542512000,0.380814695956558,-0.1165492808893323,0.0262795196384191,1.4838194844938817,-2.4636519207403063,9.375451124587654,-0.1986961662769317,-0.0565100982785224,0.1616232246160507,0.7992017183773729,-0.0575874649463796,-0.136633483147353,0.5824874034202789,0.0700957626104354,0.168523758649826,-0.0207446012645959,-0.0065287351608276,-0.0118279159069061,0.0006743669509887,-0.1759761273860931,-0.070108026266098,-0.0484878443151712,0.2378118634223938,-0.0144216893885284,-0.0600525048713432,123
1733314017582512000,0.3227164349921047,-0.056528235168755,0.2522486679285765,1.5164793528191745,-2.5043697155758737,9.359423534372448,0.0162973329424858,-0.1516440212726593,0.017487347126007,0.7979794282107886,-0.0581041825713317,-0.139377589750106,0.583460895548311,0.0561567768454551,0.128593772649765,-0.0187196005135774,0.0115668177604675,-0.0165027379989624,-0.0006107687950134,-0.1517957895994186,-0.0676228627562522,-0.0563806433916091,0.237932339310646,-0.0375116192054003,-0.0414276418716646,124
1733314017622512000,-0.1156771742299199,0.1292611706852912,0.0991676457166671,1.5515997660391032,-2.4776737240910527,9.360772026371956,0.0593743100762367,-0.0080521246418356,0.0445967651903629,0.7977100128563706,-0.0558502053018495,-0.1400506951228088,0.5838881578413395,0.0044339294545352,0.0915859937667846,0.002045001136139,0.0075267553329467,-0.0291470289230346,0.0018906891345977,-0.123865932226181,-0.0680713281035423,-0.0842290197819471,0.2355140000581741,-0.0144022905683144,-0.0235559946923516,125
1733314017662512400,0.297017199459672,-0.0370750544190406,-0.0723392600238323,1.5373901850312948,-2.4660627812743185,9.366181191939114,0.0211574602872133,0.0569439195096492,-0.0321988761425018,0.7977059073071158,-0.0557641949247441,-0.1390971382134763,0.5841297799238823,-0.0385987572371959,0.0480628609657287,0.0336514636874198,0.0157856345176696,-0.024378627538681,-0.0015634298324584,-0.0834447219967842,-0.0704930797219276,-0.1046679966986179,0.193779855966568,-0.0096133392587304,-0.0572597825800068,126
1733314017702512400,0.2708553148515522,-0.1192345744505524,0.0241150350809097,1.577169091581553,-2.4359771473512053,9.3674402520895,0.1314728111028671,-0.2067013680934906,-0.2244122475385666,0.7989970673829402,-0.0536018823026297,-0.1397150659949436,0.5824176610356601,-0.1191372796893119,0.0226637609302997,0.0491259582340717,0.0078020691871643,-0.0322314202785491,-0.0089128017425537,-0.0540455840528011,-0.0534093379974365,-0.0575631311744451,0.14278244972229,0.0079242901932448,-0.0100142482098191,127
1733314017742512000,-0.3033940410152077,-0.8461139938913286,0.1575128671795129,1.6528259517207742,-2.358375290624052,9.374252854713797,0.1545066237449646,-0.0363132171332836,-0.0243279971182346,0.8006548542441928,-0.0484276057930793,-0.1403598434666422,0.580435814830236,-0.1286551505327224,-0.0507145822048187,0.0852278396487236,0.0070884823799133,-0.028391808271408,-0.0104944705963134,-0.043397881090641,-0.0210667327046394,-0.0428957233965396,0.062254287302494,0.0221468037478625,-0.0462106931634247,128
1733314017782512000,-0.2359567276887595,-0.4361266872033477,-0.2709264803916216,1.6480867943696678,-2.3460852795019744,9.378170320418477,-0.0060341707430779,-0.1310843229293823,0.1423157304525375,0.7997467667011725,-0.0478149699278106,-0.1398574759629516,0.581858016465625,-0.0972535461187362,-0.0749965906143188,0.094957634806633,0.0100667476654052,-0.010337620973587,-0.0036480724811553,-0.036441583186388,-0.0109297269955277,-0.0760141491442918,0.0023857243359088,0.0228408504266291,-0.0283116830531507,129
1733314017822512000,-0.5032230781376361,-0.3090634649537503,-0.0950438437849283,1.826468554315716,-2.294930115673691,9.35776115411818,0.3823031485080719,-0.8496289253234863,0.1552162915468216,0.7969137524980808,-0.0396914716764861,-0.1459847602731321,0.5848431667556556,-0.1205314397811889,-0.0723189488053321,0.0457888208329677,0.003594160079956,0.0070052146911621,0.007861316204071,-0.0412403717637062,0.0001667216420173,-0.012668927437067,-0.0377576015889644,0.0192126499921083,-0.0294823342677205,130
1733314017862512000,0.7988400554105639,1.168912408078462,0.1110334400773048,2.1389950192049145,-2.1188120628759264,9.333044646012782,0.5105046033859253,-0.8348368406295776,-0.0658860132098198,0.7930766538292574,-0.021974375701926,-0.1538320157519409,0.5889670202054976,-0.0504279881715774,-0.0646939948201179,0.0130915269255638,-0.0030499100685119,0.0332135558128356,-0.0009180903434753,-0.0458521507680416,0.0097219282761216,-0.0561374822854995,-0.0608251765370368,0.0079842036869376,-0.0731635820187628,131
1733314017902512000,0.1059637355975806,-0.4165241611108183,0.0766787505328655,2.374429330454767,-1.9612173626318568,9.31053704612851,0.2968600690364837,-0.3436967134475708,-0.2444731891155243,0.7940275323201846,-0.0085873196568719,-0.1588111773986032,0.5867073760850466,-0.0196833908557891,-0.0553937032818794,-0.0429941117763519,-0.0128141045570373,0.0214472711086273,0.0081522464752197,-0.0462434068322181,-0.0040197251364588,-0.0494797779619693,-0.0509388744831085,0.0171337248262017,-0.0206657714098691,132
1733314017942512400,0.0008329436928033,-0.3875575943455099,-0.0612339286416769,2.5043998184531926,-1.84084560084492,9.301056685599685,0.1342936009168625,-0.1219616532325744,0.1058122515678405,0.793348989957757,0.0005329642669544,-0.160554685308991,0.5872132009378205,0.0264990180730819,-0.0078483950346708,-0.0371001362800598,-0.0128544569015502,0.0084306597709655,0.0118919312953948,-0.0442959256470203,-0.0075282892212271,0.0146428578585386,-0.0323589742183685,0.0221082618357613,-0.0172165808040648,133
1733314017982512000,0.0852887579679489,-0.0449285443983972,0.1429220317691564,2.473065353512764,-1.8411038133896889,9.309386122527718,-0.0549308434128761,0.2860452234745025,0.1192802041769027,0.7923618685242125,-0.00012657713751,-0.159227489487962,0.5889050737962104,0.0161542352288961,0.0158129930496215,-0.0208050534129142,-0.001508355140686,-0.0145415961742401,0.0132189989089965,-0.0336021743714809,-0.0024347575381398,0.0084743983566761,-0.0140048004686832,0.0140091630648821,-0.0020119608769193,134
1733314018022512000,0.1651176430948078,-0.0458951974734664,0.2856131773918867,2.270383849568665,-1.8896670610286288,9.351197557818889,-0.0749388188123703,0.5671254992485046,0.1942804455757141,0.7918737935933882,-0.0080253877740019,-0.1521748848934044,0.591366383354649,0.0136641794815659,0.0234958920627832,-0.0059008724056184,-0.0014070868492126,-0.0194245278835296,0.0097802579402923,-0.0268958881497383,-0.0003055657725781,-0.058078094959259,-0.0060606719925999,0.026280871345289,0.0489514067063108,135
1733314018062512000,0.2549501819722354,0.2077911020427942,-0.1916010147422552,2.1377549560159443,-1.8840315393596887,9.383539738497138,0.1735851913690567,0.049038115888834,-0.0078535350039601,0.7915800935668387,-0.0116387570216209,-0.1464143879324081,0.593151155715078,0.0220198482275009,0.0148580353707075,0.0119918417185544,-0.0010756254196166,-0.0064187049865722,0.0044387578964233,-0.0194861721247434,-0.0080201141536235,-0.0409556952446699,-0.0245158784091472,0.0275113995209336,0.0402029041159898,136
1733314018102512000,-0.0527191982746124,0.1657806370481848,-0.5904495261698961,2.1872996159076687,-1.8050605862364173,9.387644251206517,0.1360048502683639,-0.1716244369745254,-0.1133494824171066,0.7922777015548409,-0.0070001013758828,-0.1459943598789808,0.5923958519268361,0.0229783188551664,0.012256447225809,0.0027781692333519,-0.0037036538124084,0.0021591782569885,0.0018776357173919,-0.0197111871093511,-0.0091932956129312,-0.0368067588716745,-0.0325707904994487,0.0361440206466242,0.0581916383363306,137
1733314018142512000,-0.0944357948891818,-0.0421811453863978,-0.6077554657578468,2.2279686031654475,-1.798361380858719,9.379362160551548,-0.1335404515266418,0.002743958029896,-0.0338524058461189,0.7928799764474742,-0.0056623323865099,-0.1474908513412846,0.591232367143892,0.0458793751895427,0.0385470651090145,-0.0056809620000422,-0.011658489704132,0.0081019103527069,0.0019140243530273,-0.0199362020939588,-0.0103664780035614,-0.0326326880574226,-0.0406257025897502,0.0447657185195013,0.0761775230124592,138
1733314018182512400,0.014269056110084,-0.1445044786550104,-0.1500233882069587,2.224608771343529,-1.8568984716318544,9.36874724303484,-0.134638637304306,-0.0171219985932111,-0.0457222871482372,0.793338189149643,-0.0083583771240767,-0.1491876403892967,0.5901591669254151,0.0371436737477779,0.0241604037582874,-0.030496897175908,-0.0024182796478271,0.0053371787071228,0.0045191049575805,-0.0338742733001709,-0.0125356782227754,-0.0264537071615457,-0.0432177521288394,0.0483001762559637,0.0841553700238466,139
1733314018222512000,-0.0972924994945526,-0.2110208777442574,-0.0767564919441938,2.2589573234081266,-1.8843544877037408,9.35503611306846,-0.0542890951037406,-0.1305769830942154,-0.0197147764265537,0.7934311806027046,-0.0085369832167005,-0.1515025127905138,0.5894412718178401,0.0110095404088497,0.0212193168699741,-0.0192861203104257,-0.0022995471954345,-0.0083459615707397,0.008086621761322,-0.047812346369028,-0.0147048793733119,-0.0202513453900814,-0.0458098016679286,0.0518158562267199,0.0921267142292112,140
1733314018262512000,-0.0368050053060054,-0.1666986286759376,-0.0333604178100824,2.29408825802207,-1.912964788377285,9.340669734063743,-0.1214061379432678,-0.0545030273497104,-0.0215066689997911,0.7934395201267012,-0.0087241224396338,-0.1538904760529439,0.5888083623150768,0.0658655986189842,0.0541480258107185,0.0028058663010597,-0.0040002465248107,0.0005411207675933,0.0023865103721618,-0.0586583688855171,-0.0106730405241251,-0.0379261182904243,-0.0493021570146083,0.0557989345135167,0.0443415382906794,141
1733314018302512000,-0.0209330440439283,-0.106129885944724,0.0818389097750186,2.305899253455549,-1.9615625228077167,9.327673474368453,-0.1188254728913307,-0.0206129252910614,0.0061730137094855,0.7933843189845885,-0.0104349733819884,-0.15592348012269,0.5883200403422293,0.0391325205564498,0.0449022762477397,-0.0113810589537024,-0.002215027809143,-0.0058590769767761,0.0075985193252563,-0.0663545876741409,0.0120905674993991,-0.0413502475202083,-0.0674090459942817,0.0383216934792697,0.030719420048315,142
1733314018342512000,-0.057528790513426,-0.0629910014420747,0.0626385347425937,2.321844864475727,-1.997668293803185,9.316047333982588,-0.0718258842825889,-0.0794425830245018,0.022296430543065,0.7930744656621593,-0.0114268472635645,-0.1577440809842122,0.5882337978634865,0.041618850082159,0.0323155894875526,-0.0160689540207386,-0.0032554864883422,-0.0025892257690429,0.0035633444786071,-0.0926118716597557,0.0238194353878498,-0.0676081398487091,-0.08985535800457,0.0050994420308619,-0.0019043175176717,143
1733314018382512000,0.0315396321237087,-0.0056152095332741,0.0235468798041343,2.3462017454884947,-2.029456201599538,9.303065687334536,-0.0950021669268608,-0.0448990873992443,0.0183455236256122,0.7925179299855849,-0.0119219565342725,-0.1597921360459427,0.5884213787651358,-0.018094815313816,0.0167989488691091,-0.0168882086873054,0.0023993253707885,-0.0147709250450134,0.0076873004436492,-0.1105376034975051,0.0127570647746324,-0.0288110839426517,-0.0931548848748207,-0.0127878776416182,-0.0130038219472393,144
1733314018422512400,0.0217117733314633,-0.1749335191883146,0.2421001988798379,2.3588727187521754,-2.052721487983316,9.294753201541305,0.004930330440402,-0.0479211322963237,0.0259986240416765,0.7921434846925626,-0.0124440540054344,-0.1610733176221102,0.5885654585523606,-0.0075793238356709,-0.0161117054522037,-0.0107251228764653,0.0084787607192993,-0.0092774033546447,0.0029298067092895,-0.1069874092936515,0.0025794589892029,-0.0726584089756011,-0.0749701559543609,0.0036846433294937,-0.0869246703404001,145
1733314018462512000,0.0422537722311913,-0.1545155850596725,-0.0587163928627967,2.374094253281504,-2.041715525322408,9.293301833689211,0.0341231152415275,-0.0287412647157907,0.0266434270888566,0.791697358154408,-0.0114050437153266,-0.1613796746279943,0.5891025627016089,-0.004801913164556,0.0043091485276818,0.013467232696712,-0.0040504932403564,-0.0125106573104858,0.0092344284057617,-0.0785292536020279,-0.0159033723175525,-0.0256762930482625,-0.0532395876944065,0.021328363504447,-0.1045651573786512,146
1733314018502512000,-0.0276288884207606,-0.0315454773426055,-0.1349520758032798,2.382475858788192,-2.0404865680493414,9.291426687467098,0.0006156587041914,-0.0500861257314682,0.039786297827959,0.7912154808972075,-0.0109745833633816,-0.1617054193275927,0.5896685366312561,0.0224970858544111,0.0228076241910457,0.0078584812581539,-0.0027807354927062,0.0046682655811309,0.0069745779037475,-0.0538463480770587,0.0001293942332267,0.0225134451031684,-0.0461150631308555,0.0108713399631902,-0.117878456267016,147
1733314018542512000,0.0793786571413278,-0.0187042620785534,-0.1013677861094474,2.411638386517018,-2.043302063861489,9.283280790412425,0.0043218396604061,-0.1145170480012893,0.004144087433815,0.7906718878902462,-0.0100893831545368,-0.163041755258335,0.590045283925821,-0.0074573513120412,0.012147257104516,-0.0145540824159979,0.00143963098526,-0.0018483698368072,0.0051220953464508,-0.0341349765658378,0.0174891855567693,-0.0262093770116567,-0.0474592559039592,0.0079026263507083,-0.0862209973167628,148
1733314018582512000,0.0766828421860933,-0.0234214998587965,0.0083089786618947,2.468503452424705,-2.0364897534981368,9.269821004858612,0.0390549972653389,-0.1548582762479782,-0.0308189000934362,0.7902763337220131,-0.008019726077759,-0.1652462938542992,0.5899937560015012,0.0138996029272675,0.0028033973649144,-0.0046849399805068,-0.0037469863891601,-0.0040207505226135,0.0020048022270202,-0.022189799696207,0.0100954510271549,-0.0439589687138795,-0.0259917713701725,0.0034625615440309,-0.0117878246204461,149
1733314018622512000,-0.0123076929092407,-0.0641476241312921,-0.1556423971325159,2.516044079017639,-2.020004921034724,9.260641673102974,-0.0103426882997155,-0.0754972621798515,-0.0499140098690986,0.7904506908994686,-0.0059709754502535,-0.1667423732080463,0.5893632289626288,-0.0098256999626755,0.008963662199676,-0.0007246197201311,-0.0057305693626403,-0.0121097266674041,0.0087712407112121,-0.0319149121642112,0.0139686185866594,-0.0072872343987226,-0.0126442918553948,0.0078578738935291,-0.0052250685713719,150
1733314018662512400,-0.0404144279748201,-0.1337419693611562,0.0119429512500762,2.5339754570275543,-2.040642050871998,9.251223271894457,-0.0867616757750511,-0.010033625178039,-0.0217609889805316,0.7907241407838944,-0.0064076234519564,-0.1681600923876459,0.5885886655217406,0.0052600419148802,0.0238416232168674,-0.0050446661189198,0.0017433166503906,-3.591179847717285e-05,0.0060876607894897,-0.0368456989526748,0.0123877367004752,-0.0287701674103736,-0.0256106704473495,-0.0130560270585119,-0.0145238345887511,151
1733314018702512400,-0.0656754182204604,-0.1233002164542674,0.1283241820961237,2.53664116910547,-2.0567698865912853,9.246920021742582,-0.0024517970159649,-0.0135444607585668,-0.0109835043549537,0.7908548939119093,-0.0070583879992012,-0.16878523738637,0.5882263244503102,0.005164167843759,0.024077421054244,-0.0083262799307703,-0.0018727779388427,-0.0049842298030853,0.0034185051918029,-0.0312667787075042,0.0230615437030792,-0.0148725749611854,-0.0230016522109508,-0.011396313685365,-0.0236569982482586,152
1733314018742512000,-0.0418994058355689,-0.1741425149410962,0.0288636909127235,2.544289053510129,-2.05022046494782,9.246273540532588,0.0180978812277317,-0.0076631964184343,-0.0020035833586007,0.7908811595378162,-0.0065619284663302,-0.16890289756798,0.5881630580751568,-0.0091479253023862,0.0025766023900359,-0.0094611197710037,-0.0023911595344543,-0.0085281729698181,0.004184603691101,-0.0242972522974014,0.0198704525828361,-0.054538230395317,-0.019457783550024,0.0049633580284193,0.0093662554627517,153
1733314018782512000,-0.0643906391069293,-0.0320170403771102,-0.0506096587747335,2.535356682252884,-2.049741303128749,9.248833161887529,-0.012246148660779,0.0376195460557937,0.0024090218357741,0.7909276865045102,-0.0068154197523133,-0.1685060774532746,0.5882115267580835,0.0143597973510622,0.0182008370757102,-0.0015504659386351,-0.0018093585968017,-0.0048645734786987,0.0010207891464233,-0.027515523135662,0.0131565183401107,-0.0415834717541933,-0.0342962518334388,-0.0087642116161063,-0.0213051378924865,154
1733314018822512000,0.017212123824656,-0.1658379201933741,0.0517383705437183,2.5299188751131294,-2.052389917941391,9.249734494641425,0.0144967827945947,-0.0055513624101877,0.0098621444776654,0.7909141321393675,-0.0070838275478718,-0.168358555153776,0.5882686582242702,0.002874648431316,0.0026256046257913,-0.0075305942445993,0.0006508231163024,-0.0078813731670379,0.0037888884544372,-0.0135396802797913,0.0064003346487879,-0.0459556954890489,-0.0393605083227157,0.0111071580130606,-0.0170847277354565,155
1733314018862512000,-0.0001274257719516,-0.0670130965650081,-0.0489782581806182,2.5239149585232137,-2.048263924052566,9.252288855299351,0.004392092116177,0.0252504982054233,0.0192413367331028,0.7907772361965684,-0.0070432267789462,-0.1679730152479666,0.5885634194720388,0.0082694143056869,0.0065522221848368,-0.0013198362430557,-0.0041878223419189,-0.0028885900974273,-0.0017535686492919,-0.0213461425155401,0.0040675653144717,-0.0313905790418386,-0.0305020865052938,0.0003866612300276,-0.0001630633409135,156
1733314018902512000,0.020270634612441,-0.0492664274722337,-0.0991612159758806,2.508604868927598,-2.0505979199580846,9.255935102847218,-0.0002422854304313,0.0388659574091434,0.0019713849760591,0.7907763196687502,-0.0075903591822883,-0.1673948397823807,0.5887225961094316,-0.0062552001327276,0.0076075266115367,-0.0061838333494961,-0.0042447447776794,-0.0073876976966857,0.0071969032287597,-0.0291526019573211,0.0017347957473248,-0.0168131876349449,-0.0216436646878719,-0.0103419092616066,0.016759564601432,157
1733314018942512400,0.0462955949679017,-0.0704245124436914,-0.182059863936901,2.498890407381952,-2.057721488227695,9.256981981551649,-0.0392706021666526,0.0084668854251503,-0.0057709775865077,0.7909212208661153,-0.0082206753400467,-0.1672055623161605,0.5885730756823861,-0.0001898510381579,0.0207082014530897,-0.0093412771821022,-0.0080299377441406,0.0023892223834991,-0.0005959868431091,-0.0431510582566261,-0.0027711067814379,-0.038553310278058,-0.0331757366657257,0.0080173387715592,0.0218737703765858,158
1733314018982512000,0.1485083074688911,-0.0240701730258762,-0.0546183098942041,2.5062124208331107,-2.067414614724368,9.252841813006995,-0.0170241668820381,-0.0428566522896289,-0.0324153378605842,0.7910126278916667,-0.0084482305645989,-0.1678242785206249,0.5882709803342671,0.0137387476861476,0.0331512913107872,-0.0163723547011613,-0.0121502876281738,0.004463791847229,-0.0031027793884277,-0.0558233708143234,-0.0054702302441,-0.0358428822755813,-0.0224067568778991,0.0128981330830603,0.0282419011859921,159
1733314019022512000,0.0223711140230298,-0.0953596317358315,-0.0390086528301239,2.5229645259305835,-2.064659178536385,9.248903304514288,-0.0004218388348817,-0.0216601323336362,-0.0386929810047149,0.7913582185803373,-0.0079400565739133,-0.1684461593543539,0.5876351949857699,0.0003997730091214,0.0028558615595102,-0.0283138360828161,-0.0025396943092346,-0.0019822418689727,-0.0040135383605957,-0.0571765750646591,-0.0127775287255644,-0.0224924023151397,-0.0053779520094394,0.0039219957493245,0.0079987539437424,160
1733314019062512000,0.0496788076654076,-0.0972360931321978,-0.0148263977319002,2.527978554700314,-2.066972570045292,9.24701763689816,-0.023331232368946,0.0185730438679456,-0.0461760647594928,0.7917963620184992,-0.0080190294382948,-0.1687276041225411,0.5869628242259309,0.0070259841158986,0.0098752081394195,-0.022575456649065,-0.0071908235549926,-0.0032707154750823,0.0024527311325073,-0.0685746073722839,-0.0081064514815807,-0.0390098218739032,-0.0081236995756626,0.0051525239249691,0.0100290850193472,161
1733314019102512000,-0.0304921688973903,-0.0736966659821569,0.146785136938095,2.5209108082711693,-2.058190128652752,9.250905291986465,0.051670603454113,0.0266045536845922,-0.0318924523890018,0.7923926075196845,-0.008018733856035,-0.1681392281354876,0.5863266505786556,-0.0181856285780668,0.0072935400530695,-0.0197351276874542,-0.0009382367134094,-0.0110126137733459,-0.0012012720108032,-0.0781348198652267,-0.0143928546458482,-0.042132337808609,-0.0151395816355943,0.0150656498478725,0.0321739160058321,162
1733314019142512000,0.031650983543694,-0.0645242023587226,-0.0356184258699417,2.511290454749763,-2.0389315936923027,9.257783945584295,0.0261930935084819,0.0376913510262966,-0.0366191715002059,0.7928741897195671,-0.0076091520020043,-0.1671121954568455,0.5859744569394106,-0.0569442100822925,-0.0401500351727008,-0.0131998648867011,0.004799485206604,-0.0178791880607604,0.0013325810432434,-0.1014582887291908,-0.0122322663664817,-0.0311532631546258,-0.0371311828494071,0.0133686001390218,0.0497964609620161,163
1733314019182512400,-0.1031964628413319,-0.0851867588981986,0.0329921690195798,2.5110151449397207,-2.025302150660008,9.260849762895702,0.0421879291534423,-0.0129463197663426,-0.0339827015995979,0.7933656386709111,-0.0071719090840402,-0.1666632297017298,0.5854424076040016,-0.0631038323044776,-0.0230907313525676,-0.0001832656562328,-0.0079525709152221,-0.0132407546043396,-6.729364395141602e-05,-0.1470494866371154,-0.0201719403266906,-0.0773018508672714,-0.0232446044683456,0.0393820161871612,0.0242402140968479,164
1733314019222512000,-0.0595405687272548,-0.1331052788928151,0.0524742836028337,2.5126994447648525,-2.0047668737620112,9.264860167580842,0.0537158660590648,0.0086172996088862,-0.0119582209736108,0.7936129674981094,-0.0063115932377193,-0.1660835718059282,0.5852818807650391,-0.1175889149308204,-0.0451401621103286,0.0131140304729342,0.0029666423797607,-0.0249015688896179,0.0013055801391601,-0.1717870831489563,-0.0204514935612678,-0.0494195722073316,-0.0192688107490539,-0.0037592064030468,-0.016467196342023,165
1733314019262512000,-0.0524599628165364,-0.1099386305779218,-0.0153945530086755,2.520881582176685,-1.9745131897956127,9.26913360711634,0.0769518911838531,-0.0311166923493146,-0.0374156758189201,0.7939013606440968,-0.0048574144017254,-0.1654754152572025,0.5850769090861866,-0.3154945373535156,-0.1365905553102493,0.0596457123756408,0.0165808200836181,-0.0676548480987548,-0.0329304933547973,-0.1942998766899109,-0.0237434897571802,-0.0306353767603635,0.0168493539094924,0.0303701499529182,0.0237592393466038,166
1733314019302512000,0.036826340354979,-0.2028859404750168,-0.1182154605358839,2.5357433434829115,-1.94890265545994,9.270500219294428,0.0495438016951084,-0.0403339974582195,-0.0259967446327209,0.7941965124721063,-0.0034109942841874,-0.1653009689933031,0.5847357269393842,-0.1814208924770355,-0.2574613094329834,0.1044004037976265,0.0208680629730224,-0.0077678561210632,-0.02061727643013,-0.2327641695737838,-0.0489374883472919,-0.066451955550909,0.0736052244901657,0.040929757085815,0.0447320217458764,167
1733314019342512000,0.1155237372338771,-0.0704990389846265,-0.201946467667818,2.553112995956838,-1.933597242039442,9.268937207761406,0.016170959919691,-0.0420448668301105,-0.0302916094660758,0.7943328136130311,-0.002289305593983,-0.1655610783986029,0.5844824816281066,-0.0987896621227264,-0.1882843822240829,0.089375115931034,-0.0028029680252075,0.0089137554168701,0.004656434059143,-0.2712284624576568,-0.0741314888000488,-0.1021329252630472,0.1303611099720001,0.0518217745108529,0.065511802323698,168
1733314019382512000,0.0974979589387774,0.0606686959743499,-0.1210112287342548,2.5732337007045745,-1.9218610654078423,9.26581352278292,0.0285776872187852,-0.0652133077383041,-0.062573455274105,0.7947010539351977,-0.0013073671327396,-0.1660520064665609,0.5838452545404856,-0.0362157635390758,-0.0618550665676593,0.0668367817997932,-0.033329963684082,0.0127116441726684,0.0312179923057556,-0.2964586913585663,-0.1050767451524734,0.0285386967420578,0.2410418391227722,-0.0096767964163795,-0.2197748967599123,169
1733314019422512400,0.1975268976598977,-0.0058363049380481,-0.134662737467885,2.590520935592055,-1.904886257470399,9.264501855662465,-0.0122741088271141,-0.0016601023962721,-0.1099199950695037,0.7955832901383719,-0.0003301914002934,-0.1662581110664946,0.5825849750933595,0.0371844172477722,0.0251745898276567,0.0966681167483329,-0.0449779629707336,0.0075291097164154,0.053320825099945,-0.258585661649704,-0.0861896276473999,0.0111024087727069,0.2822265326976776,0.0595809738028794,-0.0766627218466717,170
1733314019462512000,0.0975339070349931,-0.1054109240204095,0.1360053842484951,2.58816180524528,-1.9079630345672367,9.2645281591475,-0.0346388332545757,0.0593329966068267,-0.1300660222768783,0.7971236797799428,-0.0009708077763095,-0.1662515664584276,0.5804768508599183,0.0679127722978591,0.1286649852991104,0.0672811940312385,-0.0292247533798217,0.0225740373134613,0.0547806322574615,-0.1950320899486541,-0.0318653397262096,0.0428688353896141,0.2338442355394363,0.0112937666263431,-0.3387550945905968,171
1733314019502512000,-0.0178431152045726,-0.0195208391584455,0.0745113433659076,2.577842948065698,-1.89209954887256,9.270656286638976,0.0336725935339927,0.0599201209843158,-0.1119235381484031,0.7986241491197357,-0.001013139914649,-0.1653089306127818,0.5786808265285418,0.0475254729390144,0.2053098976612091,-0.0186370406299829,0.0079400539398193,0.0457156598567962,0.032452642917633,-0.1558529138565063,-0.0145513024181127,-0.0535831216275691,0.1116065979003906,-0.0236648801606148,-0.1661284458388574,172
1733314019542512000,-0.0686094258457422,-0.0626322511322796,-0.1882528733581304,2.552593648257852,-1.877120006405562,9.280682590612768,-0.0245273858308792,0.1031773015856742,-0.1264779269695282,0.8003194650340093,-0.0015726453819381,-0.1637510209168537,0.5767772600331257,0.1167644634842872,0.2234241962432861,-0.0951819494366645,0.0021153092384338,0.0465068519115448,-0.0056160390377044,-0.0974504426121711,0.026250759139657,-0.0044546413213014,-0.0104738399386405,-0.0238433054674416,-0.1044208170045167,173
1733314019582512000,-0.1296487086981534,-0.193796478959918,-0.2505021165221929,2.540908763422072,-1.8722497700206933,9.284871858996151,-0.0014449823647737,-0.0026921886019408,-0.1061178520321846,0.8018086505564298,-0.0021182538632454,-0.1630913513189703,0.5748909136835578,0.0937686040997505,0.1414741426706314,-0.107217438519001,0.0035640001296997,-3.421306610107422e-05,-0.0221661329269409,-0.1182228401303291,-0.0142511632293462,-0.0870119284987449,-0.0338658429682254,0.0355179611701518,0.0514269299743697,174
1733314019622512000,-0.0426391182869672,-0.1763239506334066,-0.3798503809690475,2.5561019486397503,-1.8683242671400309,9.281492153429983,-0.0529422350227832,-0.023362897336483,-0.1084009632468223,0.8030596956762339,-0.0018729112286163,-0.163621822945881,0.5729918278067215,0.0666794627904892,0.0502352006733417,-0.0670778080821037,0.0111851692199707,-0.0296134054660797,-0.031054139137268,-0.0926603451371193,-0.019797533750534,-0.0797346309721469,-0.057897575199604,0.0085279551748186,0.0031909415284171,175
1733314019662512400,-0.0247483645483851,-0.166459266962111,-0.1770470042109489,2.5736753069922327,-1.8844737301692365,9.273367299163342,-0.0643202140927314,-0.0406036116182804,-0.0700263530015945,0.8039347390063458,-0.0023267048949353,-0.1648770601791465,0.5714009151127432,0.0793723538517952,-0.0007705116877332,-0.0424104817211627,0.009974181652069,-0.0205720365047454,-0.0141635537147521,-0.0670978501439094,-0.0253439024090766,-0.0724082336068153,-0.0819293037056922,-0.0185468064945191,-0.0450779628064483,176
1733314019702512400,0.0570832387030124,-0.0850745306953787,-0.1440834767639636,2.5986849528253075,-1.89522951746136,9.264196150714158,-0.056879423558712,-0.0693277791142463,-0.090656042098999,0.8047461985693657,-0.0023242291582993,-0.1662890915785071,0.5698473622837676,0.0643502548336982,0.0213143900036811,-0.0462325178086757,-0.0089398622512817,-0.0042752921581268,0.0149433016777038,-0.0056747682392597,0.0026230290532112,0.0004816460371017,-0.1520569026470184,-0.0441762647263705,-0.053700902788341,177
1733314019742512000,0.0977928502321243,0.0877409734256565,-0.0496621487915515,2.6321958850219844,-1.9146664777286349,9.25072876637578,-0.0970832034945488,-0.0862406641244888,-0.1142165809869766,0.8055625195698796,-0.0024695100444657,-0.1683389362865782,0.5680888875478559,0.060262307524681,0.0694096386432647,-0.0586158819496631,-0.0169886350631713,0.0093866884708404,0.0195408463478088,-0.0161355622112751,-0.0415332056581974,-0.0898322466164827,-0.1637895554304123,0.0247508487664163,0.0761816511983051,178
1733314019782512000,0.1634720678448677,-0.0298003872409462,0.0353197351843118,2.661236978328228,-1.9307513510890304,9.2390693082422,-0.0512798465788364,-0.052971389144659,-0.1174292862415313,0.8068494248931557,-0.0027445623447787,-0.17009123647751,0.565734476535447,0.0682797506451606,0.0731737539172172,-0.0726522728800773,-0.0030809044837951,0.0115269124507904,0.0129632353782653,0.0020508412271738,-0.0547966733574867,-0.0707826782315969,-0.2179584354162216,0.0358639981288462,-0.0832275145892053,179
1733314019822512000,0.1424783796548843,-0.0326623525433242,-0.0244745160430669,2.692406023573876,-1.9407583658404648,9.227935335287452,-0.0808159857988357,-0.0373968034982681,-0.1264212280511856,0.8079811605634276,-0.0026593357098511,-0.1717531874465775,0.5636136549150588,0.045890025794506,0.0591855533421039,-0.0702883824706077,0.0056240558624267,-0.0054423809051513,-0.0055307745933532,0.035512126982212,-0.0611435584723949,-0.0406254403769969,-0.2350202947854995,0.1060101320225745,-0.0210926459192764,180
1733314019862512000,0.0945168973013758,-0.1462581904545426,0.0661994420945644,2.705202376782894,-1.9562999261043963,9.220908797651528,-0.052418403327465,0.0014440168160945,-0.132218912243843,0.8094397344013392,-0.0034346878847005,-0.1727793597931086,0.5611975949261512,0.0523828119039535,0.0118656549602746,-0.0668575018644332,0.0144340991973876,-0.0037328898906707,-0.0138039588928222,0.0459744893014431,-0.0403241254389286,0.0093260467499494,-0.2473410815000534,0.1055044475227594,-0.0683818367681,181
1733314019902512000,0.1388406076744198,-0.1284507310852408,-0.0606277794420719,2.7104090055152774,-1.9515119611755007,9.220394418388604,-0.0283213220536708,0.0400499999523162,-0.1184394434094429,0.8109049735329806,-0.0035330328108336,-0.172853257025064,0.5590549388952436,0.0470314584672451,-0.0334082953631877,-0.065854825079441,0.0065262913703918,-0.0023752450942993,-0.009257435798645,0.051061026751995,-0.0034853480756282,0.0077864160925149,-0.2376253008842468,0.162390190892294,-0.0350254923449363,182
1733314019942360800,0.3424742977768182,0.030831337723881,-0.2013607767343521,2.696815072187781,-1.9642988159038128,9.221665168976784,-0.0996437221765518,0.0750675871968269,-0.124771699309349,0.8123612202773801,-0.0049193942004313,-0.1726318044229361,0.5569949321774601,0.0447762906551361,-0.0025531784631311,-0.0565241016447544,-0.0231046676635742,0.0025926828384399,0.002712070941925,0.0256286449730396,0.0043933917768299,-0.0184813925585127,-0.203750878572464,0.1425126015848945,0.0839439922954887,183
1733314019982360800,0.4327215549349784,0.1627741487085819,-0.116107674601674,2.676747558932006,-1.9879038556359707,9.22245310448408,-0.1041679009795188,0.1000368520617485,-0.1792394667863845,0.8143241688592028,-0.0071184983282965,-0.1724385870035133,0.554157415878517,0.0207351390272378,0.0613406896591186,-0.0676872059702873,-0.0329153537750244,0.0028298497200012,0.0083482861518859,0.0268316566944122,0.0070747742429375,-0.032743747216463,-0.1925391554832458,0.1490798968117684,0.0429276163721457,184
1733314020022360800,0.3794125740736723,0.2000077546902,-0.1868453446477651,2.659577520683408,-2.003440155202896,9.22405878611505,-0.1057415157556533,0.0806828588247299,-0.2199407517910003,0.8167692536766931,-0.0090341967556234,-0.1721112017003012,0.5506217020695722,0.1471924036741256,0.0895354226231575,-0.0485473349690437,-0.0229206681251525,0.0349023938179016,0.0125549733638763,0.0280346684157848,0.0097561562433838,-0.0466150361806154,-0.1813274174928665,0.1556885012965649,0.0019019063648767,185
1733314020062360800,-0.0001049216791987,0.0680947543218731,-0.2966542113661766,2.6561723884150386,-2.027898450763524,9.21969416116476,-0.1628590524196624,0.0174107421189546,-0.2260412573814392,0.8194605184774922,-0.0110603484684127,-0.1726386091255895,0.5464046047011215,0.1350047141313552,0.0949116423726081,-0.0776692703366279,0.0120424032211303,0.0220348238945007,0.0035873651504516,0.0256515890359878,0.0164344143122434,-0.0424234297096729,-0.1949759870767593,0.1315300654653459,-0.0319707535499706,186
1733314020102361000,-0.2789446594133973,0.0696982439957559,0.0652040013164281,2.6822742133989927,-2.064068226905912,9.204097363582251,-0.1424426585435867,-0.0452230833470821,-0.2308004647493362,0.8217568638326037,-0.0127191495012445,-0.1748137578169548,0.5422121372272568,0.0865698084235191,0.008785655722022,-0.1060294061899185,0.0365975499153137,-0.0075185298919677,0.0033170580863952,0.0196005422621965,0.0309257116168737,-0.0399421342879533,-0.1825547069311142,0.1006378643997013,-0.0553628081185743,187
1733314020142360800,-0.4459510388642549,-0.1450727800622582,0.2116062764167785,2.716851313522458,-2.078392374204099,9.190722918224337,-0.0935879573225975,-0.0220227427780628,-0.2538790702819824,0.8242276565581598,-0.013259960399311,-0.1767136444579248,0.5378152508605683,0.0474178828299045,-0.0100010810419917,-0.0582925751805305,0.0031774044036865,-0.0483795404434204,0.0194765031337738,0.0297568626701831,0.0417717099189758,-0.0207587103903293,-0.1641198992729187,0.0606882043924182,-0.1457282482963055,188
1733314020182360800,-0.5230103131473064,-0.5549509272873401,0.1812163988500833,2.731062794226408,-2.089444806355238,9.184002670058607,-0.0935177206993103,0.0296253245323896,-0.1500291973352432,0.8265646590414881,-0.0141626663059817,-0.1776108397208337,0.5338957883993685,0.0762130469083786,0.0163224022835493,0.0118393087759613,0.0023291110992431,-0.0302143096923828,0.0292702317237854,0.0397697389125824,0.0407836325466632,-0.0111480014801025,-0.135466381907463,0.0676779171492904,-0.130254711767286,189
1733314020222360800,-0.4044865173146128,-0.4434804109670222,0.1937918027848005,2.7208766235157844,-2.10858892115578,9.182650086405872,-0.0346596166491508,0.0454388558864593,-0.0040111262351274,0.8273982137172187,-0.0155704237885306,-0.1776870585458604,0.532538374251607,0.0461893640458583,0.0539900958538055,0.0301788337528705,0.0064442157745361,-0.0138823390007019,0.0230318903923034,0.0514717549085617,0.0432751923799514,-0.0033604163438081,-0.0962348580360412,0.0549001955755054,-0.1113909482780843,190
1733314020262360800,-0.195915078549087,-0.1944204560771584,-0.0273895267069339,2.715812618124485,-2.1156847246356305,9.182517399936916,-0.0145213408395648,0.0048921760171651,0.0121139977127313,0.8273251863470396,-0.0159982824794022,-0.1776681277954788,0.5326454625714837,0.0737536177039146,0.040202222764492,0.0218650456517934,0.0101656913757324,0.0068675875663757,0.0061891674995422,0.0513875447213649,0.0491420738399028,-0.0085141458451747,-0.0637540593743324,0.051972909951955,-0.058910234934464,191
1733314020302360800,-0.1206231061995029,-0.070706105864048,-0.14226269107759,2.69528771649003,-2.127171018159389,9.185910549506543,-0.0429238453507423,0.0907319262623786,0.0149133894592523,0.8273775501108048,-0.0170657751185649,-0.1770809674495332,0.5327263571924615,0.0329169705510139,0.0084535600617527,0.0060944040305912,-0.0009687542915344,-0.007140576839447,0.0076574683189392,0.0382634699344635,0.0462270751595497,-0.0116828390091657,-0.0413379296660423,0.0355598275505006,-0.0187404293704777,192
1733314020342361000,-0.082138477243483,-0.0850588947348296,-0.1941378397434949,2.666379894174636,-2.14947944220975,9.189153476950526,-0.0552209317684173,0.0427014492452144,0.0208133868873119,0.8273477459876619,-0.0188135520594381,-0.1764358562113103,0.5329279616034625,0.0541580766439437,0.0238152053207159,0.0243898537009954,0.0009375214576721,-0.0095998644828796,0.0142102241516113,0.0240797661244869,0.0572738498449325,0.0040051439881324,-0.0245814006775617,0.0172306823946535,0.0027731179751455,193
1733314020382360800,-0.0773988815009593,-0.0840587777815759,-0.3326251039355993,2.661341023224592,-2.1738230253495274,9.184886467155811,-0.0868515595793724,-0.0299469251185655,0.0182117447257041,0.8271479778116874,-0.0199819765839212,-0.1769232318727791,0.5330338776905739,0.0048914602957665,0.045781809836626,0.0374407432973384,0.0032092928886413,-0.0267581343650817,0.0173110961914062,0.017050378024578,0.0635907277464866,-0.0014262334108352,-0.014851395972073,-0.0181868140757083,0.0016640607547014,194
1733314020539731700,0.0166895612552762,-0.091724636234343,0.1491121185809373,2.7276640916988253,-2.2893089147910475,9.137247933146355,-0.0299089737236499,-0.0367220528423786,0.0395890958607196,0.8259100785944561,-0.0231106074281121,-0.1832918655177104,0.5326749429946916,-0.0376016721129417,-0.0020339153707027,0.0298211704939603,-0.0008800029754638,-0.0062431097030639,-0.0131815671920776,0.0301463939249515,0.0382104367017746,-0.0341928728791186,-0.058366160839796,-0.1045332461367361,-0.1185009994789958,195
1733314020579476500,-0.0237333422869443,-0.0801379510760307,0.1928688427209854,2.731126214851439,-2.304486902439594,9.132396985983847,-0.0200237948447465,-0.0031908266246318,0.0262363031506538,0.8255239875306751,-0.0235812411391274,-0.1839055762188667,0.5330412257004781,-0.0415133237838745,-0.0215604789555072,0.0245980471372604,-0.0044724345207214,-0.0035460591316223,-0.012675404548645,0.0555513016879558,0.0258331652730703,-0.0319751694301841,-0.0343935750424861,-0.0861902277191635,-0.0300630544818355,196
1733314020619476500,-0.00772094964087,-0.1945925977736711,0.0920358941406011,2.7284318612009284,-2.3048042978256937,9.133122377648949,0.0337248891592025,0.0167186334729194,0.0418142601847648,0.825213789373327,-0.0235581403848446,-0.1838079901790969,0.5335557594317784,-0.0114907082170248,-0.030594453215599,0.0147532057017087,-0.0108049511909484,0.0025037229061126,-0.0065304040908813,0.0466579347848892,0.0223456341773271,-0.0053986441731452,-0.0293318200856447,-0.1009087172303348,-0.0146222534619271,197
1733314020659476500,-0.0205287010267376,-0.0911605726107954,-0.1684866811364889,2.7214871566295624,-2.3058842020168897,9.134921536025404,-0.0112990289926528,-0.0215513575822114,0.0524037554860115,0.8246619522716437,-0.0235965529933182,-0.1835533414839405,0.5344941969527428,-0.0253569893538951,-0.0096043767407536,0.0007170826429501,-0.0136389136314392,-0.0006375610828399,0.0020149052143096,0.0352947637438774,0.0194535162299871,-0.0244534732550382,-0.0250404570251703,-0.0798422560650855,0.0199259128279984,198
1733314020699476500,0.0661640785202384,-0.0829210059233009,-0.0687023648262023,2.728617446900904,-2.311579929440468,9.131354198932646,0.0048147630877792,-0.0250245556235313,0.0240511074662208,0.8241538969116566,-0.0234974178034476,-0.1840607892411457,0.5351073817346294,-0.0315381847321987,-0.0027842875570058,0.0029691846575587,-0.005828857421875,-0.0047907829284667,0.0071408152580261,0.0358186662197113,0.0062203118577599,-0.0396323376864194,-0.0163566060364246,-0.0484022483909502,0.0123952981274574,199
1733314020739476500,0.0505520833685994,-0.029917437749356,-0.120813075813651,2.728667131261527,-2.3161009139962494,9.130193922981618,-0.0171874612569808,0.0083207814022898,0.035861924290657,0.8237609091485882,-0.0235669712204243,-0.1842125693186295,0.5356568863251124,-0.0190647393465042,0.0244807284325361,0.0045686792582273,-0.0142877697944641,-0.0026091635227203,-0.0073397159576416,0.0410173088312149,-0.0007239878177642,-0.0411865813910961,-0.0123190749436616,-0.0199592671083286,0.0258673586409538,200
1733314020779476500,0.0524690229058265,0.127119628611952,-0.1421580616593361,2.725254107947648,-2.333825371257216,9.126699066603184,-0.0571535602211952,-0.013773332349956,-0.0026676896959543,0.8235627273814703,-0.02439467316026,-0.1845880492412112,0.5357954311147104,-0.0182961504906415,0.0103338053449988,-3.3596064895391464e-05,-0.011595606803894,-0.0016960203647613,-0.0019454658031463,0.04137559607625,0.0053394166752696,-0.0492810405194759,-0.0137730501592159,-0.0011959317862987,0.0432519894883036,201
1733314020819476500,-0.0649473962068557,0.1287055826291442,-0.0312871186673641,2.7397195634126663,-2.351871461687982,9.117731331771612,-0.0559156239032745,-0.0503855124115943,-0.0309189409017562,0.8235698819514649,-0.0248463031163918,-0.1857625926189082,0.5353575326308418,-0.0207182951271533,0.0041659767739474,-0.0001697501866146,-0.000265896320343,-0.0014100968837738,-0.0051298141479492,0.0417338833212852,0.0114028211683034,-0.0573725770384073,-0.0152270263060927,0.0175765732228755,0.060630263660103,202
1733314020859476500,-0.0647626872897148,-0.1615324780844151,0.1214338380604982,2.767816361606121,-2.3685401262857018,9.10492153455913,-0.0566772334277629,-0.0533899255096912,-0.0719172060489654,0.8239126939992051,-0.0250032383792478,-0.1874914275760029,0.5342188286875608,-0.0557899959385395,-0.0373460985720157,-0.0195046328008174,0.0087862610816955,-0.0090055167675018,0.0022436678409576,0.0474305674433708,0.0022916868329048,-0.0538105006426572,-0.0038640210404992,0.0166723178595304,0.0588197071067988,203
1733314020899476500,-0.2172363912582397,-0.3097479400865733,0.0637771833837032,2.777835066795349,-2.371009585139156,9.10122677169442,0.0065656239166855,-0.0154033452272415,0.0034965721424669,0.8242905457105943,-0.0249916614362381,-0.1879946415070049,0.5334591348356893,-0.0712714865803718,0.0041388124227523,-0.0059615261852741,-0.0098989605903625,-0.008758932352066,-0.0018381476402282,0.0611476749181747,0.0090397354215383,-0.0701151542335748,-0.0221373587846755,0.0024520327946171,0.0019943156223744,204
1733314020939476500,-0.0421150944128632,-0.209649004869163,-0.0753963095068931,2.7755452022925016,-2.369055820722878,9.102433809396624,0.0044049876742064,0.0241156686097383,0.0327263958752155,0.8239851907023477,-0.0248536020673182,-0.1878491888238029,0.5339880946124327,-0.0381124652922153,0.0147550255060195,0.0043499669991433,-0.0073353648185729,0.007750779390335,0.0025625228881835,0.0799297392368316,0.0084738014265894,-0.0500204607099294,-0.0433536954224109,0.0048411564208567,-0.015535788110271,205
1733314020979476500,-0.0875295226320624,-0.1695338521018624,-0.1567015507966279,2.764995166705549,-2.380590191172064,9.102636053970455,-0.0277250297367572,-0.003215285250917,0.0701024681329727,0.8235395480892038,-0.0254958773682148,-0.1877357069856157,0.5346849347438686,-0.122123472392559,0.0259839240461587,-0.038460150361061,-0.0139829516410827,-0.001139611005783,-0.0053430199623107,0.0987117961049079,0.0079078674316406,-0.0298801744788885,-0.0645700320601463,0.0073019570438191,-0.0330857655871659,206
1733314021019476500,0.0630675738096237,0.1289824998743832,-0.0024719430714845,2.75969647577554,-2.3922512567408383,9.101186439684032,0.004507603123784,-0.0082986187189817,0.0567662641406059,0.822702100546977,-0.0258717749892386,-0.1878810448331767,0.5359034907941669,-0.0483930669724941,0.0114262327551841,-0.0420197285711765,-0.004172921180725,0.0101789236068725,-0.0211491584777832,0.1105402186512947,0.0247976668179035,-0.0024029694885015,-0.0794652327895164,-0.0139339424042031,-0.0422104445461183,207
1733314021175667200,0.0875678088158369,0.0259124398916959,-0.2072106718063354,2.7678166538670657,-2.3798614385060963,9.101968529972432,0.0061143292114138,0.0147360106930136,0.0153289623558521,0.8218419200400593,-0.0247948306901442,-0.1879200942184535,0.5372588322230812,0.0041521666571497,0.0213090106844902,0.0059791561216115,-0.0163809657096862,-0.0042838454246521,0.0132005810737609,0.0636257901787757,0.0059369504451751,-0.0463646233498118,-0.0669080838561058,-0.008486476382715,-0.0209294684139313,208
1733314021215413000,0.0876584097087383,0.1153174010068178,-0.1408674373269081,2.773561919520795,-2.3836738364011048,9.099221861612795,-0.0181016102433204,-0.0337760113179683,-0.0344731658697128,0.8218788729446005,-0.0248329521302706,-0.1882873420613054,0.5370720279550548,0.0150394355878233,0.0422211103141307,-0.0140178548172116,-0.0102736353874206,0.0052877068519592,-0.0037055313587188,0.0716936737298965,0.0091520734131336,-0.0175140465053438,-0.0527931787073612,-0.0336346681741997,-0.0527339300528634,209
1733314021255413000,0.0293415375575423,-0.0035844343580305,0.0354214419931173,2.7944696829929945,-2.380441722612083,9.093669488182664,0.0161893218755722,-0.0475470051169395,-0.0582172945141792,0.8222423061721356,-0.0242726642351306,-0.1891103806568779,0.5362515944502807,0.0126630971208214,-0.0058581079356372,-0.0401161015033721,-0.0035966038703918,-0.0029829740524291,-0.0114039182662963,0.0630598813295364,0.013941466808319,-0.0274970787346363,-0.0440533459186553,-0.0306843304686248,-0.0583039396043866,210
1733314021295413000,0.0095429043710231,-0.1641099273569881,-0.0043207858085632,2.814268023918569,-2.3710502094104884,9.09001622637212,-0.0120061105117201,-0.0246153734624385,-0.0711911991238594,0.8228140997314203,-0.0235352606650855,-0.1896951061437997,0.5351997614578436,0.0421056747436523,-0.0176253393292427,-0.01491314265877,-0.0041683912277221,-0.0031658411026,-0.002927541732788,0.0519893951714038,0.0114979539066553,-0.0515074843972921,-0.0330917872488498,-0.0228287581300362,-0.0237115688465535,211
1733314021335413000,-0.123390525086224,-0.2920642532274127,0.1343985335737466,2.820458402991295,-2.363703792170435,9.090010965675114,0.0372793711721897,0.0071290112100541,-0.0267131105065345,0.8234103118924275,-0.0232516433562217,-0.1897307958102842,0.5342818168719903,0.0347494892776012,0.0015377032104879,-0.0220522787421941,0.0010742545127868,-0.0060282349586486,0.0092772245407104,0.0375391580164432,0.0067740753293037,-0.0577951863646507,-0.022551953792572,-0.0120966439744457,-0.0506307015627622,212
1733314021375413000,-0.0473179237529635,-0.1566002823792397,-0.0954132616192102,2.8187559829875823,-2.3456395815610884,9.095217302146551,0.0333133041858673,0.008311990648508,0.0022528949193656,0.8235420301989654,-0.0225160136122545,-0.189119038928016,0.534327246193286,0.0209790840744972,0.0248582046478986,-0.023212619125843,-0.0116186738014221,-0.007938265800476,0.0082034468650817,0.0195678304880857,0.0081841209903359,-0.038290275427699,-0.0204169657081365,-0.0080185808805748,-0.0335325595065951,213
1733314021415413000,-0.0091115272164344,-0.001814648206532,-0.0444558123201131,2.809130076508224,-2.3424081984244287,9.099027215823533,0.0023446539416909,0.0389631167054176,-0.0144385946914553,0.8236870065569836,-0.022666940929455,-0.1885866735691174,0.5342854328675793,0.0314397141337394,0.029018223285675,-0.0147080793976783,-0.0114578008651733,-0.0056799054145812,0.0052115321159362,0.001596501097083,0.0095941666513681,-0.0187777657061815,-0.018281977623701,-0.0039342707090079,-0.0164384360384196,214
1733314021455413000,-0.1100850533112883,-0.0334542335733771,-0.1666091968268156,2.809996337948739,-2.331268964772671,9.10162015492618,0.0336527340114116,-0.0457576289772987,-0.0284514129161834,0.8239829893866502,-0.0222400582640324,-0.1882867412899299,0.5339526550946613,0.0301917567849159,0.0095092365518212,-0.02011682651937,0.0073274374008178,-0.003322958946228,-0.0018497705459594,-0.0031881690956652,0.0128851709887385,-0.0155237323462963,-0.0052149835973978,0.0086494261300191,-0.0206719088897109,215
1733314021495413000,-0.0601046323508024,-0.1580387907497584,-0.0014577975928783,2.8312434163779017,-2.32639434447363,9.096281716507672,-0.0101346522569656,-0.0289581455290317,-0.0147366030141711,0.8240677372043911,-0.0215018663780027,-0.1890935934119615,0.5335670123693809,-0.0062051322311162,-0.0246697720140218,-0.0221255831420421,0.0100957751274108,-0.0094870924949646,0.0094346404075622,0.0094646587967872,0.0028172545135021,-0.0447054031670093,-0.0054559712298214,0.0202846266051754,-0.0623033845040947,216
1733314021535413000,-0.043497488681972,-0.1519280527845025,0.0394774393856525,2.8345380740091204,-2.326220303080976,9.095299719733,0.018155014142394,-0.0048900409601628,0.0129496045410633,0.8239669158309766,-0.0213736855223833,-0.1892404193045406,0.533675722818066,0.0022067276295274,-0.0033083977177739,0.000913557363674,-0.0025227069854736,-0.0082440972328186,0.0142544507980346,0.0221174862235784,-0.0072506619617342,-0.0736316379219293,-0.005696958862245,0.0293888472979888,-0.1024653720878064,217
1733314021575413000,-0.0902536868989467,-0.0717656979195773,-0.0616238047420978,2.832213138192892,-2.3198921229727567,9.097640145379303,0.0175906345248222,0.0130676077678799,0.0218857321888208,0.8238244339398866,-0.021093681739689,-0.1889563521182859,0.5340073890027843,-0.0156244672834873,0.0147355310618877,0.0084917154163122,-0.0058549642562866,-0.0091346502304077,0.0113373398780822,0.0342155843973159,-0.0018841437995433,-0.034306758749485,-0.0123822391033172,0.0237514989981427,-0.0767524733562022,218
1733314021615413000,0.0082987495288252,-0.0619299480818212,-0.0383522347480058,2.8256881203383206,-2.3240416438676417,9.098609867194297,-0.0046031414531171,0.0079003795981407,0.0031194686889648,0.8236888512852019,-0.0214029073709832,-0.1887906684519713,0.5342627025538625,-0.0065643927082419,-0.011993977241218,-0.0040224120020866,0.0023608803749084,0.0055160522460937,-0.0030828714370727,0.034865953028202,0.0021758368238806,-0.0197328744739294,0.0138900279998779,0.0400381420083343,-0.0460856054790317,219
1733314021655413000,-0.055687108169496,-0.2111769450888037,-0.0811561882078647,2.826526616989076,-2.318297108866274,9.099814566808938,0.03806584328413,-0.0258357506245374,0.0462928973138332,0.8234648543440326,-0.0210399117327338,-0.1886687291129742,0.534665322310004,-0.0237854570150375,-0.0187126006931066,-0.0089039197191596,-0.0069571137428283,-0.0022575855255126,0.0045405030250549,0.0209321752190589,0.0010129001457244,0.0092459672510623,0.0354591608047485,0.0303525777636095,-0.0453896591041237,220
1733314021695413000,0.0028553894311189,0.0138511229589581,0.0142237556636333,2.830681983102858,-2.320514638785273,9.097957540765403,-0.0088902972638607,-0.0049192789010703,0.0278216190636158,0.8229296079761746,-0.0208452832216204,-0.1889410509197482,0.5354004102805836,0.0035905062686651,-0.0115093886852264,0.0035896347835659,0.0065537691116333,0.0032088160514831,0.0002529025077819,0.0180988423526287,-0.002359990729019,-0.0217711023032665,0.0387443900108337,0.0367197381753474,-0.0336556013643741,221
1733314021735413000,-0.0264671511650085,-0.1543935661152005,0.0114355862498283,2.8278327311515805,-2.316572184769809,9.09984846907854,0.0410733819007873,-0.0001777261786628,0.0223717913031578,0.8227158759505208,-0.020663546410144,-0.1887058008325172,0.5358186395525107,-0.0262510124593973,-0.0030913499649614,0.0032567393500357,-0.0055365562438964,-0.0078316926956176,0.0147055387496948,0.0152655094861984,-0.0057328813709318,-0.0527636219382286,0.0420296192169189,0.0430768155844882,-0.0219227126684039,222
1733314021775413000,0.0152048756554722,-0.2002897865019738,0.0415361254811286,2.8210265582680703,-2.304942975644022,9.104912766730784,0.0528099462389946,0.0357515588402748,0.0659472718834877,0.8222884165745801,-0.020159083326285,-0.1880751448979863,0.5367152739138243,0.0097690401598811,0.0171124543994665,0.0126490425318479,-0.0092923045158386,0.0026392340660095,0.0052387714385986,0.0081444904208183,0.0075778788886964,-0.0310971490532159,0.0290374271571636,0.037616540884599,-0.0339530499409884,223
1733314021815413000,0.1067231756627559,-0.1290625793732702,-0.1008563294559717,2.799987277370691,-2.291176023837179,9.114875942340491,0.0620849505066871,0.0306889396160841,0.0631387531757354,0.8217344635459177,-0.0198845871794687,-0.1867491714478173,0.538035150983374,-0.0222549382597208,-0.0063109518960118,0.0038236598484218,-0.0006117224693298,-0.0042505264282226,0.0083488821983337,-0.0016489746049046,0.0129150208085775,-0.0448959573030471,0.0011240001767873,0.0230387841515243,-0.0551612576644867,224
1733314021855413000,0.0265007611736655,-0.1300283556655049,-0.0281172564595937,2.7845909707963465,-2.273001923112571,9.124138276204466,0.0833692699670791,0.0245428420603275,0.0713661387562751,0.8211810549981865,-0.0192684704842734,-0.1855455107671025,0.5393175088219635,-0.0119237387552857,-0.0239539667963981,-0.0023525436408817,0.0019618868827819,-5.555152893066406e-05,0.0006614923477172,-0.0088662300258874,0.0086512826383113,-0.0451642528504133,-0.0151228327304124,0.0127228861140087,-0.0477205862697213,225
1733314021895413000,0.0602972323134541,-0.0992614614799618,0.0027139351338148,2.7641128309130667,-2.245559789435565,9.13715090251267,0.1072343736886978,0.0517769642174243,0.0901342704892158,0.8204239170090544,-0.0183014738646112,-0.1838477894498508,0.5410819240763395,-0.0046402597799897,-0.0044304942712187,-0.0042283409275114,-0.0077005624771118,-9.40561294555664e-05,0.0026278495788574,-0.0074437363073229,0.0105949081480503,-0.0317319398254156,-0.0041480399668216,0.0091081296829506,-0.028317309076339,226
1733314021935413200,0.0943368645593523,-0.0433097110249102,-0.1327694710671901,2.7312700072363016,-2.2189115826152266,9.1535227761209,0.0820183306932449,0.0642610713839531,0.0840865075588226,0.8197280113218826,-0.0177258022816233,-0.1816205296890947,0.5429048768898572,0.0163206830620765,0.0034242332912981,0.0031880298629403,-0.0101813077926635,0.0047746300697326,0.0053438544273376,-0.0066037215292453,0.007291723974049,-0.0246872820109128,0.0105142276734113,-0.0056646381655707,-0.0301753580331802,227
1733314021975413000,0.0768988230243325,0.0739557553097605,-0.1498684899061918,2.704564663401246,-2.2013535679623484,9.16568375403583,0.0552302673459053,0.0439495667815208,0.0427765063941478,0.8192414849083328,-0.0174776724630935,-0.1799297651267673,0.5442087830071488,-0.0082062315195798,-0.0019780953880399,-0.0039367913268506,-0.0050368905067443,-0.0042459368705749,0.0057160854339599,-0.0079690599814057,0.0003553796559572,-0.0394347692877054,0.0139031782746315,-0.0057240767352283,-0.025156580023095,228
1733314022015413000,0.0550330281749367,0.018080284961313,-0.164243636739254,2.694707578514516,-2.1915664795719088,9.170931007039549,0.0119259087368845,0.0017536950763314,-0.0016655421350151,0.8191199409259429,-0.0172581368446534,-0.1792060737881903,0.5446372979963846,-0.0017576536629348,0.0074116243049502,-0.0069490927271544,-0.0033867955207824,0.0014824867248535,-0.0005536973476409,-0.0093343975022435,-0.006580963730812,-0.0541787494331598,0.0172921288758516,-0.0057807022932916,-0.0201374366868287,229
1733314022055413000,0.040640345685184,-0.1545807592503726,-0.0597317073851823,2.69264041685164,-2.185601725948602,9.172961051562428,0.0234678536653518,0.0109953423961997,0.0064534493722021,0.8191251262116793,-0.017046381713124,-0.178937292166762,0.5447246706507327,-0.0001419140025973,0.0096384538337588,-0.0113660125061869,-0.0106216669082641,-0.0048397779464721,0.0026816129684448,-0.0090691680088639,-0.0127350054681301,-0.0403127211660146,0.0164095666259527,0.0031709947189316,0.0032125323057174,230
1733314022209141500,-0.0774661015182733,-0.1879459993660449,0.3738812434315681,2.525238316081464,-1.9874854840934275,9.265174640357491,0.2947950065135956,0.2513056695461273,0.1718957424163818,0.8174024232323486,-0.0121484289400543,-0.1657105474578076,0.5515847120375431,0.0344701260328292,0.0163221880793571,-0.0214884877204895,-0.0084883570671081,-0.0051426887512207,-0.0042372047901153,-0.0600602738559246,0.0129620842635631,-0.0539489044663496,-0.0124050695449113,0.0084937948936014,-0.0066312067589606,231
1733314022248889000,0.0227656662985682,-0.0036155601486563,-0.0664858578205108,2.425604514157772,-1.882267013905197,9.313640272840855,0.3326843976974487,0.2071949541568756,0.1138132140040397,0.8165935257061772,-0.0099793060870471,-0.1582305603573237,0.5550120751170241,0.0360411256551742,0.0272586718201637,-0.0153764663264155,-0.007881224155426,-0.0103588700294494,0.0070165991783142,-0.0820318683981895,0.037958238273859,0.005502477865311,-0.0201341435313224,-0.0497054901763563,0.0298755827854503,232
1733314022288889000,0.0052446226552128,-0.1673731669366359,-0.279439457193017,2.356186256147176,-1.7711819897711276,9.353164473977683,0.2995032668113708,0.1446208953857422,0.0839962288737297,0.8161071564613703,-0.0068796597367652,-0.1519012971075174,0.5575371291348931,-0.0161531046032905,0.0013665152946487,-0.0382391698658466,0.0096032619476318,-0.0071566104888916,0.0025479793548583,-0.0879649147391319,0.0168695952743291,-0.0604687894880771,-0.0111233573406934,-0.0170848441831767,-0.0180410489294677,233
1733314022328889000,-0.0584783463232219,-0.1735236523903906,-0.4684370114386081,2.297356173776835,-1.6873695879660546,9.383246893030403,0.1985162198543548,0.1227634847164154,0.1120166853070259,0.8155102348696853,-0.0046925419349639,-0.1468520737666782,0.559781606757991,0.0019784946925938,0.0181492771953344,-0.0154706761240959,-0.0096094012260437,-0.0067442059516906,0.0007737576961517,-0.0878557935357093,0.0006803032010793,-0.0494429530829191,-0.003817378077656,-0.0168977606458589,-0.028683292844519,234
1733314022368889000,-0.0056681087642908,0.0164798640273511,-0.2114016937553882,2.246042312255501,-1.6294234488233923,9.405884256774186,0.1835262775421142,0.1053591296076774,0.1353212147951126,0.8143483914485821,-0.0033064386507219,-0.1429070838184417,0.5624975484087024,0.0381950885057449,0.005723447073251,-0.0050615109503269,0.0049052834510803,-0.0041857361793518,-0.0006195902824401,-0.0771369114518165,0.0043368348851799,-0.0283802913099527,-0.0114117916673421,-0.0173956636980175,-0.0704674748025834,235
