time_imu,phone_acc_x,phone_acc_y,phone_acc_z,phone_gravity_x,phone_gravity_y,phone_gravity_z,phone_gyro_x,phone_gyro_y,phone_gyro_z,phone_ori_w,phone_ori_x,phone_ori_y,phone_ori_z,watch_gyro_x,watch_gyro_y,watch_gyro_z,watch_acc_x,watch_acc_y,watch_acc_z,headphone_gyro_x,headphone_gyro_y,headphone_gyro_z,headphone_acc_x,headphone_acc_y,headphone_acc_z,frame_imu
1733461244335298800,1.717150247593224,12.562464958167077,-1.633342375832796,-0.3476669710490852,9.784565009441971,-0.5584000448279083,-1.3271745443344116,0.1548083126544952,-0.363686203956604,0.5800794825588509,0.627533142805556,-0.3669777029702716,-0.3674743262625373,1.2286241054534912,1.4928845167160034,-0.7742746472358704,-1.1570502519607544,1.0561795234680176,-0.1566563695669174,0.3173823356628418,-0.1116367876529693,-0.1324473995059728,-0.3607603013515472,0.3406421504462137,-0.4151704084143042,0
1733461244375298800,1.686773960160464,7.238121115985512,-4.093214485773444,-0.5460865797650069,9.790637607353926,0.1248250970671419,-2.0380606651306152,0.1572777926921844,-0.6443731188774109,0.5993152158019612,0.6119114431113556,-0.3452536413219568,-0.3836477148191506,1.7079057693481443,1.7781428098678589,-1.352055311203003,-0.6938535571098328,0.691916823387146,0.1914880275726318,0.4011511206626892,-0.2730827629566192,0.7070289099365472,-0.607609748840332,0.116146472242102,-0.002109247238934,1
1733461244415298800,0.7235814738739281,-1.3517811041802168,-5.174134576013684,-0.7889730336517096,9.720862060338256,1.026030489123985,-2.512980699539185,-0.8780812621116638,-0.5789445042610168,0.6182589869897641,0.584839423608749,-0.3250382328728669,-0.4123939471104429,1.590472936630249,1.4953023195266724,-1.7820231914520264,-0.0676663517951965,0.2203723192214965,0.2046419382095337,0.3162274956703186,-0.0765383690595626,0.8691402108222246,-0.450173556804657,-0.2451699251813814,1.1970754033759237,2
1733461244455298800,-0.7587875926159322,-8.86935453684032,-1.6083922051019963,-0.9105693687975406,9.557387069883942,1.9993949714653192,-2.221892833709717,0.2216300964355468,-0.0902877524495124,0.6403895561644378,0.5521984203073778,-0.3051821321764237,-0.4379975749444734,2.055115222930908,1.2356109619140625,-1.5023971796035769,0.5378439426422119,-0.0819533467292785,0.4565758109092712,0.196023404598236,0.1026319861412048,0.1749129147917032,-0.2873980402946472,-0.3382810838706791,0.4759443183287978,3
1733461244495298800,0.05476590167135,-13.67103527187705,-1.5754869837135077,-0.8963280044119805,9.395739294856789,2.6621552622169253,-1.4451615810394287,0.5990545153617859,0.3423638641834259,0.6646973951975165,0.5325307590781543,-0.2840402139411984,-0.4403516519234696,1.7401694059371948,1.0136072635650637,-0.8297945857048035,1.1896696090698242,-0.4654952883720398,0.420265793800354,0.1761222332715988,0.1475473642349243,-0.8941741143137216,-0.3237022459506988,-0.1317788799941074,-0.2271545586824417,4
1733461244535298800,1.8382111606881024,-15.268476313245296,-0.5791901732698083,-0.8458146456185728,9.29015535235703,3.024567893911898,-0.5277253985404968,0.2766040861606598,0.1649612486362457,0.6791993768769545,0.520710499410899,-0.2732224874633817,-0.4392019904810853,0.0616911873221397,0.3954353928565979,0.3088513910770416,1.439924240112305,-0.8784636855125427,0.4313093721866607,0.205458328127861,-0.0051416754722595,-0.7863789255052804,-0.257354199886322,-0.1550619668960571,-0.221137490350008,5
1733461244575298800,0.0665972092404961,-12.807812176144122,-0.0939595556795597,-0.8402236206784844,9.320058323189617,2.9327342443451285,0.8344508409500122,0.3106396198272705,0.1649607867002487,0.6811962614699337,0.5267656064571502,-0.2701669102609514,-0.4306966303077402,-0.9883018732070924,-0.0348340719938278,1.235657811164856,1.2971855401992798,-0.8000298142433167,0.4941723942756653,0.2347944378852844,-0.1578307151794433,-0.6774795748472213,-0.191006138920784,-0.1774788014906458,-0.2159527811884879,6
1733461244615298800,-1.401746035310626,-5.286753823977708,0.6353904916584492,-0.6979686745159328,9.477953467684983,2.4190122762858866,1.7482011318206787,0.1097630336880683,0.5063019394874573,0.6689434660702684,0.5425395015190807,-0.2869069268027865,-0.4193446050897907,-2.529372453689575,-0.8827815651893616,1.8094674348831177,0.6044002175331116,-0.656869649887085,0.3463478684425354,0.2954009473323822,0.1970472335815429,0.2705278364628553,0.049571618437767,-0.7683749206505716,0.613600100132823,7
1733461244655299000,-2.063845377935469,2.896508792492748,1.1053303088754416,-0.5147098465854302,9.633395958331226,1.7615763954274355,1.6992826461791992,0.2038802802562713,0.8413758277893066,0.6575944445873042,0.5652604995552111,-0.3011065688380309,-0.396717807402791,-1.0096300840377808,-1.6073424816131592,1.1269055604934692,-0.0515692830085754,0.3090147972106933,-0.153292715549469,0.1331382989883422,0.0581167787313461,0.6182616622030734,0.6208229064941406,-0.3028182138886302,1.516423384848237,8
1733461244695298800,2.700097162598371,8.147587491977214,1.5806611714810133,-0.2461898610799573,9.747573541653155,1.0462268163912,1.8197985887527464,0.7381689548492432,0.4864902794361114,0.6463728912518157,0.5888950323168718,-0.3160062027045024,-0.3681641383697385,-0.5901981592178345,-1.158980369567871,0.935461163520813,-0.8177221417427063,0.4647953510284424,0.09775061160326,0.1704037487506866,0.3345293402671814,0.1162368539392948,0.4875377118587494,0.1982065504871308,-0.166983290836215,9
1733461244735298800,0.585401668195799,6.617067777237296,-2.7228333105415103,-0.1325982700855937,9.790396199813484,0.5485991105752065,0.6006554365158081,-0.2007828503847122,0.2845695614814758,0.6344493637014113,0.604376910326909,-0.3267380903776407,-0.3541819687694226,-0.6122443079948425,-0.9185274243354796,0.2700878083705902,-0.6746280789375305,0.4388126730918884,-0.3421869874000549,0.1749706864356994,-0.2483758926391601,-0.4459270734667778,0.2662392258644104,0.1024394156626425,-0.2383440612167119,10
1733461244775298800,0.510351651375927,5.255825017228722,0.2755693377614021,-0.0147519008737173,9.795323719343545,0.470972484732978,0.076268620789051,0.1465802490711212,0.2065986692905426,0.63406678799229,0.6048130693240686,-0.331946134671882,-0.3492453581492226,0.2273754924535751,-0.3989614248275757,0.146687239408493,-0.4663695096969604,0.4634629487991333,-0.1208268404006958,0.1856250166893005,0.0174577236175537,0.3597948504120111,-0.0245035290718078,-0.2207062775922007,-0.3245090174973011,11
1733461244815298800,0.0620738865971565,2.4625270083636046,0.2569523155748844,0.0419243302142713,9.796982007944584,0.4333258409710601,0.0695889815688133,-0.18011274933815,0.1126698404550552,0.6337678793471981,0.604929470710878,-0.3346145038060796,-0.3470328173800844,-0.0220340695232152,-0.085833765566349,0.1266173124313354,-0.2828562259674072,0.1307092308998108,-0.0937503576278686,0.1417298018932342,-0.0594203472137451,-0.0401250896394252,-0.0185607355087995,-0.1177925772150047,-0.0780807262852787,12
1733461244855298800,0.3462707674503326,0.7703758852094411,0.3897679638713598,0.0655317628329154,9.798378430739044,0.3973261241659522,0.0821742862462997,-0.081928551197052,0.0132171297445893,0.6322715814801438,0.6049101790154412,-0.3373806174339546,-0.3471176279373168,0.1302422732114792,-0.0324554964900016,0.0014687206130474,-0.087513267993927,0.0640773177146911,-0.0592522621154785,0.1554463654756546,-0.0491771101951599,-0.0508089807391166,0.0191929508000612,-0.1155681974301114,-0.0970879168331623,13
1733461244895299000,0.3980679555092006,-0.3010609218925237,0.0550257216513156,0.0682028041064972,9.799756733354926,0.3612660554757341,0.1255987286567688,-0.1324773728847503,-0.0214448627084493,0.6305182674868159,0.6053564421555422,-0.3392994761674104,-0.3476582191362348,-0.0219712201505899,-0.1409195512533188,-0.0570147633552551,0.032238483428955,-0.0368072986602783,0.0089826602488756,0.147088348865509,-0.0365858748555183,-0.016514496949315,0.0793333575129509,-0.1103673773840069,-0.0127747258991003,14
1733461244935298800,0.3488318501099944,-0.3997276323497295,-0.1420803202480077,0.0433681723470333,9.80235610219836,0.2869299042799509,0.2179730236530304,-0.069667749106884,-0.1017518267035484,0.6271816131199672,0.6075896156792028,-0.3408892863144337,-0.3482421779545953,-0.185929536819458,-0.1446687430143356,-0.0307581238448619,0.0574753284454345,-0.059055745601654,0.0328661203384399,0.1106226444244384,-0.0005141347646713,-0.0364624754786491,0.1209374517202377,-0.0944844198038801,0.081355217911303,15
1733461244975298800,0.1402351125064306,1.195379413112998,-0.1346580430264584,0.0128440693748416,9.804182733103632,0.2196519644999876,0.0996451005339622,-0.099453866481781,-0.0760864540934562,0.6240019684624872,0.6097307542532299,-0.3420954160308332,-0.3490283969145333,-0.0677035525441169,0.0168762076646089,-0.0402677431702613,-0.0496516227722168,0.0720257759094238,-0.0533392466604709,0.0583796836435794,-0.0010363588808104,-0.2381371404677629,0.1513268500566482,-0.0888648446227423,0.3183218532949686,16
1733461245015298800,0.8137810194328426,9.128633834058046,-0.3760270232886076,-0.0805567884094547,9.801869195464253,0.2953725009925663,-0.675540566444397,0.0605321153998374,-0.4021852016448974,0.6239620327925729,0.6082503945927464,-0.3390746989143809,-0.3545858640879501,0.1198471710085868,0.64402836561203,-0.3848447501659393,-0.5763475298881531,0.3868224024772644,-0.2768759727478027,0.0126069076359272,-0.0667592138051986,-0.0558434677749872,0.0278488546609878,0.1004557310321368,-0.1157034777149558,17
1733461245055298800,1.4770149190455677,13.306264386618135,0.0614612345915287,-0.2805125297846272,9.776831200319528,0.7108182922821491,-1.447258472442627,0.4252728521823883,-0.6616382002830505,0.6365364729710883,0.601367446461111,-0.3195552321070901,-0.3620261135266419,1.9217368364334104,1.358806014060974,-1.263039231300354,-1.139427900314331,1.1123127937316897,-0.3192653059959411,0.0376491472125053,-0.1348672807216644,0.3873182326316833,-0.1827258765697479,-0.0973033679484389,-0.0452034158170223,18
1733461245095298800,0.6625057314686477,7.819115416067838,-2.8330566032797098,-0.5676355637501925,9.689681324654815,1.3993788677878678,-1.9663766622543333,-1.31593918800354,-0.8255538940429688,0.6489344661152073,0.580757203688163,-0.3022790121278538,-0.3875985127030341,0.5622661709785461,1.2013068199157717,-1.5387789011001587,-0.8200713992118835,0.3891892433166504,-0.0855940580368042,0.0189953800290823,-0.0925492346286773,0.3392003906726837,-0.1265487372875213,-0.0772810090086422,0.0886000744730234,19
1733461245135299000,-0.9377553357563913,-1.470833015540242,-1.2870771613404155,-0.7485109671428799,9.539442832392451,2.1468951248049737,-1.4879192113876345,-0.6586048603057861,-0.540952205657959,0.6558288073871598,0.5498981790670991,-0.2969020115437852,-0.4234971840915822,1.8286186456680296,1.24582040309906,-1.7130779027938845,-0.0472476482391357,0.2302901148796081,0.3430136442184448,0.0003416109830141,-0.0502311959862709,0.2916431052058935,-0.0703715831041336,-0.0571078616876155,0.2222176868021488,20
1733461245175298800,-0.0119520844046026,-10.37099770118594,-4.823079789157212,-0.9505167637825012,9.424089775550366,2.540357559280097,-1.0079574584960938,0.7318975329399109,-0.2326263785362243,0.6659620389646819,0.5415111044409807,-0.277927203967558,-0.4312964819169362,1.5440878868103027,0.9552858471870422,-1.4204628467559814,1.039574384689331,-0.2425922453403473,0.6689599752426147,-0.0276215113699436,-0.0537658855319023,-0.3968839333564042,-0.0082827694714069,-0.0152482398731634,-0.0672141720950603,21
1733461245215298800,1.7214654804438352,-16.24160705989599,-3.9896564961433407,-1.0262492464412003,9.304557387197017,2.922740089075268,-1.030524730682373,0.0880651399493217,-0.0814758017659187,0.6779731944287022,0.5306484056619011,-0.2634274002998324,-0.4351673586550534,0.8900919556617737,0.6707327365875244,-0.6156743168830872,1.4460492134094238,-0.65732741355896,0.4365343153476715,-0.0249209329485893,-0.0470344200730323,-0.8681400938689708,-0.0528384000062942,0.0404188758210744,-0.2923708349585533,22
1733461245255298800,0.4918164257213473,-16.031559118837116,-0.4168243131011724,-0.9833758810069412,9.239209008973836,3.136936674246192,-0.0557116791605949,-0.1094818785786628,0.2971252799034118,0.6855184861313692,0.5224437899132939,-0.2590621981092674,-0.4358940542982207,-0.2437973618507385,0.2013392001390457,0.6592983603477478,1.513152241706848,-0.7398935556411743,0.4894942045211792,-0.0357871055603027,-0.0478676445782184,-0.5707119755208492,-0.0263289548456668,-0.0340665019865147,-0.121393213789165,23
1733461245295298800,-0.016238602617383,-11.06996780782938,1.9901766228735445,-0.8265202356271445,9.31352103037536,2.9572911779746414,1.295358419418335,-0.1888990551233291,0.3917000889778137,0.682024815488425,0.5255547340422093,-0.2702079367839545,-0.4308387086602611,-1.5077812671661377,-0.3128639757633209,1.405223727226257,1.1924831867218018,-0.8690848350524902,0.4279573559761047,-0.0071912948042154,0.0024633295834064,0.014175824868679,0.172622412443161,-0.2605933937572874,0.6509951802864671,24
1733461245335298800,-1.736417550382018,-2.100979176804424,0.2852349917292595,-0.6178308695703745,9.523453236100076,2.256658837207407,2.081089496612549,0.1361033916473388,0.7930086851119995,0.6659637387049799,0.5469619803224196,-0.2928737104869838,-0.4141857857116408,-2.623419761657715,-1.302297592163086,1.7898802757263184,0.6367596387863159,-0.3934733271598816,0.3207229077816009,-0.0449226349592208,0.0763099789619445,0.0330874460875987,0.4429027438163757,0.1109508215614594,0.733947019739449,25
1733461245375298800,3.98732600736916,5.465334029105305,0.5541238288134336,-0.3520301346946508,9.705375152871012,1.3609380779735742,2.3469974994659424,0.1531241238117218,0.42024827003479,0.6491091210922026,0.5762477320820134,-0.3139267727036134,-0.384767282570072,-1.536291003227234,-1.392858386039734,0.8368989825248718,-0.4064424037933349,0.5181826949119568,0.0828493982553482,-0.0616098269820213,-0.0482982546091079,0.2954495117515325,0.4503463208675384,-0.1320819363276008,-0.0158756145238876,26
1733461245415298800,-0.0901235759795643,7.396619487071037,-1.585826006898284,-0.2483564827956259,9.782524443525077,0.64101424982436,1.4624029397964478,0.0664060413837432,0.2195376455783844,0.6281077505202501,0.5969559664809226,-0.3331080051811498,-0.3717030881367885,-1.5022528171539309,-1.1105011701583862,0.6619187593460083,-0.7333609461784363,0.3867049217224121,-0.1684175133705139,-0.0063424222171306,-0.061696995049715,0.3290203574419021,0.3608379960060119,-0.2850954371280968,-0.0213321263641119,27
1733461245455298800,1.6381033066242932,6.407758671846985,-1.9244073888897888,-0.1728515983477234,9.803229377901554,0.1928010747143998,0.6162663102149963,-0.1132185459136962,0.1388338059186935,0.6170900374395922,0.6111901941315353,-0.34149147552155,-0.359207278321239,-0.2227490693330764,-0.8092875480651855,0.1204140782356262,-0.5146877765655518,0.7368244528770447,-0.250432014465332,0.0489249862730503,-0.0750957354903221,0.3642909927874803,0.2713296413421631,-0.4384548378899693,-0.0273641000047326,28
1733461245495298800,-0.3813035023868084,4.284957539334893,-0.5819470707625151,-0.1416800597508903,9.80461995547712,0.1405158748097252,-0.1061125844717025,0.2014164477586746,0.0434886403381824,0.6159282367292346,0.6121935517150084,-0.3435909481879289,-0.3574866787605545,0.139500230550766,-0.2233789563179016,0.089963898062706,-0.5018360614776611,0.3046385645866394,-0.154797077178955,0.0661471337080001,-0.0068941935896873,0.0790741212368011,0.124686986207962,-0.2752595411598682,-0.069659811681509,29
1733461245535298800,0.2860179222678765,2.344745263069868,0.8301303889483213,-0.1601726427069865,9.803882288852334,0.169149711622484,-0.0391746722161769,-0.1019362211227417,-0.086894005537033,0.6172743168513768,0.612371971703323,-0.3411397566331788,-0.3572066523876551,0.1349166631698608,-0.133687674999237,-0.0896697789430618,-0.2432065606117248,0.1300934553146362,-0.0959861278533935,0.0384940057992935,-0.0111353173851966,-0.0709632954955101,-0.006905660033226,-0.2134066769022494,-0.1502864230573177,30
1733461245575298800,0.1800247413801029,0.1071487075984477,0.9381079485863446,-0.1934922901152633,9.80349942701459,0.1560422831702977,0.1067700311541557,0.0059847310185432,-0.0823846608400344,0.6153799676658498,0.6125295568791135,-0.3418356319368564,-0.3595323016980971,0.0305652245879173,-0.0940130278468132,-0.088889941573143,-0.0546489953994751,0.0035304427146911,-0.0591537952423095,0.041667029261589,-0.0144504075869917,-0.1030360115826129,-0.0859148874878883,-0.1657696224638261,-0.1080865729704499,31
1733461245615298800,0.3472439963966607,-0.7803945903986692,0.0913064108222723,-0.2152637760110199,9.803990425401926,0.0762873765951022,0.2616087198257446,0.0703053399920463,-0.032311275601387,0.6130706377588966,0.6159670430137687,-0.3416065398686821,-0.3578183929072541,-0.080579400062561,-0.121315062046051,0.057419404387474,0.10408216714859,-0.0117266178131103,0.0233768224716186,0.0491504557430744,-0.0377896353602409,-0.1231739597260952,-0.0682251527905464,-0.120861417600559,-0.0629527152583003,32
1733461245655299000,0.3229587193153798,-0.6517150189936161,-0.2528571552157402,-0.214471547921095,9.80429905295968,-0.0103551374942937,0.1527098715305328,0.0953867882490158,0.0356529839336872,0.6107369230818707,0.6190217693589023,-0.3425492871581809,-0.3556296634096868,-0.0009556820150464,-0.1675050854682922,0.1633335798978805,0.0823320150375366,0.0123674273490905,-0.0312223434448242,0.0687809437513351,-0.0477215722203254,-0.0898509513169527,-0.0494783818721771,-0.1151955007933545,-0.0998649803310632,33
1733461245695298800,0.3400066655542701,0.4750029458254575,0.29847558157444,-0.2015917542123235,9.804351075407862,-0.0665373322794213,0.1627009212970733,0.2481643855571746,-0.0047260476276278,0.6105235182892927,0.6218344973627036,-0.3416347722853763,-0.3519495666155544,0.0751976817846298,-0.122031345963478,0.1037002131342887,-0.0060164332389831,0.0266545414924621,0.002335786819458,0.058631133288145,-0.0334300994873046,-0.1319593237280845,-0.0797794014215469,-0.1381425515408162,-0.1521416955351829,34
1733461245735298800,0.5670623669721185,2.1409844394564628,0.1329249356235377,-0.2200529282500035,9.803239899295567,-0.1359175233019516,0.1346078813076019,0.0951365381479263,-0.1158560812473297,0.6092932274458737,0.6255838763609549,-0.3399627605433634,-0.3490444564284797,0.1224181875586509,-0.0892631188035011,-0.0799493715167045,-0.1107553839683532,0.0548985004425048,-0.0641601160168647,0.0484813228249549,-0.0191386230289936,-0.1739893702059984,-0.1100804135203361,-0.1610160529948771,-0.2044441297024488,35
1733461245775298800,0.3717036436641588,5.603356013873219,-0.6493126340270042,-0.3013740612286142,9.801386380383372,-0.1112954976801294,-0.3652827739715576,-0.1608381569385528,-0.2764170169830322,0.6084990661000347,0.6261021450116679,-0.3371507011564592,-0.3522135956010855,0.062078408896923,0.274678885936737,-0.3641524612903595,-0.343359887599945,0.2378729581832885,-0.1656883955001831,-0.008427619934082,-0.1146016120910644,-0.044129649105668,-0.1077220737934112,-0.1443391685580834,-0.0853299667611718,36
1733461245815298800,-0.550134576514177,10.734964284324644,-0.526735471150279,-0.418918508901447,9.795911748364569,0.1870580558166839,-1.2113875150680542,-0.2357979863882064,-0.2452816814184188,0.6140956136093217,0.6171955448743812,-0.3309567233845282,-0.3639008328694563,0.7118836045265198,1.0582984685897827,-0.8356011509895325,-1.022477388381958,0.7510837912559509,-0.3302556276321411,-0.0077414792031049,-0.0720819532871246,0.1888216131567955,-0.2302680164575576,-0.1597921189568005,0.1032955393016338,37
1733461245855298800,-1.4612532862901686,7.836214434906839,-0.8358902676492929,-0.4391441718610003,9.756678639128804,0.8858691542398184,-2.142157077789306,0.0039487374015152,0.136875569820404,0.6342501680267538,0.5942637607083489,-0.3188790127028464,-0.3780125994224556,2.1299397945404053,1.073112726211548,-0.9699982404708862,-0.8738092184066772,0.7045129537582397,-0.2081982493400573,-0.0070553384721279,-0.0295622870326042,0.4229220454543829,-0.3528139591217041,-0.1751052407597191,0.2914925908192992,38
1733461245895299000,0.0311976502856239,1.2947142320901155,-0.3467898228883743,-0.3788056942217052,9.65636357694268,1.6677907350100576,-1.6726950407028198,0.0671561062335968,0.1219323202967643,0.659514094961517,0.5678059390158368,-0.3042412719474496,-0.3873948967616898,2.7266972064971924,0.7327789068222046,-1.2712658643722534,-0.2265812754631042,0.3208264112472534,0.2520592212677002,-0.0644953250885009,-0.0504297018051147,0.2646037071108817,-0.3309181034564972,-0.0421192865307908,0.3746352766692638,39
1733461245935298800,0.5015225212974473,-6.474173802518845,-1.2241285377353428,-0.3376692721152678,9.57915408053398,2.072723096396029,-0.5353368520736694,-0.3620277345180511,0.0492700077593326,0.6713499774440714,0.5525452655531986,-0.2983525783356575,-0.3936606670254445,1.2891650199890137,0.4550528228282928,-0.919213593006134,0.5558095574378967,-0.2695328593254089,0.5000115036964417,-0.0798753723502159,-0.0803630203008651,-0.3143102795660495,-0.3313354849815368,0.0601440464791608,0.0352688817799091,40
1733461245975298800,1.0555629461437464,-12.38127369375825,-2.6606220613002773,-0.3404447647105902,9.562699789339304,2.146916313723475,0.0886434689164161,0.6225999593734741,-0.0896340832114219,0.6729558141777127,0.5496263325858702,-0.2974031308519228,-0.3957179746182567,0.5737611651420593,0.5566935539245605,-0.4466226398944855,1.149539351463318,-0.5041661262512207,0.7260401844978333,-0.0473850555717945,-0.1106790006160736,-0.5218962144255638,-0.3396492004394531,0.0406866873112507,-0.1235468846917152,41
1733461246015298800,1.3148039571776986,-14.477740946096182,-5.312215012970566,-0.455884148129262,9.559901098531483,2.137952524414658,-0.2196189165115356,0.4987978041172027,-0.1051854789257049,0.6768187265844169,0.5565212561129098,-0.2850944526202539,-0.3884863061587231,0.0903875529766082,0.2543614208698272,0.3202560245990753,1.409544587135315,-0.5747429132461548,0.4514569342136383,-0.0393587127327919,-0.1053497642278671,-0.3940577700197696,-0.1739345788955688,-0.0036257253496441,-0.090232644110918,42
1733461246055298800,0.4913646633658557,-10.951633689349888,-1.0946943485707044,-0.4765506136588752,9.547883328479529,2.186599943205714,0.0932011678814888,-0.0469184033572673,0.0397844724357128,0.6786913834109788,0.555742869344511,-0.2822486297776886,-0.3884116992138924,-0.9151672124862672,0.0358062759041786,0.900244951248169,1.0047037601470947,-0.6351677775382996,0.4163351655006408,-0.0313323698937892,-0.1000205278396606,-0.2657178058326244,-0.0082199573516845,-0.047940896223206,-0.0571563039392232,43
1733461246095298800,-0.5199166579809039,-4.6196565269351,2.2735499123841523,-0.4124751049157232,9.59346083830595,1.9914209238462148,1.0322935581207275,-0.2080748826265335,0.2376724481582641,0.6732856046149885,0.5609340663574578,-0.2895147050106832,-0.3849943771198194,-1.9142744541168213,-0.6158747673034668,1.155780553817749,0.5954524874687195,-0.420243501663208,0.1853012442588806,-0.0371186733245849,-0.0915056020021438,0.1532271526843309,0.2111484408378601,-0.0460609916275832,0.2296221178397536,44
1733461246135299000,-0.8590499747667462,1.740876867878437,2.831916785594821,-0.2579948651640675,9.69592518748045,1.4466712187081574,1.7124836444854736,-0.1683473438024521,0.4879898130893707,0.658700348988374,0.5761142349587136,-0.30713626092262,-0.3739967287222923,-2.085235118865967,-1.0257539749145508,0.9077910780906676,-0.1505813002586364,0.0547659993171691,-0.0823683589696884,-0.0397563055157661,-0.0404807552695274,0.2579758134037256,0.2997234463691711,-0.0410405422502197,0.0639446489050984,45
1733461246175298800,0.4885796357572078,4.830798692971468,2.2789503101229664,-0.1038614386892411,9.779966575735807,0.7154477787137031,1.970006227493286,0.5443975329399109,0.3374372720718384,0.6414324737435503,0.5996821341824203,-0.3223408929819886,-0.353612962824108,-1.0292913913726809,-0.954842746257782,0.8280401229858398,-0.4555273652076721,0.3837019801139831,-0.0676816031336784,-0.0333839729428291,0.0039198994636535,0.1961550247848033,0.3011847138404846,-0.0841465839291922,-0.024446458992362,46
1733461246215298800,0.7509196357198059,4.549090121802688,-1.1815700834691525,0.0251011623247177,9.806542447972298,0.0383386080814525,1.4010471105575562,0.1437228471040725,0.2842806875705719,0.6249804582954799,0.6216890652638685,-0.3339879956124495,-0.3336976295536719,-0.6075454354286194,-0.9005441665649414,0.616195797920227,-0.4525395631790161,0.3856124877929687,-0.2725799083709717,-0.049527533352375,0.0275989789515733,0.1151198326081037,0.3552447557449341,0.0044280455753207,0.0842956552773714,47
1733461246255298800,1.4388815877452492,4.744073764720559,-0.8871697885096073,0.0739544766681268,9.797858206257224,-0.4085422589788213,0.8797103762626648,0.2487462610006332,-0.0275895055383443,0.6127292959212411,0.6362573216612664,-0.3405972380755895,-0.3220761004201913,-0.2641942501068115,-0.5838431119918823,0.3371939361095428,-0.3906121253967285,0.3052908778190613,-0.0866683721542358,-0.0846381932497024,0.037593774497509,0.1054682071655988,0.3998361825942993,-0.0649453686465509,-0.0047603462696075,48
1733461246295298800,0.3543041440412402,2.8937831669211387,-1.586463720279932,0.0645313947179121,9.787106510618328,-0.6154535459797829,0.218219518661499,0.0908569246530532,-0.0411323271691799,0.6068715404134939,0.6439939853432676,-0.3415423052346826,-0.3167453795428615,0.2555128633975982,-0.3609271645545959,0.0540993735194206,-0.2832096815109253,0.2383953332901001,-0.1547951698303222,-0.1000046804547309,0.0608990900218486,0.0432645567089319,0.3916055858135223,-0.0424331108534708,-0.0462549706965684,49
1733461246335298800,-0.1375082996247336,1.7851736902445554,-0.9483306519150734,0.0399446002396754,9.78585329568684,-0.6370794676586985,-0.0415833815932273,0.212187185883522,-0.0429571866989135,0.6061862661484185,0.6455497882339508,-0.340216817339848,-0.3163166624709893,0.1840418577194214,-0.1509742140769958,-0.1163325458765029,-0.1688684225082397,0.1019526124000549,0.0310628414154052,-0.1153711676597595,0.0842044055461883,-0.016740122398734,0.383374959230423,-0.0191643995367456,-0.0885232098445296,50
1733461246375298800,0.0977784015816636,0.4446732740134,-1.5722003632582724,0.0521583175554173,9.791289349260923,-0.546220069951564,-0.4612760841846466,0.543703556060791,0.0274751745164394,0.6118222371807831,0.6451334036709455,-0.3341442277491095,-0.3127686983989313,0.2540353238582611,-0.0353411883115768,-0.1809940934181213,-0.0520181655883789,0.0593920350074768,-0.0064468383789062,-0.1263092905282974,0.0970571190118789,-0.0129553431630134,0.3886607587337494,-0.0286540941494982,-0.0996402316644787,51
1733461246415298800,0.242035079488065,0.1807119564592838,-0.6764473091900348,0.0496087244041496,9.800564542606471,-0.3418370593192055,-0.5399261713027954,0.3797230720520019,-0.0132981613278388,0.6215487731687811,0.6419713230736904,-0.3245021735473457,-0.3102390707595309,0.2095972895622253,0.0444266609847545,-0.0565489754080772,0.0210832357406616,0.0304548740386962,0.0014952411875128,-0.1372474133968353,0.1099098250269889,-0.0069873746693134,0.3939465880393982,-0.0372320350790396,-0.1114253620043397,52
1733461246455298800,-0.0071657908429857,-0.3518973751604556,0.249420166504383,0.0970981003004591,9.805252408161758,-0.1340500580627937,-0.4141444563865661,0.0381075665354728,0.1905261874198913,0.6307097976533669,0.6362595005059598,-0.3193876938506844,-0.3088210430814848,0.0790424868464469,0.0338426195085048,0.0155696254223585,0.0368746519088745,0.0578906536102294,-0.037950575351715,-0.1433799266815185,0.0953718796372413,-0.0658352849572896,0.3802473545074463,0.0038640915496274,-0.0829492091044783,53
1733461246495298800,-0.0364857102237641,-0.101267832866311,0.4718903667628765,0.1645755173084326,9.80526760573089,-0.007115432912216,-0.3035073578357696,0.1463501304388046,0.1736224740743637,0.6359532453752123,0.6311433450797916,-0.3194070507729692,-0.3085462850714651,0.0696090310811996,0.0264835078269243,0.0181741975247859,0.0132794380187988,0.0140389800071716,-0.0035995841026306,-0.1305568516254425,0.1035677120089531,-0.0595312163770198,0.3072092533111572,-0.0512370882243849,-0.1174979599162936,54
1733461246535298800,0.0220899772603996,-0.2444464697450399,0.192015440762043,0.213290101317875,9.803446235522626,0.131650522640394,-0.3549261391162872,0.6002066135406494,0.1312950849533081,0.6436323531968013,0.6283733590658255,-0.3137429090056188,-0.3040554074601901,0.1746230572462082,0.0256306566298007,0.0802887007594108,0.0229520201683044,-0.0393773317337036,0.0167617779225111,-0.1179797500371933,0.1018010601401329,-0.0651554859995841,0.2321110516786575,-0.0395312336658127,-0.0820616126149892,55
1733461246575298800,0.580889999457635,0.1643792458176612,0.9799182148337364,0.2980813946250826,9.79998937306702,0.2043140005167573,0.061688657850027,0.2751369476318359,0.2456949204206466,0.6506629255110921,0.6281653055587129,-0.3082064793717634,-0.2950506912111511,0.049803901463747,-0.0143888257443904,-0.0164168030023574,-0.0225279927253723,0.0102965831756591,-0.0029919780790805,-0.1054026558995246,0.1000344008207321,-0.0701022947520017,0.1570128500461578,-0.027391974392347,-0.0466869323730468,56
1733461246615298800,0.2501077103771269,-0.2590069100171327,0.0819634129375219,0.4072502829395234,9.796907773664593,0.1585045268316753,0.0726596266031265,-0.1410107016563415,0.3135176599025726,0.650812771048056,0.6279434048443515,-0.3124189464403254,-0.2907304288384243,-0.0157532710582017,-0.1766342967748642,-0.0254363976418972,0.0269861817359924,0.0099137425422668,-0.0583063960075378,-0.1071375831961631,0.080282986164093,-0.0634393297314643,0.1085882037878036,-0.0246014417748083,-0.0039215573579072,57
1733461246655299000,0.8574071029305458,0.1637099682539701,0.1907260037397034,0.5131237464377656,9.792429166945814,0.1242609786446671,0.1446683555841446,-0.1890147030353546,0.2220065891742706,0.6505277830820552,0.6265571733123481,-0.3179474197947465,-0.2883561270945679,-0.2471340298652649,-0.2024066746234893,-0.0618416741490364,0.0199524760246276,0.0022110939025878,0.0003597727045416,-0.1088725104928016,0.0605315715074539,-0.0565887331843376,0.06016356498003,-0.0216367878495133,0.0388783044487237,58
1733461246695298800,0.2935346911061555,-0.1110720185220241,0.3848860370486974,0.5992032529246062,9.788284322226048,0.0284127939236233,0.2737560272216797,-0.2960037291049957,0.2044401466846466,0.6467648049102309,0.6261211841441006,-0.3263795541995148,-0.2883466501195708,-0.4876555502414703,-0.1702218800783157,-0.0330963805317878,0.0179831981658935,-0.035696268081665,0.0088579654693603,-0.1001462116837501,0.0624144747853279,-0.0355950449943542,0.0172433443367481,-0.0312912354367668,0.0620478753730654,59
1733461246735298800,0.7773927782341837,0.0889706613510847,-0.381292980992794,0.640573081928119,9.785464588630198,-0.0688172370772575,0.1625875979661941,-0.3224484324455261,0.0201553180813789,0.642931696179625,0.6271100778411567,-0.332026584722803,-0.2883230295637422,-0.539802074432373,-0.2083468437194824,-0.0582590587437152,0.030489444732666,0.0049015879631042,-0.0470087528228759,-0.091419905424118,0.0642973780632019,-0.0145750533193349,-0.0256768800318241,-0.0409287387390853,0.0852612854391336,60
1733461246775298800,-0.2884350298795849,-0.3483721236437559,-0.6791571526706218,0.6809343914762139,9.78197499294877,-0.1402580367242917,0.1545073837041854,-0.3801819384098053,0.131005123257637,0.6388115230030172,0.6259403160977177,-0.3396319928116857,-0.2911505040053139,-0.4438012838363647,-0.0374904684722423,-0.0042352378368377,-0.0244747400283813,0.0105916857719421,0.0420159064233303,-0.0589415468275547,0.0570122562348842,-0.0189022688686847,-0.0727679431438446,-0.042824361493648,0.0601797434136271,61
1733461246815298800,0.1040918042458593,0.2439636546641588,-0.3200853193035349,0.6797098911825568,9.781454768466949,-0.1774589825453236,0.0421384610235691,-0.1076195761561393,-0.0572908967733383,0.6365037484264874,0.6258904583708248,-0.342504049732298,-0.2929419164146608,-0.2698100507259369,-0.0594723597168922,-0.0257988516241312,0.0146507620811462,-0.0247672796249389,-0.0079616345465183,-0.0208231769502162,0.045923963189125,-0.0975619640856981,-0.0997063368558883,-0.0030784712970023,0.0439200980082154,62
1733461246855298800,0.3396093367997557,0.3033341275215149,0.5902618946433067,0.6466519634503871,9.782838331779836,-0.2197597174570895,0.2519104480743408,-0.1310262382030487,-0.1607176661491394,0.6339554804243237,0.6270295643546383,-0.343567392210605,-0.2947809249489354,-0.4401463568210602,-0.0051605459302663,0.0049145179800689,-0.0266124010086059,-0.0518316030502319,0.0188887044787406,0.0144891627132892,0.0130374580621719,-0.0693581983864307,-0.1157385036349296,-0.0048566005851607,0.0233370364457368,63
1733461246895299000,-0.4198166998501866,-0.0798556270033121,0.33592125940416,0.5841188253110274,9.782207632660866,-0.370936385618709,0.3840881884098053,-0.1759096682071685,-0.0884774029254913,0.6268735310481561,0.6315171399665873,-0.3465524411300082,-0.2968451190545536,-0.7269445657730103,-0.0541969016194343,-0.0021936586126685,-0.0113680958747863,-0.0282685756683349,0.0110406875610351,0.0274623669683933,0.0142050134018063,-0.0464127916067838,-0.1304139494895935,-0.0158430959271965,0.032243981000781,64
1733461246935298800,-0.2286646709844469,-0.1872340517044067,0.6301075097542256,0.5732801089758053,9.77451649363637,-0.5482562154216691,0.5351622700691223,0.1371422111988067,0.0324352234601974,0.620926822766811,0.6373302717410694,-0.3489461446673066,-0.2941031969189508,-0.5874258279800415,-0.111002393066883,0.0703814774751663,0.0089036226272583,0.022551953792572,-0.0463464111089706,0.018206913024187,-0.0028920704498887,-0.0413929176181554,-0.1154655665159225,0.0006778672955231,0.1044333111599087,65
1733461246975298800,0.6460103045459836,0.0532137037932872,-0.2276186690628528,0.5910436926707625,9.763462015658616,-0.7041749818101525,0.2953064739704132,0.1840264201164245,0.0103319063782691,0.6169001273849342,0.6429304787963598,-0.3500618972266177,-0.2890178526408068,-0.3934619426727295,-0.0909088999032974,0.0826710984110832,0.0103128552436828,0.0085976719856262,-0.0217058807611465,0.0089514562860131,-0.0199891589581966,-0.036156770530343,-0.1005171835422515,0.0172367376761045,0.1765542522579431,66
1733461247015298800,-0.2614969732671976,-0.3063865008294582,-0.458612367516756,0.6318499695073813,9.758245742315053,-0.7401341839417814,-0.0034475193824619,0.5943384766578674,0.1239154264330864,0.6185600666963573,0.646085143632481,-0.3468577931090055,-0.2822182169234286,0.0072274128906428,-0.083725020289421,0.0396697036921978,0.0361077189445495,0.0928955674171447,-0.0276346430182456,-0.0097648939117789,-0.0200755596160888,0.0303916311323642,-0.0807999745011329,-0.0095154181424761,0.1745847057506442,67
1733461247055298800,-0.0649481999244541,-0.0168248780727386,-0.2394493190448731,0.6904334567055106,9.753742585676909,-0.7471114756084978,0.0686168223619461,0.5253572463989258,0.0774906352162361,0.622493675440997,0.6494046990356559,-0.3411240534951213,-0.2727809894949042,-0.0759670734405517,-0.0223487485200166,0.1233132034540176,0.0028572678565979,-0.0382678508758544,0.0673030391335487,-0.0125899631530046,-0.0106087801977992,-0.0218137724012136,-0.0793834403157234,0.0010811052010161,0.1382557935237884,68
1733461247283382500,-0.2161121364686638,-0.48820261913836,-1.2442075952984393,0.5858665457611903,9.743139943119884,-0.9478332968521864,-0.6371726989746094,0.2231322079896927,-0.1215180829167366,0.6139466484496275,0.6571527054455426,-0.341286346568143,-0.2733926631905271,0.3888133764266968,0.0453352257609367,-0.1614892482757568,-0.0126798152923583,0.0819855332374572,-0.0423157215118408,0.0004874990554526,-0.0017967283492907,0.0254941299979458,-0.0841905996203422,-0.0873589792375918,0.0402951900759013,69
1733461247323149600,0.1799187967875972,0.1694265923351049,0.5636182178676128,0.5395386559588834,9.763667182841896,-0.7416865279503166,-0.2621268928050995,-0.0657357349991798,-0.1390909105539322,0.6209591426214258,0.6523486485176335,-0.3350473539097701,-0.2767567641888112,0.3994843959808349,0.1333760917186737,-0.1087040603160858,0.0315651893615722,-0.0042914152145385,0.0329159498214721,0.0180942621082067,-0.050267893821001,0.0183773156961076,-0.0718625783920288,-0.0441327863442478,0.0429156884723342,70
1733461247363149800,-0.0945394379267469,0.0643868397146463,-0.2861888583879918,0.4750678642878309,9.771741183704137,-0.6765791188761592,-0.3074885904788971,0.1179966479539871,-0.1380800902843475,0.6217525399467324,0.6508316932465517,-0.3330376003117082,-0.280940919641914,0.2298916429281234,0.2133833616971969,-0.156732901930809,-0.0278226137161254,0.0160199999809265,0.048020139336586,0.013829743489623,-0.0559174455702304,0.0073819269448518,-0.0799759477376937,-0.0469600639257347,0.0362096697613596,71
1733461247403149800,0.1699027219468727,-0.4671685989379882,0.0913280381321907,0.4534874987836927,9.784204359436034,-0.4838276919897645,-0.4484599232673645,0.1213366240262985,-0.0050006583333015,0.6287625859397309,0.6461223615354428,-0.3274053168441133,-0.2828238063814587,0.5621575117111206,0.1898442655801773,-0.1917657852172851,0.0137742757797241,0.0282180309295654,-0.0326559469103813,0.0095652248710393,-0.0615670010447502,-0.0035153146445751,-0.0880893096327781,-0.0497552247693296,0.0294923442050814,72
1733461247443149800,0.2283975444808602,0.0659171180218458,0.3027811698138714,0.4542490212081,9.789514740803837,-0.3597928045853972,-0.2223246842622757,0.0854902639985084,0.0013016599696129,0.6331250635532243,0.6424208601467749,-0.3250227164479746,-0.2842681256725137,0.2327175289392471,0.2705590724945068,-0.1255784481763839,-0.0037092566490173,-0.0708426237106323,0.0836614370346069,0.0053007071837782,-0.0672165527939796,-0.0143149410784244,-0.0962026789784431,-0.0525181090448284,0.0227627436891198,73
1733461247483149800,-0.0986242595549672,-0.4011678942859172,0.0701847123384475,0.4647873298246413,9.791974993437528,-0.2675566020997241,-0.2245021313428878,0.0919309556484222,0.0239370912313461,0.6374089437214839,0.6405194042047601,-0.321522134986506,-0.282963365774498,0.5050202012062073,0.1776904463768005,-0.1082170978188514,0.0282278656959533,-1.055002212524414e-05,-0.0267221853137016,0.0286446213722229,-0.0682901814579963,-0.1241390053659677,-0.1014157831668853,0.0263575807101558,0.0553615294769406,74
1733461247523149800,0.2845293276779353,-0.145884388706088,0.2721113062620163,0.4594688747482374,9.793619253513215,-0.2104604308499023,-0.0716095268726348,-0.0763093009591102,-0.0343492329120636,0.6389250189796153,0.6384394012063005,-0.3211317906266332,-0.2846828409411717,0.3587289750576019,0.2053918540477752,-0.0718116834759712,0.001386284828186,-0.0643172264099121,0.0292292833328247,0.0440403930842876,-0.0681351125240325,-0.0397802217245101,-0.1101898699998855,0.0118255080160219,-0.0220423204600811,75
1733461247563149600,0.5345359888333827,-0.1402262168139219,-0.1129272909998893,0.4243418125918134,9.79589187462032,-0.1755739907826297,-0.0551834627985954,0.083755999803543,-0.1375453472137451,0.6397203802019127,0.6380659995415975,-0.3190980445133393,-0.2860176089167264,0.2221540957689285,0.0588013380765914,-0.1015642508864402,0.0277654528617858,-0.0018004775047302,-0.0536022186279296,0.0298971086740493,-0.0523269325494766,-0.0170849903136491,-0.1279830336570739,-0.0035682686745189,-0.0239423088625073,76
1733461247603149800,0.5487052378308027,0.2109890213012695,1.1094634631574154,0.3681244334705174,9.797072024315597,-0.228547547410801,0.3385979533195495,-0.0411979630589485,-0.1912022233009338,0.6372916949987321,0.6408415393082214,-0.3177653282792287,-0.2867168720441324,0.1281469017267227,0.0811089873313903,-0.0804640278220176,0.009325087070465,-0.0109999179840087,0.0167152862995862,0.0157538205385208,-0.0365187525749206,0.0058610009878873,-0.1457762122154235,-0.018887820218224,-0.0259095172822475,77
1733461247643149800,-0.1638238404246047,-0.1641863535940647,0.0423322442948818,0.3074758669687434,9.795610719591378,-0.3490890762740746,0.2367756515741348,0.0557590872049331,-0.1151245683431625,0.632243632268013,0.6455060251047017,-0.3179945934024542,-0.2871749334284834,0.3833525776863098,0.09529410302639,-0.0803245455026626,-0.0105199813842773,-0.0042288303375244,0.0112514495849609,0.0095042940229177,-0.0294643603265285,-0.0179383922725915,-0.1647288799285888,0.0021608678283169,-0.0114899467855691,78
1733461247683149800,-0.0289320434411987,-0.1465676947951316,0.1130816047787666,0.2719435302133672,9.793105458772182,-0.4376453481379896,0.2491542547941208,0.1623173356056213,-0.0551428273320198,0.6296992929872892,0.6499340646608512,-0.3160686867890178,-0.2848950024961934,0.3970047235488891,0.0327709652483463,-0.0698841586709022,-0.0015910267829895,-0.0149003267288208,-0.0314196348190307,0.012582367286086,-0.0229952204972505,-0.028204350221157,-0.1783394962549209,-0.005790529567562,-0.0336640769317746,79
1733461247723149800,0.4168292084719985,-0.1637105527758598,0.3237620350548997,0.2530983800930902,9.788251004478337,-0.544477464067936,0.2735488712787628,0.2489182204008102,-0.0948350206017494,0.6267261228345343,0.6546208404673205,-0.3150113970035429,-0.2818752991684832,0.4163680374622345,0.0209244228899478,-0.098412737250328,-0.0127199292182922,-0.0045760869979858,-0.0495950579643249,0.037345215678215,-0.0329634845256805,-0.0577577769637107,-0.2011262327432632,0.0238299984612967,-0.0419964364692568,80
1733461247763149800,-0.4740498098190873,-0.124645785844326,-0.1633435460943728,0.2498926976532675,9.7818089887321,-0.6512840802304446,0.2580276131629944,0.5885534882545471,0.0780220329761505,0.6256367046530246,0.660951380301814,-0.3104021894866656,-0.2745406497413115,0.2605549991130829,-0.0430079512298107,-0.0946468263864517,0.0232881903648376,0.0597925186157226,-0.0226588267832994,0.0545600280165672,-0.0394858866930007,-0.0181476511090993,-0.209894597530365,-0.0148828132274094,-0.0194745157986879,81
1733461247803149800,0.5224428885228931,0.0659948594331741,-0.4805892215251922,0.3288454757990315,9.77552070224285,-0.708131975807622,0.1122126728296279,1.1308894157409668,0.1592309772968292,0.6290509832418082,0.6664193081848465,-0.3032985124980728,-0.2611325526890302,0.349942684173584,-0.0445730909705162,-0.0498121120035648,0.0079152584075927,0.034257173538208,-0.0304816961288452,0.0590851940214633,-0.0353053957223892,-0.0453460391581058,-0.2086608558893203,0.011023406986054,0.0184618316248059,82
1733461247843149600,-0.7607645917773246,0.2402548632740974,-0.3148047850847244,0.4780991582751274,9.767358438575268,-0.7352022074323147,0.1649769246578216,1.464087724685669,0.4602122902870178,0.6364024266624863,0.6725849166911655,-0.2917437436655928,-0.2398063798836661,0.3675776124000549,-0.0263682566583156,-0.0567272752523422,0.0038021206855773,0.0220442414283752,0.0035275816917419,0.0588812045753002,-0.0411558970808982,-0.0364157137274742,-0.2115277349948883,-0.0037784956254065,0.0123988783240318,83
1733461247883149800,-1.3159417290359734,0.3142266929358244,-0.1172001460134983,0.7860751202531159,9.7448619446069,-0.7682054823677986,0.1872270852327346,2.072459936141968,0.8937972784042358,0.6466119803821516,0.679172353260875,-0.2790922647806564,-0.20670117481532,0.4739991128444671,-0.0507359653711319,-0.1455166041851043,0.0132359862327575,0.0272313356399536,0.0027268528938293,0.0602319687604904,-0.0426636114716529,-0.0212169755518436,-0.2332541346549987,-0.0197208643757272,0.0024444705426692,84
1733461247923149800,-1.346871266437322,-0.2275263146042823,0.1306160924255847,1.2587348639532925,9.696294605314732,-0.7535573638122528,0.1831747740507125,1.879499435424805,1.155177116394043,0.659720520553793,0.6840231618336526,-0.265580585161603,-0.1623210336188977,0.2706800997257232,-0.0116224931553006,-0.1436237543821334,0.0043994784355163,0.010420799255371,0.0302709937095642,0.0484074652194976,-0.0350950248539447,-0.02170855846107,-0.2586740851402282,-0.0099618695686105,0.0123883569300174,85
1733461247963149800,0.0501570927016437,-0.0656435617774724,-0.3395358331721276,1.7767684116013347,9.623594695284964,-0.6323601840518415,-0.161772534251213,1.467470645904541,0.871633768081665,0.673324122793951,0.6830652930868428,-0.2562483243343774,-0.1199712518410401,0.2051002830266952,0.0167315453290939,-0.1339922994375229,-0.0061356425285339,0.0118686556816101,0.0081559345126152,0.0367729812860488,-0.0457137078046798,-0.0335778599530458,-0.2710351645946502,-0.0087317706512287,0.0034174072280526,86
1733461248003149800,-0.7841364072754978,-0.1267284373372793,0.0513303742647171,2.2155698709718883,9.54297392912805,-0.4396397733582183,-0.0548602864146232,1.8827425241470337,1.2530195713043213,0.6861423106077407,0.6795366514540437,-0.246262723356331,-0.0824218234816537,0.237174853682518,0.0298261474817991,-0.106268398463726,0.0213156342506408,-0.0017058849334716,-0.0061933323740959,0.0251384973526,-0.0563323870301246,-0.0444008672624826,-0.2833962738513946,-0.0072869604040868,-0.006003332068026,87
1733461248043149800,-0.3051856006070971,-0.2474783847868442,-1.1141969214200973,2.723778190176189,9.41846784401536,-0.2094974675692617,-0.4149701297283172,1.7879955768585205,1.2384859323501587,0.6983538637080129,0.6739265248338185,-0.2377066208458815,-0.0402555663641771,0.1826442331075668,0.00181480566971,-0.0391691178083419,0.0190322995185852,-0.0185609459877014,-0.0071881338953971,0.0299760363996028,-0.0540745481848716,-0.0253331786990165,-0.2851355373859405,-0.0187394064571708,5.17301872372e-05,88
1733461248083149600,-0.2920484711363911,-0.0167003749102354,-0.3333773836076259,3.155513656683266,9.282559490400551,0.2172587492205202,-0.7261117696762085,1.3346822261810305,1.135272741317749,0.71485856958813,0.6596688713334771,-0.2318617406036516,-0.0073702699152175,-0.0382465943694114,-0.0423376336693763,-0.0147050563246011,0.0193860530853271,-0.0142614841461181,-0.0087678954005241,0.0316687040030956,-0.0560377053916454,-0.0233358674019575,-0.2738788425922394,-0.007635317184031,0.0029416064098477,89
1733461248123149800,-0.5912362926334143,-0.1329635323345661,0.7039250987023115,3.5809956157535314,9.110770845109224,0.583706262454763,-0.2417970597743988,1.7680435180664062,1.3661926984786987,0.7272953429312302,0.6474896681343463,-0.2258238082550713,0.0283237938209142,0.0543973222374916,-0.0372402891516685,-0.0346308276057243,0.0223873853683471,0.0048081278800964,0.0114520788192749,0.0397785864770412,-0.0446603149175643,-0.0087450319916009,-0.2858026921749115,-0.0269429337169043,-0.0054445291414856,90
1733461248163149800,-0.6750754363149404,-0.1700929472893476,-0.4777642272323369,4.052097170226276,8.87765474767387,0.9685755675643682,-0.3600325286388397,1.992030382156372,1.5559041500091553,0.7377029601613672,0.6348500431704135,-0.2181325564927246,0.0719578124343278,0.0062937084585428,0.032089352607727,-0.0485483072698116,0.0110865831375122,0.0145216584205627,0.0466952919960022,0.0478884726762771,-0.033282920718193,0.0068821607291698,-0.2977265417575836,-0.046012923835311,-0.0143348148226737,91
1733461248203149800,-0.706079938648641,-0.1904407387912273,-0.6593026976436376,4.537999695728719,8.56580705882907,1.4845542285092177,-0.3505207598209381,2.553172826766968,1.958024263381958,0.7484409630436909,0.6178681688881386,-0.2062709919936289,0.1246090059109221,0.116974152624607,0.0200805217027664,-0.0786960870027542,0.0343872308731079,0.0528634190559387,-0.0041756555438041,0.0528949983417987,-0.0349725373089313,-0.0122749596834182,-0.3178615868091583,-0.0160545330210588,0.0058612932488322,92
1733461248243149800,-0.8144716320455074,-0.4218289895206689,-0.8895464545130729,5.067770881313085,8.115895299640297,2.1494947859093547,-0.6683452725410461,2.7051591873168945,2.25872540473938,0.7580593489792246,0.5938040492525131,-0.194429979016472,0.1869218379262034,0.1268872320652008,0.032766118645668,-0.0547634586691856,0.0469900965690612,0.0516054630279541,0.0034724473953247,0.0481456480920314,-0.0393818244338035,-0.0037052842587232,-0.3345315158367157,-0.0264781474830582,0.0234068868115544,93
1733461248283149800,-1.2411159128934144,-0.6045201370984316,0.2141001390591263,5.544992087709903,7.531393868219852,2.9498373548373578,-0.6354113817214966,2.8335177898406982,2.646707057952881,0.7656797777096805,0.5621368519137743,-0.1833093396831062,0.2532473369382064,0.1297432035207748,0.0995321497321128,-0.0405089557170867,0.0207711458206176,0.0461301207542419,0.0094959139823913,0.0577418431639671,-0.0377864465117454,-0.0123784200578928,-0.3697991073131561,-0.041367107323464,-0.0046352585852146,94
1733461248323149600,-1.5404039798945188,-0.9537631983578204,0.395730087146163,6.001849135991931,6.778706199914216,3.7679359452083694,-0.5270485877990723,2.7597694396972656,3.240784883499145,0.7649997915234943,0.5265666561956746,-0.1749750951710244,0.3269353285262405,0.2018115371465683,0.1421177983283996,0.0495208650827407,0.0281493067741394,0.0196213722229003,0.0126935914158821,0.0673380345106124,-0.0361910685896873,-0.0192407070428133,-0.4050667285919189,-0.0558518154782243,-0.0336924262434244,95
1733461248363149800,-1.6177525925129652,-1.2097522218585013,0.5571154118448496,6.407053738448023,5.842831709468364,4.580542075642943,-0.3475186228752136,2.7519640922546387,3.629166841506958,0.7543270676602478,0.4869804063315604,-0.1711941218310431,0.4056271283264572,0.2152168303728103,0.1677625030279159,0.0513383410871028,0.0037561655044555,-0.0054587125778198,-0.0032413452863693,0.0679229870438575,-0.0314087830483913,-0.098988782018423,-0.4219892024993896,0.0065529105084948,-0.1218067630261182,96
1733461248403149800,-0.4887614220649003,-1.3349696701109408,1.2459867338001729,6.747203977191448,4.922829910936952,5.139198871710896,0.6870667338371277,1.7406634092330933,3.460683822631836,0.728719351857544,0.4569960411712302,-0.1706704455393423,0.4806186502439385,0.1794532388448715,0.2498572021722793,0.0965040251612663,-0.0049929022789001,-0.0051491856575012,-0.0102250427007675,0.0584233291447162,-0.0142104811966419,-0.098470311102271,-0.3922527730464935,-0.0039809228623285,-0.0969072995692491,97
1733461248443149800,2.0055542247474194,-1.2407049940049648,-0.7181880173325538,6.896985373336077,4.326980863811076,5.466189184629917,1.032844066619873,2.6362881660461426,2.363297939300537,0.6961586607613115,0.4421130515838186,-0.160741928635317,0.5422742134654207,-0.0702567249536514,0.2723813056945801,0.1063714325428009,-0.030253529548645,-0.0288566350936889,0.0353451967239379,0.0489236712455749,0.0029878225177526,-0.095896661221981,-0.362516313791275,-0.0141191079790703,-0.0733241794079542,98
1733461248483149800,0.5439946489870547,-1.8295853711619967,-0.6562661064267158,6.406971320861578,3.9611730367198574,6.279347980511188,0.7362337112426758,4.181983947753906,2.110863447189331,0.6734197240344534,0.4070079655392152,-0.1191086799257737,0.6055274537072172,-0.2733086347579956,0.4599095582962036,0.279188871383667,0.0306043624877929,-0.0789279341697692,0.0580817461013793,0.0383785478770732,-0.0018881424330174,-0.108379126176238,-0.3335545659065246,0.0018589257396757,-0.080460022637248,99
1733461248523149800,-1.790101794296503,-0.802827371481061,4.076023112475872,6.366019717270135,3.380185458639264,6.649701049816608,0.7054697871208191,0.8955785036087036,2.740474939346313,0.6452274381941479,0.3840455079166183,-0.1160544519391773,0.6501707516070134,-0.2386215031147003,0.3521012961864471,0.3294009268283844,-0.0170880556106567,-0.1152797937393188,0.0305866003036499,0.0303938947618007,0.0008406590204685,-0.0933598362207412,-0.2762210071086883,0.004697802427411,-0.0359749842226505,100
1733461248563149600,-0.6919523368358612,-2.1607500471562147,0.5964683480679989,6.494299475702643,3.050345016986132,6.685046503964066,1.690757393836975,0.3388923704624176,2.8237650394439697,0.5975765913777252,0.3844185905333084,-0.1066762881065042,0.6955175656559539,-0.2724084854125976,0.2959369421005249,0.4592629969120025,0.0316126942634582,-0.0968313813209533,-0.0084140300750732,0.0224092416465282,0.0035694607067853,-0.0773971279352903,-0.2188874632120132,0.0076639404903165,0.0078524670660495,101
1733461248603149800,0.6095388420432806,-0.8709951910391449,-1.0213795215129853,6.749039960446954,2.706450331017374,6.579967588376999,0.4933814108371734,0.2570716142654419,2.064249277114868,0.5543432199351541,0.390884457137754,-0.1082791506458865,0.7267658234803671,-0.3786771595478058,0.2788688242435455,0.5503369569778442,-0.0162127614021301,-0.0528407096862793,0.0146995037794113,0.0067477356642484,0.0036988740321248,-0.124696054726839,-0.1952834576368332,0.0216886847168207,-0.0617734423458576,102
1733461248755701000,2.7742022632509467,0.5057206671070307,0.6768968065232038,6.163202896508574,0.3927034693339839,7.617814845088124,0.2692857086658478,1.1982202529907229,2.6771414279937744,0.402425458691542,0.3105445357118094,-0.123132591736386,0.8523228569558163,-0.096848651766777,-0.1676360070705413,0.3173584938049316,-0.0437045097351074,0.0200711488723754,-0.1082051396369934,-0.040498174726963,0.0489554777741432,-0.2054021610796451,-0.1485376060009002,-0.0136651308336062,-0.2274269641493447,103
1733461248795701000,2.249286993265152,0.4225498146085068,1.2548837414830922,5.993500409841537,0.0051145026026759,7.761978985872864,0.4872018694877624,0.0617208667099475,1.4936165809631348,0.3657440481630116,0.2978998467409866,-0.1245186715594163,0.8729159045849393,-0.1247069165110588,-0.2297979742288589,0.1774960160255432,-0.0312214493751525,-0.0263150334358215,-0.0074337795376777,-0.0420907773077487,0.0236913878470659,-0.1942506524682045,-0.1296375691890716,-0.0058075355012901,-0.1144493860006332,104
1733461248835701000,0.4550216495484113,0.3633064387295395,1.1341133357673885,5.9556023486018175,-0.1407954498029313,7.789823855131864,0.4160412549972534,0.2564652860164642,1.2714289426803589,0.3414576453589297,0.2962932144300481,-0.1226370335257969,0.883502727130491,-0.1390424519777298,-0.252228170633316,0.1841700226068496,-0.0208872556686401,-0.0581260919570922,-0.0134220719337463,-0.0670571029186248,0.0326536819338798,-0.1252455053031444,-0.1080370545387268,-0.0386944540481083,-0.0908253493070602,105
1733461248994263000,0.7355237675368785,-0.1202402352286036,0.5305763644874095,5.213917720347642,-0.0350836796724237,8.30567377513051,0.9813063144683838,1.0771665573120115,0.5390753149986267,0.2723260096605883,0.2647638953583331,-0.0801784458390867,0.921580160302899,-0.2518755197525024,-0.2242465019226074,0.0052645243704319,-0.0251395106315612,0.0294913649559021,-0.0242092628031969,-0.1120835542678833,0.0061661615036427,-0.1901257362916134,-0.050848439335823,-0.0215043182929744,-0.1266266026643104,106
1733461249034263000,1.37098440182209,0.8630922358948737,-2.7590011869877573,4.96856231906414,0.1423227689680643,8.453609835669397,0.3624974489212036,0.3508991599082947,0.2481691688299179,0.259953585968202,0.2548624219876275,-0.0634901863507783,0.9292138260711492,-0.1799206435680389,-0.173798456788063,0.0232303403317928,-0.0235648155212402,-0.0120409727096557,0.0004854202270507,-0.060823917388916,-0.0179050303995609,-0.1191203004211187,-0.0420380309224128,-0.0125994789300486,-0.1156108309954404,107
1733461249074263000,1.4053420139759778,0.2510810123886913,-1.743316077724099,4.855046414521336,0.0963775218077935,8.519954239192604,-0.3412342667579651,0.2760696113109588,-0.1428519785404205,0.2607276497465047,0.2479609065923987,-0.0641763716420897,0.9308157650134729,-0.1694363057613372,-0.163539856672287,0.0452912338078022,-0.0031062364578247,-0.0011563301086425,-0.0102632045745849,-0.0387750193476676,-0.0166026465594768,-0.0513666146218776,-0.0370668023824691,-0.0057921552690677,-0.0085445409834384,108
1733461249232971300,0.6739215901046991,0.0426299120672047,0.1241448505848646,4.282524759230017,-0.5774346348393709,8.803234589722752,-0.2028830200433731,0.3771318793296814,0.3163945078849792,0.2552663167753627,0.2084028896282734,-0.0879101134812398,0.9400421439227418,-0.075124979019165,-0.3146847188472748,0.1737128049135208,-0.0179046988487243,-0.0293772220611572,-0.0057418309152126,0.0135509641841053,-0.0154065880924463,-0.0570018303301418,-0.0690986737608909,0.0274146794144995,-0.0820360123828519,109
1733461249272971300,0.5744947089299559,0.1099926988527178,0.2640910814136266,4.247726709832251,-0.6989662341859191,8.811279949012398,-0.1913556456565857,-0.0879217088222503,0.1628017276525497,0.2518821898073498,0.2052744904562038,-0.0928016326207144,0.9411725465189154,-0.0430450774729251,-0.3156341910362243,0.1149091944098472,-0.0173127055168151,0.0113633275032043,-0.0226613245904445,0.0277590658515691,-0.0473265051841735,-0.0452238740831613,-0.0846293941140174,0.012121705350466,-0.0447141709953546,110
1733461249312971300,0.644775575119257,0.1484396261468529,-0.0281727860391139,4.256304860824346,-0.7624026413079351,8.801874407285451,-0.1328536421060562,0.0853036493062973,0.0150396516546607,0.2512111986940666,0.2049636764242765,-0.0960165395317153,0.941097114419238,-0.0444413758814334,-0.3493580222129822,0.0900673642754554,-0.0085687041282653,0.0056502223014831,-0.015954852104187,0.0336596965789794,-0.0541414208710193,-0.0332002588123083,-0.0872242450714111,0.0100781072262674,-0.0132914432495832,111
1733461249471562500,0.162048464782536,0.0112607411395758,-0.2916629789501428,4.172952916137874,-0.949638154317066,8.823550232520699,-0.1485350281000137,-0.0014370887074619,-0.0039578326977789,0.2512037096287731,0.1981223300241565,-0.1042673754193467,0.9416860739124704,0.5637649893760681,-0.3982533812522888,0.2928011417388916,-0.0072280764579772,0.070324420928955,-0.0619078874588012,0.0624350681900978,-0.0840526446700096,-0.0333339613447082,-0.0214060191065073,0.005834865895388,-0.0117819497187971,112
1733461249511562200,0.2838596117228269,0.0774137868091464,-0.4975584765046835,4.154840336342156,-1.0208787323839963,8.82414235319495,-0.2576645612716675,0.0940905213356018,-0.0201888717710971,0.252154206249553,0.1961348252515263,-0.1078196041018705,0.9414480196126702,1.2911373376846311,-0.559165894985199,0.1676348596811294,0.0291944742202758,0.1510398387908935,-0.0970884561538696,0.0523128323256969,-0.061549924314022,-0.0148036013782024,-0.0337950512766838,-0.0138138962211087,0.0278103824675083,113
1733461249551562200,-0.2457467386886477,0.0428165206804871,-0.7987561765193939,4.12584980417937,-1.1220028459306806,8.825466295275092,-0.3361974656581878,0.1051969677209854,0.0285288672894239,0.2536504408707977,0.1931163078745007,-0.1128384918525049,0.9410818890028472,0.8969525098800659,-0.5810235738754272,0.1486432552337646,-2.3543834686279297e-05,-0.0141893625259399,0.0450009144842624,0.0416138730943203,-0.0328447483479976,0.0015168343037366,-0.0644447952508926,-0.0190991431476548,-0.0252227040618658,114
1733461249789688000,-0.2742760830804705,-0.2042775409638881,0.951309375464916,3.5622631504938003,-2.8953157833158967,8.66589941817522,-0.3819555044174194,0.0634851902723312,0.1024530306458473,0.2523653672111777,0.1411557484204162,-0.1955432217975008,0.9370964022409776,0.1006886586546897,-0.2678127586841583,0.2381540387868881,-0.0388146042823791,-0.0160737037658691,-0.0112553909420967,-0.0254129152745008,-0.0079732229933142,0.0267407165425363,-0.0971674919128418,-0.0173698591115477,0.0091544850087491,115
1733461249829453600,0.1759112781792879,0.0743123136624693,0.3873118028908968,3.547371286310255,-3.02292129574865,8.628353823634981,-0.2683870792388916,-0.0337618850171566,0.071088783442974,0.2512763135648967,0.1389776932632261,-0.2018950032886825,0.9363673548933488,0.046842198818922,-0.17659492790699,0.1522166132926941,-0.073434293270111,-0.0071532130241394,0.0238407328724861,-0.0350822247564792,-0.0101010743528604,0.0224131584998918,-0.0765619054436683,-0.0279345431367168,-0.0383245156240183,116
1733461249869453300,0.5306932688653468,0.0046986792102456,0.2110275997459888,3.453108656030893,-3.1363144506946203,8.62612036549449,-0.3150702118873596,0.3864773213863373,0.1799437850713729,0.2509743427163227,0.1327154493827542,-0.206341624870717,0.9363874796077092,-0.032902430742979,-0.1868714392185211,0.0972987115383148,-0.029505968093872,-0.0353268980979919,0.0031852796673774,-0.0225892327725887,-0.0182538982480764,0.0065226797670125,-0.0818456634879112,-0.0182826391329988,-0.0409136096686124,117
1733461249909453300,0.828788034428656,-0.2268608364328742,0.2344821250915527,3.345951472865045,-3.2661297481313345,8.620173439788818,-0.3300701379776001,0.1046381071209907,0.024105867370963,0.2500369910203493,0.1257271165827811,-0.2113910094926795,0.93647643408785,0.001737040001899,-0.2215660810470581,0.1116680577397346,-0.0131163001060485,-0.0067498087882995,-0.0142077170312404,-0.0100962407886981,-0.0264067221432924,-0.0093026658743619,-0.0871294140815734,-0.0086336075063794,-0.0435614938288927,118
1733461249949453600,0.1787912175297737,-0.1600572909653186,0.1448199743449688,3.498852170073986,-3.3250025005996227,8.536555245381594,-0.1336013227701187,-0.7280940413475037,-0.3762377202510834,0.2525712832404954,0.1322796078863059,-0.2173911493544166,0.9335153696597852,-0.0424866154789924,-0.1272944957017898,0.1711546331644058,-0.0095452666282653,-0.0239304304122924,0.0164659060537815,-0.0107112471014261,-0.0182235538959503,-0.0328495456784963,-0.0875501483678817,0.0051563963824883,-0.0450958637893199,119
1733461249989453600,-0.8232952822312712,-0.0924798385158181,0.2112146467506885,3.6713477945908894,-3.350980406942964,8.45355079895854,-0.1983639746904373,0.0582578778266906,0.1261597871780395,0.2546744992673221,0.1403826023900335,-0.2219945465941668,0.9306729767602552,-0.2989751398563385,-0.059134192764759,0.1901426315307617,-0.0233382880687713,-0.0672494769096374,0.0589001849293708,-0.0113262543454766,-0.010040383785963,-0.0563350506842136,-0.08797088265419,0.0189500170005485,-0.0466851788073778,120
1733461250029453600,0.1471723826900124,0.3128074737876653,0.3585153319954872,3.5183503590092062,-3.429609122499824,8.487011754533649,-0.0338440500199794,0.2667731344699859,0.3166252672672272,0.2508347775105732,0.1323439048404721,-0.2230872094461275,0.9326301526602888,-0.1498349159955978,-0.1741865277290344,0.1045650094747543,-0.0181512832641601,0.0003294944763183,-0.0625085234642028,-0.0165479816496372,-0.0188433229923248,-0.0593465074598789,-0.1014237403869628,0.0368469447515904,-0.0821668265551328,121
1733461250069453600,0.7911302116855978,0.1754901301577687,-0.0814835204660892,3.463964981088042,-3.4981931216433644,8.481390407520532,-0.2507263720035553,0.0605567395687103,-0.0437529534101486,0.2493119609676359,0.1290099293003683,-0.2256676357437981,0.9328849014875484,0.0423206835985183,-0.2398320585489273,0.058408435434103,-0.0170712769031524,0.0260794758796691,-0.0096980854868888,-0.0104975122958421,-0.0198383182287216,-0.0937473742336034,-0.0826762691140174,0.0478581681095063,-0.1153659163236617,122
1733461250109453300,-0.3182002727419137,-0.1702770716845989,0.3840618611842393,3.4544548099428414,-3.556447449952364,8.461016897055506,-0.0909308046102523,-0.0353668928146362,0.0576330162584781,0.2503284425256785,0.1275184051104396,-0.2287952294395605,0.9320554624258546,0.0504545122385025,-0.3255072832107544,0.1318919658660888,0.0280477106571197,-0.0031178593635559,-0.0197494626045227,-0.0044470424763858,-0.0208333153277635,-0.12806991507411,-0.063928797841072,0.0588642403682693,-0.1486439165472984,123
1733461250149453300,0.1397808111339807,-0.1317038876622915,0.0630097061425447,3.4540652261033653,-3.592027881899476,8.446132047134638,-0.0825820043683052,0.0222576037049293,0.0815378054976463,0.2485649940833,0.1274738394603057,-0.2304723770908002,0.9321203040612877,0.1485480517148971,-0.3809444010257721,0.3101842105388641,0.0500882565975189,-0.0349608063697814,-0.0348690152168273,0.010887349024415,-0.0132298860698938,-0.1076484738141298,-0.0469497218728065,0.0163199607579037,-0.1378279235005378,124
1733461250189453300,0.2975581744685769,-0.1456800983056426,0.1203840367466211,3.4332065624699,-3.623990415610373,8.44098182476461,-0.033347014337778,0.0580185018479824,0.0538285933434963,0.2479682894508241,0.1261308308196227,-0.2317772980680162,0.9321384626739396,0.5461292862892151,-0.4108023941516876,0.4813624322414398,0.0495528876781463,-0.0074920654296875,-0.0387212038040161,0.0220320243388414,-0.0118583235889673,-0.1408423028856515,-0.0464536435902118,0.0239343082191422,-0.1281950027585029,125
1733461250229453600,0.3736354519769549,0.0349283977791666,-0.1434931096553802,3.407856432636082,-3.6483772533699854,8.440748600530624,-0.0714559853076934,0.0614624731242656,0.0772893652319908,0.2467405209284454,0.1248112000860655,-0.2325161326408993,0.932457704862708,1.8046048879623413,-0.6688947677612305,0.6524117588996887,0.0273882448673248,0.0409238934516906,-0.0877706259489059,0.033176701515913,-0.0104867601767182,-0.1740004761219024,-0.0459575653076171,0.0315722557516768,-0.1186006604611873,126
1733461250269453600,0.339179347884655,0.1592825072005391,0.1026888055801391,3.35432562571764,-3.673371993894875,8.451344228824972,-0.0126348845660686,0.1401654928922653,0.010536216199398,0.2466908906583921,0.1217327158381658,-0.2329860440209593,0.9327605895208294,1.6920232772827148,-0.7247470617294312,0.7962382435798645,-0.0206182301044464,-0.1915384531021118,-0.1331948488950729,0.0522046610713005,-0.0111515829339623,-0.1313525900065899,-0.0287777800112962,-0.0130280065404251,-0.0854798966258764,127
1733461250425715200,0.3880558992564678,0.0720396925553679,0.0343207872748374,3.30993820245862,-3.708682376728952,8.453423373186588,-0.0205835998058319,0.0160020664334297,0.0243165530264377,0.2445174026976651,0.1195298670386532,-0.2338973228116982,0.9333895055200542,-0.6778464913368225,-0.2030350565910339,0.0170231126248836,-0.0297148525714874,-0.0105435252189636,-0.0620071738958358,0.0266037564724683,0.0219340324401855,-0.1600204660862684,-0.0120947193354368,-0.0402977793252095,-0.0498524837318807,128
1733461250465715500,0.1827721038594842,0.0248646844044327,-0.078005615222454,3.314258988267183,-3.7107378479540345,8.45082809599638,-0.0031570261344313,-0.0127937905490398,-0.0160881895571947,0.2445451225168766,0.1197203916975066,-0.2340826825706307,0.9333113369735564,-3.1426422595977783,-0.3682801723480224,-0.1551720201969146,0.0269987881183624,-0.1611234545707702,-0.0628645569086074,0.0297805182635784,0.0035476200282573,-0.1162795240372419,0.0033288393169641,-0.0466015739108435,-0.0148515321731567,129
1733461250505715500,0.0768695969298481,0.0103837391093373,0.0221159702181816,3.3017978583619,-3.7130166065409775,8.454704060646892,-0.0104841068387031,0.0755650699138641,0.0556887090206146,0.2441660014709196,0.1191417679262668,-0.2339557351919107,0.9335164619774656,-1.0645554065704346,-0.3148983120918274,0.0019498872570693,0.0262421369552612,0.0674530267715454,-0.2638629078865051,0.0329572819173336,-0.0148387905210256,-0.0725426736414432,0.0187523979693651,-0.0529064279424026,0.0201367790997028,130
1733461250545715500,0.4819344986543059,-0.0626706834465265,0.1742348693996668,3.288484495541453,-3.707299105677008,8.462398706802725,0.0958494171500206,-0.0247810278087854,-0.0388787984848022,0.2437584341636899,0.1186274057879611,-0.2333779744576216,0.93383308899264,0.0269787460565567,-0.36272132396698,0.3135080337524414,0.0396362543106079,-0.0549138188362121,0.1375603079795837,0.0185680985450744,-0.0101983752101659,-0.0792436325848102,0.0231369510293006,-0.0349102776005864,-0.0033510639935731,131
1733461250585715200,0.3154071348920464,-0.1178840366244316,-0.2565098325043916,3.327220761170983,-3.6751296512171625,8.46128869973421,0.0131174549460411,-0.084480233490467,-0.1046515181660652,0.2447640574238209,0.1207882669452295,-0.2323887372249591,0.9335396371565602,-1.1789530515670776,-0.424800306558609,-0.1075918525457382,0.0066778659820556,0.077771246433258,-0.0841795206069946,0.0041789161041378,-0.005557959433645,-0.0859364082217216,0.0275215059518814,-0.0169193879557773,-0.0268482594370841,132
1733461250625715200,0.1658528255015611,0.1002469653859734,-0.1104629467129707,3.3810075886771083,-3.643815060020983,8.453506959816814,0.0355184040963649,-0.0491143688559532,-0.1758289188146591,0.2472205893481099,0.1233598353352783,-0.2318909939776752,0.9326794122422992,-0.4367316663265228,-0.4282265901565552,0.2068305313587188,0.019861489534378,-0.0371742248535156,0.235274851322174,0.027719710022211,-0.0094102015718817,-0.0931160905927419,0.017697587609291,0.0212380548724904,-0.0328086291462183,133
1733461250783539700,0.1391691089764237,0.045312136888504,0.0406628497779369,3.3363141682088373,-3.6247929641649126,8.479402448573708,0.0316400304436683,-0.0522269234061241,-0.0127516975626349,0.2456621224820717,0.121675800016906,-0.2299255909278058,0.9337984031930014,2.98868179321289,0.6519185304641724,-0.1408375650644302,-0.034016877412796,0.1491339802742004,0.0570418089628219,0.0321192480623722,-0.0062815099954605,-0.0718026506627909,0.0009090731618925,-0.002134600305077,-0.0547948583377758,134
1733461250823539700,0.0459992423698306,0.022364976543188,-0.0619172347307205,3.35675986712724,-3.614116379588842,8.475890056538582,0.0348813645541667,-0.053119346499443,0.0107778627425432,0.2453094056843534,0.1229560857453226,-0.2296338123664482,0.9337951308143358,1.4319841861724854,0.4450141489505768,-0.123646393418312,-0.0161446928977966,-0.0602136254310607,0.0059786438941955,0.0308639742434024,-0.0010263700969517,-0.040392216143012,0.0140245966613292,-0.0001672097930684,-0.001713818180561,135
1733461250863539700,0.1251747781544923,-0.0324631767094135,-0.1315010585665702,3.363476315900684,-3.609267185992002,8.475293844211102,0.0074829095974564,-0.0299453698098659,0.0053701447322964,0.244883903179055,0.1234697677374376,-0.2294242737554603,0.9338906003544352,-0.328384667634964,0.0996003821492195,0.1785773932933807,0.105042815208435,-0.2267637252807617,-0.0474678874015808,0.0296087004244327,0.0042287702672183,-0.0089782562255859,0.0271401181817054,0.0017877784659154,0.051347325399518,136
1733461251022091500,0.1962967713430523,0.1325353700503707,-0.1156944176256656,3.38378289860934,-3.555644901397824,8.489863636833428,0.0483779720962047,-0.0543905161321163,-0.0945504158735275,0.2462262349292744,0.1248730397786323,-0.227033346298164,0.933935330264899,-0.9516248106956482,-0.2048846781253814,0.0354697629809379,-0.0442485511302948,0.1040602326393127,0.1163532137870788,0.0371832214295864,-0.0002715757582336,0.0986275200911331,0.0355631001293659,-0.1367459004174918,0.0735940458578988,137
1733461251062091500,-0.1188888297528028,-0.0103846158921718,0.0630915392071008,3.377995839640498,-3.5388697076857087,8.499172147926688,0.054412554949522,-0.0023859206121414,0.0018513549584895,0.2464386397066573,0.124735427120206,-0.2260616825363791,0.934133402888216,1.1665292978286743,-0.0195775683969259,-0.0259296130388975,-0.0962170958518982,0.0828286409378051,0.0276711583137512,0.0375821068882942,0.0061271796002984,0.0327507614791393,0.0297990627586841,-0.0997398743803612,0.0237602302938699,138
1733461251102091500,-0.0218888834640383,0.1676408779621124,0.0260310978353023,3.380654537455737,-3.5231145046710965,8.504659054905176,0.0306292753666639,0.0248804818838834,0.0240576546639204,0.2466521698856587,0.1250218780180381,-0.2252833797721841,0.93422676219415,0.1387769132852554,0.128929391503334,-0.1701672822237014,-0.1009314656257629,0.0215899944305419,0.073370449244976,0.0436675809323787,0.0036421134136617,0.0021755904734134,0.0232173204421997,-0.0715464200125541,0.020915946778655,139
1733461251142091500,0.148655899246037,0.2161819137692451,-0.0193681328147649,3.3667803258821367,-3.525417520916461,8.509207219728827,-0.001329212449491,-0.0035316860303282,0.050833910703659,0.2456934955648979,0.1245058910839259,-0.2250543486977492,0.9346033943651354,0.7598761916160583,0.5760271549224854,-0.4084493517875671,-0.0920730829238891,0.1120611429214477,0.133586585521698,0.0453415289521217,0.0008500404655933,0.025347207224369,0.015131153166294,-0.0478264943296089,0.0378197353065013,140
1733461251182091500,0.2249377594158053,0.1073304939061403,0.0651642538279295,3.36561654279977,-3.525053363779187,8.509818629625439,0.0286262892186641,-0.0139542333781719,0.025788215920329,0.2450282914682137,0.1246104129786485,-0.224927213344329,0.9347947511708684,1.7682934999465942,0.550828218460083,-0.294838398694992,-0.0262911021709442,0.0727980732917785,-0.0531943887472152,0.0470154732465744,-0.001942032482475,0.0485205775409936,0.0070449849590659,-0.0241073266984894,0.0546978048712015,141
1733461251379854000,0.147257138364017,0.1045598601490259,-0.0563777207821607,3.4582609242275355,-3.4311531370714303,8.511051970812678,0.033904131501913,-0.0148391220718622,-0.0650608763098716,0.2446749351428016,0.1306759472108336,-0.2213163161844948,0.934920938143302,0.1768350750207901,-0.6363224387168884,0.3084186017513275,-0.0096143782138824,-0.0630609989166259,0.2503501176834106,0.0526124686002731,-0.0055267177522182,0.0096025450117245,0.0457781627774238,-0.1781487366414628,0.0947844621963799,142
1733461251419854300,-0.3685103640481829,0.2172755542248487,0.0948860228747129,3.4483518168926235,-3.418772086665034,8.520050100782512,0.0503585338592529,0.0376750752329826,0.0435833781957626,0.2448361521947811,0.1302797256616752,-0.2205119653504285,0.9351240665844136,0.4961880445480346,-0.039346370846033,-0.0684367269277572,-0.1488211154937744,0.0174021124839782,0.0681324452161789,0.060114350169897,-0.0055229058489203,-0.0242073895394802,0.028437340632081,-0.1520141236327588,0.0415519075721502,143
1733461251459854300,-0.0409475119382143,0.2778510189577937,-0.0906651903092861,3.437571479681134,-3.412459250256419,8.526934015077352,0.0042290217243134,-0.0133995991200208,0.0562819577753543,0.2439432031386091,0.1300103823319537,-0.2198741553968186,0.9355449576588868,0.3508247137069702,0.242449089884758,-0.2062053680419922,-0.1083710789680481,0.0053757429122924,0.1104293912649154,0.067616231739521,-0.0055190939456224,-0.05802022729218,0.0110965184867382,-0.1258885615801904,-0.0117132341474294,144
1733461251697905700,0.335527547378838,-0.0341746568024158,0.138713474163413,3.463920849685371,-3.446096731442213,8.502708505359292,0.0199313573539257,-0.0282671581953763,-0.0090925768017768,0.2364703566899884,0.1327250594561527,-0.2210578567518504,0.936802641966152,-0.795405924320221,-0.4312133193016052,0.3507914245128631,0.0586752593517303,-0.0993290543556213,0.0631587505340576,0.0406240299344062,-0.0345310233533382,-0.0917662560195196,-0.0331917665898799,-0.0049846639654628,-0.0619995655521983,145
1733461251856927200,0.0208645088523626,-0.1558244757011532,-0.252518132519722,3.534973869290948,-3.433083812873065,8.478695761609076,-0.0621720366179943,-0.0521260686218738,0.0839219018816948,0.2356057178006171,0.1367859682987085,-0.2213513683811261,0.9363669881494822,2.0497710704803467,0.551548421382904,-0.3656690716743469,-0.0557474195957183,0.1926784515380859,-0.0011600255966186,-0.0093635888770222,-0.0025778727140277,-0.2833704399663955,-0.0394644401967525,-0.0473504788822727,-0.0235182930304668,146
1733461251896927200,0.0880845261663198,-0.2781260365068912,-0.0180938750952482,3.5355396864801643,-3.462514782279729,8.466483345767855,-0.0328638851642608,-0.0237601678818464,0.0283432807773351,0.2345740615273811,0.1367081705119499,-0.2228011802216756,0.9362935592317696,1.4803684949874878,0.6805216073989868,-0.3923976123332977,-0.0116564631462097,-0.078765869140625,-0.0205708146095275,-0.0030662352219223,-0.008426203392446,-0.2626256850361824,-0.0335742868483066,0.0149974891156423,-0.0800900202810764,147
1733461251936927000,0.0821069130614399,-0.1768961975634098,-0.1195282967001199,3.5478020789429543,-3.4631881514966487,8.461076518288253,0.0293138120323419,-0.0507454685866832,0.0103604653850197,0.2341112604537699,0.1374501233324968,-0.2229632874112755,0.9362621039584568,-0.2742340862751007,0.4250855147838592,-0.1494341045618057,0.1011247634887695,-0.1698517799377441,0.0486969351768493,0.0032311179675161,-0.0142745338380336,-0.2418617139488458,-0.0276841334998607,0.0773496720643714,-0.1366711546808481,148
1733461251976927000,0.2246145188108086,0.0274871418625116,-0.3086486005425453,3.5594209128051992,-3.45972456703931,8.457612641569972,-0.0397329069674015,0.0008702900959178,-0.0131232840940356,0.2339721118853565,0.1381309533011399,-0.2229385446749512,0.9362026353445368,-0.2324213981628418,-0.0435360074043273,-0.0006512221880257,0.0778774619102478,-0.0578405857086181,-0.164599597454071,0.0069112991914153,-0.0115107744932174,-0.1693856758028268,-0.0200754683464765,0.0464418350381776,-0.0939414355009794,149
1733461252016927000,0.0166880999505519,-0.0981491163238883,0.1036672952234745,3.53555868344158,-3.482080191232264,8.458446754306554,-0.0820083245635032,0.0870885476469993,-0.0417936816811561,0.234960873699652,0.1363831531973587,-0.2239171015158863,0.9359775894315092,-0.3912616372108459,-0.1656984984874725,0.2573365271091461,0.0490758121013641,-0.070051372051239,-0.0065983831882476,0.0105914808809757,-0.0087470151484012,-0.0968809960842132,-0.0124668041244149,0.015550154562341,-0.0512280829340219,150
1733461252174978300,-0.1529357685223221,0.0538949640557169,-0.2081599353551864,4.093941631004214,-3.062807900457084,8.368347381186485,0.375937819480896,-0.5908473134040833,-0.6163316369056702,0.2564598586013772,0.1657801307493101,-0.2141260506067953,0.9278445406896304,3.370145559310913,0.2859273850917816,0.2508983910083771,-0.0069658756256103,0.0684250593185424,0.1569463312625885,0.02522973716259,-0.0341419018805027,-0.2205426845283247,0.0014637544518336,-0.0202081364360172,-0.1956155293469317,151
1733461252214978300,-0.0996764720216393,0.0731932465046644,0.2661591198593377,4.304343500067294,-2.826375518080592,8.345933889326453,0.5702621340751648,-0.2564066350460052,-0.4426290690898895,0.2626895113462666,0.1785496008492316,-0.2063875706485665,0.9254828442479028,0.5594717264175415,0.122070163488388,0.3706381916999817,-0.0544259548187255,-0.3184542655944824,0.0146327018737792,0.0151898805052042,-0.0208107344806194,-0.1177010812729597,0.0204807762056589,-0.0329147381355054,-0.0699783761113882,152
1733461252254978300,-0.219087864343822,0.2075698605075478,-0.0025964462339878,4.367341515772044,-2.5236606915012,8.40998521347642,0.7741992473602295,0.0801423117518425,-0.2710698246955871,0.2668253461034966,0.1850539441446108,-0.192263173371988,0.9260637853729252,2.1959173679351807,0.0388881936669349,-0.3057609498500824,0.0107884109020233,0.2983679175376892,-0.0844442248344421,0.0051500238478183,-0.0074795670807361,-0.0148462714761495,0.0394978001713752,-0.0456553517024498,0.0556412232011556,153
1733461252413599500,0.4759411034584045,0.3844239724949002,-0.8130354617625475,3.910236337947845,-1.489946442941576,8.869075135377049,0.6306462287902832,0.5648040175437927,0.2180311530828476,0.2684771153979936,0.1750054658651536,-0.1310575812840206,0.93814557458116,1.7752134799957275,0.1015935465693473,-0.1824710816144943,-0.0190403759479522,-0.0365537405014038,0.0413275957107543,0.0027715335600078,-0.03111601062119,0.1667776487288996,0.039556298404932,-0.0030529766669642,0.1883066493719816,154
1733461252453358600,1.5084011141732334,0.0480121896274387,-0.3481400684535503,3.8932173986077294,-1.3040702355869114,8.905764405348897,0.5216209888458252,-0.3595081269741058,-0.4519885182380676,0.2687529483454651,0.1766476430708025,-0.1213588893949697,0.939063077090218,1.7366487979888916,0.1937407255172729,-0.1441610455513,-0.0396307408809661,0.0604336261749267,0.065555453300476,0.0133681576699018,-0.0513546466827392,0.2008907298034988,0.0624328479170799,0.0348553576591308,0.1806256481490097,155
1733461252493358600,0.4119777498528361,0.448833170171827,0.1264192252576351,4.026871835815906,-0.9353048738643528,8.892687481632828,0.9301741719245912,-0.2158251404762268,-0.5910807847976685,0.2759743348306749,0.1878938122524456,-0.1062780633535658,0.9366104787708848,1.0266095399856567,0.1226391196250915,0.0200866144150495,0.0242509543895721,-0.0333226025104522,0.116561472415924,-0.0378264635801315,-0.0548394583165645,0.2139396878004074,0.0402845665812492,0.0308592851767316,0.2354723051726818,156
1733461252533358600,-0.0570993130549788,0.7677729361694305,-0.6776356421917676,4.160012770543992,-0.457274944900535,8.868798072001338,1.2635399103164673,-0.4190564155578613,-0.6467465758323669,0.2826172037846807,0.2011259144983115,-0.0858225606559646,0.9339755866119184,0.5837475061416626,0.0162399783730506,0.1133854016661644,0.022103875875473,0.0115934908390045,0.0475391149520874,-0.0890210792422294,-0.0583242662250995,0.2271060433655977,0.0181362871080636,0.0268609910544939,0.2902256396234035,157
1733461252691914000,-0.6451181049466133,0.1380810214787721,-0.6561977173656225,5.130654915249347,0.6684657358516007,8.330661501392722,0.0739331766963005,-0.483522891998291,-0.0645437091588974,0.3099431195456434,0.2689328554484695,-0.054125658550146,0.9103191015738,-0.2394231110811233,-0.1148379370570182,0.6802339553833008,0.0111504197120666,-0.0547694265842437,0.0262960195541381,0.0236656535416841,-0.2313451468944549,0.2083834053801372,0.1040318235754966,-0.1355150525814387,0.3163690387267619,158
1733461252731914000,-0.0204518363982439,0.7404892079245299,-0.2177612919151783,5.390646160128712,0.7174300385721027,8.160674937087297,-0.0921331793069839,-1.0636061429977417,-0.1551987528800964,0.3103325747827167,0.2840379025998272,-0.0569546349249702,0.90541288659084,-1.0149441957473757,0.2486890405416488,1.0146902799606323,-0.0075501799583435,-0.0872611701488494,0.1435292959213256,0.118619680404663,-0.2884437143802643,0.2533627666503191,0.2006186246871948,-0.1882091072816401,0.3649018181622028,159
1733461253009986000,-0.5688575798258185,1.7783524659223853,-0.6088701490014791,4.572710651364922,0.1287788853273727,8.674336407130957,0.2430056929588318,0.1897744685411453,-0.1152132600545883,0.3375072901399814,0.2275460771465265,-0.077166671843291,0.9101411546222044,-0.7886571884155273,-0.4536028206348419,2.370257616043091,0.0078910440206527,-0.4110589027404785,0.0151898264884948,0.2915088534355163,-0.3720196485519409,0.2994547836038284,0.5326889157295227,-0.3216826714975759,1.0796757892675697,160
1733461253208783000,-0.2412520576179027,-0.4320086939578875,-2.572973588463664,5.789215854614973,0.021552669213037,7.915484955498576,-0.6683080792427063,-1.5868126153945925,0.3505623638629913,0.340047530830094,0.2903826153807091,-0.1100023823892761,0.8876626940114222,-0.2328275293111801,1.3497153520584106,4.915605545043945,-0.0143801569938659,0.0807340145111084,0.0097993612289428,-0.0736561492085456,0.0565916411578655,1.0643108276795594,0.9372848272323608,-1.0153790389891713,0.6350318144138902,161
1733461253367820000,-2.6866508210480213,-3.3761259541153907,-4.334168437227606,8.480469201022386,-2.274938005741685,4.367686968208849,-2.860262393951416,-1.838839411735535,2.168745756149292,0.2838669166748648,0.4338663599300766,-0.2984458316559935,0.8013174910895905,-0.1120771393179893,0.4332086741924286,1.345569133758545,-0.0836279392242431,0.7109321355819702,-0.2843206524848938,-0.3883863687515259,0.2275770604610443,0.2180288933428004,1.0360722541809082,0.1956342340474016,0.0949956755279563,162
1733461253407820000,-0.9404612337142229,-4.081651473751664,-3.517707092669606,8.440597209361195,-3.5344536448091266,3.5262367283448577,-3.314303636550904,-1.087636947631836,2.3163037300109863,0.2656529303935009,0.4237000169530745,-0.3750870085213228,0.7805232719625866,0.1282622218132019,-0.0946918129920959,0.0563880950212478,-0.1684446334838867,0.7346585988998413,-0.2437487840652465,-0.3623743057250976,0.1102200448513031,-0.1380003574579954,0.7761741876602173,0.4648539653200655,-0.0208541335888206,163
1733461253447820000,-0.4156429943621158,-4.748496841859817,-3.6788334741711615,8.189766007015109,-4.730296876041591,2.5927637460827824,-3.520543575286865,-1.2073801755905151,2.3201005458831787,0.2489100968849999,0.4038101384922812,-0.4524855864947039,0.7551410615146517,0.6225928664207458,-0.0647942125797271,-0.8896268010139465,-0.2664906978607178,0.5859856605529785,-0.1460075080394745,-0.3481859266757965,0.0617253221571445,-0.3087362788259983,0.5702019333839417,0.6875973564967512,-0.0353793564170598,164
1733461253487820000,0.9334060545057058,-6.41129269119203,-3.127794167369604,7.821141953459382,-5.739580009308457,1.4343454056203364,-3.878985643386841,-1.1249420642852783,2.184967517852783,0.2329157430271721,0.3822613740497396,-0.5298537348334185,0.7203342956527796,1.2879301309585571,0.0792823284864425,-1.59002947807312,-0.1594384312629699,0.540637731552124,-0.1212967634201049,-0.3356440663337707,0.1282099783420562,-0.3775976336061954,0.4227623641490936,0.7273093352906406,0.1240481122121214,165
1733461253527819800,0.5939625027269124,-8.28424578717649,-2.0837959868133065,7.254828505158424,-6.59796151022911,0.0687759369524894,-4.232917785644531,-1.4188719987869265,2.83783221244812,0.2156823448502015,0.3525177782052263,-0.6101021382353092,0.6760085935143523,1.815141677856445,0.2219432294368744,-2.1067826747894287,-0.0108845829963684,0.4991045892238617,-0.0732183456420898,-0.3231021761894226,0.1946946382522583,-0.4445961171239614,0.2753227949142456,0.7689744209136813,0.2830380662068724,166
1733461253567820000,2.5979075387120245,-7.999574859070777,-0.0563372426412999,6.312711905452609,-7.341870244273543,-1.5546604687839745,-4.0904412269592285,-1.5828402042388916,3.3667516708374023,0.1804450234635435,0.3160745110443975,-0.692360116797282,0.6230360175867727,2.2642319202423096,0.1733114570379257,-2.456908226013184,0.1529431939125061,0.409492939710617,-0.0156390070915222,-0.3886123299598694,0.2525282204151153,-0.4417851513564586,0.2829660773277282,0.6715791186317801,0.4324969523988664,167
1733461253607820000,5.257922281768917,-5.177957933694124,3.301950418575108,5.285093781810999,-7.730978282931447,-2.910348517274856,-3.4076850414276123,-0.1207680255174636,2.8722498416900635,0.152656949930188,0.2679814296123068,-0.7593236664668793,0.5729828470655388,1.9876799583435056,-0.2438391596078872,-2.595402956008911,0.1642122864723205,0.159976840019226,0.034864068031311,-0.4541224539279938,0.3103618323802948,-0.4375701640099286,0.2906093299388885,0.5761976403903216,0.5822769603040069,168
1733461253647820000,5.234151530081033,-2.0382155543774365,3.696319446501136,4.564718483567238,-7.817216888970136,-3.771588037975132,-2.5615017414093018,0.4683825969696045,1.9326788187026973,0.1440695334160892,0.2185524395864812,-0.8028276964087986,0.5356739740018994,1.9444818496704104,-0.4168756902217865,-2.429502010345459,0.113743782043457,0.1392464637756347,0.0945595502853393,-0.468375951051712,0.3490782678127289,-0.6031015024721622,0.3393847644329071,0.5447857993647456,0.6470909393895417,169
1733461253804802300,2.7816724530011414,-1.6483102278620003,5.406285043287277,3.613239596754312,-6.892105784600973,-5.967724748072028,-1.6516456604003906,-0.0985492616891861,1.1766973733901978,0.1625140970326965,0.095529152151345,-0.8917081714177341,0.4114848693963224,0.7119842767715454,0.0446926578879356,-0.8492161631584167,0.1975370347499847,-0.2060663104057312,0.4136289954185486,-0.1938941180706024,0.1744642406702041,1.0476007350929082,0.5364755988121033,0.5951050603581592,0.4134205690722912,170
1733461253844802600,4.47555814486295,-2.7206623962432146,6.3290188971310855,3.2209032436996696,-6.73060004839301,-6.36358693716526,-0.9967422485351562,-0.2121333330869674,1.3058650493621826,0.1509846694347626,0.0704664969022781,-0.9052552676746736,0.3908339038906183,0.521639883518219,0.6069110631942749,-0.0555079467594623,0.302352637052536,-0.2319307923316955,0.4309001564979553,-0.1151783093810081,0.1457728594541549,1.192714577817917,0.529837965965271,0.7195796178214252,0.2497264559745788,171
1733461253884802600,6.015849019771814,-2.15300104046464,6.870689487084746,2.899858102920651,-6.699110100629925,-6.548519141668081,-0.4127888977527618,0.2771087884902954,1.0852209329605105,0.1426835905691436,0.0464282088854659,-0.9119901193075188,0.3817849454722999,-0.1901663541793823,1.152110934257507,0.6511064171791077,0.3390843272209167,-0.2720887064933777,0.4275403022766113,-0.0096143633127212,0.1969867646694183,1.8534978694081303,0.558814525604248,0.4580576927760615,0.272439789297711,172
1733461253924802600,6.716161188673973,-2.1311101111739874,7.011120871081948,2.7650276076704263,-6.786992382222413,-6.516269315448403,0.3615082502365112,0.4739219844341278,0.7602008581161499,0.1435877900527569,0.0261739557812398,-0.9118948376293556,0.3835953021815037,-0.6238264441490173,1.7593529224395752,1.425903081893921,0.3754997253417969,-0.2681935429573059,0.4127169251441955,0.0245348513126373,0.268746554851532,1.2725713738650082,0.54109787940979,0.0626361418561078,-0.0516035651829093,173
1733461253964802600,7.510608854344487,-1.0955798992335797,6.541151827770471,2.718917306141555,-7.054133498856425,-6.246365748363733,1.2926254272460938,0.1159313321113586,0.0811926648020744,0.1454954837942164,0.0175346733351909,-0.9045266996131164,0.4004435867452858,-1.4945731163024902,1.8176788091659544,1.929615139961243,0.4065445065498352,-0.3469213843345642,0.466830849647522,0.0556063130497932,0.3695379495620727,0.522059880554676,0.2548476755619049,-0.4425827680075541,-0.6867464387558401,174
1733461254004802600,7.812112843829393,-0.3358750456422567,6.06902823677361,2.852259900921583,-7.405625215825438,-5.761222516795993,2.1191956996917725,-0.227738544344902,-1.1839722394943235,0.1478426454905549,0.0321230020207892,-0.8903419150424648,0.4294203823946718,-1.788542628288269,1.864233136177063,2.440544843673706,0.3422655463218689,-0.3210830092430115,0.3813241720199585,0.111053928732872,0.2960816621780395,-0.566001313611865,-0.0465742647647857,-0.5427704409543425,-0.741454472760111,175
1733461254044802300,5.839396474322676,-1.9806863254725933,4.705384260842203,3.3193229936584827,-7.716579755222797,-5.060325826004148,2.887643337249756,-0.7635475993156433,-2.484858274459839,0.1536002151930555,0.077105619454272,-0.8672136572479311,0.4673352540844689,-1.790767788887024,1.4190598726272583,2.66418981552124,0.3577604293823242,-0.2216238975524902,0.2264954447746276,0.2295257151126861,0.0970145016908645,-0.8939280305981635,-0.1673528552055359,-0.4663563692396506,-0.7186298428159207,176
1733461254084802600,3.092294399443269,-4.316479635801911,2.811783513626456,4.039135105061531,-7.8833257301718,-4.208202216434478,3.394995927810669,-1.0292036533355713,-3.1061925888061523,0.1589850323991697,0.1441267595782766,-0.8329382187533666,0.5100639257623029,-2.4059526920318604,1.0390315055847168,3.215228319168091,0.274533748626709,-0.2630209624767303,0.1569826006889343,0.3479975163936615,-0.1020526587963104,-1.2209212661266329,-0.288131445646286,-0.3891366071652621,-0.6961399977840482,177
1733461254124802600,1.0946107619404792,-5.314746577274799,0.9806912450328468,4.889845632962882,-7.843336249610781,-3.27747765609771,3.66945219039917,-1.1464364528656006,-3.275880813598633,0.1625928062429615,0.2192751964080614,-0.7867803060283043,0.5535870979724655,-3.5191473960876465,0.4518685340881347,3.653822660446167,0.4427745938301086,-0.1296743750572204,0.1424059271812439,0.4678477644920349,-0.1723703145980835,-0.9626035074174404,-0.3461613953113556,-0.461175276807323,-0.4658384463127702,178
1733461254281795300,-3.576403611788153,-3.735300626802444,-1.8215429344817995,7.707298132136463,-5.817263552969694,-1.7109519774749875,1.2450026273727417,-1.1155860424041748,-2.200443744659424,0.1752197810056643,0.4625521062586545,-0.6109663008409963,0.618112954519007,-2.080132007598877,-0.1214709058403968,2.8824822902679443,0.1963529586791992,0.4767466783523559,-0.069799780845642,0.4400930404663086,-0.3102977275848388,-0.6433497070346027,0.0315537340939044,-0.5589465727947652,0.4379966092610731,179
1733461254321795300,-4.174282995697856,-3.2087761680543423,-1.7811445808589457,8.100025530335307,-5.216718749243021,-1.829162031183392,0.7987146973609924,-1.0614323616027832,-2.0541205406188965,0.1786893740300382,0.5047698305539952,-0.5817806531049691,0.6122163488365147,-1.809678554534912,-0.2038966566324234,2.501363039016724,0.0990086793899536,0.6849451065063477,-0.0765179991722107,0.3729173839092254,-0.262824684381485,0.2108510741353035,0.0452667027711868,-0.6142143595736473,0.2045999778512865,180
1733461254361795000,-5.707452348163724,-4.503033304026722,-2.072797330676019,8.383420447155833,-4.658079488831758,-2.0471751059025527,0.5124891400337219,-1.0562678575515747,-1.5123053789138794,0.1824115494847475,0.5408548849420045,-0.5584378856970857,0.601954387974127,-1.4356341361999512,-0.2523829042911529,1.6490505933761597,0.0225306749343872,0.8213719129562378,-0.0804482102394104,0.3189976811408996,-0.0726179927587509,0.8901876750260591,0.0823223888874054,-0.6607194325737655,0.2940548059901222,181
1733461254401795000,-6.537395105585455,-5.232215593582391,-2.025354026977718,8.50812117805779,-4.315860334859789,-2.2705920854918658,0.1848695278167724,-0.5374547243118286,-0.7184709906578064,0.1822326205790222,0.5645305599127124,-0.5450442414078747,0.5924721299084245,-1.0650824308395386,-0.2198501527309417,0.8500451445579529,-0.0539371967315673,0.932703733444214,-0.0994729995727539,0.2291768491268158,-0.001738004386425,0.8368009527534246,0.1248725205659866,-0.4186695025764405,0.2411897329714149,182
1733461254441795300,-8.026625947603582,-4.840666299252212,-1.3615360438667237,8.551404439467191,-4.200736702859402,-2.3232898025870323,0.0462018623948097,0.1267108768224716,0.0518921799957752,0.1838674930093086,0.5706427350267118,-0.5411300083142402,0.589693071012863,-0.7917869091033936,-0.1435670554637909,-0.2045536190271377,-0.1488658189773559,0.9411996603012084,-0.0858315825462341,0.1458371430635452,0.1365686655044555,0.7927829473286867,0.1233223900198936,-0.1624371170402504,0.138428592807427,183
1733461254481795300,-8.27137578420937,-5.290028315603733,-2.336490352682769,8.497177174717187,-4.375512547267973,-2.196182302804292,0.0932811349630355,0.4664514064788818,0.8868467807769775,0.1799926482320453,0.5623436140181644,-0.5438233091999243,0.5963458514347424,0.2458578199148178,0.0935812667012214,-1.1684417724609375,-0.0777120590209961,0.9877702593803406,-0.1344047486782074,0.0840358957648277,0.1519381552934646,0.5713303996801375,0.1307462602853775,0.2145350598776713,0.1990542716239579,184
1733461254521795300,-7.921049019366502,-5.03270073697567,-3.7846237528979776,8.296938680011033,-4.804026129119098,-2.062166192676872,-0.5385524034500122,0.4589830636978149,1.8020058870315552,0.171636496782759,0.5411351146033334,-0.5588506103568949,0.6044830114096967,1.0026334524154663,0.0728273540735244,-2.1598172187805176,0.0285958051681518,0.8730530738830566,-0.1309404671192169,-0.0091087967157363,0.0739467591047287,0.4750923776745795,0.1213875785470008,0.3679880572071298,0.1339603248195722,185
1733461254561795300,-5.804544941172003,-4.330333973631262,-3.499849364417792,7.869843148264288,-5.446238868013024,-2.1387946743272246,-1.1984126567840576,0.2122942358255386,2.54338812828064,0.1580901909337099,0.5085947217750344,-0.5919287035322207,0.604945735992449,1.9031836986541748,-0.0422907099127769,-3.048985481262207,0.1883947849273681,0.7466678023338318,-0.0990200042724609,-0.1022534966468811,-0.0040446370840072,0.3793441850125789,0.1120288968086242,0.5215337012561038,0.0688707619293592,186
1733461254601795000,-2.057633371552825,-3.762569157478213,-2.450791270123422,7.115982344526052,-6.262251884281635,-2.5134362346068024,-1.4809730052947998,-0.059633120894432,2.5306084156036377,0.1368256303075748,0.462321952925957,-0.6437452878704517,0.5942466659178988,2.5841307640075684,-0.1130202785134315,-3.7820522785186768,0.3268945813179016,0.5753101110458374,-0.0386071801185607,-0.1601267904043197,0.071096271276474,0.1866127049356699,-0.0335661917924881,0.5099740137025713,-0.0917548304432071,187
1733461254641795000,-0.7996125010877847,-4.328217419868707,-2.7655943016424773,6.414015978676081,-6.7757911892503495,-3.019844372521341,-1.7951875925064087,-0.5580477714538574,2.702110290527344,0.1169506720796299,0.4280736373917081,-0.6860919582701036,0.576500998106866,3.300750970840454,-0.3151446282863617,-4.127140045166016,0.5527417063713074,0.4235197007656097,0.0322267711162567,-0.188741460442543,0.1798195838928222,-0.1207277356177568,-0.1891554445028305,0.4625500722918659,-0.0614781857263296,188
1733461254681795000,0.8733312327712773,-3.734329735943674,-1.2866419847935435,5.516195032292604,-7.210464462774992,-3.7082618132293215,-2.109478712081909,-0.5172236561775208,3.1586110591888428,0.0916985906723389,0.3890915126213052,-0.7332642969105165,0.5500206756694384,3.6148838996887207,-0.6929941177368164,-4.220731735229492,0.62274569272995,0.2186233550310135,0.1121960580348968,-0.2173561453819275,0.2885428667068481,-0.4268973788261413,-0.3447446823120117,0.414404063684307,-0.0307585282159969,189
1733461254721795300,2.629067231607437,-2.547581373053789,0.1988894181847572,4.524359877432882,-7.498938874816894,-4.412086958688497,-2.3855514526367188,0.1382193267345428,3.3025684356689453,0.0702289625737778,0.3382627571844984,-0.7813655636734246,0.5197251445764236,3.270029306411743,-0.9980527758598328,-3.923698902130127,0.5457739233970642,0.0224890112876892,0.2248956859111786,-0.2495750188827514,0.3325947225093841,-0.9253197786837816,-0.3852583765983581,0.4499489859266206,0.15058525987342,190
1733461254761795300,3.9853456472069024,-2.163670318517089,1.5420558387547731,3.6145989024087775,-7.560979443666339,-5.092807122892141,-2.4363608360290527,0.4717183411121368,3.1114296913146973,0.0579688561072716,0.2803024908576833,-0.8252826294692491,0.4868047045637129,2.746344804763794,-1.2016209363937378,-3.4711954593658447,0.4691157341003418,-0.082489401102066,0.3843341767787933,-0.2789576947689056,0.2647287547588348,-0.9713386025369168,-0.2887200117111206,0.5385924976825713,0.2307665751671418,191
1733461254801795300,4.7927054014205925,-1.6663146711081265,3.0391192740947006,2.856319697706401,-7.43374597941637,-5.7228685284823175,-2.2444002628326416,0.7362101674079895,2.8080997467041016,0.0521848157213527,0.222067460923494,-0.8616676467067396,0.4533118068836672,2.2549936771392822,-1.3553123474121094,-2.862635374069214,0.3961659669876098,-0.2090374529361724,0.4723067879676819,-0.3083403706550598,0.1968627870082855,-1.0151438419938086,-0.1921816617250442,0.6257634892005473,0.311846300605312,192
1733461254841795300,5.488167792204022,-1.8267898952245711,4.001589510521293,2.254830744997412,-7.200100305148959,-6.264561330267787,-1.922281265258789,0.7125183939933777,2.5033133029937744,0.0499858764258562,0.1670403424654681,-0.8896635582511071,0.4220163971494429,1.4764515161514282,-1.2951303720474243,-2.389314651489258,0.3519607782363891,-0.2797339856624603,0.5542409420013428,-0.3090799748897552,-0.0095790773630142,-0.2831646151959895,-0.050325408577919,0.8039587135985493,0.1594114673424512,193
1733461254881795000,6.306261706399917,-1.4318290388852355,4.869315762892366,1.7571100636683403,-6.959848364484309,-6.681577366548776,-1.3377724885940552,0.4011975526809692,2.0530595779418945,0.0464562505952491,0.1194486635784261,-0.909064166968748,0.396454580606343,1.062533974647522,-0.9771758913993835,-1.5782312154769895,0.331835925579071,-0.3383725881576538,0.6543223261833191,-0.1680349856615066,-0.1186493933200836,0.5727811830103398,0.0801101922988891,1.0331121910132468,-0.1492627060327679,194
1733461254921795000,7.706049008858203,-2.171411141902208,4.8270559993118045,1.3329605222456156,-6.809090232262015,-6.93036215775907,-0.5492889881134033,0.0676279738545417,1.469199776649475,0.0386682172896517,0.0850232994750588,-0.919848444680163,0.3809917581631085,0.5869888067245483,-0.1234657242894172,-0.3004862070083618,0.2956379055976867,-0.4835668206214905,0.6900835037231445,-0.0275736898183822,-0.0399672836065292,1.5236042362630366,0.0677896589040756,0.7383171976476908,-0.4334999188963324,195
1733461254961795300,8.121250104671716,-1.3192302491873502,4.417128459987044,1.0248992200717328,-6.812824742615223,-6.978923651832342,0.061629444360733,0.0146244559437036,0.921126663684845,0.0309043359788943,0.0627075349323277,-0.9229809579151556,0.3784426261488775,0.1499576568603515,0.8962266445159912,0.6374257802963257,0.2490788102149963,-0.4663257598876953,0.6599429845809937,0.1128876209259033,0.0387148186564445,2.4751380681335924,0.0554691329598426,0.4434779998142272,-0.7177580284174532,196
1733461255001795300,8.951140255123377,-1.994878516954184,3.5866736613899466,0.8453345339514314,-6.8920993548601865,-6.924940717232227,0.3610600233078003,-0.0531202889978885,0.3581104874610901,0.0255580383143355,0.0510652731846309,-0.9222071596065,0.382456788909074,-0.3549894094467163,1.493447184562683,1.275316834449768,0.3609079718589782,-0.4583650529384613,0.618780255317688,0.2520065903663635,0.061649952083826,1.1996440848201513,0.02948934212327,0.177400201562792,-0.5579089733753353,197
1733461255156754400,5.957009877312183,-4.622020917978882,1.7353829466372728,2.709102014569938,-7.6187833978593344,-5.54844836564362,2.094956636428833,-1.362689733505249,-4.77166223526001,0.0492417293073242,0.2066766573345788,-0.8603353464615343,0.4633390480457762,-1.9165667295455933,1.8972924947738647,2.6309680938720703,0.4864838123321533,-0.1617003679275512,0.2439693510532379,0.4643098711967468,0.2775159478187561,-1.242537616259605,0.0232725292444229,-0.5520496528878808,-0.1830874899515882,198
1733461255196754400,2.505731651578844,-5.821473279619217,1.908126700696349,3.944097691017389,-7.43507109054029,-5.0333074706971646,2.3641281127929688,-0.9001240134239197,-4.907994747161865,0.0649046806347829,0.3029848933681353,-0.8153694981725912,0.4890399622905909,-2.433568954467773,1.7452901601791382,2.819962501525879,0.3926599621772766,-0.0486459136009216,0.0655142962932586,0.3600586950778961,0.0564245581626892,-1.2244038475453851,-0.1302416622638702,-0.5153532225228846,-0.0753032243959605,199
1733461255236754400,0.2050438491612672,-5.647020968076586,0.6745265702605248,5.253287023183703,-7.020251102998852,-4.3919744372472165,2.4137065410614014,0.1290462017059326,-4.597809314727783,0.0902599403481196,0.3851624862526007,-0.7586687253290029,0.5176145173713774,-2.3675076961517334,1.5078914165496826,2.9352152347564697,0.2376393675804138,0.0898921340703964,-0.1299217939376831,0.2351885437965393,-0.1034629940986633,-1.4364789105176925,-0.1930518299341201,-0.4904618693072348,0.1508124927580356,200
1733461255395315200,-4.388768042421341,-4.492674407097697,-0.7623132825240493,8.22098590566516,-4.361232385241985,-3.0928000108778475,0.2285131961107254,0.0196617748588323,-1.6190234422683716,0.1844440968106769,0.5600686555873505,-0.5865253764898708,0.5552399583529214,-1.4953688383102417,0.3598773777484894,2.156085729598999,-0.0015115141868591,0.7796118855476379,-0.3852197527885437,-0.0719873532652854,-0.3875346779823303,-0.0655153368544997,-0.2224584072828292,-0.8733028103943914,0.4378917606471106,201
1733461255435315200,-4.811030162662267,-5.842342464646697,-0.8933329873144626,8.469071024173498,-3.907295608320832,-3.029566140590608,0.1733854860067367,0.2687633335590362,-1.3237839937210083,0.1994930460175784,0.5759662143130556,-0.5680913758052728,0.5529354924231592,-1.157339096069336,0.2758700549602508,1.4549981355667114,-0.0039954781532287,0.9267369508743286,-0.4536910653114319,-0.1815031766891479,-0.1394618898630142,0.6608896745741367,-0.1649796515703201,-0.9066884357109666,0.1666160649590194,202
1733461255475315200,-7.470937938213348,-6.849337486976385,-1.332723937010765,8.665196238341927,-3.5622967605024574,-2.897381483674049,0.2137318253517151,0.2726076245307922,-0.7056706547737122,0.2123538985371351,0.5856073779913105,-0.5520772942487241,0.5542387040378506,-0.8307241797447205,-0.1851389855146408,0.2038095742464065,0.0752294659614563,0.9956207275390624,-0.3997816443443298,-0.2326738238334655,0.0460352748632431,1.745734829303622,-0.1940935850143432,-0.7406129073694347,-0.1356871120795607,203
1733461255633429500,-3.882393806776404,-3.744779233765602,-1.908231622375548,7.866795451131463,-5.254426840868592,-2.5835905518069864,-0.3512752950191498,0.0645581483840942,2.6206164360046387,0.1610006089042776,0.5201348982554521,-0.6009876467680021,0.5851089369229385,2.418051481246948,-0.99667227268219,-3.470945358276367,0.2487300038337707,0.4485758543014526,-0.2078322321176529,-0.1739710569381714,-0.3053981065750122,-0.3732475486379116,-0.0045033628121018,0.4143145222373307,-0.5681389466950669,204
1733461255673429500,-1.900789781937003,-3.628917058357596,-2.626060451006889,7.261257661423087,-6.011186288657784,-2.703731135186553,-0.712430477142334,-0.0922932624816894,2.759594202041626,0.1341511307625913,0.4861899926205691,-0.6336175618740648,0.5866443266819881,3.380650043487549,-1.13348650932312,-3.5889241695404053,0.4228898882865906,0.297556072473526,-0.0719258189201355,-0.159026101231575,-0.0866326838731765,-0.4925064538121223,-0.2097559422254562,0.2481986070864833,-0.3655139587111771,205
1733461255713429500,-0.646011838915944,-3.461352752763033,-2.4512916208609936,6.517192275512218,-6.691707715418935,-2.986238747778535,-1.4345269203186035,0.0790916606783866,3.1185946464538574,0.1097840364328054,0.4459184604393528,-0.6733591425519214,0.5793889955418143,4.18170690536499,-1.4607404470443726,-3.4164438247680664,0.5391484498977661,0.1175725907087326,0.0404474139213562,-0.2013070583343505,0.0742096453905105,-0.5739315220892429,-0.3895698189735412,0.2031557521260343,-0.1812134762406349,206
1733461255753429500,0.7687918308883905,-2.113167627248168,-0.9375582057490944,5.603975022554398,-7.295147656065225,-3.398042310108244,-1.7802574634552002,0.2346957623958587,3.5216472148895264,0.0877239742914716,0.3940686009023423,-0.7196956822795139,0.5648474673308918,3.625075578689575,-1.718031883239746,-2.867223024368286,0.4163515567779541,-0.0161684453487396,0.2176544368267059,-0.2697082459926605,0.1623267084360122,-0.9975503176361322,-0.4668147265911102,0.2854875782508403,0.1293598087541758,207
1733461255793429200,2.960477699056268,-1.1792384256511923,-0.1677349859863519,4.584550142240524,-7.72464907990992,-3.934729850952327,-1.9967199563980105,0.0990764200687408,3.3571596145629883,0.0656019616096302,0.3378175360500487,-0.7658294263951969,0.5432136410288325,2.0598220825195312,-1.984332799911499,-2.4197311401367188,0.3614822030067444,-0.093412697315216,0.3639104962348938,-0.2883753776550293,0.1407181769609451,-0.8781973775029182,-0.366825520992279,0.3796738553583622,0.1985262839607894,208
1733461255833429200,4.307685211710632,-0.8910048366278409,1.0248638564974069,3.608443010127544,-7.904393068119883,-4.546434931118786,-1.9523569345474243,0.0839306637644767,2.9999120235443115,0.0459088707520301,0.284872368288709,-0.8066296554138948,0.5158378047721193,0.9176953434944152,-1.98262882232666,-1.973356008529663,0.2717109322547912,-0.1633178889751434,0.451227068901062,-0.3070424795150757,0.1191096380352974,-0.7562538363546133,-0.2668363451957702,0.4717065711611881,0.2675326001696288,209
1733461255873429500,5.703498057579994,-0.9360901790231466,1.9047183535575865,2.726187297144532,-7.917369454070926,-5.104271350714564,-1.588199496269226,-0.0094135161489248,2.584740400314331,0.0274994609036138,0.2371225560669478,-0.8390579867805245,0.4888747401581607,-0.0928762778639793,-1.687376856803894,-1.576077580451965,0.2506079077720642,-0.1917392015457153,0.5798528790473938,-0.294073611497879,-0.0436166748404502,-0.2339367661684751,-0.1326459348201751,0.6450259696837515,0.0787130328394472,210
1733461255913429500,6.599189590719342,-0.4611398401677608,2.3766350238054987,1.9813294456817208,-7.829380789494514,-5.562867936140298,-1.4042341709136963,0.1719398945569992,2.238640308380127,0.0117897718211168,0.1953517168994741,-0.863403163926488,0.4650092780828475,-0.6500614881515503,-1.1367764472961426,-1.2364537715911863,0.1900407075881958,-0.2549334764480591,0.6780329942703247,-0.2109409570693969,-0.0699198842048645,0.4824585225284099,-0.069681242108345,0.7935458214599639,-0.1056385952964425,211
1733461255953429500,7.93168381062746,-1.2928361632585526,2.925069701066613,1.436678086351603,-7.650555669695138,-5.964509293156862,-1.2842174768447876,0.5840214490890503,1.82073712348938,0.0046402668562867,0.1562508668168656,-0.8830011424815072,0.4425756739287841,0.0131295099854469,-0.0303868055343627,-0.3641028702259063,0.2213346362113952,-0.3053930699825287,0.6551942229270935,-0.158765822649002,-0.1713261306285858,0.2909533693760633,-0.0312048345804214,0.8700595906894654,-0.2566395963639021,212
1733461255993429500,8.524591835865378,-0.7676479215502738,4.10980087891519,1.1518734488636255,-7.490700623303652,-6.22358108510375,-0.6488979458808899,0.8208515048027039,1.22908353805542,0.0071478100701831,0.1224424976454958,-0.8957243750260341,0.4273576239284973,0.0455921106040477,0.8238494396209717,0.5500810146331787,0.2624049186706543,-0.3569389283657074,0.6854241490364075,-0.0171369165182113,-0.1256843954324722,1.3693600154906511,-0.0838000327348709,0.4141961565546691,-0.6734688779011369,213
1733461256033429500,8.678165025508402,-0.0687298373550176,3.813731189438701,1.0994556446883827,-7.422578688713908,-6.314027079704403,-0.2681803703308105,0.7762598395347595,0.4371011853218078,0.0152143559247766,0.1004191057124291,-0.9010226404371856,0.4217141442966408,-0.4129115641117096,1.5643610954284668,0.9265507459640504,0.2066473960876464,-0.3960902392864227,0.5816034078598022,0.1141739785671234,-0.0475719645619392,1.2653607118338346,-0.0057583749294281,-0.0048321693968027,-0.33224618762061,214
1733461256073429200,8.855399076724051,-1.1385907734423877,3.61335708565414,1.2897311829805371,-7.410505973604321,-6.292170052683353,0.2265072762966156,0.5750975608825684,-0.4970813989639282,0.0284445557807169,0.0950153009048398,-0.9009902849146628,0.4223500753345199,-0.7015582323074341,1.7258477210998535,1.5396720170974731,0.5025350451469421,-0.4331663250923157,0.5803691744804382,0.1486444026231765,0.0259324237704277,0.6509165620923042,0.1584314852952957,-0.4664312245741486,-0.208770468468964,215
1733461256113429500,8.102440190261602,-0.2234393375515937,3.86597049524188,1.730396536526829,-7.483196531283855,-6.097367027029395,0.8877148032188416,0.0522796399891376,-1.7837752103805542,0.0438331043219304,0.1134103821524195,-0.893318134083027,0.4326655528653172,-1.4478564262390137,1.876229286193848,1.911691784858704,0.4060062170028686,-0.4506119191646576,0.4319490790367126,0.1843777447938919,0.2129683792591095,0.4212316081494092,0.2131955623626709,-0.8380072598032653,-0.3345180780753493,216
1733461256153429500,6.96909900791049,-1.7390063978314398,2.953155977866053,2.4236535262204706,-7.546905910128355,-5.774124668467045,1.3985471725463867,-0.6620790958404541,-3.2685651779174805,0.0578060023073372,0.1621170782879925,-0.8764225386235001,0.4497333473063185,-1.5537503957748413,1.996425986289978,2.145991563796997,0.3897655606269836,-0.3618606030941009,0.2795625030994415,0.2112421691417694,0.3014702498912811,-0.1882335841357708,0.1883889734745025,-0.7807405542921274,-0.3783637956731021,217
1733461256193429500,4.703455923128128,-4.531590705469251,2.037259276565909,3.3718867091104388,-7.456625335222482,-5.4036552793055765,1.7889978885650637,-1.1553059816360474,-4.304495811462402,0.0707305938754544,0.2389964334109478,-0.8475791646922076,0.4684948348830021,-2.3501527309417725,1.678364872932434,2.6914024353027344,0.5032309889793396,-0.2368759214878082,0.097606360912323,0.2359920293092727,0.1888982057571411,-1.0452449657469989,0.0849405527114868,-0.5528025170817971,-0.4288381376303732,218
1733461256233429500,1.426796305415034,-4.718003503918648,2.096167392608524,4.430468126292526,-7.17085375239849,-5.012004570427536,2.164452314376831,-1.163840651512146,-4.516462802886963,0.0822062611936991,0.3275669967742161,-0.8051341351042645,0.4875458867768036,-3.214385986328125,0.8094090223312378,2.9861109256744385,0.3963716626167297,-0.0978981703519821,-0.0907639265060424,0.2491107881069183,0.0467314720153808,-1.402488378110528,-0.0679734647274017,-0.4789166852030903,-0.3177117585726082,219
1733461256273429500,-1.3058090420782564,-4.1530321178764105,0.9899538711577652,5.440445087042451,-6.747019852796196,-4.58798946903944,2.23323917388916,-0.8985153436660767,-4.072798252105713,0.0929187772040578,0.4088210278254194,-0.7528530579606151,0.5073890685673689,-3.80420184135437,0.3605961203575134,3.065188407897949,0.1827421188354492,0.1139850169420242,-0.0640358924865722,0.215781956911087,-0.079848974943161,-1.5018804802328347,-0.1096361428499221,-0.5283856495101005,0.0586361672334372,220
1733461256313429200,-2.5658921057701107,-3.4351445447951554,-0.0774012195885181,6.287379311275481,-6.213188870427012,-4.246826838383078,1.763986349105835,-0.6780656576156616,-3.5710043907165527,0.1025890297585188,0.4761658038204674,-0.6998528657118446,0.5224438987486963,-3.470857620239258,0.2001347094774246,3.0454347133636475,0.14366215467453,0.3402502238750458,-0.0636660754680633,0.1671501398086547,-0.1619039177894592,-1.4696692324578762,-0.0762513950467109,-0.5988516630079597,0.0962403600931167,221
1733461256353429500,-3.620497605058551,-3.586688274437189,-0.3975599329218268,6.97282825756669,-5.561705322101712,-4.076454197369515,0.9366323351860046,-0.399858683347702,-2.9591052532196045,0.1162199941970781,0.5295451933218084,-0.6537761179540013,0.5278745677309746,-2.526864767074585,0.1288156360387802,2.966655969619751,0.1507773995399475,0.542066216468811,-0.0856458991765976,0.138747751712799,-0.2382019013166427,-1.2628016750007869,-0.0195800177752971,-0.6162418468132614,0.0815668148353695,222
1733461256393429500,-4.142279253193736,-3.842275146877765,-0.1259501464411616,7.474111892074346,-4.952526545542479,-3.9724753519788383,0.369530588388443,0.2020287662744522,-2.012509822845459,0.1337190612691138,0.5638687039154825,-0.6201547822877409,0.5287527835672073,-1.504321575164795,0.1593845635652542,2.576424598693848,0.0708878636360168,0.7305563688278198,-0.1188706457614898,0.1027444824576377,-0.2879557311534881,-0.1117775364428758,0.0537579841911792,-0.8080329773001372,0.0133260761715471,223
1733461256433429500,-3.760153913030028,-4.791131868493557,-0.7326146020919084,7.845261664715409,-4.453928789117932,-3.845100141170621,-0.165049061179161,0.4321605265140533,-1.359678030014038,0.1551073314659865,0.5803382224542074,-0.5993772603799519,0.5290522292351446,-1.240936040878296,0.1392358392477035,1.9088274240493768,-0.0305428504943847,0.8638617992401123,-0.1555291712284088,0.0693631842732429,-0.1319663673639297,1.1172960564792156,0.2117474228143692,-0.9143940416522324,0.1605211090847849,224
1733461256473429500,-4.1692122683048245,-6.190753166735172,-0.9415461063414812,8.122638928681612,-4.02934611697495,-3.735976041845977,-0.1412598043680191,0.4116738736629486,-1.158843994140625,0.1757814056755248,0.5895886444296239,-0.5855484604467417,0.52784393050385,-1.1294872760772705,0.0973029807209968,0.9989817142486572,0.051267921924591,0.99800843000412,-0.1818322539329528,-0.0463134944438934,-0.0377183035016059,1.5862234817832708,0.303144097328186,-0.7189663082286715,-0.2305924241766333,225
1733461256513429500,-7.570237101355195,-5.925452709531784,-0.791642837382853,8.328601646253466,-3.680234280879795,-3.641520811603963,0.0138889802619814,0.2453419119119644,-0.734513521194458,0.1912073731890463,0.5978527109681929,-0.5729206075461614,0.5270426208914151,-0.7257280349731445,-0.0373928882181644,-0.2701790332794189,0.0656155943870544,1.0383098125457764,-0.1532764434814453,-0.0818076282739639,0.1339706480503082,2.0364567280113697,0.2040168642997741,-0.5387633607374503,-0.6711833973124622,226
1733461256553429200,-9.417213460040092,-6.87834730836153,-1.462244927676022,8.370648643866181,-3.710159755805136,-3.512457793839276,0.3635195791721344,0.3893589675426483,0.7477456331253052,0.1918607532366634,0.595761728497029,-0.5693447740852337,0.5330140989383477,0.3621077239513397,0.1343473345041275,-1.6312159299850464,0.0895900130271911,0.9817756414413452,-0.2946568727493286,-0.1083068698644638,0.2168479561805725,0.7666472200751304,0.1857973039150238,-0.0804283488573506,-0.2862045674137771,227
1733461256593429200,-9.191020439866184,-5.452789604830741,-2.245545760910213,8.232890278470515,-4.197488514718413,-3.2819170998498794,0.3226192593574524,0.5447214245796204,1.924934148788452,0.179815041858467,0.5758224898031468,-0.5794477255012497,0.5480285542230298,1.3208088874816897,-0.1962842643260955,-2.7705466747283936,0.145576000213623,0.8068888187408447,-0.2603774666786194,-0.1587935388088226,-0.0041781067848205,-0.0766962861895561,0.2356950640678405,0.3383142554879188,-0.2487403675466775,228
1733461256633429500,-6.228157891499996,-3.789789757359028,-3.60928092225641,7.837060238081216,-4.974933023139834,-3.162419198288023,0.1565671414136886,-0.1990797668695449,2.5585594177246094,0.1534173668023022,0.5473720340788663,-0.601350448412266,0.5614485902738434,2.239951133728028,-0.4816853106021881,-3.588939905166626,0.0872794389724731,0.5700842142105103,-0.2379254698753357,-0.1375215947628021,-0.097650408744812,0.1398743346363306,0.2111443877220153,0.2422713176630437,-0.3707251174882054,229
1733461256673429500,-3.4389749167382715,-3.837406664058566,-4.097666789007187,7.222561727803945,-5.741045990207791,-3.3234599473327395,-0.6474171876907349,-0.3604030311107635,2.7209272384643555,0.1213908539941109,0.5185691718353792,-0.632878597640214,0.5619741856006113,3.096914768218994,-0.6633462309837341,-3.902912378311157,0.3790119290351867,0.4002951681613922,-0.1325218081474304,-0.0902618765830993,-0.0226228907704353,-0.1032990464329719,0.1461144983768463,0.1466572727747261,-0.3153866766259074,230
1733461256713429500,-2.0431763916552064,-5.133872708252072,-3.119225076466799,6.481128443962335,-6.39480683581531,-3.643047875040769,-1.5261783599853516,0.0668656304478645,3.2590208053588867,0.0973952900358926,0.4794515846941085,-0.6751814001055306,0.5520601483665766,3.712874174118042,-1.123528003692627,-3.717418193817138,0.6524512767791748,0.2399555742740631,0.0137344002723693,-0.0483623705804348,0.0668773204088211,-0.5192518373966216,0.0396081656217575,0.1318814361862838,-0.2229018696740269,231
1733461256753429500,0.2825251482486725,-3.4589474451869724,-1.0366285285711287,5.582221455907821,-6.975581940189003,-4.043568411333859,-1.734983205795288,0.1897315084934234,3.60747742652893,0.0776011300530859,0.4257185904054862,-0.7245193559652572,0.5364824715717051,3.530897617340088,-1.5191233158111572,-3.5284197330474854,0.5077410936355591,0.0278515368700027,0.1561953723430633,-0.0064624100923538,0.1698256134986877,-0.7625456299751997,-0.0532079860568046,0.0968442534035537,-0.0417408542729914,232
1733461256793429200,2.8352777864605185,-1.8260393691182133,-0.081810268202424,4.568043244075775,-7.389842540282011,-4.549024655351042,-1.796528935432434,-0.2045041024684906,3.340123414993286,0.0542252943437883,0.3711518186722196,-0.7708320452106814,0.5149019635026361,2.4532785415649414,-1.7778767347335815,-3.156773328781128,0.4577124118804931,-0.0944510996341705,0.3170323073863983,0.0162256639450788,0.1894483864307403,-1.226508710870147,-0.0387504659593105,0.2082334755154326,0.2886880547925829,233
1733461256833429200,4.144498682808876,-1.5218191064119335,1.396141639432311,3.57665261811316,-7.549063964945077,-5.137082902470231,-1.8219499588012693,-0.186947226524353,2.991888523101806,0.0313650826688395,0.3222549844528228,-0.8112151736922605,0.4869271414971851,1.3115134239196775,-1.754196047782898,-2.888394355773926,0.389667272567749,-0.1931366324424743,0.4643101692199707,-0.0185255985707044,0.1761555075645446,-1.0500403833299874,0.0402846597135067,0.260633141245786,0.4844515229765325,234
1733461256873429500,5.092968450933695,-1.3291905021876096,2.6804876222431657,2.7061431647643444,-7.534144043710827,-5.664261441212892,-1.606532335281372,0.111536830663681,2.687162637710572,0.0139173896141639,0.2747766233177032,-0.8445678056838173,0.4593575540655809,0.8284192681312561,-1.642926573753357,-2.574127435684204,0.3521574735641479,-0.2676208317279815,0.442621111869812,-0.0882336646318435,0.1401209086179733,-1.1857289567142724,0.1131017059087753,0.3949930050432682,0.5172438585750758,235
1733461256913429500,6.114574766939878,-1.0261147333413363,3.361498293825984,2.0258610997170208,-7.431403800204396,-6.069639646670222,-1.160840630531311,0.1702335476875305,2.2065117359161377,0.002642267673574,0.2313725203605427,-0.8694436507544758,0.4364946449977112,0.4649981558322906,-1.4268649816513062,-2.180218458175659,0.3132879734039306,-0.2958311438560486,0.6213541626930237,-0.1248711943626403,0.0426179990172386,-0.1819412059932947,0.1301681101322174,0.3867505157463252,0.1347987849377095,236
