time_imu,phone_acc_x,phone_acc_y,phone_acc_z,phone_gravity_x,phone_gravity_y,phone_gravity_z,phone_gyro_x,phone_gyro_y,phone_gyro_z,phone_ori_w,phone_ori_x,phone_ori_y,phone_ori_z,watch_gyro_x,watch_gyro_y,watch_gyro_z,watch_acc_x,watch_acc_y,watch_acc_z,headphone_gyro_x,headphone_gyro_y,headphone_gyro_z,headphone_acc_x,headphone_acc_y,headphone_acc_z,frame_imu
1724750993950912800,3.538055468693375,29.046108504056928,-7.025103219205141,0.1949537227036431,9.67426748242378,-1.594023195748776,-0.4151587784290313,-0.5234440565109253,0.2722997367382049,0.3243114829353262,0.3953231930224163,0.6519142132395168,0.5599548497434502,-6.940783977508545,-1.0705835819244385,-0.6183639168739319,0.1871791066467762,1.5259914236605163,-1.317649117475748,0.318284124135971,-0.2543871104717254,17.66045211404562,0.3365415632724762,-2.758808587025106,-3.302276289528608,0
1724750993990665000,1.5266925576671957,18.47961511877775,-7.221577392941713,0.1661576901996508,9.728720372623204,-1.2226218594994396,-1.681503415107727,-0.2895909547805786,-0.1941810399293899,0.3395228171057718,0.3957890886560932,0.6369359190586305,0.5677922120616717,-6.940783977508545,-1.0705835819244385,-0.6183639168739319,0.1871791066467762,1.5259914236605163,-1.317649117475748,0.3062011897563934,0.4167770445346832,19.39118285096288,0.6802803874015808,-3.827152104286849,-1.6286537796251477,1
1724750994030418400,1.1799961121506988,3.952075830289721,-0.9279086261332036,0.0420941794889979,9.794233001497387,-0.4915531716752797,-1.7756096124649048,0.1792679876089096,-0.4479328095912933,0.3573625368665314,0.3784068063224562,0.6179567342315125,0.5892621072353649,-6.940783977508545,-1.0705835819244385,-0.6183639168739319,0.1871791066467762,1.5259914236605163,-1.317649117475748,0.4083448052406311,1.2665380239486694,9.587257892012596,0.3959048092365265,-1.8258875395573675,-0.8925399372406303,2
1724750994069993700,-0.9374358945436776,-11.009523568260668,1.870089523246884,-0.0757603250802727,9.806137374302743,0.0657720835279673,-1.1515014171600342,-0.198576882481575,0.0070095839910209,0.371711181509593,0.3645780355321074,0.6030998366262574,0.604304784837314,-6.940783977508545,-1.0705835819244385,-0.6183639168739319,0.1871791066467762,1.5259914236605163,-1.317649117475748,0.2921592891216278,1.254428744316101,-6.0849593808770175,0.5315571427345276,1.807269786718488,1.2265101721748708,3
1724750994109739800,-0.4438104101063683,-15.421183825969695,2.2710610181778668,-0.0326357682137866,9.79286463575363,0.518782356721349,-1.1079130172729492,-0.1022267416119575,0.0685598477721214,0.3809190985278897,0.3593200464057117,0.5868888863939824,0.6175364459001168,-6.940783977508545,-1.0705835819244385,-0.6183639168739319,0.1871791066467762,1.5259914236605163,-1.317649117475748,0.0205866806209087,-0.5423826575279236,-11.3260339882195,0.5771662592887878,4.071877683234215,0.8757879052083939,4
1724750994149486600,-0.5927525058826432,-13.466921397042274,4.454788036295772,-0.0156741554013453,9.78568846051395,0.6406715738665312,0.7144242525100708,-0.0847499370574951,-0.0176562741398811,0.3834434993021343,0.3582281107363759,0.5822434712805548,0.6209962532366609,-6.940783977508545,-1.0705835819244385,-0.6183639168739319,0.1871791066467762,1.5259914236605163,-1.317649117475748,0.1335580646991729,0.470151275396347,-7.265996964904666,0.061423759907484,1.822818507375568,0.1774731024022214,5
1724750994189232400,0.2900866512778215,-11.175703141498564,-2.0908067423582075,-0.0726631171167595,9.804273918518424,0.2032775884074159,1.124281883239746,-0.1031531915068626,-0.2826240360736847,0.3784108427608809,0.3662377682658951,0.5962429237777945,0.605945149797752,-6.940783977508545,-1.0705835819244385,-0.6183639168739319,0.1871791066467762,1.5259914236605163,-1.317649117475748,-0.0005753202131018,0.0943905487656593,-9.506893730965256,-0.0114422719925642,2.711366744631529,0.294117477696482,6
1724750994228978400,-0.1547646461836062,-9.52135772512555,-3.3609985276103016,-0.1648613485124893,9.804622878086567,-0.1122401946517173,0.4270782768726349,-0.1680261641740799,-0.0811165496706962,0.3772314822670194,0.3714309381071191,0.6064336036488034,0.5932738359397979,-6.940783977508545,-1.0705835819244385,-0.6183639168739319,0.1871791066467762,1.5259914236605163,-1.317649117475748,-0.0445646457374095,0.1329705417156219,-9.588542671126127,-0.1880522668361663,2.8756419455528257,-0.1174705239200964,7
1724750994268725200,-0.2932472707332111,-9.261975552055238,-0.9146458244562148,-0.1348656944277696,9.8041108369112,-0.1777091761804185,0.0893872678279876,0.0006581443012692,0.173313558101654,0.375790367606124,0.3743439349623889,0.6073938300422933,0.5913719801192526,-6.940783977508545,-1.0705835819244385,-0.6183639168739319,0.1871791066467762,1.5259914236605163,-1.317649117475748,-0.0159209221601486,0.0137569103389978,-9.873350961875914,-0.2907792031764984,2.8536916872903704,-0.2488898590199649,8
1724750994348217900,1.012928357901424,-8.956267681139707,0.4778395940234884,-0.0911608922712039,9.801422036218645,-0.3069536331929266,0.2579288482666015,-0.1893988996744156,-0.0044670160859823,0.3717801823644038,0.3779427398498883,0.6105813339940235,0.5883275537936123,-6.940783977508545,-1.0705835819244385,-0.6183639168739319,0.1871791066467762,1.5259914236605163,-1.317649117475748,0.0241887811571359,-0.0697896480560302,-9.323793418064714,-0.2752161920070648,2.9035891061425207,0.9455223895613104,9
1724750994387963600,1.4286336038447915,-1.8444068004578351,-0.2855144297251478,-0.1272354552776552,9.797646609333157,-0.4004239805834367,0.0426729470491409,0.1667115241289138,-0.2519760131835937,0.3733319583880866,0.3809775292058626,0.6125945342624813,0.5832730214614864,-6.940783977508545,-1.0705835819244385,-0.6183639168739319,0.1871791066467762,1.5259914236605163,-1.317649117475748,-0.224390760064125,-3.010436773300171,-7.594394222012162,-0.4524570405483246,4.094276562047004,-0.2439355428145267,10
1724750994427710700,-2.3381709992460906,9.664734514924882,-0.108071010075137,-0.0843120218902826,9.79204338249862,-0.5283370976606384,0.6584482789039612,-0.1632691025733947,0.4496778547763824,0.3699527127818984,0.3851678202926822,0.6152913504891743,0.579825145729463,-6.940783977508545,-1.0705835819244385,-0.6183639168739319,0.1871791066467762,1.5259914236605163,-1.317649117475748,-0.2568510472774505,-2.633662223815918,-1.784498859722912,-0.25216805934906,2.9726997595086693,-0.7885673023950308,11
1724750994467457500,1.4647026960916816,12.332587696522474,-5.111237098073959,0.0081801578005892,9.78744144166112,-0.6134484897676855,-0.4216497838497162,0.2666667401790619,-0.0512043349444866,0.3623351371090911,0.3862729714286708,0.6181184018505244,0.5808925408967955,-6.940783977508545,-1.0705835819244385,-0.6183639168739319,0.1871791066467762,1.5259914236605163,-1.317649117475748,-0.0488858111202716,-1.2696924209594729,7.597180637860298,-0.0509386770427227,-0.7159095510065555,-0.5273654396168888,12
1724750994507203300,0.753253120168671,11.982600538897511,2.159589771205187,-0.0803327155963052,9.796851659563185,-0.4308269002947956,-0.0179118812084198,-0.0514395385980606,-0.1911475211381912,0.3674839438268626,0.3789682519639238,0.6151009042117485,0.5856529572574789,-6.940783977508545,-1.0705835819244385,-0.6183639168739319,0.1871791066467762,1.5259914236605163,-1.317649117475748,0.4343978464603424,-0.069055400788784,15.039962156647444,-0.1774331778287887,-3.1225188573151823,-2.669560570037365,13
1724750994546949400,-0.0080558624173514,5.720266821551323,1.7612731746971606,-0.1053694503657054,9.790270527607202,-0.5566907566919923,0.384266197681427,0.0114118633791804,0.0168594680726528,0.3660279614247769,0.3807892652103639,0.6191791871966239,0.5810682413956869,-6.940783977508545,-1.0705835819244385,-0.6183639168739319,0.1871791066467762,1.5259914236605163,-1.317649117475748,0.4518828690052032,0.348644345998764,6.585375584900379,0.4292936623096466,-1.3385641874715686,0.7658416027806699,14
1724750994626442200,-0.0559109617869369,-6.368685137087106,0.6469627829652279,-0.17677567645628,9.786858088815212,-0.5971335339784621,-0.2367953807115554,0.2903098165988922,-0.0634461864829063,0.3658016143308432,0.3776113235187037,0.6227800783683004,0.5794341786360584,-6.940783977508545,-1.0705835819244385,-0.6183639168739319,0.1871791066467762,1.5259914236605163,-1.317649117475748,0.1675824970006942,0.1746236234903335,-4.9538738684982055,0.1238858550786972,1.1966744213595986,0.3706982660138979,15
1724750994666189000,0.5584842890452594,-8.816764517903328,1.7809212934970855,-0.1704741834255866,9.787314015889168,-0.5914518350802361,0.2258892357349395,0.2716217637062073,0.0047350516542792,0.3621033862067511,0.3738175772785063,0.6248328338764638,0.5820013124143343,-6.940783977508545,-1.0705835819244385,-0.6183639168739319,0.1871791066467762,1.5259914236605163,-1.317649117475748,0.2064486145973205,0.0888152569532394,-7.222732992717623,0.1341886222362518,1.5290636707127094,0.5556927586305886,16
1724750994705934800,1.435274795424938,-6.6785308384597295,1.5716437522888185,-0.2229107653665356,9.7745316912055,-0.7610569257874041,0.5700555443763733,0.1573369204998016,-0.2436804473400116,0.3582055025563118,0.3728534533807877,0.6322842768681113,0.5769623951405042,-6.940783977508545,-1.0705835819244385,-0.6183639168739319,0.1871791066467762,1.5259914236605163,-1.317649117475748,0.1491557359695434,-0.4498617053031921,-5.789637294897437,0.1777497380971908,1.9203646893702448,0.3380011344181373,17
1724750994745681000,1.1752870576769112,9.704292618331312,3.2831051405906675,-0.328487967598252,9.74096435264647,-1.0844795362874864,1.349348068237305,-0.0426642335951328,-0.4626511931419372,0.353772752507772,0.3738057024984769,0.6446412699425775,0.5652891043069251,-6.940783977508545,-1.0705835819244385,-0.6183639168739319,0.1871791066467762,1.5259914236605163,-1.317649117475748,0.0896200761198997,-0.5820921659469604,1.7182533865295349,-0.1472755521535873,-0.2986627199106849,-0.6967112948659807,18
1724750994785427500,-4.452886002066731,25.94671859339476,-11.297598167330026,-0.3307286226645112,9.666131522241232,-1.6207660951152445,0.1116678789258003,0.0052217836491763,0.7368320822715759,0.3479925795105922,0.3889288389251568,0.6567879641701645,0.5443023228075335,-6.940783977508545,-1.0705835819244385,-0.6183639168739319,0.1871791066467762,1.5259914236605163,-1.317649117475748,0.1181685775518417,-0.4435366690158844,14.366727379763123,0.5231978893280029,-4.214795915611088,0.1499220284580253,19
1724750994825173500,0.7098307425495237,25.15286538648605,-8.528602240550518,-0.1599126583302393,9.765817638874053,-0.8795626745067536,-2.392402648925781,0.2811463177204132,0.1168461516499519,0.3508388357142753,0.3734787752204946,0.6366779551880433,0.5762524946025455,-6.940783977508545,-1.0705835819244385,-0.6183639168739319,0.1871791066467762,1.5259914236605163,-1.317649117475748,0.3147453665733337,0.2648265361785888,24.53606152187585,0.4992052614688873,-5.129662981602549,-3.6197035320714113,20
1724750994864919600,0.6847721430081873,6.114964643040299,-1.4418810618221758,-0.0954992046033032,9.803334007319808,-0.2364549595344811,-1.4742834568023682,-0.2185767740011215,0.0239119511097669,0.3640815289977282,0.3670020577852281,0.6143006898052019,0.5961449676834717,-6.940783977508545,-1.0705835819244385,-0.6183639168739319,0.1871791066467762,1.5259914236605163,-1.317649117475748,0.5782561898231506,1.2066011428833008,15.043961455416678,0.1973074525594711,-2.741343365222216,-1.176542245369777,21
1724750994944412000,0.372805467426218,-14.797583140826225,5.02033459187746,-0.0301354689807863,9.762577049517631,0.9282090703845024,-0.6243622899055481,0.4160425066947937,-0.0323145687580108,0.3773388300680566,0.3413759350959279,0.5797732130055704,0.6363496729147683,-6.940783977508545,-1.0705835819244385,-0.6183639168739319,0.1871791066467762,1.5259914236605163,-1.317649117475748,0.0715585127472877,-0.1850411742925644,-10.260172350901364,0.3012361526489258,2.8949831903606653,0.9593808190438896,22
1724750994984159000,1.0702013470228762,-13.772829758965967,2.923846296751499,-0.1452911720532924,9.771370012304187,0.8182906788770109,1.169860601425171,-0.5024095773696899,-0.3485596477985382,0.3792414978717128,0.3401488058420471,0.5853012699198481,0.6307908141378558,-6.940783977508545,-1.0705835819244385,-0.6183639168739319,0.1871791066467762,1.5259914236605163,-1.317649117475748,0.0544543303549289,0.4533293545246124,-7.459163329267501,0.0083117168396711,1.5425668570168316,0.6708231126327068,23
1724750995023904800,0.0783387926995754,-11.701543709635734,-3.3359202004551887,-0.2011914663157425,9.796958042547104,0.3867122660951688,0.6719385981559753,-0.1998102068901062,-0.0312935225665569,0.3793017410370293,0.3524508417771268,0.5967089457839081,0.6130637433538272,-6.940783977508545,-1.0705835819244385,-0.6183639168739319,0.1871791066467762,1.5259914236605163,-1.317649117475748,-0.0926268249750137,0.2237822264432907,-9.16111396190226,-0.0612703002989292,2.0651709274508057,0.622738150030002,24
1724750995063650600,-0.0232894344443455,-9.51569020088315,-1.169244854903221,-0.2087983976555056,9.801347801938652,0.2456811809054575,0.3102675676345825,-0.0105891702696681,-0.0564992949366569,0.3776680791704445,0.3556058553392539,0.6008479183898485,0.6081883091644701,-6.940783977508545,-1.0705835819244385,-0.6183639168739319,0.1871791066467762,1.5259914236605163,-1.317649117475748,-0.1471807658672332,0.0898217484354972,-10.021616108238696,0.0425864197313785,2.77233120868206,0.410530437121354,25
1724750995103397600,0.0922679127981886,-9.197730751159789,-0.165625446486473,-0.2440002420811913,9.80331296453178,0.076740636787936,0.5034974813461304,-0.1168854683637619,-0.1114625409245491,0.3759205237098244,0.3580087047978885,0.6065616899946764,0.6021597675754515,-6.940783977508545,-1.0705835819244385,-0.6183639168739319,0.1871791066467762,1.5259914236605163,-1.317649117475748,-0.1550609022378921,0.0709485486149787,-9.8349993116498,-0.1367115974426269,2.899174212309718,-0.4749929358880966,26
1724750995222714600,0.948013402659446,0.8497720780074596,0.2285644254803657,-0.3407841892654076,9.797392342311143,-0.2556489778913557,0.0711802765727043,0.3443393409252167,-0.3163149058818817,0.3709633720797758,0.3594439625802817,0.6195437899921421,0.5910598511002538,-6.940783977508545,-1.0705835819244385,-0.6183639168739319,0.1871791066467762,1.5259914236605163,-1.317649117475748,-0.0584431551396846,-3.919223546981812,-4.278518153937161,-0.6694819331169128,4.39415791876614,-0.9451474187690764,27
1724750995262463200,0.213871298739314,11.15738188738823,-0.4136485691418871,-0.4413202737910672,9.782304663294552,-0.531163626323454,0.8456245064735413,-0.2547684013843536,-0.037804115563631,0.3702956595647069,0.3629575645193079,0.6287635605830161,0.5794819193684314,-6.940783977508545,-1.0705835819244385,-0.6183639168739319,0.1871791066467762,1.5259914236605163,-1.317649117475748,-0.52614825963974,-2.81129002571106,1.0487611571744084,-0.1810197681188583,3.854328865025937,0.6230389596074819,28
1724750995302212600,-1.7426573215544223,12.694604314637184,-2.6591619256198404,-0.42200058322791,9.774530522161722,-0.6714717857997864,0.1766196191310882,-0.2371146827936172,0.0515941865742206,0.3691990227139754,0.3685232041299298,0.6312100932045047,0.5739831465132886,-6.940783977508545,-1.0705835819244385,-0.6183639168739319,0.1871791066467762,1.5259914236605163,-1.317649117475748,-0.413929134607315,-1.7185237407684326,11.611804401999713,-0.224896103143692,-1.3087505023576318,-0.2147000411810353,29
1724750995341961500,-2.1134246707491577,13.098846794062853,2.442499534857273,-0.4522618294462561,9.76188848273158,-0.8193798623532056,1.079087495803833,-0.4039611518383026,0.0656393989920616,0.3705172298231149,0.3739438134221473,0.6339895680077666,0.5665159174877579,-6.940783977508545,-1.0705835819244385,-0.6183639168739319,0.1871791066467762,1.5259914236605163,-1.317649117475748,0.154446542263031,0.7204658389091492,12.463895862865447,-0.3107650876045227,-2.2861409522794185,-1.552634954305738,30
1724750995381709800,-0.2300971880055964,4.69660708014667,-3.3485657470166683,-0.3952382850412279,9.723220021641254,-1.2137356654714793,0.3901781439781189,0.2591336667537689,0.1438081711530685,0.3628190880098544,0.3850805404261269,0.6431145116444332,0.553605424763056,-6.940783977508545,-1.0705835819244385,-0.6183639168739319,0.1871791066467762,1.5259914236605163,-1.317649117475748,-0.0211077779531478,0.4154890477657318,2.84128988635689,0.0163391660898923,-0.1687489488018676,-0.5247030520072207,31
1724750995421462500,0.9355668858014048,-2.7847534678816794,-1.9144833762466904,-0.3495861756086349,9.735569800126552,-1.1255544009324163,-0.5352013111114502,0.1823649853467941,0.0510629080235958,0.3596328475829602,0.380777119287247,0.6421807293376848,0.55971154593197,-6.940783977508545,-1.0705835819244385,-0.6183639168739319,0.1871791066467762,1.5259914236605163,-1.317649117475748,-0.0843313708901405,0.3679864406585693,-3.176640908125042,-0.1426412016153335,1.0276005879849195,-0.8334907322268933,32
1724750995461211000,0.9881901494208722,-6.451416027265787,0.845579740884155,-0.335770489289239,9.750926359212398,-0.9884829948876052,-0.0974236577749252,-0.160957932472229,0.0014452014584094,0.362133534203548,0.378951032791044,0.6378046097600351,0.5643233244344532,-6.940783977508545,-1.0705835819244385,-0.6183639168739319,0.1871791066467762,1.5259914236605163,-1.317649117475748,-0.0460439063608646,0.1824884861707687,-6.074298286131024,-0.1125432774424552,1.6581605907469987,-0.3098237818017602,33
1724750995500960500,0.8552531397670506,-7.9634128278434275,0.7207960078738629,-0.3589055368894711,9.746346045684811,-1.0248591803222895,0.2514509856700897,-0.2477850615978241,-0.0387315191328525,0.3644251924168055,0.3815163419653724,0.6377292176971842,0.5611961546643943,-6.940783977508545,-1.0705835819244385,-0.6183639168739319,0.1871791066467762,1.5259914236605163,-1.317649117475748,0.0097318403422832,-0.0367546491324901,-6.744369630548357,0.0903737992048263,1.7908866610638796,0.0559020158620784,34
1724750995540709000,0.1115120173744857,-4.723673950770497,-0.1760639845229685,-0.3253444088755175,9.73952759784162,-1.0982505066823214,0.0646475180983543,-0.061239656060934,0.2243682295083999,0.3641571747794961,0.3864277520113706,0.6377058754823705,0.5580272654226253,-6.940783977508545,-1.0705835819244385,-0.6183639168739319,0.1871791066467762,1.5259914236605163,-1.317649117475748,0.0124959545210003,-0.3712022006511688,-3.7910602156862616,0.1617319583892822,0.5101306655690073,-0.3011165245372801,35
1724750995580457700,2.057419874932617,10.250137279099226,0.827683141926676,-0.2843637983852997,9.728726217842102,-1.2005799043655394,0.6231388449668884,-0.3627530634403229,-0.1138457283377647,0.3616585566280461,0.3904993328731088,0.6393143273618225,0.554968881676416,-6.940783977508545,-1.0705835819244385,-0.6183639168739319,0.1871791066467762,1.5259914236605163,-1.317649117475748,-0.1858442574739456,-0.6591650247573853,2.481798402805626,0.1525921672582626,-0.9177066002663224,-1.2563636047773064,36
1724750995620207400,-0.2390759374215267,25.77048524365425,-7.249850716745853,-0.2927361246069893,9.718316467508672,-1.280241323971003,-0.6339983940124512,-0.9585415720939636,0.2457703202962875,0.3694111278967397,0.4023008215863993,0.6351599739825001,0.546133047685576,-6.940783977508545,-1.0705835819244385,-0.6183639168739319,0.1871791066467762,1.5259914236605163,-1.317649117475748,0.1588853746652603,-0.6222676634788513,14.100904359990356,0.55198734998703,-4.379455439674854,-1.9507827701181173,37
1724750995659955700,0.1338180668046698,24.91236034784317,-5.530359166723489,-0.3561793267959728,9.779322432613371,-0.6390490872312337,-1.932057857513428,-1.0577566623687744,-0.2786735296249389,0.3953771025604546,0.4000891493453905,0.6103368818732433,0.5577585297905056,-6.940783977508545,-1.0705835819244385,-0.6183639168739319,0.1871791066467762,1.5259914236605163,-1.317649117475748,0.1211400553584098,0.4219067394733429,20.736737043452266,0.8675899505615234,-3.957164677861333,-2.4795935862377285,38
1724750995699705300,-1.0851958678632974,6.811123783916234,-0.3777969555705786,-0.3873881560627371,9.798799871021508,0.0620610408153152,-1.9373235702514648,0.2736399173736572,0.198667973279953,0.4167092806503263,0.3912238630294371,0.5863272605258049,0.5740363338161318,-6.940783977508545,-1.0705835819244385,-0.6183639168739319,0.1871791066467762,1.5259914236605163,-1.317649117475748,0.5731682181358337,1.373793125152588,15.954540176564452,0.3615843951702118,-3.1636478633001444,-1.712242163415998,39
1724750995739454000,-1.1952112169392406,-10.368487764191627,6.009069150373339,-0.2583687399777584,9.776073659950494,0.7294113490711898,-0.9776232242584229,0.3853038847446441,0.4477725028991699,0.4198429821749437,0.374826523569114,0.5677283240915897,0.6007675515507964,-6.940783977508545,-1.0705835819244385,-0.6183639168739319,0.1871791066467762,1.5259914236605163,-1.317649117475748,0.3690718412399292,1.8418227434158323,-3.117077250783145,0.4964945316314697,0.7296917003825306,1.2324741951458156,40
1724750995779202600,-0.716489177525416,-14.983245997691151,4.065309995281696,-0.1623325424209237,9.778253926599024,0.7278818014163524,0.5981926918029785,0.4711477756500244,0.1899539232254028,0.4114710711670358,0.3725858999359625,0.5692697981011486,0.6064679253261155,-6.940783977508545,-1.0705835819244385,-0.6183639168739319,0.1871791066467762,1.5259914236605163,-1.317649117475748,-0.1016265600919723,-0.226521298289299,-11.21599423535466,0.5231841802597046,3.792574419641495,1.4069687383949756,41
1724750995857458400,1.4741115988194942,-10.138490091037747,-5.369508095031977,-0.0595872848126571,9.80644307925105,-0.0223840031873551,0.1918412446975708,-0.2132689803838729,-0.1424625217914581,0.3945644727484489,0.3918911620742417,0.589544386460899,0.5858135785991809,-6.940783977508545,-1.0705835819244385,-0.6183639168739319,0.1871791066467762,1.5259914236605163,-1.317649117475748,-0.1538384407758712,-0.0168739333748817,-9.788286660313606,0.2539317011833191,3.107758218295872,0.7260789167128503,42
1724750995897208000,-0.1478135849366895,-8.00557731435597,-1.4402876551508903,-0.0972928282881155,9.806165431353447,-0.0047624463243264,-0.1108622103929519,0.0189434085041284,-0.0690564662218093,0.3975916693666846,0.3919632280712745,0.5887339339904849,0.5845322656858344,-6.940783977508545,-1.0705835819244385,-0.6183639168739319,0.1871791066467762,1.5259914236605163,-1.317649117475748,-0.2152644395828247,0.0824862271547317,-9.616302200189232,0.1901960968971252,2.96203048145622,-0.112914166656835,43
1724750995936956700,0.0198972255896311,-8.550284495526551,-0.8431336629062891,-0.1475381381293293,9.805294493737817,0.0693577417287044,-0.2407202273607254,0.2211616188287735,-0.2093650698661804,0.3984977827532156,0.3868731888504129,0.5888912251335766,0.5871419951795313,-6.940783977508545,-1.0705835819244385,-0.6183639168739319,0.1871791066467762,1.5259914236605163,-1.317649117475748,-0.2048813551664352,0.1043158248066902,-9.783480136814712,-0.1936703324317932,3.2831311518147586,-0.8587426623832434,44
1724750995976705000,0.5278577531784773,-9.481573411747812,-0.3578472234755754,-0.2724264183594845,9.801648246189952,0.1544895738355815,-0.2149658799171447,0.2723616659641266,-0.4193011820316314,0.401234169997641,0.3787020908144672,0.5905149872365164,0.5889719501482358,-6.940783977508545,-1.0705835819244385,-0.6183639168739319,0.1871791066467762,1.5259914236605163,-1.317649117475748,-0.1622979491949081,-0.0106803216040134,-9.668034725514053,-0.3653234839439392,3.3274028397396207,-0.3305132994133979,45
1724750996016454700,0.6884244549706577,-9.264029561975596,0.6909960590243339,-0.4499024068385362,9.794943780115249,0.1644815736809745,0.2177143543958664,0.1102908477187156,-0.3516643345355987,0.4036563344716294,0.3700042985457152,0.5955758494577578,0.5877481028202473,-6.940783977508545,-1.0705835819244385,-0.6183639168739319,0.1871791066467762,1.5259914236605163,-1.317649117475748,-0.1607649177312851,-0.1716930568218231,-10.050895978736875,-0.4284391403198242,3.468666875168681,0.2543921279643662,46
1724750996056203000,1.0341478176712988,-2.1547692191809413,1.2045353639930485,-0.5268761217299849,9.792420983639358,0.0355119104552781,0.2250003069639206,0.3186007142066955,-0.2467646300792694,0.4027763369937928,0.3695454475623708,0.6013531064928448,0.5827364327331971,-6.940783977508545,-1.0705835819244385,-0.6183639168739319,0.1871791066467762,1.5259914236605163,-1.317649117475748,-0.4320619702339172,-2.4481003284454346,-0.1519794541781768,-0.865614116191864,1.3608445544712244,-0.7409708539616316,47
1724750996135701200,-1.3237750530101358,9.462222814589738,-2.189849300390482,-0.6131335785996168,9.76156933377981,-0.7114749295599758,0.95650315284729,-0.0638172253966331,0.1154517978429794,0.3869724180534709,0.3775515615561965,0.6274790395115091,0.5603366237482443,-6.940783977508545,-1.0705835819244385,-0.6183639168739319,0.1871791066467762,1.5259914236605163,-1.317649117475748,-0.3557263314723968,-1.990622401237488,2.1552960195340214,0.3243364989757538,1.1642378403961655,1.383472711995244,48
1724750996175449900,-0.4992790166869759,11.06515602363348,0.3429916727144271,-0.6249480811644346,9.75422189362645,-0.7968430363744496,0.0847841873764991,0.622258722782135,-0.064035527408123,0.3824562288591125,0.3752435626420036,0.6323131789765369,0.5595529174455043,-6.940783977508545,-1.0705835819244385,-0.6183639168739319,0.1871791066467762,1.5259914236605163,-1.317649117475748,0.0013992158928886,0.1183210611343383,15.317710592013595,-0.3942241668701172,-3.138349755914509,-2.529091484378278,49
1724750996215066000,0.4579376831255853,7.78990568819642,1.1535948658287525,-0.6482766420427709,9.712906132897734,-1.1872638381313532,1.661478042602539,-0.179130345582962,-0.1841850876808166,0.371234536657349,0.3770238263662672,0.6468281409368403,0.5492279823667,-6.940783977508545,-1.0705835819244385,-0.6183639168739319,0.1871791066467762,1.5259914236605163,-1.317649117475748,-0.0479423031210899,-0.1147059127688407,3.757553667403757,-0.3324005603790283,-0.073138895102078,0.3865824657030403,50
1724750996254809900,-0.5878483306955545,2.0355185703784224,-0.3484697387993336,-0.7538024976797402,9.618108372828363,-1.759026126422733,0.8622475266456604,1.1207737922668457,-0.303786426782608,0.3610264406787337,0.3819182187576764,0.6662010575683514,0.5291262763393029,-6.940783977508545,-1.0705835819244385,-0.6183639168739319,0.1871791066467762,1.5259914236605163,-1.317649117475748,-0.0935495346784591,0.3254660665988922,2.4186865514628586,-0.3709210753440857,-0.7161115033194422,-0.028272958477959,51
1724750996294553600,1.0024942037791014,-0.240440156713128,-1.2917195803187786,-0.7675631658762693,9.600870237779615,-1.8451332150362432,-0.1178987100720405,1.1925197839736938,-0.3669968545436859,0.3440883207646332,0.3632433143488306,0.6798013713582924,0.5362160112700339,-6.940783977508545,-1.0705835819244385,-0.6183639168739319,0.1871791066467762,1.5259914236605163,-1.317649117475748,-0.1009696424007415,0.2228561490774154,-1.521950185445696,-0.3351993262767792,0.4384830045385286,0.2884106991559267,52
1724750996334298000,0.3159006905626505,-2.2581711414664984,-0.3873781461253762,-0.782620522819832,9.57949134966433,-1.947118110130727,0.4252751767635345,0.2737650275230407,0.045521330088377,0.3338120512054336,0.3533044753815766,0.6888042868393719,0.5378608022137873,-6.940783977508545,-1.0705835819244385,-0.6183639168739319,0.1871791066467762,1.5259914236605163,-1.317649117475748,-0.024367082864046,0.2291153818368911,-1.950656074998528,-0.224740132689476,0.3919986820654943,0.5908821089008822,53
1724750996374042000,-0.7409473269555718,-2.602794141709804,-0.6786380972325802,-0.6856975142247974,9.56483329423666,-2.052847160189599,0.0287662614136934,0.3440432250499725,0.3388625681400299,0.3272548965346321,0.3562125687679716,0.6912153659239914,0.5368782195025048,-6.940783977508545,-1.0705835819244385,-0.6183639168739319,0.1871791066467762,1.5259914236605163,-1.317649117475748,-0.054870419204235,0.170487031340599,-1.5212107652552425,-0.1647622138261795,0.4359645554441958,0.5419564942229539,54
1724750996413786600,0.066194108332321,-2.920709167769551,-0.8605144212961197,-0.5032854758493602,9.584969488814473,-2.01133090845272,-0.2334215193986892,0.1736079752445221,0.5376706123352051,0.3192639883283279,0.3574632646432374,0.6890350891801978,0.5436185810350745,-6.940783977508545,-1.0705835819244385,-0.6183639168739319,0.1871791066467762,1.5259914236605163,-1.317649117475748,-0.1259199976921081,0.1358740478754043,-0.8306001984171569,-0.2686938345432281,0.3584558568932116,0.3011543723296374,55
1724750996453528300,0.4815479470221325,0.4252010963022709,2.1429808739706875,-0.3208373067146167,9.611143794512747,-1.9218166417442264,-0.2538930475711822,0.998944878578186,0.1282701045274734,0.3090719102390779,0.3542134284416133,0.687399610395471,0.5536146993124862,-6.940783977508545,-1.0705835819244385,-0.6183639168739319,0.1871791066467762,1.5259914236605163,-1.317649117475748,-0.190199926495552,0.1003856286406517,-0.7441444424964487,-0.3325133323669433,0.3177566936928778,0.4723199172865599,56
1724750996493272000,-0.3955763213565573,-0.4209212270259856,1.7364450229108332,-0.1383306123256683,9.601637130498885,-1.9899305391579865,0.5166903734207153,0.3802999556064605,0.4555738866329193,0.2940664054291673,0.3513293633765555,0.6913941733160474,0.5586293703425478,-6.940783977508545,-1.0705835819244385,-0.6183639168739319,0.1871791066467762,1.5259914236605163,-1.317649117475748,-0.1984414756298065,0.0428389236330986,-0.3385466029390692,-0.3130728900432586,0.226921772839874,0.2372806880352087,57
1724750996533016600,0.3293780483057722,0.3858376386851072,0.030534692864865,-0.0097520718759857,9.56206850569844,-2.176486983861774,0.4066928029060364,0.6322596073150635,0.0972417593002319,0.2835243112978597,0.35460083142345,0.6965832332866461,0.5555572540303159,-6.940783977508545,-1.0705835819244385,-0.6183639168739319,0.1871791066467762,1.5259914236605163,-1.317649117475748,-0.0763526260852813,0.0701236799359321,-0.1528400987286586,-0.3971799910068512,0.1103697063384111,-0.2057295481367967,58
1724750996572760300,0.9852274271577596,0.4170324028939008,-2.292065812283754,0.0767506101926788,9.551525484374164,-2.2210041709803043,-0.4025904536247253,1.2979451417922974,-0.1756359189748764,0.2666870759513493,0.3414854955270619,0.7047179252510487,0.5618169951533889,-6.940783977508545,-1.0705835819244385,-0.6183639168739319,0.1871791066467762,1.5259914236605163,-1.317649117475748,-0.0398948825895786,-0.0333568155765533,-0.1596813337923958,-0.2728305757045746,0.2493326891503296,0.3183710992641747,59
1724750996612504800,0.5150175242951139,0.5563216311186552,0.2478194533094763,0.1001424090329557,9.580729367026686,-2.0904576366595924,0.0876078084111213,0.1800362467765808,-0.0752904787659645,0.2601415352093197,0.3304090637177738,0.705275499476913,0.5707388617636258,-6.940783977508545,-1.0705835819244385,-0.6183639168739319,0.1871791066467762,1.5259914236605163,-1.317649117475748,-0.0378432236611843,-0.0909973010420799,0.0194799660086515,-0.0889882668852806,0.0779744711655192,0.4116434033319354,60
1724750996652248800,-0.1545273120300844,-0.0065559975147247,-0.005581891785562,0.0859932986412663,9.54759808179736,-2.2374857885733244,0.4220048487186432,0.7346031665802002,-0.1424238830804824,0.2534854217341418,0.3261851408158315,0.7125189673362728,0.5671552311241178,-6.940783977508545,-1.0705835819244385,-0.6183639168739319,0.1871791066467762,1.5259914236605163,-1.317649117475748,-0.0416501350700855,-0.0587722547352314,0.1227186537066474,0.0793545395135879,0.0097940855284512,0.521716400879249,61
1724750996691993600,-0.2326023757595569,-0.5297638790607452,-0.1897618166163563,0.1125928622805979,9.530018001443148,-2.3100841379247603,-0.0460999459028244,0.4962711632251739,-0.0186140779405832,0.2459002840682246,0.3211203236834999,0.7174003439850215,0.5672315745205846,-6.940783977508545,-1.0705835819244385,-0.6183639168739319,0.1871791066467762,1.5259914236605163,-1.317649117475748,-0.0498028025031089,-0.0345274694263935,-0.0424247357507701,0.081735074520111,0.0424571949819568,0.1644092938960529,62
1724750996731737000,1.2555262771703302,-0.1852981152057647,-0.306586407315731,0.2127178361215628,9.55425812420845,-2.200292952993512,-0.5270704627037048,-0.001415189821273,0.0403121225535869,0.2404658381337457,0.3181113235890025,0.7148348778483662,0.574449715235766,-6.940783977508545,-1.0705835819244385,-0.6183639168739319,0.1871791066467762,1.5259914236605163,-1.317649117475748,-0.0513860397040843,0.0058215409517288,0.0442828166736522,-0.0157366525381803,-0.0242387436589691,0.0651033128543524,63
1724750996771480800,0.8762443437390028,0.2096621566116809,1.4865128152310847,0.192617096449621,9.585316110295055,-2.062766788918525,-0.1171842142939567,-0.2012040466070175,-0.0376538895070552,0.2454411713848595,0.3181927400107606,0.7098769044892388,0.5784348106598631,-6.940783977508545,-1.0705835819244385,-0.6183639168739319,0.1871791066467762,1.5259914236605163,-1.317649117475748,-0.0581988953053951,0.0061795329675078,-0.0031769312693737,-0.0411121733486652,0.094169864828838,0.1879592607064172,64
1724750996850969300,-0.8260040297333151,0.0581733720272779,0.1199836392521858,0.1209117595483083,9.556491582348942,-2.197551837591827,0.2414587587118148,0.7446662187576294,-0.1796993464231491,0.2400926444841447,0.3106721120181021,0.7180019516973704,0.5747273881152737,-6.940783977508545,-1.0705835819244385,-0.6183639168739319,0.1871791066467762,1.5259914236605163,-1.317649117475748,-0.0385685414075851,0.0039460845291614,-0.0191003327410318,-0.0745257437229156,-0.080617523887055,-0.017022946511663,65
1724750996890713900,-0.0603913951366208,0.0235737678110599,-1.6590660151541232,0.1578052559885196,9.547696281474828,-2.2331584268935023,-0.1164701431989669,0.9304461479187012,-0.1101501435041427,0.2283727509197455,0.2999450494784586,0.7238040875165909,0.5779157201463149,-6.940783977508545,-1.0705835819244385,-0.6183639168739319,0.1871791066467762,1.5259914236605163,-1.317649117475748,-0.0307557806372642,0.0372791364789009,0.0037884199394437,-0.0363156683743,-0.1459405302069615,0.0726940511111402,66
1724750996930457600,1.0058117308292538,-0.1293961952418088,-1.750624208780378,0.3015719766872003,9.572276595979927,-2.109726985275,-0.3120540678501129,3.8979525566101074,-0.0313266925513744,0.200036496277827,0.2720350489941908,0.7304540172665036,0.5936490710585306,-6.940783977508545,-1.0705835819244385,-0.6183639168739319,0.1871791066467762,1.5259914236605163,-1.317649117475748,-0.0421536341309547,0.0394140258431434,0.0256300290540093,0.0118735013529658,-0.1017411768659483,0.1729069817967712,67
1724750996970201300,-2.6440473585963247,-0.4166770135849714,-0.6679857703149318,0.815775335055217,9.5854213242352,-1.903835579373688,-0.3724114596843719,4.295163154602051,0.9017307162284852,0.1322318441313888,0.2244727402124861,0.7393785151150147,0.6208430967308802,-6.940783977508545,-1.0705835819244385,-0.6183639168739319,0.1871791066467762,1.5259914236605163,-1.317649117475748,-0.0566376522183418,-0.0605590976774692,-0.1022357463167048,0.0510322861373424,0.1005319198071956,0.2689771546884439,68
1724750997049689600,-1.1853170149125158,-0.772034173810482,-2.523701315772533,1.7609728765763342,9.607387656849625,-0.8760651147145777,-0.9591159224510192,3.108821392059326,0.1968270540237426,0.0027627290384933,0.1360278619151901,0.7253711531848973,0.6747781855822208,-6.940783977508545,-1.0705835819244385,-0.6183639168739319,0.1871791066467762,1.5259914236605163,-1.317649117475748,-0.1556348651647567,-0.0653801709413528,-0.1394055115481838,-0.0177659336477518,-0.0429567100358894,-0.0550032312582945,69
1724750997089434400,0.727968675982207,-0.5345072741955519,-1.456461375838518,1.863754621136933,9.625440615412591,-0.2184318663868121,-1.6441032886505127,2.157265901565552,-0.0262762084603309,-0.0276054283384338,0.1080892477312601,0.7067203407986178,0.698642313500784,-6.940783977508545,-1.0705835819244385,-0.6183639168739319,0.1871791066467762,1.5259914236605163,-1.317649117475748,-0.1592261791229248,-0.0977967083454132,-0.0937202852972783,-0.0812995508313179,0.011542311727046,-0.0249332104628439,70
1724750997129178000,-0.01551671808362,-0.0027794015854597,2.5119553483992814,1.8018902856372296,9.626720718351006,0.4998006659409031,-1.0385454893112185,2.5008561611175537,-0.0582467429339885,-0.0587096068317923,0.0714816207788207,0.6851332976450195,0.7225204615808731,-6.940783977508545,-1.0705835819244385,-0.6183639168739319,0.1871791066467762,1.5259914236605163,-1.317649117475748,-0.1930315196514129,-0.138996809720993,-0.2478593103958293,-0.0947528406977653,0.2574311851330101,0.0503047073116758,71
1724750997168921600,-0.8159354209877551,-0.8365846796542405,3.442485555207729,1.8385588050819928,9.582453122079372,0.9831962135910988,-0.693518877029419,2.1968019008636475,0.5163865089416504,-0.0902028664238395,0.0453375124326731,0.6691901486960719,0.7362013740775907,-6.940783977508545,-1.0705835819244385,-0.6183639168739319,0.1871791066467762,1.5259914236605163,-1.317649117475748,-0.2494896799325943,-0.2205974459648132,-0.1601968820990994,-0.1492964625358581,0.2663579303670674,-0.2088611606934107,72
1724750997208666400,-0.2854676314413547,-0.2351514026552438,2.180797540537268,1.9458466288901863,9.514929153382775,1.3602267148338258,-0.3897949755191803,1.8002690076828003,0.5606527924537659,-0.1301194305079245,0.0186421267826278,0.6559727174408453,0.7432505246708777,-6.940783977508545,-1.0705835819244385,-0.6183639168739319,0.1871791066467762,1.5259914236605163,-1.317649117475748,-0.2370836436748504,-0.1836578249931335,-0.0681707330343779,-0.2442582845687866,0.1817113975591026,-0.2776138674673624,73
1724750997248410000,-0.1359041158311069,0.2877782464712858,1.288104604692012,2.0352543664842844,9.483558448085189,1.4457745621293785,0.3091975450515747,-0.1952867209911346,0.0470258928835392,-0.1420785116069017,0.0148241989139731,0.6527375089740838,0.7439944948348101,-6.940783977508545,-1.0705835819244385,-0.6183639168739319,0.1871791066467762,1.5259914236605163,-1.317649117475748,-0.2298153340816497,-0.1700516492128372,-0.0110610584155889,-0.1720554828643798,0.1804180880792439,-0.0661809611563803,74
1724750997328002000,-0.3447172543980181,-0.2096177329480648,-0.1725795764733105,2.0770716469943524,9.518871753528714,1.1167924908712503,0.1921591758728027,0.1689806282520294,0.2131551206111908,-0.1403077620946335,0.0171074937688623,0.6654072174364943,0.7329763004625377,-6.940783977508545,-1.0705835819244385,-0.6183639168739319,0.1871791066467762,1.5259914236605163,-1.317649117475748,-0.1570143401622772,-0.1370787918567657,-0.1777109297460876,-0.1287491470575332,0.2327232621928676,-0.2615950998794287,75
1724750997367749000,0.6602727117195725,-0.3851847277343272,0.1107020161658525,2.156804816661775,9.501406823986768,1.1143812650110572,0.0269316453486681,0.584962785243988,0.2849282920360565,-0.1499049766316142,0.0139450388661972,0.6655733640556102,0.730989843709505,-6.940783977508545,-1.0705835819244385,-0.6183639168739319,0.1871791066467762,1.5259914236605163,-1.317649117475748,-0.1281026303768158,-0.1045466437935829,-0.1048330875998362,-0.1575496196746826,0.0848319358448497,-0.2140812516955658,76
1724750997407497700,0.4424297328703105,-0.3762766141355037,0.7649800905805081,2.22486040801704,9.481275305584072,1.1514285546403378,0.1086117997765541,0.4340282082557678,0.2134882062673568,-0.1602290593795995,0.009597949828503,0.6642299019731595,0.7300911420935389,-6.940783977508545,-1.0705835819244385,-0.6183639168739319,0.1871791066467762,1.5259914236605163,-1.317649117475748,-0.0998250022530555,-0.0887041166424751,-0.198601358490996,-0.1659704446792602,0.1137469642191659,-0.1057249949382618,77
1724750997447240700,0.8855227519549429,0.2308621810287237,0.2249911701034754,2.261206271378696,9.484807571363447,1.046778970381245,0.5312929749488831,-0.0463224165141582,-0.0650089085102081,-0.1655691768570496,0.0064036455419599,0.6682724882557072,0.7252293788853837,-6.940783977508545,-1.0705835819244385,-0.6183639168739319,0.1871791066467762,1.5259914236605163,-1.317649117475748,-0.0773261189460754,-0.0959403663873672,-0.1399091593545395,-0.1674528270959854,0.0349353161437204,-0.1862596537142992,78
1724750997486989300,0.2631907715730369,0.2258528284341096,-0.6084311730623245,2.181139339712262,9.526029808589817,0.8171758495029061,0.4562714695930481,-0.3510347008705139,-0.3426372110843658,-0.1589800437303217,0.0049816175035619,0.6769865648853393,0.7186026392031998,-6.940783977508545,-1.0705835819244385,-0.6183639168739319,0.1871791066467762,1.5259914236605163,-1.317649117475748,-0.0530368015170097,-0.1375219076871872,-0.1553332763844169,-0.1799725443124771,-0.0296085270638111,-0.1434481380024924,79
1724750997526736400,-0.6551065611280501,0.0611491729676723,-0.4011596379142254,2.097762845106423,9.555611876904964,0.678288333946839,0.2123628109693527,0.1231452375650405,-0.0471708998084068,-0.154187001129915,0.0024739965720454,0.6822102319297642,0.7147094192011135,-6.940783977508545,-1.0705835819244385,-0.6183639168739319,0.1871791066467762,1.5259914236605163,-1.317649117475748,-0.0377819463610649,-0.1122798770666122,-0.0601264240575023,-0.1668751537799835,-0.0839237349587492,-0.1439035262203309,80
1724750997566484700,-0.1002015188090503,-0.0971270797997713,-0.3296522256046533,2.1225535874918102,9.551081247738002,0.6648400927003473,0.0458674952387809,0.5160138607025146,0.1481223106384277,-0.1616787662713628,-0.0030307883171096,0.6827103365944845,0.7125710198866954,-6.940783977508545,-1.0705835819244385,-0.6183639168739319,0.1871791066467762,1.5259914236605163,-1.317649117475748,-0.0164941139519214,-0.0703100040555,0.0829596574332565,-0.1464423686265945,-0.2130289113647304,-0.145603133212449,81
1724750997645979400,-0.2260715857513248,0.0567792873203754,0.5117805516678839,2.214156935434043,9.522871636819838,0.7634309614423662,0.1919132769107818,0.5548722743988037,0.2725782394409179,-0.1829275623210588,-0.0158771081569313,0.6788400185882263,0.7109583198781191,-6.940783977508545,-1.0705835819244385,-0.6183639168739319,0.1871791066467762,1.5259914236605163,-1.317649117475748,-0.0160737447440624,-0.1125415712594986,0.0069609906983532,-0.0754436999559402,-0.0519748370475601,0.0012720880244945,82
1724750997685727700,-0.1586608681708574,-0.0104021515488624,-0.6399527580726891,2.30835468378365,9.502812599131463,0.7337751703038812,0.1886837929487228,0.9172207713127136,0.3612594306468963,-0.1968182849596795,-0.0227921381211421,0.679756129289224,0.7061690026586189,-6.940783977508545,-1.0705835819244385,-0.6183639168739319,0.1871791066467762,1.5259914236605163,-1.317649117475748,-0.0502393282949924,-0.0940586477518081,-0.1060715524867642,-0.0666114464402198,-0.0487915765020996,-0.043221283822786,83
1724750997725475000,-0.4926042150981723,-0.0220341371536254,-1.0909171681195498,2.442232700614631,9.459228893470764,0.8537412008341402,-0.2279633581638336,1.4361028671264648,0.5775386691093445,-0.219428523381304,-0.0334605511671659,0.6747975273529734,0.7038322219180737,-6.940783977508545,-1.0705835819244385,-0.6183639168739319,0.1871791066467762,1.5259914236605163,-1.317649117475748,-0.0832916125655174,-0.0660663098096847,-0.1453754619364161,-0.1027422249317169,-0.0194971409057383,-0.0732010462186299,84
1724750997765223200,-0.0479039069473743,-0.0910205796182155,-1.087439116745442,2.630349964894354,9.374239410710334,1.1727326239537448,-0.5315614938735962,1.9654978513717647,0.7548390030860901,-0.2520688190370211,-0.0464502583134006,0.6618531950789843,0.7044530989451855,-6.940783977508545,-1.0705835819244385,-0.6183639168739319,0.1871791066467762,1.5259914236605163,-1.317649117475748,-0.0950161516666412,-0.0525762550532817,-0.1022195897663477,-0.107221245765686,-0.0008384190189419,-0.1237837987201288,85
1724750997804970800,-0.2743736982360482,-0.4339338533341884,-0.7635949928976595,2.8023513761535286,9.257464212110635,1.617576505293697,-0.5849027633666992,2.020125150680542,0.7714360356330872,-0.290483781396158,-0.0622681108232421,0.6431556856662672,0.7057567135189631,-6.940783977508545,-1.0705835819244385,-0.6183639168739319,0.1871791066467762,1.5259914236605163,-1.317649117475748,-0.0891534984111785,-0.0331903807818889,-0.0104252824043447,-0.0922861397266388,-0.0363573072042781,-0.0585693262420361,86
1724750997924213800,-0.1399450617849826,-1.4318401448011395,0.0997141736835241,3.024509149461984,9.040762658381462,2.299425819657743,-0.1814872920513153,1.1413010358810425,0.5904860496520996,-0.3616930981034681,-0.0958676558353117,0.6112047943420215,0.6974355191430284,-6.940783977508545,-1.0705835819244385,-0.6183639168739319,0.1871791066467762,1.5259914236605163,-1.317649117475748,-0.1677821725606918,0.0466754101216793,-0.1117298522430937,-0.1109388098120689,-0.0078347276258486,-0.0692042727666208,87
1724750997963962000,-0.4156298426195979,-0.8335837442725896,0.0733630501136183,3.201732094761729,8.934065201681852,2.4701766463339325,-0.0330769903957843,0.8947319388389587,1.0356062650680542,-0.3845880132065297,-0.0995576573022049,0.603443715989943,0.6914014840952917,-6.940783977508545,-1.0705835819244385,-0.6183639168739319,0.1871791066467762,1.5259914236605163,-1.317649117475748,-0.1462041288614273,-0.0223674513399601,-0.2393637779195792,-0.1334907710552215,0.1453107444034423,-0.1071012699938379,88
1724750998003709400,-1.6901950206503271,-1.250326224309206,0.3590326338678598,3.585055997060239,8.75525060327649,2.5813465722724795,-0.0134367905557155,0.9827317595481871,1.6882258653640747,-0.4104797223198621,-0.0931644953428985,0.5997568970815857,0.6805280874661896,-6.940783977508545,-1.0705835819244385,-0.6183639168739319,0.1871791066467762,1.5259914236605163,-1.317649117475748,-0.1392281949520111,0.0065278289839625,0.0052188820008246,-0.1635186970233917,-0.1077063232148997,0.0408756568449782,89
1724750998043457500,-1.2214534733071922,-0.5494231037765741,0.4177358749881386,4.229318654221296,8.419163376188278,2.7204633665397764,0.1517398953437805,1.1124032735824585,2.5127604007720947,-0.4507319723010907,-0.0801150319719095,0.5957151567365556,0.65995881162164,-6.940783977508545,-1.0705835819244385,-0.6183639168739319,0.1871791066467762,1.5259914236605163,-1.317649117475748,-0.1521595865488052,-0.0346439145505428,-0.1982896987259388,-0.2051253169775009,0.1312442433944437,-0.1135101689217612,90
1724750998083204900,-0.1181064472034573,-1.7679460765898227,0.1742334080949425,4.885860070458055,7.990626997983455,2.9066552157148715,0.1366742551326751,1.3816413879394531,2.31599235534668,-0.4951224286850549,-0.0672117059097633,0.5893084140084605,0.6348637851524719,-6.940783977508545,-1.0705835819244385,-0.6183639168739319,0.1871791066467762,1.5259914236605163,-1.317649117475748,-0.1158285588026046,-0.0888542011380195,-0.1322251533237285,-0.2897568941116333,0.1077107801943086,-0.2108803002297878,91
1724750998122952200,-0.2475648940265178,-1.0010375752300025,-0.1786094312220811,5.430263300246,7.532569341740012,3.153255064101517,-0.1450279057025909,1.1194299459457395,2.11305832862854,-0.5365426516229809,-0.0559846281233855,0.5797365402166338,0.6106498256787541,-6.940783977508545,-1.0705835819244385,-0.6183639168739319,0.1871791066467762,1.5259914236605163,-1.317649117475748,-0.0961135476827621,-0.0425187684595584,0.0140217040276911,-0.2759057581424713,-0.0141939199310843,-0.007778209953173,92
1724750998162700500,-0.3428115669071674,-0.3733224405050278,-1.233199440680444,5.893619062897563,7.027557626619934,3.4711800270333883,-0.8829624056816101,0.536291778087616,1.791500210762024,-0.5675735502953709,-0.035993233780621,0.5672068086656659,0.5956855880878608,-6.940783977508545,-1.0705835819244385,-0.6183639168739319,0.1871791066467762,1.5259914236605163,-1.317649117475748,-0.0815865844488143,-0.064151719212532,-0.0426884053553687,-0.1917172223329544,0.0075872008718753,0.0389049823930952,93
1724750998242196000,0.1383271051943302,0.79922963925004,0.7330033091485499,6.288159063476324,5.78931405429244,4.807628537525236,-0.9429541826248168,2.308506727218628,1.93903911113739,-0.641410183845475,-0.0055276621323521,0.5048253222306097,0.5776797379921047,-6.940783977508545,-1.0705835819244385,-0.6183639168739319,0.1871791066467762,1.5259914236605163,-1.317649117475748,-0.0231756456196308,-0.0399048663675785,-0.2672395537734963,-0.2290055751800537,0.2692124247490428,-0.3716611196966841,94
1724750998281943600,0.0647691170305013,0.3785322841078042,0.6838023481279611,6.272233764591813,5.277620084929466,5.382955021104216,-1.239129662513733,1.821686863899231,1.744214415550232,-0.6714899205110308,0.0015734846046367,0.4749138791268045,0.5688195613953773,-6.940783977508545,-1.0705835819244385,-0.6183639168739319,0.1871791066467762,1.5259914236605163,-1.317649117475748,0.0290726330131292,-0.0339382067322731,-0.1850552463605999,-0.229419395327568,0.1369415143211372,-0.2415447204215452,95
1724750998321691600,0.4510176746040582,-0.1925111153244972,2.214323231911659,6.318587519487738,4.625974039518833,5.903067859244346,-0.5516784191131592,0.8064857125282288,1.6013972759246826,-0.6999057708842082,0.0182408081197999,0.445751689715324,0.5577676740814491,-6.940783977508545,-1.0705835819244385,-0.6183639168739319,0.1871791066467762,1.5259914236605163,-1.317649117475748,0.0610736608505249,-0.0404607430100441,-0.0698567407594062,-0.2008213102817535,0.0449728127983864,-0.2315804853659123,96
1724750998361475300,0.0231312847405672,0.4031704662799835,1.7999287763059135,6.379412867328524,4.202375117716193,6.149269063702225,0.2524203360080719,1.364341139793396,1.80574119091034,-0.7251039039390095,0.0234963310861949,0.4311872552948489,0.5364230484560052,-6.940783977508545,-1.0705835819244385,-0.6183639168739319,0.1871791066467762,1.5259914236605163,-1.317649117475748,0.0750531330704689,-0.0166866444051265,-0.13913003734136,-0.1947683542966842,0.0786785095153376,-0.2057225886730477,97
1724750998401224000,-0.2254752272933721,0.7197291092947125,0.2389998947769403,6.251380946177243,3.748599084314704,6.560382597941159,-0.2202901989221573,1.818103313446045,1.7221403121948242,-0.7563441125657697,0.0224366335786552,0.4062144405368577,0.5122791092684419,-6.940783977508545,-1.0705835819244385,-0.6183639168739319,0.1871791066467762,1.5259914236605163,-1.317649117475748,0.0914236903190612,-0.0382691472768783,-0.1277137129144277,-0.2089388072490692,0.0865205556520726,-0.1640789842294529,98
1724750998440968400,-0.0450660531729459,0.4397992382362484,0.7538198872059583,6.030569619041681,3.232756178578734,7.025090359723568,-0.5858513116836548,1.387030839920044,1.4866342544555664,-0.7840084113100352,0.0262233872705625,0.3756759192271295,0.493468010118692,-6.940783977508545,-1.0705835819244385,-0.6183639168739319,0.1871791066467762,1.5259914236605163,-1.317649117475748,0.0595455765724182,-0.0681446939706802,-0.1726397456953302,-0.1660754084587097,0.0526339037444908,-0.0771075704041868,99
1724750998480717000,1.3413725228905675,0.797976424318552,2.9985026015460488,5.762074165189266,2.85901697396636,7.40235773846209,0.0779439359903335,1.6163872480392456,1.0709760189056396,-0.804690007941993,0.0268525256200966,0.3490898453224269,0.4794675624774352,-6.940783977508545,-1.0705835819244385,-0.6183639168739319,0.1871791066467762,1.5259914236605163,-1.317649117475748,0.0580688640475273,-0.013898940756917,-0.0445944627389777,-0.1419132053852081,0.0067414616295805,-0.057318138870853,100
1724750998560215300,2.081926685810089,1.251858840703964,2.0682231546282765,5.052494401726126,2.79643659915179,7.926072400486468,1.08690345287323,1.2475969791412354,0.5850566625595093,-0.8384766803679392,-0.0044631577032667,0.309617275097005,0.4484127714851886,-6.940783977508545,-1.0705835819244385,-0.6183639168739319,0.1871791066467762,1.5259914236605163,-1.317649117475748,0.0234192125499248,-0.012658474035561,-0.2217737058943137,-0.1386061012744903,0.1210691420671064,-0.1844419185015373,101
1724750998599964000,0.8078735489547252,0.6627756344512105,0.0088239424467086,4.687118536311388,3.049434039621055,8.056193987393378,0.9084058403968812,1.121670842170715,0.3784648776054382,-0.8482897123037785,-0.0300920085659815,0.2972253318695844,0.4372141795436644,-6.940783977508545,-1.0705835819244385,-0.6183639168739319,0.1871791066467762,1.5259914236605163,-1.317649117475748,0.0229082033038139,-0.0046844123862683,-0.1123893207988236,-0.1158069521188736,0.0613086561120115,-0.1965680990977212,102
1724750998639713500,1.0304115537524223,0.6009709201842546,-0.9383020098537206,4.481190305531024,3.2729970035523173,8.085592515835165,0.7554140090942383,0.5527819395065308,0.0435254797339439,-0.8530257792690301,-0.0484352935519333,0.2922388275683075,0.4296480823320081,-6.940783977508545,-1.0705835819244385,-0.6183639168739319,0.1871791066467762,1.5259914236605163,-1.317649117475748,0.0318847224116325,0.0067642093636095,-0.119478082616534,-0.0894927904009819,0.0640312951420899,-0.1907327074751257,103
1724750998679462100,1.654911525823176,-0.2608136671781539,-1.36760878790915,4.238714843598008,3.454828319430351,8.140506009283662,0.3669515252113342,0.9275150895118712,-0.0770574137568473,-0.8563239255044333,-0.0641521963181743,0.2843135516227036,0.426332675341585,-6.940783977508545,-1.0705835819244385,-0.6183639168739319,0.1871791066467762,1.5259914236605163,-1.317649117475748,0.0352919772267341,0.0208326168358325,-0.0566141598865389,-0.083293929696083,-0.0129643096374697,-0.2198957649269141,104
1724750998719211800,1.5440870523214338,-0.2368655130967497,-0.9996832380115984,3.894192088858783,3.5719884256944057,8.261147235661745,0.2397453933954239,0.9271515011787416,-0.1754017770290374,-0.8605447398473709,-0.0785178497583926,0.2695063209318795,0.4250460899665123,-6.940783977508545,-1.0705835819244385,-0.6183639168739319,0.1871791066467762,1.5259914236605163,-1.317649117475748,0.0268849357962608,-0.0096334218978881,-0.1673492015391588,-0.0261452347040176,0.0751868862736038,-0.0497691984957549,105
1724750998758960400,1.0033858919218182,-0.0217661338672041,-1.1221201156347989,3.6106896200105534,3.6516748336106537,8.35455383363366,-0.0262395851314067,0.4264385998249054,-0.4213447868824005,-0.861609409727888,-0.0880568797485489,0.2574534435246512,0.4284773359941586,-6.940783977508545,-1.0705835819244385,-0.6183639168739319,0.1871791066467762,1.5259914236605163,-1.317649117475748,0.0486861914396286,-0.0319715552031993,-0.1808554565832018,-0.0108164399862289,0.0982540014704689,-0.1869582304377108,106
1724750998838848500,-0.6725944331541657,-0.5541866649165749,-0.3520335687607526,3.4361016993895173,3.676524904967844,8.41705149860084,-0.168213665485382,0.3336261808872223,-0.0088515141978859,-0.8579392167567413,-0.0902308981136904,0.2504160422567684,0.4394206383964054,-6.940783977508545,-1.0705835819244385,-0.6183639168739319,0.1871791066467762,1.5259914236605163,-1.317649117475748,0.0771659463644027,-0.0195809137076139,-0.0309124561190954,-0.0250527616590261,0.0155538112490845,-0.0605260726332664,107
1724750998878207200,-0.5306354011982679,0.0218871298983693,-0.6980185050070286,3.3975419593706726,3.5683676048487425,8.479023678389192,-0.3814278542995453,-0.2643566131591797,-0.0347157530486583,-0.8589041579812924,-0.0856482993754598,0.2456714732827603,0.4411274526995833,-6.940783977508545,-1.0705835819244385,-0.6183639168739319,0.1871791066467762,1.5259914236605163,-1.317649117475748,0.0382109656929969,-0.0155640449374914,-0.1230944282164797,-0.0182956513017416,0.0914516827781684,0.012119214282569,108
1724750998917956900,-0.1793684328958392,-0.3416173886865377,0.7203495792806148,3.432489938633144,3.482510691604018,8.500618255081772,-0.1483078449964523,0.2182929962873459,0.1661925315856933,-0.8587754617524276,-0.0803721137746213,0.2452129608393013,0.4426235632650479,-6.940783977508545,-1.0705835819244385,-0.6183639168739319,0.1871791066467762,1.5259914236605163,-1.317649117475748,0.0059328214265406,-0.0053132004104554,-0.141755344343651,-0.0281258560717105,0.0775836452170275,-0.0197963955636601,109
1724750998957705500,0.4662982458442449,0.2065650673791766,0.0127367319762706,3.393603743138909,3.372317501743137,8.560450500231982,-0.2555645704269409,0.0802716687321662,0.2339857071638107,-0.8624930853694263,-0.0772796842134165,0.2399298805152802,0.4388246578891971,-6.940783977508545,-1.0705835819244385,-0.6183639168739319,0.1871791066467762,1.5259914236605163,-1.317649117475748,-0.0085820704698562,0.0088310930877923,-0.0660446259921882,-0.0344020910561084,0.0466642958495533,-0.0391342519711703,110
1724750998997455000,0.5776975966244936,0.3513008705720305,0.4295008393228053,3.39428266531378,3.302101225222647,8.587511525636911,-0.1183155477046966,0.0566138513386249,0.0594044215977191,-0.8638516815817571,-0.0743045324920232,0.2379865320092151,0.43772312392565,-6.940783977508545,-1.0705835819244385,-0.6183639168739319,0.1871791066467762,1.5259914236605163,-1.317649117475748,0.0241263639181852,-0.0097730522975325,0.0014304620613809,-0.0261582285165786,0.038234211558639,-0.0318183919828734,111
1724750999037203700,1.1142258552536368,0.252674784386158,0.5225771824270486,3.4126109336867927,3.3081016346812246,8.577932965430616,0.1317044049501419,-0.1447003483772277,-0.286261111497879,-0.861700753641174,-0.0731212359914636,0.2393750611276608,0.4413893913694524,-6.940783977508545,-1.0705835819244385,-0.6183639168739319,0.1871791066467762,1.5259914236605163,-1.317649117475748,0.0247750449925661,0.0041557233780622,0.0283270039198687,-0.0199723616242408,0.0296129931763745,-0.0265564962491625,112
1724750999076953300,-0.3459390512779355,-0.0675564096614718,-0.3907189809858798,3.407673769545555,3.4011829462215304,8.5434239621073,0.086166888475418,-0.0159580074250698,-0.2253491133451461,-0.8567007294683034,-0.075396797106598,0.2423260456108715,0.4490626414303997,-6.940783977508545,-1.0705835819244385,-0.6183639168739319,0.1871791066467762,1.5259914236605163,-1.317649117475748,-0.0036150920204818,-0.0112721752375364,-0.0443307931343791,0.0078770630061626,0.041611455739662,0.0681861634989501,113
1724750999116702000,-0.6315522286698222,-0.2212856666490435,-0.7801081746727228,3.381442472963035,3.397942356865108,8.555128428426384,-0.1502742171287536,0.0014702673070132,-0.0268882047384977,-0.8541640781350485,-0.0743635231235923,0.2414123369546675,0.4545260719279048,-6.940783977508545,-1.0705835819244385,-0.6183639168739319,0.1871791066467762,1.5259914236605163,-1.317649117475748,-0.0065815029665827,-0.0086155757308006,-0.0861640520982909,0.0219399891793727,0.0350655914598843,-0.0424463721938431,114
1724750999156450600,-0.254271113666892,-0.2343029691323638,-0.2100923647224903,3.3842408715099093,3.356940484391153,8.570195064654946,-0.0677264183759689,0.0255120620131492,0.0626446306705474,-0.853139458033587,-0.0716319291950146,0.2406460250585934,0.4572870107842676,-6.940783977508545,-1.0705835819244385,-0.6183639168739319,0.1871791066467762,1.5259914236605163,-1.317649117475748,-0.0057641407474875,-0.0258396249264478,-0.08634792989837,0.0335039347410202,0.0668205011689336,-0.0417686829948332,115
1724750999196200200,-0.3030430356204509,-0.1952571991622448,-0.4935632693886757,3.4190962040528654,3.3181939896285533,8.571450033152104,-0.0922052189707756,-0.1460152119398117,0.1883802711963653,-0.8527598154929158,-0.0687478688747947,0.2413532587490705,0.4580646470507494,-6.940783977508545,-1.0705835819244385,-0.6183639168739319,0.1871791066467762,1.5259914236605163,-1.317649117475748,0.0165106281638145,-0.0560136102139949,-0.1129608644759282,0.0325097665190696,0.1334425480231642,-0.0580306573546491,116
1724750999235948800,0.9224687731668352,0.2912488451912999,-0.1581558412581682,3.4830119191244244,3.240946791557968,8.575271052744984,-0.2221384942531585,-0.1115947812795639,0.0543541721999645,-0.8524113508282224,-0.0633328221536949,0.2424289612866227,0.4589248575219081,-6.940783977508545,-1.0705835819244385,-0.6183639168739319,0.1871791066467762,1.5259914236605163,-1.317649117475748,0.0471206083893775,-0.0595172941684722,0.0076840066016331,0.0304056517779827,0.0727754731837427,-0.0246206510820658,117
1724750999275698400,0.8851581564262508,0.410487803556025,0.1770534339517354,3.4924902338266373,3.1782708474144337,8.594852536049485,-0.1885217279195785,0.0432635210454463,-0.1078650802373886,-0.8507211296041868,-0.05903572614782,0.2414523768367147,0.4631297303742703,-6.940783977508545,-1.0705835819244385,-0.6183639168739319,0.1871791066467762,1.5259914236605163,-1.317649117475748,0.0534527115523815,-0.0201281327754259,0.0339572534753591,0.024300405755639,0.029159694167634,-0.0037884022439568,118
1724750999315447000,0.4573819489389658,0.0316261413633823,-0.1061567739516496,3.45249899969995,3.1272236740052697,8.629664321711658,-0.1869248449802398,0.0311011150479316,-0.1500724703073501,-0.8488315577305876,-0.0562505163426037,0.2384228213792864,0.4684820976290079,-6.940783977508545,-1.0705835819244385,-0.6183639168739319,0.1871791066467762,1.5259914236605163,-1.317649117475748,0.0532359778881073,-0.0139154084026813,-0.0671914944723714,0.003550398396328,0.0664309127628803,-0.0183159374727576,119
1724750999355196700,0.1325257254391908,-0.0396153865516185,0.0557265633970499,3.4668571953982115,3.1220003863990304,8.625798293933272,-0.0100763896480202,-0.1337085664272308,-0.1507071405649185,-0.8459746232515652,-0.0542454824727945,0.2392992018611643,0.4734132703376307,-6.940783977508545,-1.0705835819244385,-0.6183639168739319,0.1871791066467762,1.5259914236605163,-1.317649117475748,0.0514464229345321,-0.003337122965604,-0.0943996823961846,-0.0237812511622905,0.0575548565364442,-0.0157926569396804,120
1724750999434466800,-0.5611676098451018,-0.2928729392617941,-0.4254471800178289,3.622154432354867,3.130750094565749,8.558550219568609,0.0066908644512295,-0.3780116438865661,0.0562285296618938,-0.8403179849237605,-0.048615446311449,0.2475316486969457,0.4798230956803858,-6.940783977508545,-1.0705835819244385,-0.6183639168739319,0.1871791066467762,1.5259914236605163,-1.317649117475748,0.0209692772477865,-0.0023532500490546,-0.0050268808306165,-0.0228006560355424,0.0123170201433007,0.0981659304613713,121
1724750999474208300,-0.3759156718686223,-0.1696571862205863,-0.4324246178150177,3.75473276476413,3.1055469719871875,8.510461019182205,-0.0977286100387573,-0.2734163403511047,0.1347508728504181,-0.8386574282848596,-0.0437605848080774,0.2533224513268894,0.4801733778530829,-6.940783977508545,-1.0705835819244385,-0.6183639168739319,0.1871791066467762,1.5259914236605163,-1.317649117475748,-0.0042506749741733,0.0046051652170717,-0.0827994801691733,-0.0278074592351913,0.033641986114264,0.0251732548799714,122
1724750999513949200,-0.5185957115754485,-0.0457826770097017,-0.4369686909854411,3.874518251095712,3.022673166206479,8.486573947638274,-0.2025844454765319,-0.361971914768219,0.2063581347465515,-0.8378943303889076,-0.0367345163743473,0.2568184641797692,0.4802372674197636,-6.940783977508545,-1.0705835819244385,-0.6183639168739319,0.1871791066467762,1.5259914236605163,-1.317649117475748,-0.0041911797598004,0.0308565758168697,0.0,-0.0289563853293657,0.0,0.0,123
1724750999553690600,-0.1001511037960648,0.0738201462313532,-0.025865678140521,4.027091031524539,2.921475768227875,8.450911682626604,-0.1898961216211319,-0.4130205512046814,0.2209284305572509,-0.8374479253420686,-0.0283234229601244,0.2613832567735314,0.4791218055103348,-6.940783977508545,-1.0705835819244385,-0.6183639168739319,0.1871791066467762,1.5259914236605163,-1.317649117475748,-0.0068919165059924,0.0284735541790723,-0.0565823354095919,-0.0171405002474784,0.0710333148246863,0.0395757029952015,124
1724750999593431300,-0.0302548530101776,-0.0870817788645625,0.3164291714161634,4.206341098737717,2.846249262329936,8.389037117993832,-0.0230834037065505,-0.4715336859226227,0.213284820318222,-0.8361819104349607,-0.0202897107896294,0.2680792113808116,0.4780394405791342,-6.940783977508545,-1.0705835819244385,-0.6183639168739319,0.1871791066467762,1.5259914236605163,-1.317649117475748,-0.0081567307934165,0.0520839281380176,-0.0207988209217204,-0.0023368326947093,0.0344138404197292,0.0058284327296685,125
1724750999633173000,-0.1195963935002684,0.1648909947320818,-0.3425765891075134,4.37738477088064,2.802722255292535,8.315866667842865,-0.0388731434941291,-0.4492484629154205,0.2764893174171448,-0.8354482417430064,-0.0143723630950124,0.2753220420626072,0.4754130682431643,-6.940783977508545,-1.0705835819244385,-0.6183639168739319,0.1871791066467762,1.5259914236605163,-1.317649117475748,0.0031277337111532,0.0741306617856025,-0.0532975598515709,0.0072715715505182,0.0029848045182909,-0.0189866592165082,126
1724750999672913700,0.3274249049440026,0.2598299168378115,-0.223808170863986,4.535946854852139,2.7227468013018368,8.257252566310763,-0.171961635351181,-0.3540189564228058,0.1974354386329651,-0.8348656467377819,-0.0069927530123913,0.2809775599212721,0.4732884966792534,-6.940783977508545,-1.0705835819244385,-0.6183639168739319,0.1871791066467762,1.5259914236605163,-1.317649117475748,0.0149346487596631,0.0895146504044532,-0.0488939728640718,-0.0224400367587804,-0.0443267791129648,-0.1015822325777262,127
1724750999752395800,-0.4454802064821124,-0.1261950611129403,0.0555143819510936,4.8201355523988605,2.498100718308985,8.166772669440508,-0.1721086800098419,-0.3125147819519043,0.3684691190719604,-0.8349449049854589,0.0095276568366187,0.2889977558510785,0.4682484821943745,-6.940783977508545,-1.0705835819244385,-0.6183639168739319,0.1871791066467762,1.5259914236605163,-1.317649117475748,-0.0039727902039885,0.0531386546790599,-0.1302548761640675,-0.021184179931879,-0.0360849702360341,0.0314918976915767,128
1724750999792136400,0.250718389621377,0.1657014343321323,0.1362771869271993,4.97387796112895,2.4124045485839245,8.10007579921782,-0.0222878158092498,-0.4295858740806579,0.2033621221780777,-0.8348479790235385,0.0166280237575027,0.2945073657599821,0.464777088553144,-6.940783977508545,-1.0705835819244385,-0.6183639168739319,0.1871791066467762,1.5259914236605163,-1.317649117475748,-0.0120162721723318,0.0199792012572288,-0.1110984316049143,-0.0122766271233558,-0.0364745563587988,0.0549446557717397,129
1724750999831878000,-0.0711585258066654,0.3846234405897557,-0.198943778720498,5.089854118305444,2.333393994102627,8.051027398410438,-0.2149877697229385,-0.1602233797311782,0.3089633882045746,-0.8347184237324454,0.0227005515424101,0.2983228568733871,0.4623130722553614,-6.940783977508545,-1.0705835819244385,-0.6183639168739319,0.1871791066467762,1.5259914236605163,-1.317649117475748,-0.0114010265097022,0.0062070433050394,-0.0458609755434561,0.0051028169691562,-0.0863784985665697,0.1103269449089188,130
1724750999871618800,0.5264584077745675,0.3222178378202021,0.1907908674031496,5.18865059262216,2.2009714367769657,8.025211404630541,-0.215526670217514,-0.2600361406803131,0.1545064747333526,-0.8349296428332299,0.030941281615775,0.2997844756167301,0.4605045293854412,-6.940783977508545,-1.0705835819244385,-0.6183639168739319,0.1871791066467762,1.5259914236605163,-1.317649117475748,-0.0007366408826783,0.0176032837480306,-0.0503244349254528,-0.0327767729759216,-0.0825609861050266,-0.0697638474447187,131
1724750999911360300,1.116431548604369,0.2510011520855129,0.4260539137393236,5.199771706095338,2.1107290019243954,8.042237358233333,-0.238581582903862,0.2532499134540558,0.1184384003281593,-0.8353601632022679,0.0354162217560267,0.2978350317604293,0.4606662007677255,-6.940783977508545,-1.0705835819244385,-0.6183639168739319,0.1871791066467762,1.5259914236605163,-1.317649117475748,0.0137636344879865,0.0062198294326663,-0.0610096183665096,-0.053066037595272,-0.029287117656297,0.0024190923603513,132
1724750999951101000,0.7188491115897894,0.2686721255935728,0.4534411023586988,5.146795318189263,2.0367945816636084,8.095205562832952,-0.1209375113248825,0.0432674214243888,-0.0303911566734313,-0.8361394359431996,0.0377451583857961,0.2929755564391774,0.4621813492147072,-6.940783977508545,-1.0705835819244385,-0.6183639168739319,0.1871791066467762,1.5259914236605163,-1.317649117475748,0.013337405398488,-0.0132660148665308,-0.0682542055001715,-0.0467623211443424,-0.0353131159305688,0.0121470795370289,133
1724751000030583000,-0.4805500585585832,-0.0516430934756994,-0.1003431192368268,5.138469388392568,2.0442172790102657,8.098622677800059,0.0323343388736248,-0.1102998182177543,0.0818976983428001,-0.8351125844453744,0.0378791877206645,0.2926607779344444,0.464221626544903,-6.940783977508545,-1.0705835819244385,-0.6183639168739319,0.1871791066467762,1.5259914236605163,-1.317649117475748,-0.0205682199448347,-0.0004783733747899,-0.0582963956187479,-0.0319166891276836,-0.025201729772496,0.0823941690376028,134
1724751000110065400,0.1675695662915706,0.1115092408955097,-0.2854863361418247,5.200529830986261,2.0128958196818827,8.066791369253396,-0.0219994895160198,-0.0206767842173576,0.0521930046379566,-0.8345737140443567,0.0408558330150437,0.2950235780364681,0.4634420329147594,-6.940783977508545,-1.0705835819244385,-0.6183639168739319,0.1871791066467762,1.5259914236605163,-1.317649117475748,-0.056455735117197,-0.0008440490346401,-0.0953346251587383,-0.0421302579343318,0.0050630133023892,0.0075628718606836,135
1724751000149806000,0.0661567719966173,0.0435287606030702,-0.2072194396346807,5.217846291968226,1.982265265227109,8.063193637022376,-0.0647425726056099,-0.0876322537660598,0.0729100331664085,-0.8343974599480788,0.0427981653267715,0.2950590724066956,0.4635616829644016,-6.940783977508545,-1.0705835819244385,-0.6183639168739319,0.1871791066467762,1.5259914236605163,-1.317649117475748,-0.0691395103931427,-0.0252553950995206,-0.0843857629799284,-0.0228336658328771,-0.013340861607081,0.0608842338545946,136
1724751000189547800,0.2535030519038438,-0.0208013804882764,0.1214887831181287,5.264832499548793,1.9659405917614696,8.036603736260533,-0.0140085220336914,-0.0847740322351455,0.0344437323510646,-0.8336188776734025,0.0449136242973167,0.2970353453567388,0.4635001296495044,-6.940783977508545,-1.0705835819244385,-0.6183639168739319,0.1871791066467762,1.5259914236605163,-1.317649117475748,-0.0774845108389854,-0.0247422102838754,-0.0821481401209719,-0.0181806720793247,0.0281329951681313,0.0128178001391352,137
1724751000229288400,0.1769575723618268,0.0195640937782824,-0.0787456199347972,5.290800469020009,1.959692345021665,8.021061299213766,-0.0423793271183967,-0.0208991579711437,0.0144040808081626,-0.832865920893654,0.046150756648054,0.2981774757185848,0.4639984863174806,-6.940783977508545,-1.0705835819244385,-0.6183639168739319,0.1871791066467762,1.5259914236605163,-1.317649117475748,-0.0604277737438678,-0.0325341448187828,-0.0594233355557545,-0.03264145180583,0.0176957323483366,-0.0332918871850939,138
1724751000269030000,-0.1336824942588806,0.1119132916517555,-0.2059165403425693,5.295131776222586,1.9369246328964829,8.023732564249634,-0.0939718410372734,0.0268954336643219,0.031236495822668,-0.8325623381804762,0.047558277857294,0.2977275517596108,0.4646896181718548,-6.940783977508545,-1.0705835819244385,-0.6183639168739319,0.1871791066467762,1.5259914236605163,-1.317649117475748,-0.0260063037276268,-0.028873199597001,-0.1186908412289805,-0.0401776991784572,0.0441401065676007,-0.0704763659285148,139
1724751000348511200,-0.0832312409162521,0.1692071043655276,0.0171574710279703,5.297951509818434,1.8462614884138109,8.043221108573675,-0.0906078442931175,0.0140718752518296,0.0498014837503433,-0.8324276702967137,0.0522108096091008,0.2952691681629328,0.4659980666756387,-6.940783977508545,-1.0705835819244385,-0.6183639168739319,0.1871791066467762,1.5259914236605163,-1.317649117475748,-0.0279458593577146,-0.0177420768886804,-0.0914826533051673,-0.0416045449674129,0.053016167360614,-0.0729996418950147,140
1724751000388252700,-0.1157686519056558,0.1936464029647409,-0.105542441445589,5.289638439503312,1.817033932624757,8.055339416390657,-0.1383793503046035,0.0590426549315452,0.0562851466238498,-0.832453868575231,0.0535002981912784,0.2939892806901782,0.466613888586848,-6.940783977508545,-1.0705835819244385,-0.6183639168739319,0.1871791066467762,1.5259914236605163,-1.317649117475748,0.0043331710621714,-0.0517599135637283,-0.1731434026348404,-0.0701433196663856,0.1305259116577915,-0.2083639882936142,141
1724751000427991300,0.4102607168018817,-0.0576877804674208,0.1796381897479295,5.263997217768431,1.7663995778001844,8.083350289866328,-0.1172638013958931,0.0561341978609561,0.0473293662071228,-0.8329042973328026,0.055273006470373,0.2912193763470564,0.4673399191733912,-6.940783977508545,-1.0705835819244385,-0.6183639168739319,0.1871791066467762,1.5259914236605163,-1.317649117475748,0.0431006550788879,-0.0550857335329055,-0.0720426242979709,-0.0445194281637668,0.1106274165596813,-0.0605469692908227,142
1724751000467713800,0.5595996298760175,0.0165105514265596,0.161839498206973,5.267139022925496,1.7659725845597682,8.081396817710996,0.0081316251307725,-0.0320389904081821,-0.040320511907339,-0.8324163145603899,0.0556536519527843,0.2913178674796746,0.4681022692169082,-6.940783977508545,-1.0705835819244385,-0.6183639168739319,0.1871791066467762,1.5259914236605163,-1.317649117475748,0.016896178945899,-0.0323174037039279,-0.034848576291895,-0.0104041034355759,0.0891113119307905,0.010391742035991,143
1724751000507453700,-0.0209200384318828,-0.1680197942771017,-0.0600280599832534,5.274994997122883,1.7707880220174788,8.07521608324945,-0.0006520287133753,-0.0971879586577415,-0.0562558621168136,-0.8315013918445472,0.056124808830268,0.2917679928958495,0.4693897978694712,-6.940783977508545,-1.0705835819244385,-0.6183639168739319,0.1871791066467762,1.5259914236605163,-1.317649117475748,0.0022859498858451,-0.0157915093004703,-0.0056583014687959,-0.0220330208539962,0.0409568505887174,-0.025982993510412,144
1724751000547194600,-0.6246493174135684,-0.1946735540553927,-0.2706722133696079,5.336587822204828,1.780383241097629,8.03252435799241,-0.0016401298344135,-0.1375860720872879,0.0686041265726089,-0.8300269391277335,0.0576667495435793,0.2951775266779133,0.469680883374641,-6.940783977508545,-1.0705835819244385,-0.6183639168739319,0.1871791066467762,1.5259914236605163,-1.317649117475748,-0.0146623458713293,0.0194249432533979,-0.0273920634406036,-0.0317182168364524,0.022878848916036,0.0032009680196206,145
1724751000626675500,-0.0557511133164167,0.0592132364690303,0.2166197206646203,5.254610380741954,1.6646119588434696,8.111012203773855,-0.0682466104626655,-0.0449694544076919,0.0336702540516853,-0.8325709200123108,0.0603207529709894,0.2877757356000699,0.4694380892677948,-6.940783977508545,-1.0705835819244385,-0.6183639168739319,0.1871791066467762,1.5259914236605163,-1.317649117475748,0.005125243216753,-0.0152726415544748,-0.0983875464559532,-0.0432328507304191,0.0239838989649317,-0.0678419303382746,146
1724751000666415400,0.2462865446537732,0.129003250401467,0.3912345292925834,5.287312042382359,1.673830599696189,8.087830650150776,0.0836329460144043,-0.0516607388854026,-0.0149201890453696,-0.8319312877751004,0.06085083033018,0.289711171143058,0.4693133526461899,-6.940783977508545,-1.0705835819244385,-0.6183639168739319,0.1871791066467762,1.5259914236605163,-1.317649117475748,-0.0003438497660681,0.0093881944194436,-0.046704321899265,-0.0278869122266769,0.0145197954511619,-0.0163591922231717,147
1724751000706155300,0.2352197917163372,0.0753815503291785,-0.0324123233050107,5.293291116791964,1.7015649943180382,8.07812700226009,0.0431416183710098,-0.0247464068233966,-0.0330018326640129,-0.8314225142513748,0.0599098342944277,0.2907592882378937,0.4696876917427148,-6.940783977508545,-1.0705835819244385,-0.6183639168739319,0.1871791066467762,1.5259914236605163,-1.317649117475748,0.0025361194275319,0.0056967004202306,-0.0188447859357402,-0.0124765885993838,0.0178868675813311,-0.0312379252137965,148
1724751000745896200,0.1548468628406524,-0.194975167350471,-0.2804658776313066,5.304531472730636,1.722026767588407,8.066409091937542,0.0529145076870918,-0.1220167875289917,-0.0141805792227387,-0.8308494052873461,0.0594600343880329,0.2918768533448554,0.4700655988703273,-6.940783977508545,-1.0705835819244385,-0.6183639168739319,0.1871791066467762,1.5259914236605163,-1.317649117475748,-0.0291365627199411,0.0293588731437921,-0.02207345766715,-0.0013843011111021,0.004928271873662,0.0337542394332587,149
1724751000785636000,0.1337199036598205,-0.1398877786397933,-0.3746376147568225,5.3307461104393,1.738765574812889,8.045510096293688,-0.0318822488188743,0.0022482704371213,-0.0415058471262455,-0.829769790214813,0.0597768564652847,0.2936322201746194,0.4708386716469886,-6.940783977508545,-1.0705835819244385,-0.6183639168739319,0.1871791066467762,1.5259914236605163,-1.317649117475748,-0.0547607466578483,0.0432210639119148,-0.0215779383683227,0.0052398876287043,-0.0093293598017538,0.0252913739674608,150
1724751000825377000,-0.1486649593353271,-0.1401362004429102,-0.1289560502588748,5.312808302688598,1.705195898166299,8.064537452846766,-0.1439351886510849,0.1757546514272689,0.031028114259243,-0.829940215244658,0.0609997964810709,0.2917225683778949,0.471567845516092,-6.940783977508545,-1.0705835819244385,-0.6183639168739319,0.1871791066467762,1.5259914236605163,-1.317649117475748,-0.0015353220514953,0.0042273486033082,-0.1763440253070555,-0.0130578400567173,0.0770637769282329,-0.1401569144373759,151
1724751000865117000,0.0578349338531494,0.0728875415563583,0.1959142017662525,5.262230792617798,1.645999466701597,8.109870048001408,-0.1369003355503082,0.209621399641037,0.016091015189886,-0.8310227236308958,0.0623166627305834,0.2874514273563939,0.472111701683412,-6.940783977508545,-1.0705835819244385,-0.6183639168739319,0.1871791066467762,1.5259914236605163,-1.317649117475748,0.01157708466053,-0.0082094073295593,-0.0987272450054064,-0.0209629647433757,0.0469901668030535,-0.0632716587140923,152
1724751000944597800,0.1342746149331331,0.0273208453848958,0.2026817962050437,5.248938180324435,1.6362005417428909,8.12046041559875,0.0909677594900131,-0.0889866277575492,-0.0114191137254238,-0.8311360509991321,0.0624826933110837,0.2864745061277134,0.4724840220750432,-6.940783977508545,-1.0705835819244385,-0.6183639168739319,0.1871791066467762,1.5259914236605163,-1.317649117475748,0.0005647856742143,0.0176216922700405,-0.0413857161258114,-0.0156876649707555,-0.0034307821620343,0.0141940786196442,153
1724751000984338400,0.1757937892794609,0.0079041972532868,-0.1165764611572027,5.248868622219562,1.6574126949891448,8.116202758154273,0.0041963923722505,0.0410398766398429,-0.0091415159404277,-0.8309156027858332,0.0615786643403587,0.2870485839953732,0.4726419633157321,-6.940783977508545,-1.0705835819244385,-0.6183639168739319,0.1871791066467762,1.5259914236605163,-1.317649117475748,0.0010325765470042,0.0091301808133721,-0.1177278505488764,-0.023750202730298,0.0561284039299003,-0.0906169946528505,154
1724751001024078600,0.3654804948329925,-0.1957308080233633,-0.2465945876896381,5.256254640817642,1.6633764256991446,8.110200302869082,0.0747943222522735,-0.1754224449396133,-0.0586787573993206,-0.8304586782263537,0.0617005303359389,0.2875550337466515,0.4731210383848125,-6.940783977508545,-1.0705835819244385,-0.6183639168739319,0.1871791066467762,1.5259914236605163,-1.317649117475748,-0.0017488797893747,0.0063679222948849,-0.0457612506291829,0.0092785069718956,0.0033772464643116,0.1000045531985349,155
1724751001063818500,0.0899018047213554,-0.1959530724719166,-0.2743862654566765,5.300643233120441,1.6870920861989258,8.076341287887097,-0.0522922277450561,-0.0317491926252841,-0.0357600674033165,-0.8288757885363298,0.0623214770739003,0.2904087021543007,0.4740715980239811,-6.940783977508545,-1.0705835819244385,-0.6183639168739319,0.1871791066467762,1.5259914236605163,-1.317649117475748,-0.0262085404247045,0.0506074763834476,-0.0062815953119134,0.0293979477137327,0.0059622888132289,-0.0104126409768359,156
1724751001103559400,0.3057406041413545,-0.0537063096158206,-0.0427554381430149,5.246412461239099,1.6359743317715822,8.12213857794404,-0.1988274902105331,0.3278434574604034,0.0061357542872428,-0.8296106163993633,0.0633686220407978,0.286130409552549,0.4752474936470873,-6.940783977508545,-1.0705835819244385,-0.6183639168739319,0.1871791066467762,1.5259914236605163,-1.317649117475748,-0.008350720629096,-0.0001424720976501,-0.2259934242148883,0.0129134189337491,0.1366257994354702,-0.1025240252061747,157
1724751001143299300,-0.210270059376955,-0.1291536186575889,0.1641460215836763,5.1791363298237325,1.5947043098807334,8.173361984702945,-0.0744129866361618,0.0521228536963462,-0.0212385132908821,-0.830275431680031,0.0637113359261746,0.2814522701181887,0.4768312880268431,-6.940783977508545,-1.0705835819244385,-0.6183639168739319,0.1871791066467762,1.5259914236605163,-1.317649117475748,0.0021937880665063,-0.0174820609390735,-0.0468601426486391,0.0157006587833166,0.005771155863523,-0.0124666052314219,158
1724751001222780200,-0.2180442005097866,0.1096209429308772,-0.2122352219700813,5.215940166085958,1.6451790902294217,8.139885831558704,0.0240906700491905,0.0169424340128898,0.0263230837881565,-0.8291923800721333,0.0625997643514703,0.2847149474272031,0.4769262792701331,-6.940783977508545,-1.0705835819244385,-0.6183639168739319,0.1871791066467762,1.5259914236605163,-1.317649117475748,0.0247048772871494,0.0288547948002815,0.0129028891732799,0.023088589310646,-0.034930850031157,0.0162550080462009,159
1724751001262521000,0.1498532923370599,0.0716848877683281,-0.1452981132507324,5.211063499960303,1.6274501029238104,8.146570423889159,-0.0379288680851459,-0.0024849660694599,0.0360093601047992,-0.8296271476082493,0.0631105416121362,0.2840027604607513,0.4765273414481543,-6.940783977508545,-1.0705835819244385,-0.6183639168739319,0.1871791066467762,1.5259914236605163,-1.317649117475748,0.0069473469629883,0.0256170015782117,-0.0705759903780883,0.0112741962075233,0.0447236831757938,0.0505688153076916,160
1724751001302261000,0.4340004888296127,-0.0417230263553559,-0.0200678055167198,5.209581736969947,1.6186039486452937,8.149279682847856,0.0092312283813953,-0.001006566453725,-0.0192610938102006,-0.8297184582832795,0.0634580898861435,0.2836819164980547,0.4765132166944824,-6.940783977508545,-1.0705835819244385,-0.6183639168739319,0.1871791066467762,1.5259914236605163,-1.317649117475748,-0.0227817166596651,0.0103089055046439,-0.0079439122049225,0.0285107120871543,0.0168557047525537,0.1553729142750613,161
1724751001342002000,0.2584609665721655,-0.1029819433078169,-0.2185568262070417,5.203610845866799,1.6291358640536664,8.150995839115977,-0.0344181954860687,0.0575352236628532,-0.0040348190814256,-0.8294294109921769,0.0630055041455777,0.2836285893192011,0.4771078700272985,-6.940783977508545,-1.0705835819244385,-0.6183639168739319,0.1871791066467762,1.5259914236605163,-1.317649117475748,-0.0431340932846069,0.0273847989737987,-0.0182133687224937,0.0557130090892314,-0.0107529628640855,0.0929109964746981,162
1724751001381741800,0.3134305741220712,0.1681114180833101,0.0964332523167133,5.166298475560546,1.6158680939406156,8.177329134768247,-0.0863237828016281,0.1437860429286956,-0.0915576592087745,-0.8294172996589629,0.0629460219178348,0.2812650596066406,0.4785338983668659,-6.940783977508545,-1.0705835819244385,-0.6183639168739319,0.1871791066467762,1.5259914236605163,-1.317649117475748,-0.0052311345934867,-0.0074240649119019,-0.1055043561912141,0.0160320475697517,0.0672100941415643,-0.0652214319418417,163
1724751001421481700,-0.2706798121541738,-0.0390934085041284,0.2275356669545173,5.1506613459676505,1.6249527331501246,8.185389691627025,0.05579499527812,-0.0561962723731994,-0.0649602711200714,-0.8287842742462158,0.0625765315537444,0.2806162142631684,0.4800576996428189,-6.940783977508545,-1.0705835819244385,-0.6183639168739319,0.1871791066467762,1.5259914236605163,-1.317649117475748,0.0139574836939573,-0.0026155249215662,-0.0065932425188831,0.0007256717653945,-0.0115349915036931,-0.00262746528087,164
1724751001461215500,-0.3254144419044256,0.0152983991578221,0.0462789360940456,5.190581852945685,1.675905798535049,8.149821534639596,0.1490123867988586,-0.1269062906503677,-0.0249831844121217,-0.8276640248755668,0.0615332137915474,0.2840570722639871,0.4801015668253564,-6.940783977508545,-1.0705835819244385,-0.6183639168739319,0.1871791066467762,1.5259914236605163,-1.317649117475748,0.0187672227621078,0.0097453445196151,-0.0101616116581019,0.0211058929562568,-0.0014873148066631,0.0669349715611897,165
1724751001540807400,-0.1567243471503257,0.162876440039277,-0.2781166841566562,5.22315433524847,1.6945751354306935,8.125112625318765,0.0010134261101484,0.0297952871769666,0.1259180158376693,-0.8280504180478164,0.0610144405555767,0.2863770006500552,0.4781191097441672,-6.940783977508545,-1.0705835819244385,-0.6183639168739319,0.1871791066467762,1.5259914236605163,-1.317649117475748,0.054331224411726,0.0173940304666757,0.0080798061235866,0.0217376239597797,-0.0312379046641988,-0.0227611271207686,166
1724751001580551700,0.3683288700014352,0.313337635141611,-0.3322252909630537,5.2089638973325485,1.658436923470348,8.141662193581462,-0.0973016396164894,0.081018291413784,0.0756429880857467,-0.8292461852044402,0.061791107429772,0.284732537622938,0.4769275561136409,-6.940783977508545,-1.0705835819244385,-0.6183639168739319,0.1871791066467762,1.5259914236605163,-1.317649117475748,0.0662057623267173,0.0033511342480778,0.0136620792183501,0.0003118431195616,-0.0143184858840249,0.1332964449502062,167
1724751001620296700,0.3378881390303373,0.0759030899852514,-0.2880418658435345,5.201995227363705,1.622034799876809,8.153443232268094,-0.0530159696936607,-0.0395078286528587,0.0432216040790081,-0.8296952649045767,0.0631619227564332,0.2833737248019748,0.4767763984118583,-6.940783977508545,-1.0705835819244385,-0.6183639168739319,0.1871791066467762,1.5259914236605163,-1.317649117475748,0.0436359494924545,-0.0169753339141607,-0.043387721864297,0.019464012235403,0.0304689044695231,0.1845499089206568,168
1724751001660040700,0.3216355078876018,0.0839626239307224,-0.6117863287091255,5.2540112458050245,1.6085883121959863,8.122696211826801,-0.0752487629652023,-0.2921457290649414,-0.0494791828095912,-0.8286769087095952,0.0654042502712407,0.2856221925052384,0.4769033271237672,-6.940783977508545,-1.0705835819244385,-0.6183639168739319,0.1871791066467762,1.5259914236605163,-1.317649117475748,0.010437729768455,-0.016269301995635,0.0047470541048387,0.0139554124325513,0.0541833205770002,0.1690907114442437,169
1724751001699785700,0.1008007998764514,0.1402500360809266,-0.8873492367297411,5.409155045765638,1.593301603475958,8.023267284825444,-0.2183795124292373,-0.7289994359016418,-0.1713337153196334,-0.8243867496816806,0.0716543796698675,0.2929042039455109,0.479019060039982,-6.940783977508545,-1.0705835819244385,-0.6183639168739319,0.1871791066467762,1.5259914236605163,-1.317649117475748,0.0112868696451187,-0.0342872142791748,0.0509558509970549,0.0273035876452922,0.0539211579428985,0.1939127622833475,170
1724751001779274800,-0.3312526465386152,0.1409498549133539,-0.5214993240624666,5.918720770928263,1.577039473852515,7.658464835384487,-0.3524865210056305,-0.4912620186805725,-0.2103014141321182,-0.8067449715519379,0.0930482540095586,0.3175987977302227,0.4895259388676889,-6.940783977508545,-1.0705835819244385,-0.6183639168739319,0.1871791066467762,1.5259914236605163,-1.317649117475748,0.0470171459019184,-0.0014574045781046,-0.1126130556852556,0.0156182190403342,0.04680189138907,0.0771183475265279,171
1724751001819018800,0.0073030164897441,0.1933548726722598,-0.4401332924962043,6.034764148122072,1.4912652704551814,7.584730321609974,-0.4490409195423126,-0.5153589248657227,-0.2397167831659317,-0.8015442397554884,0.1027582076484139,0.3205107098143834,0.4942069414114769,-6.940783977508545,-1.0705835819244385,-0.6183639168739319,0.1871791066467762,1.5259914236605163,-1.317649117475748,0.0840032026171684,-0.049883235245943,-0.0122995187359396,0.0233452189713716,0.0467945711657172,0.1046790204161312,172
1724751001858762800,-0.236027600967884,0.2053115601867437,-0.283402515605092,6.276597805020213,1.4721258318297563,7.389691733634471,-0.186224952340126,-1.2297464609146118,-0.488177090883255,-0.79175105932829,0.1146820457396203,0.3317809772083382,0.4998995400135946,-6.940783977508545,-1.0705835819244385,-0.6183639168739319,0.1871791066467762,1.5259914236605163,-1.317649117475748,0.0952762216329574,-0.0291478168219327,0.0767616247770376,0.049474474042654,-0.0159405444027041,0.2264227920754812,173
1724751001898507800,0.0553746812194585,0.5279553683340549,-0.1535655908584594,6.615021366101503,1.6540603158213196,7.048117599567771,0.1570164263248443,-1.2242565155029297,-0.8147385716438293,-0.7756372983440281,0.1231328041519514,0.3542376458910891,0.5076817847697346,-6.940783977508545,-1.0705835819244385,-0.6183639168739319,0.1871791066467762,1.5259914236605163,-1.317649117475748,0.0825508832931518,-0.0255818050354719,0.0603184257985325,0.0705298855900764,-0.011465565829561,0.2829451089601032,174
1724751001938251800,-0.8045283301800489,-0.2852716704778373,-1.0306921242594718,6.689476010844111,1.7804507533758878,6.946315513694286,-0.0878813862800598,0.2094922363758087,0.0572086237370967,-0.7711296463666741,0.1214642471945573,0.3620537388799221,0.5094337910899767,-6.940783977508545,-1.0705835819244385,-0.6183639168739319,0.1871791066467762,1.5259914236605163,-1.317649117475748,0.067955270409584,-0.0118167512118816,0.0653253809400834,0.0854664742946624,-0.0469134300387231,0.3212835526447743,175
1724751001977996800,0.9160790721297264,0.7635768727190793,-1.7315110736399888,6.606053046748042,1.6699793310955169,7.052773316419124,-0.7452571392059326,0.015584060922265,-0.4737097024917602,-0.7711008001698848,0.1253256710200432,0.3531318574830258,0.5147764744202665,-6.940783977508545,-1.0705835819244385,-0.6183639168739319,0.1871791066467762,1.5259914236605163,-1.317649117475748,0.0713233724236488,-0.0261049382388591,0.0052226494270667,0.1111193299293518,0.0167948494023003,0.2971322224077768,176
1724751002017740800,0.9748901575386524,0.8658610430210828,-1.5354010570406913,6.5937792561084025,1.7926006253749132,7.034134082400798,-0.4188684821128845,-0.3384290635585785,-1.9679694175720213,-0.7557271677023202,0.1295017492110026,0.352970639398905,0.5362066080356269,-6.940783977508545,-1.0705835819244385,-0.6183639168739319,0.1871791066467762,1.5259914236605163,-1.317649117475748,0.12226602435112,-0.0533792972564697,0.1399889557256363,0.1579409837722778,0.0316895893878769,0.3124416361499577,177
1724751002057485800,-1.7380407676696776,-1.5146571058280764,-1.0553612860918045,6.660369743347167,2.3424523298271,6.806084036183357,0.6752150654792786,-1.4121211767196655,-1.321321964263916,-0.7292200332507758,0.1222829595299851,0.3715281682055781,0.5614729528386995,-6.940783977508545,-1.0705835819244385,-0.6183639168739319,0.1871791066467762,1.5259914236605163,-1.317649117475748,0.1369185894727707,-0.0456207506358623,0.1917282761174254,0.193202257156372,-0.0587816081526922,0.3703541652839631,178
1724751002136974800,-1.839936377045512,-0.1011781087562441,-3.5123312448501585,7.175414192181825,2.3138695016823707,6.2713493829727165,-1.4548715353012085,-0.4877786636352539,0.8215917348861694,-0.7182205519279824,0.142666411886131,0.3998705497780173,0.5512795574115844,-6.940783977508545,-1.0705835819244385,-0.6183639168739319,0.1871791066467762,1.5259914236605163,-1.317649117475748,0.1442349553108215,-0.0070744771510362,0.1911049931199289,0.2807769775390625,-0.0937761619366705,0.3859245132509619,179
1724751002176718800,-1.75961430157423,0.4927659815311431,-1.1467992143392562,7.487442498290538,1.6448070420466363,6.1158157069116825,-1.7220135927200315,-1.195736527442932,1.041915774345398,-0.7150799703281114,0.1839008541195092,0.3928876005847501,0.548160950267905,-6.940783977508545,-1.0705835819244385,-0.6183639168739319,0.1871791066467762,1.5259914236605163,-1.317649117475748,0.1784982830286026,-0.08427295088768,0.0875066897457465,0.294992595911026,-0.0257203536689863,0.4169262025730684,180
1724751002216464100,0.1278355217963457,-0.4048514051042497,1.8589467824637889,7.764650250908732,0.9653937957230956,5.91173339625895,-1.4734930992126465,-0.3106265068054199,0.7568276524543762,-0.7112502641350796,0.2248633558922149,0.3847361912041964,0.5436335602240584,-6.940783977508545,-1.0705835819244385,-0.6183639168739319,0.1871791066467762,1.5259914236605163,-1.317649117475748,0.2047539800405502,-0.0861733257770538,-0.2416249825835227,0.3193355500698089,-0.0696935769537929,0.4934124992737546,181
1724751002256208000,-0.5224637851804494,0.3471253384530544,1.921362614366412,7.795449293798208,0.4938378120137378,5.929373682367801,-0.8261131048202515,0.1572338938713073,0.7344271540641785,-0.7136997189766966,0.2457291349797202,0.3705445500915563,0.5412454043345152,-6.940783977508545,-1.0705835819244385,-0.6183639168739319,0.1871791066467762,1.5259914236605163,-1.317649117475748,0.2625519335269928,-0.1655500382184982,-0.1016959220852702,0.3514049053192138,-0.0814980330486316,0.5431677331762388,182
1724751002295952100,-0.4922726450562477,1.3904311528310178,1.4277818093210457,7.792792057287692,0.0411518891036277,5.953242049211263,-0.6210796236991882,-0.3143788278102875,1.072026610374451,-0.7208821520853117,0.2615637692343477,0.3578456550020922,0.5327850504014823,-6.940783977508545,-1.0705835819244385,-0.6183639168739319,0.1871791066467762,1.5259914236605163,-1.317649117475748,0.3084371089935303,-0.1459168791770935,-0.2880294812859967,0.3807033002376556,-0.1244417420390527,0.7454917654521763,183
1724751002335697000,1.6900076813846825,2.7413109242573377,2.1290753904759883,7.94261320092082,-0.3533939703937619,5.741113794746995,-0.4863187372684479,-0.8334473371505737,0.4665990471839905,-0.7223979253600709,0.2822872299464089,0.3572094201793772,0.5204387698989777,-6.940783977508545,-1.0705835819244385,-0.6183639168739319,0.1871791066467762,1.5259914236605163,-1.317649117475748,0.3019487857818603,-0.115547128021717,0.3698549470575526,0.2574986517429352,-0.3723873881446197,0.4973044286783784,184
1724751002375441200,0.3357575567424297,2.2809859076038004,3.10148659068048,8.126398573476076,-0.5206492100391537,5.464518036547303,-0.1292137205600738,-0.766569972038269,0.4152103960514068,-0.7175492078152435,0.2977455733822612,0.3643277283834938,0.5135523978509785,-6.940783977508545,-1.0705835819244385,-0.6183639168739319,0.1871791066467762,1.5259914236605163,-1.317649117475748,0.243701234459877,0.0115828160196542,0.4759389845665544,0.1012996062636375,-0.5753658292086795,0.563707686249353,185
1724751002454926800,2.753478039652109,2.4088586926706133,3.641271513018012,8.405297932443021,-0.5778927173377946,5.018705529370903,0.6796246767044067,-0.6551660299301147,-0.1900569051504135,-0.7125997840340609,0.3101660870634705,0.3845961928997591,0.498080745917915,-6.940783977508545,-1.0705835819244385,-0.6183639168739319,0.1871791066467762,1.5259914236605163,-1.317649117475748,0.1707459092140197,0.0219689738005399,-0.0009422247408219,0.2119828015565872,-0.3791895424401387,1.527440891816467,186
1724751002494672100,2.7022148854047057,2.480849139256775,2.537784786182642,8.588241593477129,-0.2769863832187839,4.7260734131276605,1.215092420578003,-0.9171195030212402,-0.6649163365364075,-0.7082335169586836,0.3026266620946117,0.4092119478430998,0.4892525046076381,-6.940783977508545,-1.0705835819244385,-0.6183639168739319,0.1871791066467762,1.5259914236605163,-1.317649117475748,0.1926226615905761,-0.0705073103308677,-0.0930201285381335,0.377834290266037,-0.4016714598938822,1.4732264865480362,187
1724751002534416100,-0.5253302805274724,1.6331173349052666,0.2346528054833412,8.812260776743292,0.1801913118523545,4.299067313230037,1.1343170404434204,-1.586652159690857,-0.566180944442749,-0.6982639755178569,0.291742526920391,0.4423741294638411,0.4812679652462364,-6.940783977508545,-1.0705835819244385,-0.6183639168739319,0.1871791066467762,1.5259914236605163,-1.317649117475748,0.1726687997579574,-0.0609908513724803,-0.2904502969584427,0.4016660451889038,-0.4726958379268646,1.0936414785169064,188
1724751002574161200,-1.5913140829205512,0.679872534398362,0.2928635869115591,9.082771077549458,0.5009177603373304,3.663704294100404,1.0218466520309448,-1.705256700515747,-0.2818736433982849,-0.684492871925581,0.2895621119432767,0.4789121448663488,0.4671898640205817,-6.940783977508545,-1.0705835819244385,-0.6183639168739319,0.1871791066467762,1.5259914236605163,-1.317649117475748,0.18528912961483,-0.1110205501317977,-0.3268733354758471,0.3150408267974853,-0.3438021488470956,0.8635206173747777,189
1724751002613740800,-2.85860605507791,-0.0390332758147269,-0.2759410936832427,9.279106719598174,0.676938453707844,3.1000515894412994,0.9169965386390686,-1.2810932397842407,0.0366797447204589,-0.6744286339257582,0.2887112905300535,0.5085146426402588,0.4507823323238005,-6.940783977508545,-1.0705835819244385,-0.6183639168739319,0.1871791066467762,1.5259914236605163,-1.317649117475748,0.2118424177169799,-0.1947831958532333,-0.0666908514738548,0.2751608192920685,-0.5003959284203127,0.8282890719305723,190
1724751002653480000,-4.7230502659142015,-1.1050412628009916,-1.5675538526266812,9.42975145457387,0.664508303462714,2.6093311422631142,0.7384281754493713,-1.327277421951294,0.5811281204223633,-0.6687092915847135,0.2916416421143171,0.5309484804280473,0.4311227506386568,-6.940783977508545,-1.0705835819244385,-0.6183639168739319,0.1871791066467762,1.5259914236605163,-1.317649117475748,0.154652327299118,-0.1583291441202163,0.7115667725618928,0.2817091345787048,-0.8061427796393632,1.0204876141745596,191
1724751002693217800,-5.316078702661395,-2.835439699023962,-2.1111039727166294,9.585240706971287,0.3739015190346166,2.038080822081864,0.4129016101360321,-1.5354912281036377,1.3112294673919678,-0.663969540791923,0.3058153364983743,0.5500579768089857,0.4038042339802025,-6.940783977508545,-1.0705835819244385,-0.6183639168739319,0.1871791066467762,1.5259914236605163,-1.317649117475748,0.0206133313477039,-0.025404067710042,1.3930910196900368,0.3004794716835022,-1.035164666563645,0.8393394582550973,192
1724751002732955600,-4.405652541726828,-4.852900050142408,-2.1579142392084,9.682025841465592,-0.2868520898033864,1.5318303589470683,-0.2743649482727051,-1.012939453125,2.1097569465637207,-0.6632257357439819,0.3342599779651818,0.5569278723821611,0.3717975764955383,-6.940783977508545,-1.0705835819244385,-0.6183639168739319,0.1871791066467762,1.5259914236605163,-1.317649117475748,-0.0667335391044616,0.1459135711193084,1.76175467460379,0.2692220211029053,-1.1941146538741887,0.40260921566803,193
1724751002772694800,-3.4278426973491904,-6.060847268405556,-2.1887778717666864,9.653813892459867,-1.2353327994473278,1.2034144702043383,-0.8307146430015564,-0.6715723276138306,2.6273863315582275,-0.6671690875011557,0.3738016955805325,0.5467314045009048,0.340943447278889,-6.940783977508545,-1.0705835819244385,-0.6183639168739319,0.1871791066467762,1.5259914236605163,-1.317649117475748,-0.1073164865374565,0.3594194948673248,1.9739619856536388,0.1318980753421783,-1.2152744193460792,-0.0369986715644481,194
1724751002812432600,-2.5859166566669938,-6.792106948757171,-2.1511451834648847,9.476577503156662,-2.3673599765904245,0.8720428734611719,-1.1332736015319824,-0.7709659337997437,3.0552797317504883,-0.6705603284817804,0.4219076527403793,0.5268131729637825,0.3079132687291645,-6.940783977508545,-1.0705835819244385,-0.6183639168739319,0.1871791066467762,1.5259914236605163,-1.317649117475748,-0.0734362825751304,0.4763719737529754,0.6688738782610744,0.1961591094732284,-0.5845214878277852,0.503730406605266,195
1724751002852171800,-1.3532833254367111,-7.747036852806806,-2.148762672242522,9.110346482217311,-3.604620821490884,0.4226926936779171,-1.7703684568405151,-0.6144110560417175,3.464881181716919,-0.6689125292391326,0.4781592519460506,0.4998123657376652,0.2722265469531119,-6.940783977508545,-1.0705835819244385,-0.6183639168739319,0.1871791066467762,1.5259914236605163,-1.317649117475748,0.0410787984728813,0.5726963877677917,0.1608277090822346,0.3909145891666412,0.017638990342553,0.7058039712514728,196
1724751002891909600,-0.4752484450191259,-8.257132154801488,-1.2372048769295214,8.462454236382246,-4.954820209437608,-0.0836465528520289,-2.744313955307007,-0.0124195124953985,4.15569543838501,-0.661754466751581,0.5465051661803775,0.4534279330606103,0.2404499480794162,-6.940783977508545,-1.0705835819244385,-0.6183639168739319,0.1871791066467762,1.5259914236605163,-1.317649117475748,0.0545517690479755,0.2325626164674759,-1.0390720492657273,0.5985227823257446,0.7777187222529203,0.7638773900356143,197
1724751002931648800,1.8965251102298497,-7.73417854027748,0.2076935599524527,7.480664382457733,-6.304222309526801,-0.6832414263095706,-2.8813934326171875,0.2469138205051422,4.490626335144043,-0.6490856830673623,0.6202176366004556,0.3875121951957662,0.2094089256343044,-6.940783977508545,-1.0705835819244385,-0.6183639168739319,0.1871791066467762,1.5259914236605163,-1.317649117475748,-0.0336393304169178,0.0961109399795532,-0.2851056662611663,0.5308292508125305,0.4844555780971422,0.2291927682454697,198
1724751002971386600,4.295866471362114,-6.350476695701479,0.7466356747902929,6.301767317590117,-7.385056475049256,-1.3852885292455552,-2.668898344039917,0.1345837265253067,4.05158281326294,-0.6311477721844566,0.6852815395210577,0.3178352884488723,0.1761315332895064,-6.940783977508545,-1.0705835819244385,-0.6183639168739319,0.1871791066467762,1.5259914236605163,-1.317649117475748,-0.1031801253557205,0.1285818666219711,-0.3746704941131174,0.2664357125759125,0.6250826673295349,-0.0238074167367303,199
1724751003011125500,5.016103237918019,-4.808852234101296,1.9152429624423384,5.16733483287096,-8.060580824175476,-2.120396117196977,-2.27298355102539,0.2016165554523468,3.408177375793457,-0.6086479070532922,0.7367224455980663,0.2556367587894601,0.1464160428563852,-6.940783977508545,-1.0705835819244385,-0.6183639168739319,0.1871791066467762,1.5259914236605163,-1.317649117475748,-0.1542576402425766,0.1237141564488411,-0.0483953619924373,0.0064801340922713,0.4044519574578851,-0.1531941819964908,200
1724751003050863600,5.011912800490856,-3.105667091235518,2.53500041616112,4.111042403408884,-8.472990827965736,-2.734616979576648,-1.6891777515411377,0.1819752156734466,3.150424003601074,-0.5884995595498765,0.7744527702669238,0.1991219996861334,0.11933797237514,-6.940783977508545,-1.0705835819244385,-0.6183639168739319,0.1871791066467762,1.5259914236605163,-1.317649117475748,-0.1446183323860168,0.0791018903255462,-0.4129951467344537,-0.0926476269960403,0.5390966112798079,0.2055107360206544,201
1724751003090602800,5.814952353417873,-1.1828729827612638,2.5750688071772454,3.06993000742197,-8.734060515731572,-3.234522019207477,-1.325539231300354,-0.0914533138275146,2.901916742324829,-0.5718872151725899,0.8018711755488624,0.1480450665584043,0.0896126372274114,-6.940783977508545,-1.0705835819244385,-0.6183639168739319,0.1871791066467762,1.5259914236605163,-1.317649117475748,-0.0993631705641746,0.0542062930762767,-0.7912489426944405,-0.0382522493600845,0.6244253724645823,0.5706385084258392,202
1724751003130340600,6.945304875347018,0.3531926756680011,2.951238161545992,2.10896725294888,-8.840787198525666,-3.682816698588432,-1.1330922842025757,-0.2513785362243652,2.36958122253418,-0.5556536589895259,0.8224888181995507,0.1062240377661636,0.0589717830696488,-6.940783977508545,-1.0705835819244385,-0.6183639168739319,0.1871791066467762,1.5259914236605163,-1.317649117475748,-0.0593856535851955,0.1014701277017593,-0.7122215832088142,0.067585602402687,0.6094551823478191,0.7522097485955804,203
1724751003170079500,7.440955472403764,1.5633528938055037,3.478748708721996,1.3712030130088328,-8.813445602613687,-4.075952677588164,-1.0799514055252075,0.0724932998418808,1.7154693603515625,-0.5393425385154801,0.8380811140996675,0.07372782863138,0.0359718711700147,-6.940783977508545,-1.0705835819244385,-0.6183639168739319,0.1871791066467762,1.5259914236605163,-1.317649117475748,-0.0552199035882949,0.0632631108164787,-0.7859065587531775,0.1809304654598236,0.7541068874537944,0.7209439649771898,204
1724751003249555700,7.463927767190337,1.9582494527369736,4.3906519564718005,0.7513266090855002,-8.582108789810539,-4.685438620400428,-0.6231532096862793,0.585843563079834,0.5620380640029907,-0.5101458049014937,0.8592038050511482,0.0256848088610471,0.029334134113473,-6.940783977508545,-1.0705835819244385,-0.6183639168739319,0.1871791066467762,1.5259914236605163,-1.317649117475748,-0.0737190619111061,-0.144946351647377,0.1860244201863184,0.180554524064064,0.8011195446498691,0.1351059420575853,205
1724751003289294600,7.696711856192349,0.7124421671569346,4.449115251356363,0.7213008886560798,-8.525021459454297,-4.793132394661009,-0.0372326225042343,0.2609919309616089,0.1290049999952316,-0.5044708792120882,0.8626366299487793,0.0154847933300835,0.0335766890107921,-6.940783977508545,-1.0705835819244385,-0.6183639168739319,0.1871791066467762,1.5259914236605163,-1.317649117475748,0.042170513421297,-0.159570574760437,1.604807478483021,0.1014291495084762,0.561076168701984,-0.2769149802166968,206
1724751003329032400,7.983346193325519,0.3230272545069456,3.9533804831475017,0.7508507352020591,-8.582572900190948,-4.684659160460532,0.604564905166626,-0.0110757434740662,-0.1979926228523254,-0.5097809072646113,0.8594342544718414,0.0149636554198315,0.0356682860415855,-6.940783977508545,-1.0705835819244385,-0.6183639168739319,0.1871791066467762,1.5259914236605163,-1.317649117475748,0.133967638015747,-0.3436730802059173,1.4782089511357246,0.2060253322124481,0.5179340327963232,-0.0490842484388966,207
1724751003368771600,8.77668092931807,0.0899590878665447,3.005896218928694,0.8912553042575716,-8.705494930982589,-4.42610730073452,0.9196797013282776,-0.2344260960817337,-0.7792547345161438,-0.522383872132326,0.8514951360357934,0.0249941358035944,0.0380329137089315,-6.940783977508545,-1.0705835819244385,-0.6183639168739319,0.1871791066467762,1.5259914236605163,-1.317649117475748,0.3163954317569732,-0.0914645716547966,3.0966099245548246,0.1610559225082397,-0.6805481686376035,-0.6987358594961464,208
1724751003408509400,8.52143658670485,0.5020049345195293,2.6063036111354827,1.2428661175616085,-8.853878150767088,-4.029208169808983,1.3576384782791138,-0.2274980545043945,-1.4762859344482422,-0.5408552409539986,0.8385797385892744,0.0470793649257939,0.045201918473273,-6.940783977508545,-1.0705835819244385,-0.6183639168739319,0.1871791066467762,1.5259914236605163,-1.317649117475748,0.3414741456508636,-0.1623483896255493,0.9333994055692106,0.2958354353904724,-0.4933857208646833,-0.1761887434137985,209
1724751003448243500,7.834820350199937,1.0116220976084471,1.4928285742491485,1.8795028098888693,-8.9530376131773,-3.5328371495231985,1.481295108795166,-0.443124383687973,-2.4111483097076416,-0.5624341312698935,0.8204535997293673,0.0835491170100501,0.0595245152208608,-6.940783977508545,-1.0705835819244385,-0.6183639168739319,0.1871791066467762,1.5259914236605163,-1.317649117475748,0.3141318559646606,-0.0431163683533668,-0.5319751984346658,0.4156514704227447,-0.7134735560312867,-0.1404612494125031,210
1724751003487981300,7.372489254420995,-1.5676561439573764,0.7409925543367862,2.843120608915388,-8.863730267217754,-3.0856647521704432,1.3849027156829834,-0.8427459001541138,-3.48152232170105,-0.5799757336508442,0.7984645625645136,0.1406394636066348,0.0793915460097629,-6.940783977508545,-1.0705835819244385,-0.6183639168739319,0.1871791066467762,1.5259914236605163,-1.317649117475748,0.3034654557704925,0.1850066035985946,-0.4607242451041937,0.2287099808454513,-0.5901757507298141,-0.7558328344635665,211
1724751003527720400,5.966550443595647,-4.964751236343384,0.7084148113369941,4.095231670814752,-8.477344347000122,-2.7448329609036444,1.3162553310394287,-0.9263710379600524,-4.270318984985352,-0.5905893353583244,0.7704990816554705,0.2151248505688699,0.1060978161677883,-6.940783977508545,-1.0705835819244385,-0.6183639168739319,0.1871791066467762,1.5259914236605163,-1.317649117475748,0.2237499505281448,0.3000081777572632,-0.4581911464300006,0.0632209330797195,-0.4298342725282534,-0.4189234773375093,212
1724751003567458300,3.290771145173907,-6.735473207387328,1.0025465184882285,5.44507099327743,-7.769197831210493,-2.482162559942901,1.3413969278335571,-0.8557556867599487,-4.507675647735596,-0.5951763814770178,0.7343490712734362,0.2954429110057196,0.1385999297376391,-6.940783977508545,-1.0705835819244385,-0.6183639168739319,0.1871791066467762,1.5259914236605163,-1.317649117475748,0.0817255526781082,0.2454728484153747,-0.9907198140289634,-0.0247925911098718,-0.0842344174762722,-0.1111695880118291,213
1724751003646963500,-1.6172627631694076,-6.948661784559488,0.8988660715222359,7.715294391587376,-5.7067889158189296,-2.0192033953934905,1.4524353742599487,-0.3244994580745697,-4.075197696685791,-0.5960306202771901,0.63933102926155,0.4406887262372086,0.204442716145577,-6.940783977508545,-1.0705835819244385,-0.6183639168739319,0.1871791066467762,1.5259914236605163,-1.317649117475748,-0.0494869016110897,-0.0160662457346916,-1.5902517143860455,-0.1837220788002014,0.1079058643749915,0.0610534072758862,214
1724751003686703400,-3.8128193352907895,-6.073935882559418,0.7423780173458159,8.47402952336371,-4.591184465688467,-1.811688333813101,1.2712693214416504,-0.2003857493400573,-3.4558675289154053,-0.5941977299540383,0.5887980006200106,0.4956685485159754,0.2335778016184073,-6.940783977508545,-1.0705835819244385,-0.6183639168739319,0.1871791066467762,1.5259914236605163,-1.317649117475748,0.0106115024536848,-0.0379665046930313,-1.651513115556538,-0.0833600610494613,0.104615544992173,0.3339440045144409,215
1724751003726442200,-4.9653182225763794,-5.857121516105532,0.8041897458754479,8.965132540118693,-3.581719546113908,-1.722815287617594,1.066602110862732,-0.3911369144916534,-2.815282106399536,-0.5890083074861296,0.5442187328472388,0.5400602766211984,0.2554020102362733,-6.940783977508545,-1.0705835819244385,-0.6183639168739319,0.1871791066467762,1.5259914236605163,-1.317649117475748,0.0242712721228599,-0.0197815112769603,-1.2517330223672092,0.0506305322051048,-0.1044107888008467,0.4927572867680341,216
1724751003766182400,-5.624585264384746,-6.124616268482804,1.0288485422194005,9.247610926616192,-2.7436560260787606,-1.767609684242308,1.0186767578125,-0.5826751589775085,-2.190152168273926,-0.5809261032585137,0.5077933601585894,0.5764277225572219,0.2690760342146802,-6.940783977508545,-1.0705835819244385,-0.6183639168739319,0.1871791066467762,1.5259914236605163,-1.317649117475748,-0.0171800442039966,-0.0019047100795432,-0.8605041190978139,0.1448433697223663,-0.4329463036015629,0.4297528778551146,217
1724751003805921500,-6.717087071347236,-7.213241526272893,0.8581354172050952,9.375848014950751,-2.1281854558989406,-1.932533119939268,0.7425328493118286,-0.7451784014701843,-1.4235968589782717,-0.5714191379641408,0.4804201064043176,0.6064060422194634,0.2737670323347566,-6.940783977508545,-1.0705835819244385,-0.6183639168739319,0.1871791066467762,1.5259914236605163,-1.317649117475748,-0.0997521728277206,-0.0875412747263908,0.8353005581278353,0.099659189581871,-0.9380717812944204,-0.0721623599538113,218
1724751003846902300,-7.443758839386701,-8.853919067299366,1.0716609712466596,9.394136535835266,-1.8210778011880813,-2.145759398773313,0.4750396907329559,-0.5513007640838623,-0.4680361747741699,-0.5630958488869358,0.4663450530551463,0.626039596749146,0.2711455307512756,-6.940783977508545,-1.0705835819244385,-0.6183639168739319,0.1871791066467762,1.5259914236605163,-1.317649117475748,-0.1236583292484283,0.171160951256752,2.296752801056206,0.0462880432605743,-1.547368412079662,-0.0871783071747515,219
1724751003926381300,-9.03291311392486,-7.877284696441889,1.2538368627786636,9.375583226534724,-2.1858438641414044,-1.868397770767659,-0.2805543541908264,1.3788869380950928,1.608364820480347,-0.5782312690194181,0.4725616689794191,0.6098747797101013,0.2653051427635035,-6.940783977508545,-1.0705835819244385,-0.6183639168739319,0.1871791066467762,1.5259914236605163,-1.317649117475748,-0.1204341053962707,0.3412665426731109,1.3241684362418948,-0.1175406128168106,-0.5732663727113977,-0.3872017301125451,220
1724751003966121500,-7.154354453018307,-7.091385078886151,-0.1692225941956043,9.241948663070795,-2.995985358028113,-1.3344853937253356,-0.49234339594841,1.4481345415115356,2.7756237983703613,-0.604405179241162,0.4953673230841882,0.5680237989193396,0.25817551562412,-6.940783977508545,-1.0705835819244385,-0.6183639168739319,0.1871791066467762,1.5259914236605163,-1.317649117475748,-0.0521945059299469,0.0196290947496891,-0.6283993175968527,0.0075253285467624,0.6571940349265932,0.2973827265701256,221
1724751004005860600,-3.883506151932478,-6.838899095070362,-1.259887833380699,8.84893075749278,-4.093175615067779,-1.0548564053095877,-0.6531155705451965,0.5100483894348145,3.3656463623046875,-0.6246009803171945,0.5315870051696312,0.5207667102331494,0.2368352073720792,-6.940783977508545,-1.0705835819244385,-0.6183639168739319,0.1871791066467762,1.5259914236605163,-1.317649117475748,-0.0524860247969627,-0.1658670008182525,-0.1375168756568338,0.3012867569923401,0.7104312657259404,0.507369055368565,222
1724751004045600800,-1.5003046092182395,-6.3160197148263455,-1.412104347717762,8.196138464656471,-5.26204023848176,-1.1422094753962009,-0.7653904557228088,-0.145212635397911,3.664251089096069,-0.6334216521467853,0.5751504509695944,0.4769050592646074,0.201346916192822,-6.940783977508545,-1.0705835819244385,-0.6183639168739319,0.1871791066467762,1.5259914236605163,-1.317649117475748,-0.0948968231678009,-0.2680874466896057,0.2151273632150143,0.1282797753810882,0.4373377800261601,-0.5399639321662485,223
1724751004085339600,0.3685819679796695,-6.292111015972495,-1.0502584099948409,7.294809217891097,-6.407033864703774,-1.3806044630825518,-1.0004620552062988,0.0444699749350547,4.025547027587891,-0.6354939731733329,0.6221608603529077,0.4281437857974722,0.1604873658972849,-6.940783977508545,-1.0705835819244385,-0.6183639168739319,0.1871791066467762,1.5259914236605163,-1.317649117475748,-0.0930095985531807,-0.0843342915177345,-0.2037885153379291,-0.1919417083263397,0.3313493483787402,-0.5593286674475297,224
1724751004125079600,2.3639017989605664,-5.42948004091382,-0.7391337747275829,6.158857560780644,-7.457010535147786,-1.6222972502052784,-1.0836471319198608,0.3056570589542389,4.2255940437316895,-0.6347053935238619,0.6687106058048233,0.3681579344497565,0.1201454240629271,-6.940783977508545,-1.0705835819244385,-0.6183639168739319,0.1871791066467762,1.5259914236605163,-1.317649117475748,-0.118873007595539,-0.0207872726023197,-0.9959916900172828,-0.3748698830604553,0.5675153714366257,-0.201624140378274,225
1724751004164818700,4.245419601933658,-4.29141533717215,-0.7382371181488037,4.835338382227719,-8.318396478581429,-1.895833474703878,-1.1504948139190674,0.3269140720367431,4.301658630371094,-0.6301588793537352,0.7109061973027095,0.3021141903847609,0.0789889097989223,-6.940783977508545,-1.0705835819244385,-0.6183639168739319,0.1871791066467762,1.5259914236605163,-1.317649117475748,-0.1294508129358291,0.0299131367355585,-1.0040116226047278,-0.4355055093765259,0.6422473718158901,0.0838233615905046,226
1724751004244297700,8.344129470252991,-1.1212497625410556,0.7338263159692286,1.9193641340255736,-9.199704681581258,-2.8021175673976537,-1.7651044130325315,0.764329195022583,3.908727645874024,-0.5975876230607103,0.7861175732776955,0.1577573772422831,0.0045622710285815,-6.940783977508545,-1.0705835819244385,-0.6183639168739319,0.1871791066467762,1.5259914236605163,-1.317649117475748,-0.0761384814977645,-0.1178350746631622,-0.9394896852683275,0.1092779338359832,0.7165954143788665,0.6776115306638181,227
1724751004284038000,10.410267050778865,0.0084206223428249,2.414286124546826,0.8008812789145857,-9.159805801913144,-3.4098251023605464,-1.694793939590454,1.0235579013824463,2.729883909225464,-0.5708756201508891,0.8154815026089682,0.0940351742931462,-0.0157560967758922,-6.940783977508545,-1.0705835819244385,-0.6183639168739319,0.1871791066467762,1.5259914236605163,-1.317649117475748,-0.0252832807600498,-0.0463485345244407,-0.7288730774760246,0.2877019643783569,0.8365881867855787,0.3902519479960203,228
1724751004323776800,10.22206269273758,0.2180009458899497,3.444704984822869,0.1674256825751625,-8.990953210073709,-3.9121722744464873,-1.1455066204071045,1.090710163116455,1.7555689811706543,-0.5478384078107332,0.8350545110023602,0.0463598709574438,-0.020191955262298,-6.940783977508545,-1.0705835819244385,-0.6183639168739319,0.1871791066467762,1.5259914236605163,-1.317649117475748,0.0233216825872659,-0.1459281593561172,1.0852739015355706,0.1399050503969192,0.7124985735192895,-0.4757415988309308,229
1724751004363517000,10.105567480123042,0.4050684088557958,3.50535322253108,-0.2032988138585351,-8.860341209301351,-4.19802598259598,-0.4883346557617187,0.876607358455658,1.2581822872161863,-0.5344101549699297,0.8449390142696053,0.0108547104826791,-0.0191330047260409,-6.940783977508545,-1.0705835819244385,-0.6183639168739319,0.1871791066467762,1.5259914236605163,-1.317649117475748,0.0690366327762603,-0.1996657699346542,1.3623510135114192,0.1130429878830909,0.6790461665768176,-0.1864123052590526,230
1724751004403256000,10.650213286495209,1.3859814799457788,3.128237819483876,-0.4078183286184444,-8.800526499807834,-4.307532651497423,-0.1460226029157638,0.6607977747917175,0.5747474431991577,-0.5292555696839061,0.8482037827197065,-0.0131673897850685,-0.0162980104164182,-6.940783977508545,-1.0705835819244385,-0.6183639168739319,0.1871791066467762,1.5259914236605163,-1.317649117475748,0.0189396515488624,-0.4455512166023254,2.0175626424491404,0.1798488944768905,0.1347415200588293,-0.4881778500232845,231
1724751004442994000,11.146806717360018,1.1903425879895686,3.100671182644367,-0.3275587969893589,-8.790885395759343,-4.33398402057141,0.0820882320404052,0.6268900632858276,-0.447401225566864,-0.5281872959967682,0.8488490268606302,-0.0206643985332685,-0.0068164985374346,-6.940783977508545,-1.0705835819244385,-0.6183639168739319,0.1871791066467762,1.5259914236605163,-1.317649117475748,0.129263699054718,-0.1202178969979286,0.5686225654935464,0.2713242471218109,0.2864498839443549,-0.2758981313243508,232
1724751004601951200,6.610776568138599,-5.962184065079689,2.428663024945557,3.8182162258982655,-8.422777475032209,-3.2631916488528248,1.532371163368225,0.8515636920928955,-4.638089179992676,-0.5587330753927361,0.8046470762168412,0.1375483709672218,0.146426959891577,-6.940783977508545,-1.0705835819244385,-0.6183639168739319,0.1871791066467762,1.5259914236605163,-1.317649117475748,0.0187001209706068,0.009238164871931,-0.8928321981854737,-0.2527841627597809,0.1200733359627891,-0.5905270118528977,233
1724751004641691100,4.694380051746964,-7.725452212986349,1.1322845129050314,5.544273125785589,-7.724629790687561,-2.400313421034813,2.080175876617432,1.853982210159301,-5.004840850830078,-0.5759513027818878,0.7610791057375307,0.2077029533882549,0.2142385317569587,-6.940783977508545,-1.0705835819244385,-0.6183639168739319,0.1871791066467762,1.5259914236605163,-1.317649117475748,-0.0281973052769899,-0.1587209105491638,-1.5165592861875892,-0.2347454279661178,0.2381549866517074,-0.0673671843994175,234
1724751004681430000,3.599280044984817,-9.223381909766792,-0.8597278009630739,7.139313535752892,-6.6087266498714685,-1.2350488679394125,2.1392662525177,2.460191249847412,-4.9932355880737305,-0.5934240025217022,0.7001879689953322,0.2696419441884924,0.2913384636241901,-6.940783977508545,-1.0705835819244385,-0.6183639168739319,0.1871791066467762,1.5259914236605163,-1.317649117475748,0.0097249811515212,-0.0958391726016998,-1.4618150118261577,-0.1539921909570694,0.1461356326539535,0.1992396563945338,235
1724751004721225700,3.2821032700717447,-10.299995827245713,-1.3902858991414309,8.375413666310905,-5.099208806627988,0.1445527930424548,2.002924919128418,3.340028524398804,-5.0435638427734375,-0.6067425499627105,0.6249606940569478,0.3194589011232453,0.3731401686052003,-6.940783977508545,-1.0705835819244385,-0.6183639168739319,0.1871791066467762,1.5259914236605163,-1.317649117475748,0.039354383945465,-0.0353432968258857,-1.7458130091063675,-0.0484966523945331,0.2519261579759418,0.3078289547227323,236
