time_imu,phone_acc_x,phone_acc_y,phone_acc_z,phone_gravity_x,phone_gravity_y,phone_gravity_z,phone_gyro_x,phone_gyro_y,phone_gyro_z,phone_ori_w,phone_ori_x,phone_ori_y,phone_ori_z,watch_gyro_x,watch_gyro_y,watch_gyro_z,watch_acc_x,watch_acc_y,watch_acc_z,headphone_gyro_x,headphone_gyro_y,headphone_gyro_z,headphone_acc_x,headphone_acc_y,headphone_acc_z,frame_imu
1733106758069010200,0.6617195495270192,18.74862378284931,-8.036245424342155,0.1904666586837731,9.560716506567596,-2.174126538340748,-2.199214458465576,-0.3444984555244446,0.4607176780700683,0.2848454477742445,0.3706550068110232,0.6880875436078819,0.5549896729927606,2.2300572395324707,2.1049015522003174,-1.1729029417037964,-1.4555743932724,1.3702688217163086,-0.5086356997489929,0.0319264680147171,0.2168668210506439,0.9003004151742905,-0.5946547389030457,-0.073642113650171,-0.3650869289381429,0
1733106758108772900,1.3620714659176767,8.163248586967587,-7.9552552403509615,0.2676318227604031,9.751662856793404,-1.0019023023005575,-3.6094229221344,-0.1295574605464935,0.1211073100566864,0.3072326009364986,0.3583728750893564,0.6501166678555048,0.5954202317289402,2.066382646560669,1.7246114015579224,-1.96822726726532,-0.507179319858551,0.7324165105819702,0.2197479307651519,0.1553512811660766,0.0561186820268631,0.6974595559500157,-0.4096762537956238,0.0066322233932238,0.4198098682506009,1
1733106758148535600,1.2398755574434994,-4.363809542253613,-3.652995853081345,0.1864701363935135,9.79984441163838,0.3141322926506399,-2.959772109985352,0.1340833753347396,-0.538192093372345,0.3330185187698464,0.3341851092170115,0.6101672088987827,0.6364865029697253,2.261029958724976,1.2947183847427368,-2.3221986293792725,0.4890146255493164,0.2047049403190612,0.7898470759391785,0.201729267835617,0.1256789267063141,0.5153177493507042,0.1528126895427703,-0.0372630010394612,1.2092005793251095,2
1733106758188298000,1.107588463065773,-15.025370152193307,-1.2457166846871377,-0.1059144713620655,9.71203753336966,1.354802643958479,-2.3401691913604736,0.3826833069324493,-0.9402246475219728,0.3567875052226215,0.3041482366539682,0.5817371764988584,0.6646641214749588,1.573113203048706,0.3363286852836609,-1.4043893814086914,1.476081609725952,-0.8134266138076782,0.8827480673789978,0.1266955733299255,0.1640273928642273,-0.4505681772708892,0.4042550921440124,0.2247206095337867,0.0393572151060448,3
1733106758228059600,0.7217760318871587,-20.3435969727993,1.1111229208022355,-0.4786147796470671,9.594829204049706,1.9699151944808664,-0.663133442401886,0.2875425517559051,-0.7355400323867798,0.3734013871728781,0.2766302600317493,0.5683642996948604,0.6789765325244677,0.2934451699256897,0.3315843641757965,-0.6142635941505432,1.7352616786956787,-0.8843216896057129,0.9986563324928284,0.1577691435813903,0.0216466952115297,-1.5179225373648106,0.0346155166625976,0.5701125483229756,-1.2769478353835642,4
1733106758267820000,0.8238242745414376,-21.06009455282688,0.4413227945417165,-0.6532374062553048,9.593065701508522,1.9278893857866524,0.7322952747344971,-0.2584547400474548,-0.1687173545360565,0.3798283782057188,0.2730024523184567,0.5719918315717696,0.6738140652375646,-1.0763896703720093,0.3620870411396026,0.6865991353988647,1.7327951192855835,-0.8359589576721191,0.8224831819534302,0.1346266865730285,0.0244097951799631,-1.0730518410831689,-0.0727815181016922,-0.0243465034659369,-0.0976741192232817,5
1733106758308220000,0.3950368441849947,-15.221591812473534,2.3287859157852826,-0.6115623106949031,9.690087567368147,1.3778871669478714,2.1402835845947266,0.0770015865564346,0.3294057548046112,0.3717447185348462,0.2861318305476983,0.5898100378980241,0.6573115836571609,-1.830000042915344,-0.0562579035758972,1.7667735815048218,1.209192991256714,-0.4740840494632721,0.7098899483680725,0.0900356769561767,-0.0032213174272328,-0.5545933094887062,0.2962848246097564,-0.0516414495078846,0.7806330753296613,6
1733106758348587800,-1.877355714857578,-3.493150743561983,1.203626432454586,-0.384117171568051,9.792294726911187,0.3657725365821272,2.812009572982788,0.2611273825168609,0.808550238609314,0.3470976748497708,0.3102999158025258,0.6205358600270197,0.631008968172291,-2.3741049766540527,-1.697120189666748,2.354219913482666,0.2609822154045105,-0.058916687965393,0.2408521771430969,0.1915811896324157,0.0209418907761573,0.0082813999601581,0.7905560731887817,-0.8932304037228226,1.5270105375751852,7
1733106758388349200,1.853280427265167,8.809277377018333,0.1410533152878284,-0.2183400051185861,9.768680042567848,-0.8340251313645393,3.260101079940796,0.1713521927595138,0.0422278903424739,0.3189898396784115,0.3327773676517859,0.657101720628574,0.5964243650010419,-1.9381427764892576,-0.9490370750427246,1.4544771909713743,-1.45269775390625,0.6944589018821716,-0.0864854454994201,0.2554177343845367,0.0349774770438671,0.2783435517150908,0.8854605555534363,0.0596674967422848,0.1216842234918381,8
1733106758428112000,0.2250205057958141,12.145339616292716,-3.882466872012615,-0.1962899762760847,9.61690542677939,-1.9097059327118096,2.046631336212158,0.3990852534770965,-0.224806860089302,0.2965589706415019,0.3472061310260776,0.6905185047130572,0.5609677813145223,-1.2717024087905884,-0.9219731092453004,0.7338029146194458,-1.0215778350830078,0.8521733283996582,-0.4976687431335449,0.3422289788722992,0.0935634672641754,0.6337335182316601,0.6149356961250305,-0.46387817909047,-0.2867965419575571,9
1733106758467732000,0.548354963088408,8.825051284733414,-5.036211375445127,-0.282448758544214,9.505554591315985,-2.3947918811343607,0.4945836663246155,0.2779016196727752,-0.1206650733947753,0.2861715260380812,0.3462760973793634,0.708655962171537,0.5440637706604556,-0.3885387182235718,-0.7145788073539734,0.100127674639225,-0.5974381566047668,0.6411819458007812,-0.4919596910476684,0.2868202030658722,0.0168929249048233,0.3214513834923506,0.2846253216266632,0.1215973763254471,-0.4678085408093407,10
1733106758507489300,-0.3115574006613343,4.741692422541976,-3.64414794523716,-0.1910753651666454,9.51009223474562,-2.3857990118615326,-0.4761931896209717,0.2912054657936096,0.3484938144683838,0.2809037046235335,0.345898216602892,0.7085169865138463,0.5472214224996435,0.5524716377258301,-0.1720436215400695,-0.1847394853830337,-0.3252040147781372,0.4980139136314392,-0.25566565990448,0.1934484541416168,0.0186415370553731,-0.0499767037665937,-0.1683302372694015,-0.1433032039733137,-0.6068143489828333,11
1733106758547245600,0.6268672857239842,1.4345540799349543,-1.7571370978057383,-0.0753032335291151,9.57473334148228,-2.118775822518766,-0.8367272019386292,0.2880632281303406,0.099813088774681,0.2788143301024565,0.3417537647341869,0.7008793543746745,0.5605667909302704,0.6142644286155701,0.2446653991937637,-0.2037806212902069,-0.0366065502166748,0.0600481629371643,-0.0121275186538696,0.1615136414766311,-0.0477246455848217,-0.2879578956208191,-0.3084668219089508,0.0317160161704989,0.0597549740963382,12
1733106758587003000,0.1038663066606037,-0.7316992408126592,0.3496997189857065,-0.0459566042379243,9.637380059531331,-1.813604834958911,-0.6679592132568359,0.1319165378808975,-0.0140600642189383,0.2809586625433069,0.3354618954659435,0.6927722782917044,0.5732312392036644,0.3371548354625702,0.2515852451324463,-0.119337573647499,0.064820647239685,-0.1103716492652893,0.0798083692789077,0.0995093658566474,-0.0418870188295841,-0.0573651243843138,-0.1251720488071441,-0.1231095161877572,0.4749815742438659,13
1733106758626760200,0.0215981979883508,-1.8301614174842835,1.7128081267356872,-0.0504783605452626,9.667281276798247,-1.6466685981348157,-0.1906938552856445,0.1621143668889999,-0.0657471120357513,0.2823683703329764,0.3309395551741775,0.6887929635254316,0.5799236247417024,0.093730442225933,0.1087638065218925,-0.0388339422643184,0.1645230054855346,-0.1739049553871154,0.1231127381324768,0.0391569770872592,0.0685600340366363,0.0868316491615492,0.0511875487864017,-0.1678433599979616,0.309529475030303,14
1733106758666517500,0.2374999750753864,-2.37400409078002,1.9160135084234176,-0.0751434215912129,9.66494728089273,-1.6593854563668369,0.2530780434608459,0.1495553851127624,-0.1079568117856979,0.281001032521146,0.3279964616900967,0.6906688331794508,0.5800288392270976,-0.2955725789070129,-0.2556330561637878,0.1791324615478515,0.2229629158973693,-0.2259769439697265,0.0849663317203521,-0.0156486462801694,0.0827688425779342,-0.1226705859143752,0.0841418579220771,-0.0530652443664614,0.0171936383198946,15
1733106758706274000,0.0771307412172202,-1.5669617319524287,1.8733574390016487,-0.092693143339781,9.632729018855096,-1.8363973892644048,0.6631963849067688,0.1013558357954025,-0.0250526834279298,0.2769912944953093,0.328090186673093,0.6971277053161901,0.5741478353897335,-0.4451125264167785,-0.4497660398483276,0.3631306886672973,0.0863568782806396,-0.0910989046096801,-0.0001642405986785,-0.0134221892803907,0.0407259240746498,-0.2456889988857321,0.0632577687501907,-0.0194898229656741,-0.1007617191082332,16
1733106758746031400,-1.2942958605475725,2.7723043206751345,0.846714736263454,-0.073541489120177,9.566963292002676,-2.153649713631719,0.9550552368164062,-0.1948791742324829,0.1609428077936172,0.2715058116620089,0.3340015195795628,0.7058672410473752,0.5625647634901031,-0.5663843750953674,0.0298478994518518,0.4441454112529754,-0.4691137671470642,0.223045527935028,-0.3191631436347961,-0.0050127445720136,0.0148580111563205,-0.1726871285010129,0.0238042529672384,-0.242630122771766,-0.3166119441045448,17
1733106758785788400,-0.5707308263517916,14.963572159928082,-2.649925602979958,-0.0324583635369781,9.500231934988498,-2.432066549778729,0.1095751076936721,-0.1605832278728485,0.1142297759652137,0.2676039002860568,0.3423096099108788,0.7119164389025939,0.5517131109557956,1.917097449302673,1.645059585571289,-0.1087431162595748,-1.5734283924102783,1.509599208831787,-1.2220454216003418,0.038258034735918,0.1490994840860366,-0.2825390671761706,-0.3298739194869995,-0.1832171259469352,-0.9650074998192488,18
1733106758825546000,1.4267489591419695,19.38136639034748,-8.86249049628973,0.1448949027447029,9.618100189521908,-1.908274292473495,-2.808743476867676,-0.0756608098745346,0.7812467813491821,0.272649153456744,0.3425257807038845,0.6927993961930395,0.5730335178013015,2.750239133834839,1.0502099990844729,-1.2902946472167969,-1.2563979625701904,1.2004270553588867,-0.5747811198234558,0.1000339984893798,-0.0499890260398387,1.2114581489935516,-0.4430740773677826,0.1594528770650737,0.0298837934913695,19
1733106758865302300,1.597333927731961,9.027042176064848,-6.630527562791109,0.3404730774896219,9.779410695418717,-0.6461994704425335,-3.179375171661377,-0.7076784372329712,0.2405893057584762,0.2935195195178738,0.3362911242173806,0.6479624094134668,0.617170347558115,2.201420307159424,0.5356703996658325,-2.1154677867889404,-0.3563492894172668,0.6402544975280762,0.5662251710891724,0.1084012389183044,0.0580832697451114,1.4475902332492172,-0.151404395699501,-0.4877512951742857,0.9173257842551916,20
1733106758905059600,1.2646560706958174,-5.053383459520339,-5.363391073456406,0.2776587477887049,9.794799987730384,0.3939260333988815,-2.388672351837158,-0.176900714635849,-0.6613260507583618,0.3209530622655159,0.3257646215860253,0.611385944218808,0.6458124468435229,2.349412202835083,1.0241929292678833,-2.745400667190552,0.5739931464195251,-0.103421151638031,1.0963542461395264,0.0754308030009269,0.2420465946197509,0.2570612741083838,0.4676759541034698,0.117408865993889,1.8763503372073167,21
1733106758944817200,0.0203782414390705,-19.89861448670625,-4.326306033289432,-0.1869248396247625,9.696771575176715,1.451916864276677,-2.976471185684204,1.246925950050354,-1.3231199979782104,0.3440394739674079,0.2851066770386054,0.5871005235785199,0.6750288805841453,1.8224612474441528,0.39788618683815,-1.457290768623352,1.915619969367981,-0.923686146736145,1.2154035568237305,-0.111061654984951,0.1634097099304199,-0.6543959286406635,0.391110897064209,0.1971715631498955,-0.6197565769359469,22
1733106758984574200,0.3144548026032746,-23.54187629675865,0.577113074734807,-0.6375225352510809,9.518438038286568,2.272286029928177,-0.901297390460968,-0.0509657189249992,-0.5302718281745911,0.3606937891070893,0.2474484002901525,0.5682560548342513,0.6969607722419999,-0.3264705538749695,0.5325623750686646,-0.3910778760910034,1.7948893308639526,-0.8547191619873047,0.9137834906578064,-0.0767371729016304,0.0437945649027824,-1.5847979790247977,-0.0325977355241775,0.4400067069744691,-0.747386712353304,23
1733106759024330500,0.1086239677827805,-21.64919441795349,1.998398507773876,-0.5534964906953275,9.526903668814898,2.258791319191456,0.8200767040252686,-0.5324288606643677,0.4983450472354889,0.3653407736705548,0.2566352092202948,0.564776117709586,0.6940406872405377,-1.1128679513931274,0.5102500319480896,0.7222825884819031,1.7477370500564575,-0.7832190990447998,0.879786491394043,-0.1179146692156791,0.138043999671936,-0.8478655137337744,0.0635209903120994,-0.1642119812256656,0.0210979568486334,24
1733106759064088000,0.3361520359527319,-13.343248255622386,4.403021608701348,-0.3030821255218237,9.662761169025302,1.646078815548122,2.63668179512024,-0.1642839759588241,0.7066287994384766,0.3510195899062164,0.2781956326731916,0.5819626524801869,0.6787576119805898,-2.1021087169647217,-0.1151831597089767,1.912109971046448,1.1320221424102783,-0.5141169428825378,0.7293351292610168,-0.0745690688490867,0.0339290983974933,-0.778764943370223,0.2002935260534286,0.2332392306246794,0.0924879304907284,25
1733106759103845400,-1.227422026322782,0.2058048966616392,1.3525123410642146,0.0192478971187141,9.802108264917134,0.2978410465305671,3.855978965759277,-0.6575140953063965,0.8119376301765442,0.3245474597329896,0.316054612709139,0.6204222876592531,0.6401990001325147,-3.582080364227295,-1.5425310134887695,2.496678352355957,-0.0356578230857849,0.0064624547958374,0.2075827121734619,-0.0840180963277816,0.0276834424585104,0.3048014601277187,0.5119706988334656,-0.380136833227612,1.1134439110957086,26
1733106759143603000,1.163895895090699,10.884945586955547,-3.723160983936488,0.097549278134061,9.740800101995468,-1.1303348401419815,3.0535926818847656,-0.1827060133218765,-0.1649518758058548,0.3039114755717998,0.3478496468881072,0.6607810991760078,0.5916136169776742,-2.0474867820739746,-0.9107689261436462,1.210358738899231,-1.1912717819213867,0.9476706385612488,-0.2603921592235565,-0.0478071123361587,-0.2534149885177612,0.5199487336196005,0.542329728603363,0.080331793147698,0.4369756321828812,27
1733106759183360000,0.4876649320650845,11.544564510941504,-6.218778653258085,0.0448951627186033,9.619580198946595,-1.9057947506174444,1.1165889501571655,0.4758628606796264,-0.1301389336585998,0.2887522738043744,0.3547780895691251,0.6865136559020559,0.5652023088084703,-0.755606472492218,-0.9236733317375184,0.2536909282207489,-0.902760088443756,0.8744814991950989,-0.4900832772254944,-0.1464297324419021,0.3586057424545288,0.8834945340629666,0.2241671830415725,-0.532328066992946,-0.1243408480810001,28
1733106759223116300,0.5563357327092439,8.435041913321614,-4.182672638380527,0.0598719698058208,9.57848246488273,-2.1022563571333883,0.0948571786284446,0.0152167696505784,0.0421137399971485,0.2811650113314763,0.3539111398401851,0.6942133324615174,0.5601437711387709,-0.3595747053623199,-0.484560489654541,-0.2722064852714538,-0.6078867316246033,0.5055423378944397,-0.4328463971614837,-0.1553034633398056,0.0237161088734865,-0.0164357634490763,0.1287709474563598,0.2793757625733502,-0.1031640401427634,29
1733106759262876700,0.7462909530058502,3.786257491579652,-1.4359198153302073,0.0411022138761589,9.583412322500347,-2.080114375691116,-0.2097543478012085,-0.1633247435092926,-0.1011409386992454,0.2840276319047607,0.3552639911829214,0.6927075980522355,0.5597069595668676,-0.0826597735285759,-0.0163080375641584,-0.3159340620040893,-0.2226079106330871,0.3037092089653015,-0.2295301556587219,-0.0900240018963813,-0.0503620542585849,-0.1384668972575105,-0.0165284574031829,0.1599347605641931,-0.4943016666658222,30
1733106759302634000,0.2170201181590557,0.5692606076687574,-0.4226537499070167,0.0128232001167489,9.620611295560002,-1.9010680143564933,-0.665056049823761,0.2155898362398147,-0.0448923707008361,0.2875357396062993,0.3508315930261715,0.6883637737981703,0.5660350778243232,0.4619667828083038,0.1441866159439087,-0.3195904493331909,-0.0163825750350952,0.0858757495880127,-0.0988199710845947,-0.0353021323680877,0.0001838050084188,-0.2107288907940499,-0.1403982639312744,0.0679198315798072,-0.3976995240556076,31
1733106759342391600,0.1888680826470255,-0.9693179103642702,1.3016636128365993,0.0125440623733156,9.662664138391614,-1.674260661676526,-0.3838801980018616,0.0700133144855499,-0.0106310630217194,0.289578492291985,0.3449557151570715,0.6829122120664752,0.5751354426600817,0.1682153195142746,0.0675355195999145,-0.0969664230942726,0.1103110313415527,-0.1231760382652282,0.0426676571369171,-0.0352884046733379,0.0211899597197771,-0.0485741982912179,-0.0754637867212295,-0.0904638955835253,0.0303518630942679,32
1733106759382147800,0.045270804797695,-1.852228872385621,1.842651042831689,0.0199709484129678,9.6664565164119,-1.6521633961588142,0.2000473588705063,-0.0058270213194191,0.0467451028525829,0.2898947483573572,0.3450561983531364,0.6820360037275024,0.575955139048566,-0.1988098174333572,-0.0994816944003105,0.0473374910652637,0.1738200187683105,-0.1360190510749817,0.1057267189025878,-0.0799123048782348,0.0730143934488296,-0.1232658209943212,0.0339100882411003,-0.1285633520137052,0.0359788886462105,33
1733106759421905200,0.2003574631770141,-2.0067904885441066,1.5090532944716513,0.0330774064674857,9.642497548675536,-1.7864814118422567,0.5006323456764221,0.0936008766293525,-0.0250867344439029,0.2865276731393575,0.3468446453208993,0.6861370077884588,0.5716787656686734,-0.3439222574234009,-0.3296369016170501,0.2555591166019439,0.1760667562484741,-0.1573058366775512,0.0981570184230804,-0.1153990253806114,0.0847841277718544,-0.1164968383160419,0.1017812862992286,-0.0851488837063778,-0.1017906054982449,34
1733106759461662500,0.228405782586243,-0.7501134339034556,1.5583844577431678,0.0162517555015452,9.589954876011609,-2.0500936236977574,0.8871986269950867,0.0387065336108207,-0.0857816934585571,0.2811196649505433,0.3487458839597791,0.6949115009186226,0.5625353767955901,-0.6396316885948181,-0.4449213445186615,0.4193587899208069,0.0592980980873107,-0.0581840276718139,0.0145312845706939,-0.0603301487863063,-0.0152209084481,-0.3254038109125569,0.0541665628552436,0.1051273395723663,-0.4129117062347009,35
1733106759501419800,0.0768816526938229,2.7792659763813017,0.3739331197492778,-0.0242089924080995,9.498647296145558,-2.438332332175225,1.067476749420166,-0.1640739142894745,-0.0972315073013305,0.2758375211641313,0.3537894985976947,0.7065078493097654,0.5473510647243882,-0.8851250410079956,-0.1818107664585113,0.4682736098766327,-0.2601836323738098,0.2237750887870788,-0.2991491556167602,-0.0204402152448892,-0.0274208337068557,-0.3172959808459505,-0.0631487667560577,0.033385892461345,-0.4324579355627298,36
1733106759541208000,-1.143820344658941,14.091670083177087,-4.053464366926253,-0.0630071351595455,9.42253377828002,-2.7170389450490475,0.083355039358139,-0.2592741549015045,0.037174966186285,0.2748691794930474,0.3605659918825692,0.713107708289625,0.5347117178336613,0.9211043119430542,1.5787158012390137,-0.1247323453426361,-1.701315999031067,1.3072381019592283,-0.9997307658195496,0.02000586502254,-0.0335496068000793,0.1925397203644737,-0.3637797832489013,-0.2177790833001956,-0.434630676491931,37
1733106759580965600,1.030065882119909,19.37714497326016,-10.037758264744282,0.0082694880433671,9.55498702300489,-2.2073859799943865,-2.8503520488739014,0.0812386497855186,0.4534903168678283,0.2833768561596784,0.3569088930119877,0.6965352879365025,0.5542131634021419,2.9824163913726807,1.39096999168396,-1.070296287536621,-1.3692859411239624,1.4229174852371216,-0.7879360318183899,0.061299804598093,-0.0800240263342857,1.49658325060755,-0.4108496010303497,0.0107648953304742,0.0369805011535179,38
1733106759620724000,1.1379786328934132,10.061244354271889,-7.824851913893222,0.1719488590880297,9.770378078657387,-0.8249502098314464,-3.769036769866944,-0.3481210172176361,0.2830745279788971,0.3043335421130929,0.3426280548372282,0.6516646154448372,0.6044173850471728,2.8438522815704346,0.8372405171394348,-2.002374649047852,-0.5923197865486145,0.7955015897750854,0.2997023463249206,0.1781703531742096,-0.0153901930898427,1.2935951649323103,-0.3756211698055267,-0.2939804986448958,0.5926952958026901,39
1733106759660482300,0.6610249913915991,-4.331193805330991,-5.316165211901068,0.1788908419793471,9.791918879336118,0.5066628433279693,-3.1012933254241943,-0.2241224497556686,-0.3063413798809051,0.3313099945391072,0.3257489527538265,0.6066753690305825,0.6450320276589081,2.344910860061645,0.932724952697754,-2.624687433242798,0.37045419216156,0.0941925048828125,1.0444731712341309,0.142368271946907,0.1822376996278762,0.2531775280102156,0.1106186285614967,-0.0145419056766259,1.697441484647244,40
1733106759700241000,1.1142733476571738,-17.268325604349375,-3.471622802364826,-0.1247202027874067,9.654316581284998,1.7172718281462789,-3.2506706714630127,0.7792827486991882,-1.2411737442016602,0.3582910742207175,0.2928291621644699,0.571572027666145,0.6776312633283699,2.271026849746704,0.0627598837018013,-1.3879088163375854,1.7274599075317385,-0.8253138065338135,1.1510260105133057,-0.097684346139431,0.0936715379357338,-0.7866172643058001,0.3555675446987152,0.4034850851871073,0.0978191902497783,41
1733106759739999200,-0.1557803442984819,-22.95603572568893,1.5708298055574297,-0.6754564715217799,9.3858485999614,2.760430343008041,-1.4847443103790283,0.6296515464782715,-0.8498316407203674,0.3791259389036499,0.2452623198904641,0.5469036608430041,0.7049866836352129,-0.3380763530731201,0.1674161553382873,-0.4474733173847198,1.861737966537476,-0.9460114240646362,1.1726632118225098,-0.064839631319046,-0.0436544828116893,-1.5900605757281183,-0.1508253663778305,0.4028486504470929,-1.4437097385540605,42
1733106759779756800,0.554985560209304,-22.33598893363476,1.7983128655418752,-0.7540034270793199,9.40011561024487,2.690665317386389,1.2835792303085327,-0.7066989541053772,0.2087588012218475,0.3838321695080209,0.2464802093465423,0.5496014510115219,0.6998989628537455,-1.1167998313903809,0.1793893426656723,0.9889620542526244,1.7463459968566897,-0.7885984182357788,0.7759842872619629,-0.0972785651683807,-0.0030344214756041,-1.186943885461986,-0.4528761208057403,0.2070038241226226,-0.5482921635178849,43
1733106759819515100,-0.3906908143373206,-15.6852193778038,2.040778682863712,-0.5140182110594586,9.55740986623764,2.135905821017921,1.9161969423294067,-0.0660827979445457,0.8543012738227844,0.3732445786916534,0.2692063594813351,0.564470590203337,0.6852659523240993,-2.1069223880767822,-0.4342352449893951,2.002825736999512,1.0871708393096924,-0.5130476951599121,0.6922889947891235,-0.1578302830457687,-0.0364652462303638,-0.4919813339594751,-0.4495681226253509,-0.0508433716324856,-0.3224574552623555,44
1733106759859273700,-1.292652769515663,-1.9938252085089685,2.0844782699890434,-0.0926923213558737,9.737721425202489,1.1569716487854718,2.974536895751953,0.2585203349590301,1.0151853561401367,0.3418944832328743,0.2980439696767931,0.593448105266718,0.6649040427206103,-2.3942184448242188,-1.774017095565796,2.44446873664856,-0.0402036309242248,0.0197165012359619,0.222937673330307,-0.0310749877244234,-0.1353345662355423,-0.3936497006755322,-0.1687004268169403,-0.0456170472523663,1.083353674062714,45
1733106759899032000,1.963152860739082,10.466909559977054,-0.2317617419506423,0.0572543209536001,9.806140881434082,-0.0817290744586847,3.1997339725494385,0.0170276742428541,-0.0221126247197389,0.3157395126303873,0.3220820763542618,0.632795511319633,0.6293976570007471,-2.8409430980682373,-0.6197016835212708,1.4759221076965332,-1.818840265274048,0.7560147047042847,-0.0572074055671691,-0.1651872247457504,-0.089594729244709,1.2886841581456363,0.2153636664152145,-0.293278085996583,0.2877778811451048,46
1733106759938790700,0.7909201491314918,12.639593790555,-3.3541116907060142,-0.0253742801776737,9.74469535586834,-1.1003002788189795,1.9653650522232056,0.3252138793468475,-0.4887572526931762,0.2994765527502873,0.3334584351735798,0.6670121250761327,0.5951589245702293,-1.914297580718994,-1.024766206741333,0.5938912630081177,-1.0802268981933594,0.811122477054596,-0.4565823078155517,-0.0656997263431549,-0.0968096032738685,0.6056813994301483,0.0158224012702703,-0.0592192141186678,-0.038165566769219,47
1733106759978548000,0.6087008933817968,7.6971040703803295,-4.514698607379198,-0.1533536651408299,9.658761870256066,-1.6897247727900742,1.0439698696136477,-0.1450539678335189,-0.2202600985765457,0.2919070042182012,0.3365249230054196,0.6876794068994847,0.5732697976069613,-0.9568381309509276,-0.6828109622001648,-0.0236869491636753,-0.5579431653022766,0.555202066898346,-0.3594497442245483,-0.0677573606371879,-0.0248577520251274,0.5509851654615253,-0.026957381516695,-0.0104710018342593,0.2341376407691277,48
1733106760018306600,0.837015618417412,3.171278504309058,-3.74373878480196,-0.2773711082200519,9.634109075036644,-1.8103601539492609,-0.339049756526947,0.5992559194564819,-0.5830907821655273,0.2918522614331547,0.3319307984554521,0.6943519486900059,0.5679081211829144,0.6488327980041504,-0.0841399282217025,-0.1454311609268188,-0.2026295661926269,0.4609212279319763,-0.1440782397985458,-0.0575444921851158,0.0207639634609222,0.083686446471,-0.0431867353618145,0.0362225680588395,0.0847606972395442,49
1733106760058065000,0.2857012575341388,0.824879044291377,-1.763261572035402,-0.4685582631981,9.668606387922168,-1.57126249788627,-0.7946280837059021,0.3931213915348053,-0.493007630109787,0.2943636838129105,0.3127483335667252,0.6944786320684938,0.5772675567106718,0.827660858631134,0.1251602470874786,-0.1730739027261734,-0.0386066436767578,0.0635148882865905,-0.0861300230026245,-0.0432505346834659,-0.0203902143985033,-0.1514133173285518,0.0066640791483223,-0.0017956946276011,0.1783949847538024,50
1733106760097823500,-0.0680344755019992,-0.0987672482222318,0.6692074210643768,-0.5849841369034722,9.698169167014957,-1.3318021459907292,-0.3627499639987945,0.0699609294533729,-0.2249152809381485,0.2992181255324038,0.302009191402486,0.690429909985974,0.5852909713989074,0.3547596335411072,0.1216975077986717,-0.1643796116113662,0.0240570902824401,0.028548777103424,0.0093806982040405,-0.0751824006438255,0.0612290315330028,-0.0402868286729324,0.0371341556310653,-0.0058246909904235,0.1266652450411114,51
1733106760137582000,-0.1749634028699249,-0.3540899167686701,1.226618016463518,-0.6335287894397974,9.701951023641229,-1.2810856658406555,0.0918009132146835,0.0836856588721275,-0.0660821050405502,0.3010371190439595,0.2989879297153339,0.6898720236319729,0.5865658483585997,-0.0019979528151452,0.0412169359624385,-0.1973281800746917,0.029350459575653,-0.0555433630943298,0.094337910413742,-0.0959730744361877,0.0663077309727668,0.0128748378307966,-0.0072721154429018,0.0055727026904642,0.0130401068285282,52
1733106760177340400,-0.0034689912848174,-0.5530512311458587,1.7630898687303065,-0.6467065431818365,9.683039986944198,-1.4109922948226332,0.5270322561264038,-0.1001986563205719,-0.0487908497452735,0.2994731253937288,0.3005864166437641,0.6939657006431077,0.5817003427779267,-0.2154716253280639,-0.0492583699524402,-0.1083044335246086,0.0530949831008911,-0.0868764519691467,-0.0135267674922943,-0.1112148314714431,0.0708718225359916,-0.0739686056581791,-0.0498681738972663,0.086650840101391,-0.0202657118421513,53
1733106760217098000,0.3201469498302787,-0.2678407893359661,1.030212816309929,-0.6900511793896555,9.64473159133792,-1.6350481568373738,0.5583145618438721,0.0982642769813537,-0.1172739490866661,0.2978132599923944,0.303142733106493,0.7010483152206685,0.572663126023042,-0.2784106135368347,-0.1013612523674964,-0.0215570852160453,0.0129626989364624,-0.0380648970603942,-0.0475787818431854,-0.0964056551456451,0.0549661889672279,-0.1507782160290982,-0.08714110404253,0.1199640943014994,-0.1133990184311754,54
1733106760256857300,0.0766962131243199,-0.1869441288471222,0.4406650612853467,-0.6453191074114293,9.615610710793732,-1.8149368142150344,0.3140044212341308,0.4500635862350464,0.2395650744438171,0.2891503742419108,0.3019523397533776,0.7080683634892114,0.5690835663905812,0.2270674556493759,-0.1395804435014724,-0.0028151564765721,0.0129252672195434,0.0867864489555358,-0.1051700115203857,-0.0620575286448001,0.0873983576893806,0.0256698792904964,-0.0947027578949928,-0.0554795024339575,-0.100101775628468,55
1733106760296616000,0.3052107350483536,-0.3758990129947662,0.1340298463918268,-0.5582478499408811,9.594921558508275,-1.9483860842399296,0.3312945067882538,0.4536644220352173,0.0722899734973907,0.2799630647777387,0.3015052763537929,0.7130460110541357,0.5676976168431712,0.0347137227654457,-0.1044787541031837,0.1000848561525344,0.0188922882080078,-0.0166640877723693,-0.0400823354721069,-0.0265579745173454,0.1204017698764801,-0.0056021999254735,-0.05927050486207,-0.0400502571378136,-0.0195531933583552,56
1733106760336374300,-0.1216812004176899,0.2593710671544075,0.8962265167988837,-0.449485423535481,9.57346492898166,-2.077764305433631,0.3598324060440063,0.8300969004631042,0.198091834783554,0.267005761084943,0.2976890362562728,0.7192480325261658,0.5681297239308156,0.2114477455615997,-0.1127264574170112,0.0930754169821739,-0.0200748443603515,0.0875822901725769,0.0001871883869171,0.0065667666494846,0.0874052047729492,0.0504646882129367,0.0152546567842364,-0.1199567695115692,0.0858383455415721,57
1733106760376132600,0.7644260368943214,0.1735106467783451,0.0423034565918147,-0.3614518603714183,9.52719476071596,-2.29614475216046,0.6819043755531311,0.1318113505840301,0.0490707494318485,0.2553168664762749,0.29674547506013,0.7273327454557029,0.5636864450617173,-0.1553190648555755,-0.14283087849617,0.1131151020526886,-0.0052289366722106,-0.1344274878501892,-0.0243788659572601,0.0118735311552882,0.0857528895139694,-0.0748237520496361,0.0807033479213714,0.1007839035405777,0.1292718016771599,58
1733106760415890200,-0.0873926714446395,-0.3121078010857105,-0.8242033369868993,-0.3287491758177057,9.475314351353047,-2.5061302955076097,0.3608064651489258,0.1936720907688141,0.0449859201908111,0.2503233850429639,0.2998394055113828,0.7333985346715263,0.5563820402091479,-0.164976492524147,-0.1493806093931198,0.0615856684744358,-0.0088018178939819,0.0260124802589416,0.0222073197364807,0.0222690477967262,-0.0308296456933021,-0.0734531623827526,0.0072662569582462,0.0955240467836149,-0.1652329583038576,59
1733106760455648800,-0.0116769024587236,-0.2191214743524789,-1.0271639501333236,-0.2946312359048985,9.461637123656272,-2.561445647755265,-0.0538718998432159,0.5083858370780945,-0.0279666297137737,0.2438204239807365,0.2957692411627808,0.7369653579612551,0.556735356313092,0.0139288157224655,-0.1429926306009292,0.00366997346282,0.0126989483833312,0.023946464061737,0.0023199915885925,-0.0029271156527101,0.0920749455690383,0.1199218625949695,-0.0744330361485481,-0.1854173942038789,0.0593027413833886,60
1733106760495407000,0.3799512840602547,-0.1484708980679512,-1.3618550466880202,-0.259044100222364,9.479572008797524,-2.4981962876379487,-0.2738220691680908,0.3069837093353271,0.045796763151884,0.2394629991770641,0.2906980268290541,0.736795237997779,0.5615023458536996,-0.2488157302141189,-0.1476126462221145,-0.058786679059267,0.029150903224945,0.0484781265258789,0.0109657347202301,-0.0364220179617404,0.1508762687444687,0.0273004647505702,-0.0540876500308513,-0.176268987309467,0.1468407030502334,61
1733106760535165400,-0.0255812534422613,-0.5582219117820263,-1.1241010603189467,-0.159969375219848,9.510741054043171,-2.3854998827844858,-0.3605175614356994,0.2318913489580154,0.376083493232727,0.2351519698311466,0.289111914744559,0.7335127444029368,0.5683985672266503,0.0132688842713832,-0.0384041778743267,-0.0496683493256568,0.0212149620056152,0.0539605021476745,0.0193778872489929,-0.0539954863488674,0.1659866124391555,-0.0585799891999457,-0.0085672819986939,-0.0832025628110393,0.0933942499469965,62
1733106760574825500,0.1878904332539066,-0.712012543568015,-0.9000488515660167,0.0072369609496323,9.545717674878238,-2.2471290845789014,-0.3578445017337799,0.0817590355873107,0.2735498547554016,0.2307913919984562,0.2919815740274817,0.7275427535882423,0.576336324367929,-0.2385939806699752,0.0365728586912155,0.0603064894676208,0.0551706552505493,-0.0718581676483154,0.0449078679084777,-0.067768782377243,0.1109214797616005,-0.0785236660134978,-0.0157183427363634,-0.0629217858304968,-0.0503148359800456,63
1733106760614580200,0.4932061265140771,-0.0292044671744108,-0.345415904186666,0.0570113014113856,9.57398749155104,-2.1227071706183254,-0.5148167014122009,0.2861189842224121,0.0108237210661172,0.2293269676264039,0.2900564021351266,0.7239442196480808,0.5823925926567202,-0.1353757232427597,0.0961875617504119,0.0633207187056541,-0.032553493976593,0.001114547252655,0.0144665986299514,-0.0479525886476039,0.0795021802186966,-0.0759463354719337,-0.0685351118445396,-0.0444542003183392,-0.1029515481695532,64
1733106760654334000,0.3514747293015942,0.2729109322071075,0.3019347821176052,0.0269586929750395,9.610652796125413,-1.950641608081758,-0.3068435490131378,0.2340468317270279,-0.2924883663654327,0.230083172873196,0.2834956329413225,0.7204757240072283,0.5895817497879625,-0.3321439027786255,0.1240583956241607,0.0282237194478511,-0.0175551772117614,-0.0411479473114013,0.015537679195404,-0.0675151795148849,0.1133705079555511,-0.008726793652834,-0.0958776772022247,-0.1513886669444851,-0.0814207117624115,65
1733106760694088700,-0.0305607040889561,0.3024456542491913,1.0437179023101926,-0.1044123505702707,9.627354924601317,-1.8637313863918183,-0.1086225137114524,0.0684259980916976,-0.2311613857746124,0.2329813628303444,0.2746046470099159,0.7208440478970343,0.5921956605779806,-0.5566866993904114,-0.1772339642047882,-0.0382977165281772,0.0106937289237976,-0.0144123435020446,-0.1024291366338729,-0.0512399673461914,0.0941696092486381,-0.1519967523728497,-0.1154007837176323,0.0094714191705454,-0.0790434155712835,66
1733106760733843500,0.0487333891746122,-0.4128624237328767,0.5861176344454289,-0.1147235176337417,9.61752034380734,-1.9132531037993727,0.2752611339092254,-0.1842599064111709,-0.0180893875658512,0.2341689649433687,0.2767483665004552,0.7217749638680273,0.5895898374974117,-0.5153635144233704,-0.0816225931048393,-0.0149949239566922,0.0080234408378601,-0.0214523673057556,0.0516379028558731,-0.0480022989213466,0.0260672830045223,-0.1278614142894279,-0.0709292292594909,0.0141375261268171,-0.0204671207323437,67
1733106760773598200,0.4014462728358804,0.0946165582835674,-0.9145099231168629,-0.1696572958184406,9.61192413123548,-1.9371335994720456,-0.1574621349573135,0.114371120929718,-0.2469043880701065,0.2351129511044448,0.2744894895383114,0.7234789892151521,0.5881797714755992,-0.2175523489713668,-0.0738372206687927,-0.0218434426933527,0.0238757133483886,0.0137108564376831,0.0101688504219055,-0.0326855517923831,0.0212267749011516,-0.0053622245778271,-0.0412855707108974,-0.1528122791399713,-0.0138010789803753,68
1733106760813353000,0.1876421575812623,0.109690208774805,0.2380345568761229,-0.2412125110588036,9.625284548068048,-1.861752633664757,-0.1603542268276214,0.3618825078010559,-0.153351217508316,0.2355487752173873,0.267417299212081,0.7234714608659203,0.5912646697635097,0.1149760708212852,-0.0570710189640522,-0.0929646268486976,0.042913794517517,0.0417379140853881,-0.0333433747291564,-0.0066866250708699,0.020949512720108,-0.0388283095608465,0.0201303586363792,-0.0080940367199829,0.0980617485676892,69
1733106760853107700,-0.3360710066057741,0.3957558061093091,-0.0039627661511301,-0.2201318569714203,9.629363926336168,-1.843163960789889,-0.0178518556058406,0.463421881198883,0.0944844335317611,0.2296379448463225,0.2612455415398715,0.7250696340198194,0.5943829662688549,-0.0659082233905792,-0.0538802854716777,-0.0598938912153244,-0.0052141547203063,0.0133376717567443,0.0599057078361511,-0.0152036184445023,-0.0043740831315517,-0.0721342207047157,0.0453608781099319,-0.0427627172671724,0.0894946943583432,70
1733106760892861700,0.7537463835783302,-0.2633405553072691,-0.6651449939310551,-0.2382448751585558,9.644421210214496,-1.7603303408890962,-0.4233594834804535,0.3405707478523254,-0.3495644032955169,0.2266277789907797,0.2539008973603346,0.7247663094922344,0.5990726020155777,0.0664436891674995,-0.0090479413047432,-0.0428651049733161,-0.0206755399703979,-0.0018461346626281,0.0134137421846389,-0.0447915792465209,-0.0168185234069824,-0.0431278242525178,0.0018666653195396,-0.0591622734667733,0.0537976457276614,71
1733106760932616200,0.776184717618674,0.1864817720323801,-0.0630744419418275,-0.4127150146188214,9.667453126233816,-1.593863036751002,-0.4202200770378113,-0.0701646357774734,-0.6195812821388245,0.2318573293226053,0.2425650029988436,0.7227908519428277,0.604133921091927,0.1059311777353286,0.0185305308550596,-0.0713579952716827,-0.0405164361000061,0.0122736096382141,0.017254501581192,-0.0600276067852973,-0.0115987751632928,-0.0927292466996237,-0.0489898175001144,-0.01697295276543,-0.0418589368278626,72
1733106760972371200,0.3296591668020933,0.1057791728109121,-0.2706006094381213,-0.7594182186696677,9.671988431575894,-1.4304789394505322,-0.4761466383934021,-0.9495546221733092,-1.08016836643219,0.2498570603362267,0.2337630365762547,0.7199228917629142,0.6038519474198264,-0.0259610749781131,-0.0125692253932356,-0.0468958653509616,0.041884422302246,-0.0010473728179931,0.0335595160722732,-0.034928161650896,-0.0384930595755577,-0.1087049788634292,-0.0977493226528167,0.0137479434289853,0.0029856276438425,73
1733106761012125700,-1.9774422289848328,0.3537204989343881,-0.4635749583601951,-1.1902362050056456,9.669604751309752,-1.1191416112806647,-0.7324375510215759,-0.4026377201080322,-0.2554997503757477,0.2778057355884777,0.2263520791506243,0.7112138054092603,0.6047840039367978,0.040369477123022,0.1394345313310623,-0.1143768355250358,-0.0343952178955078,0.0315452218055725,0.136735737323761,-0.0458988957107067,-0.0406393148005008,0.0195241818930022,-0.0942328497767448,-0.0638994123907294,0.0220973728322773,74
1733106761051880700,0.1725378562234342,0.0587111321657896,1.7841176053203642,-1.0987942581702024,9.691973819506169,-1.0142320609111335,0.0977078452706337,0.0772330239415168,0.2701784372329712,0.2762099221563299,0.2282475997661415,0.7068341220843607,0.6099152022992083,0.432885080575943,0.1950151324272155,-0.1807356923818588,-0.0048912167549133,0.0324811339378356,-0.0117463767528533,-0.0566315352916717,-0.0138087142258882,-0.0648697095944546,-0.1590722352266311,-0.0136058817769051,-0.0567376675351988,75
1733106761091635200,0.1214650369163602,-0.3094184158712625,0.1536320802234113,-1.016747185537219,9.697383569595218,-1.0475674904104322,0.0009654653258621,0.5809899568557739,0.1518637984991073,0.2701040088362116,0.228084327188639,0.7080880009159023,0.6112551913647283,0.2435846477746963,0.1806505620479583,-0.0857989862561225,0.0594730973243713,0.007159948348999,-0.0512874722480773,-0.0868332237005233,-0.0450479499995708,-0.1311742377649992,-0.1638817191123962,0.1226895920089446,0.0348803459699149,76
1733106761131389200,0.4787498042035847,-0.0314063611328601,-0.2105459537088871,-0.9926052624493836,9.700539403277634,-1.0414721692100166,-0.2615748047828674,0.8060204386711121,-0.1571466773748397,0.2590848101393034,0.2169448909254239,0.7113615243422817,0.616258721787935,0.1030405834317207,0.0947602167725563,0.0260005127638578,0.0420954227447509,-0.0604668855667114,0.0262033343315124,-0.1089710891246795,-0.04523291811347,0.0141775270603538,-0.1592936962842941,-0.0054452803434454,-0.011670798086567,77
1733106761171143700,-0.8251052542626858,-0.7411088741928339,-0.3950864554803818,-1.0158860386632382,9.71397697699964,-0.8814719421941787,-0.4878685474395752,0.3645558655261993,0.0313825346529483,0.2551674570767916,0.2066416676001232,0.7086901886005633,0.6244573105841674,0.0442228056490421,0.0659303739666938,0.0532370582222938,-0.0355268120765686,-0.0558769702911376,-0.0227927267551422,-0.1264157742261886,-0.0048032393679022,0.0259054986942559,-0.119614228606224,0.0198940449685673,0.0221876243820181,78
1733106761210898700,0.0037579642940312,0.3815086695700884,1.0677917285978793,-0.9765520994015038,9.722770524308086,-0.8273243185516447,0.2387018352746963,0.0193568132817745,0.1002188473939895,0.2524191554307977,0.205044069449592,0.7072048729911453,0.627776054671214,-0.3759156167507171,0.0471099242568016,0.04434809461236,-0.0103026628494262,-0.029416024684906,-0.0034160017967224,-0.1123572364449501,-0.0091447122395038,0.0133902868144446,-0.1217963024973869,0.0144459105143323,-0.1319271384915337,79
1733106761250654200,0.5706672595962882,0.4173907148122787,-0.331597076062113,-0.9546376431047916,9.711579852730036,-0.9717463796202092,0.184388130903244,0.0774415805935859,-0.0728605240583419,0.2494228072839573,0.2068457718317904,0.7118708485607396,0.6230915506160608,-0.1830388456583023,0.0461731851100921,-0.0002477361122146,-0.0002075433731079,0.0163324475288391,-0.0329307317733764,-0.0979214087128639,0.004826558753848,-0.0442828166736522,-0.1072850450873375,0.0242387436589691,-0.0651033128543524,80
1733106761290409200,0.051609702662751,-0.0776554866105318,-0.2520855863213539,-0.983253496736288,9.714466806343196,-0.9125435184147208,-0.2850081920623779,0.3156153857707977,-0.0455149076879024,0.2485383160392124,0.2022729529684611,0.7110642898032429,0.6258609532693113,-0.1510537564754486,-0.0139374509453773,-0.0380248092114925,0.021824300289154,0.0101835131645202,0.0065071880817413,-0.0734798014163971,-0.0176129713654518,-0.0259335511783836,-0.0642542317509651,0.0206095088946982,-0.0254025267413351,81
1733106761330163700,0.296930251828581,0.2886795792251825,0.1851847179591655,-0.9878070683874188,9.718634447416662,-0.8618458160303533,-0.0535061731934547,0.1706900000572204,-0.0499135553836822,0.2458401991622284,0.1976472656944898,0.7105473004922409,0.628983890240024,-0.1177296116948127,0.0617361105978488,-0.0353348180651664,-0.0078210234642028,0.0190402269363403,0.0089111328125,-0.070998340845108,-0.0137450322508811,-0.0251263812476536,-0.0454733408987522,0.0238491552529158,-0.0416505639073438,82
1733106761369918500,0.4146406854517758,0.2321586505800485,0.1776057340722531,-1.0372829008266329,9.713805127564072,-0.8581576290369033,0.0775129199028015,-0.0403498969972133,-0.1675831526517868,0.2472624161407021,0.1955466481466738,0.7109960404820689,0.628575792079129,-0.1778760403394699,-0.0065084565430879,-0.0193517878651618,0.0036329627037048,0.0075346827507019,-0.0095287561416625,-0.0571581907570362,-0.0403685793280601,-0.0671634419882437,-0.0554276220500469,0.0259273657494806,-0.0151010362550849,83
1733106761409672200,-0.0055387832961976,-0.151371295684576,0.3069255030769854,-1.0642202998518944,9.707976859802008,-0.8905128153271973,0.0746097713708877,0.1150136590003967,0.0145352836698293,0.2489427175099182,0.1962612898491051,0.7119585821119788,0.6265971773330271,-0.0308202803134918,0.0448867715895175,-0.0286153275519609,-0.0073237419128417,0.0208891630172729,0.0400629788637161,-0.0760362595319747,-0.0212044883519411,-0.0536372584010241,-0.0700827166438102,0.0259910763521678,-0.0144163818841043,84
1733106761449427200,-0.3088138741068542,-0.0585726004779338,-0.3068435969471931,-1.0252053634114562,9.711246090731024,-0.9005818624641746,-0.0549314767122268,0.2609010934829712,0.0677293092012405,0.2448866056040287,0.1947599787571787,0.7127309785833297,0.6277847379632141,0.0463911518454551,0.0297640617936849,-0.0048271743580698,0.002901554107666,-0.0075678825378417,-0.0148538947105407,-0.0694930180907249,-0.0647125020623207,-0.1113184858300723,-0.1109376847743988,0.0994183051426429,-0.0873118338939268,85
1733106761489181700,0.4941464030388742,-0.0497942507386207,0.3978513901490718,-0.9913920872673392,9.717879245135189,-0.8662170899171382,0.0040580183267593,0.2591296136379242,0.0299235358834266,0.2409814303468059,0.1920011078350639,0.7122502043316928,0.6306846033076544,-0.0810562819242477,0.0452935919165611,-0.0252844467759132,-0.0228750109672546,0.0121036767959594,0.0411099195480346,-0.066951185464859,-0.058360144495964,0.0013026892295572,-0.1316746920347213,-0.0110179830339096,-0.0247109049150953,86
1733106761528936700,0.1000674441006034,0.1669324374318122,-0.2075076819915324,-0.974100906857103,9.716632459944488,-0.8992118892852217,-0.0757041871547699,0.4435308575630188,0.0116633055731654,0.2358417120410061,0.1882295681358438,0.714434514681466,0.6312936726821722,-0.037922665476799,0.0333678014576435,-0.0462972521781921,0.0162965059280395,0.020864188671112,-0.0264493227005004,-0.0633100271224975,-0.0485374927520751,-0.0407904719127109,-0.1295071095228195,0.0720673294809646,-0.0045911762732488,87
1733106761568691200,-0.8918700020898133,-0.3528782028913497,-0.98712887686491,-0.9304166634313762,9.727973353648183,-0.8192962026577443,-0.3465906679630279,0.6907839775085449,0.3364142179489136,0.2275999901489536,0.1803569541488696,0.7136132353023581,0.6375153015105545,-0.0342664122581481,-0.0120433047413825,-0.0162733756005764,0.0378050208091735,0.0035431385040283,-0.034318596124649,-0.0452925488352775,-0.0509949773550033,0.0140217040276911,-0.1116793304681778,-0.0141939199310843,-0.007778209953173,88
1733106761608437800,-0.011641703281179,0.0150683897942304,0.6384254754401743,-0.6916547421287745,9.75192589164376,-0.7693585979256778,-0.0488950125873088,0.7864952683448792,0.5943159461021423,0.210647136581277,0.1779179888808917,0.7124405654821102,0.645291628342703,-0.0294490195810794,0.0179122500121593,-0.0190955270081758,-0.002009093761444,0.0279032588005065,0.0301103591918945,-0.0514804907143116,-0.0155638493597507,-0.0283550541207077,-0.0594583079218864,0.0108905606868909,0.0233415961731341,89
1733106761648192300,0.204255657925643,0.3662397887676954,0.5752642319977284,-0.49739579675626,9.762729609730838,-0.7823628217317163,0.0869872868061065,0.3924437165260315,0.3175193071365356,0.195035762601181,0.1751870312010702,0.7135817451688894,0.649670420338913,-0.1179394647479057,0.073696531355381,0.0031831478700041,-0.0474544763565063,-0.0783861279487609,0.019382506608963,-0.0395065508782863,-0.0598274916410446,-0.0515554517248645,-0.0708140358328819,0.0587162969646742,-0.0585902274661697,90
1733106761687945700,0.720784244370833,0.3063987757891416,-0.0788344672620296,-0.4553271718336269,9.762416305997968,-0.8113602950919419,0.0248547662049531,0.7689954042434692,0.0525207035243511,0.1868146542530955,0.1697964397800122,0.7159169171185259,0.6509473726692075,-0.0432729572057724,0.039018228650093,-0.0566733963787555,-0.0002325177192687,0.0305039882659912,-0.0342186987400054,-0.0321744196116924,-0.0627760738134384,-0.0702163632854586,-0.1278448849916458,0.0448482457038015,-0.0905058441622648,91
1733106761727700200,-1.457834417757392,-0.037701077362895,0.5945884526055306,-0.2275342604487203,9.765193954017755,-0.8715677302300929,0.2216190695762634,1.4995452165603638,0.8177082538604736,0.1643015267261568,0.1628950095916059,0.7196546408287481,0.6546507358345648,-0.1389550119638443,-0.0149726215749979,-0.0034276167862117,0.0473191142082214,0.0149273872375488,-0.0091293454170227,-0.0297940205782651,-0.0571821965277195,-0.0106571309569291,-0.1061562448740005,0.0127703168687527,0.075397834743699,92
1733106761767454700,-1.7425455317430196,-0.442315897232294,0.3511760751485824,0.237490494860988,9.751869777542352,-1.0074863860432055,0.4087785482406616,1.867880821228028,1.202372431755066,0.1242293577410476,0.155444276751246,0.7260885525536923,0.6581790084729876,-0.2119096517562866,-0.0986664518713951,0.0530012361705303,0.0462214946746826,-0.0374528169631958,-0.0514359325170517,-0.0432356595993042,-0.0381180830299854,-0.0049789066531782,-0.0995725318789482,-0.0050556942206807,-0.0351235458919312,93
1733106761807209000,-0.7300059539634733,-0.3042319531440735,-0.2305599832117557,0.8172446038901805,9.713444477558136,-1.073083113004267,0.146126702427864,2.2267892360687256,1.4137859344482422,0.0782441572507685,0.1490347230460957,0.7297264312019109,0.6626959616970997,-0.1222753599286079,-0.097573809325695,0.0777588486671447,0.0050283074378967,0.0088331699371337,0.0093085765838623,-0.0314939580857753,-0.0496411696076393,-0.1113184858300723,-0.1198747903108596,0.0994183051426429,-0.0873118338939268,94
1733106761846963500,-0.6208189454704522,-0.1552425841599702,0.0797745245911181,1.4679174203544854,9.64211585588157,-1.0223414984129369,0.1537006646394729,2.2809484004974365,1.4731311798095703,0.0236533579929785,0.1377269542287606,0.7301754553991507,0.6688164882481876,-0.1854793727397918,-0.1231883093714714,0.038275022059679,0.0005543231964111,-0.0053578615188598,0.021426498889923,-0.0282269194722175,-0.0622034110128879,-0.0006232938431174,-0.0913141816854476,-0.0349945606338442,0.015570352533576,95
1733106761886717700,-0.2176318203166127,0.1960778678953647,-0.4475414498608559,2.1570846565164623,9.528570140722394,-0.8507144003588706,-0.1620643436908722,2.892762422561645,1.6744080781936646,-0.0333347538272081,0.1270914676821926,0.7261006285120387,0.6749180577030184,-0.2201401442289352,-0.09555134922266,-0.0142508363351225,-0.0095204710960388,0.0356974005699157,-0.001629039645195,-0.0359387435019016,-0.0212336163967847,-0.0317196237665368,-0.0686718523502349,0.0123141637492226,-0.0442780309006804,96
1733106761926472400,-1.1477440939739345,-0.0263835645347833,-1.548382119166851,2.8811458036661146,9.365415468263626,-0.3979543390668928,-0.7415192723274231,2.665787935256958,1.8397634029388428,-0.096620436613049,0.113842579455612,0.7122709393892095,0.685838480316587,-0.5252758264541626,-0.2162370234727859,-0.0490676723420619,0.0064439177513122,-0.0491369366645813,-0.0140696167945861,-0.0241131447255611,-0.0364496186375618,-0.0240075675348867,-0.0671005770564079,0.044586087636277,-0.0656837841900065,97
1733106761966227000,-0.9529512974530456,-0.2431196050554513,-0.3400210959384218,3.619343466587365,9.108548492884635,0.3241594368746504,-0.9529737830162048,3.3490262031555176,2.168065071105957,-0.1632319857684514,0.1032919569622546,0.6876068940475331,0.699916320017427,-0.6387696266174316,-0.2419309914112091,-0.127582311630249,0.0141661167144775,0.0599283576011657,-0.017871156334877,-0.0192055217921733,-0.0217425413429737,-0.0249705582149908,-0.0927144661545753,0.0325977971238433,-0.0455431508990935,98
1733106762005980200,-1.968396168220043,-0.4902548754930496,-0.2405646598756313,4.3582580456063145,8.711344826054573,1.1350981090210377,-0.8560498952865601,3.260108232498169,2.4965803623199463,-0.2381755705538138,0.0923485872116657,0.6584814651949872,0.7079168979500745,-0.6915547847747803,-0.0994611978530883,-0.1293533146381378,-0.0091111660003662,-0.0043502449989318,0.0844892263412475,-0.018689677119255,-0.005293954629451,-0.0013026892295572,-0.0854050740599632,0.0110179830339096,0.0247109049150953,99
1733106762045734700,-0.6401496688842773,-0.4367681999772786,0.0454886624991893,5.004629657745361,8.180963107356428,2.048390326911211,-0.9141530990600586,3.2782742977142334,2.524150848388672,-0.3146873936629629,0.0829569135177159,0.6234415039756975,0.7109224091604673,-0.0544196143746376,0.0010282890871167,-0.1499727219343185,0.0016785860061645,0.0493872165679931,0.0249705389142036,-0.0267632827162742,-0.0091647328808903,-0.0207707684375927,-0.0912595465779304,-0.0060897111602476,0.0090433328056969,100
1733106762085489200,-0.5380687660694122,-0.7202753450006246,-0.3484311603546142,5.499153881120681,7.547491016539931,2.9941733401700854,-1.1138607263565063,2.5839052200317383,2.495745182037353,-0.3845487062490805,0.0784843342844862,0.5841060239779865,0.7104806156616892,-0.6846649050712585,0.0150957452133297,-0.1039626821875572,0.0337122678756713,-0.0415499806404113,0.0356426835060119,-0.0537092313170433,0.0067842323333024,-0.0347924736069282,-0.1200295463204383,0.0081042093416588,0.0168215421880478,101
1733106762125243400,-0.1576028835505247,-0.6989186687171459,0.3533227317884564,5.876452239519358,6.87640728020966,3.788496502678096,-0.6187061667442322,2.220114231109619,2.3798861503601074,-0.4450283471188255,0.0790510563939708,0.548262133651219,0.7036399794912326,-1.0628002882003784,0.0073959603905677,-0.0653702765703201,0.0317856073379516,0.0345754027366638,-0.0044990144670009,-0.0795795246958732,-0.028680931776762,-0.0472478176588192,-0.1182444095611572,0.046150140348915,0.1253931518792174,102
1733106762164998100,0.1202665478467941,-0.6794587659657001,0.1342249305725097,6.161968970799446,6.216349380284547,4.422389741516113,-0.5631002187728882,1.8388739824295044,2.25113582611084,-0.4978330247614295,0.0817997508418183,0.5175226310864924,0.691116131735461,-0.8799681067466736,-0.031954638659954,-0.0650549009442329,0.0351778268814086,0.0267174243927001,-0.024064240977168,-0.1093810424208641,-0.0389847978949546,0.0,-0.1394022703170776,0.0,0.0,103
1733106762204752400,-0.5246282697379588,-0.9634493105918168,0.5050023627698421,6.3865317594230175,5.599371912673115,4.902002519224584,-0.1768619865179062,1.379613995552063,2.133172512054444,-0.5423966893445387,0.0866404802809118,0.492504681002907,0.6750839984763025,-0.8312743306159973,-0.0119720920920372,0.0114085199311375,0.027915596961975,-0.0141499042510986,0.0557857155799865,-0.1057023927569389,-0.029300358146429,-0.0190485888540628,-0.1437108814716339,0.0265109400743851,0.1059441449811216,104
1733106762244505900,0.2914502129822969,-1.1996247955977917,1.0570341877400875,6.532174156066775,5.048303964298963,5.292987165409326,0.103395938873291,1.7595446109771729,2.005174398422241,-0.583826085051251,0.088160365910245,0.4715511786406783,0.6549918882354259,-0.6961932182312012,0.0787454545497894,-0.0726649463176727,-0.0059211254119873,0.0163898468017578,0.0476429462432861,-0.1005299836397171,0.0041340901516377,0.0182214926634449,-0.1332028359174728,-0.0528814259318867,0.0468082800306612,105
1733106762284260400,1.218192133423686,-1.989306854301691,0.5884644898325204,6.111805886748432,4.735456158500909,6.032550563725829,1.0563231706619265,5.283734321594238,1.5256314277648926,-0.6377462684255589,0.0536359583675161,0.4353719116739054,0.6331304080118421,-0.6846215128898621,0.0938453152775764,-0.0827139839529991,0.0121307373046875,-0.0134997963905334,0.030094027519226,-0.1165859177708625,0.0218500792980194,-0.0161035107038507,-0.1442764848470688,-0.018531297256489,0.0519520589601714,106
1733106762324013800,0.0809831697285175,1.3201345045506954,-3.257478531903028,5.163515566843747,4.445103677627444,7.053336210998892,-1.4812875986099243,2.0640108585357666,1.2380011081695557,-0.6906964537923752,0.00732416311404,0.3746015305559859,0.6185131822627259,-0.516816258430481,0.0379885956645011,-0.0373838543891906,0.0435425639152526,-0.0361440777778625,0.0024960041046142,-0.1259740442037582,-0.011845227330923,-0.0594713120164815,-0.1377214044332504,0.0350684478539624,0.0999975937347859,107
1733106762363768000,0.1646957644209265,-0.7099483045145869,2.290876310238242,4.8920077794328325,3.9509491643473504,7.525200858798622,-0.0408620573580265,1.3662928342819214,1.3172612190246582,-0.7180763755240387,0.007543139627956,0.3409760075365477,0.6066670294589532,-0.3446628749370575,-0.00598860764876,-0.0650540962815284,-0.0042511820793151,0.0092228055000305,-0.0106807872653007,-0.1703190505504608,-0.0112830838188529,-0.0225689792492659,-0.1238533928990364,0.0191859035490779,0.042217102615768,108
1733106762403522600,-0.6641285103648901,-0.9329276233389971,1.6083412055671211,4.808790859302878,3.823476922905445,7.643751250377297,0.8233444094657898,0.7440499663352966,1.4360332489013672,-0.7409008613096297,-0.0014661216055064,0.3320767808174765,0.5837710752501882,0.0314822420477867,-0.0139874657616019,-0.1103608533740043,-0.0060875415802001,0.0211614370346069,0.0108110830187797,-0.1580011248588562,-0.0038731617387384,-0.0794149888300336,-0.1763641685247421,0.0553492225512163,-0.0437114967588335,109
1733106762443276800,0.612950988574326,0.0347527489513158,0.1054980177819728,4.816649463848769,3.786393392919004,7.657251367941498,0.5281386971473694,0.7528098225593567,1.35211443901062,-0.7618004520155971,-0.0115879214488508,0.3308391431857206,0.5568405417815439,-0.059553388506174,-0.0795797929167747,-0.1191174685955047,-0.0055398941040039,-0.0118649005889892,-0.028543122112751,-0.1627546846866607,-0.0469722338020801,-0.1052207626100163,-0.1719377040863037,0.1252109271801076,-0.0762215082846582,110
1733106762483031600,0.7181622983694076,-0.0655713733240962,-0.0195008192837238,4.768450081086159,3.650589084200561,7.752771597066521,0.1320667266845703,0.4103454053401947,0.8366385698318481,-0.7777439957602327,-0.015352638206717,0.323238208308608,0.5388837669678144,-0.2453283220529556,-0.1058507561683654,-0.1006217449903488,-0.0348926782608032,-0.0227095484733581,0.0144159793853759,-0.1527373343706131,-0.021009961143136,-0.0693612214605789,-0.2289809584617614,0.0307151845479034,-0.2400433576815761,111
1733106762522785800,-0.864917040169239,-0.2728948578551411,0.5031371534198522,4.906329442512988,3.591407996435464,7.694160418143868,0.4911527633666992,-0.4331078231334686,0.8740652203559875,-0.7853426057772352,-0.0140054414482128,0.3278884679884216,0.5249095354947323,-0.1724085807800293,-0.1045963019132614,-0.0957775861024856,-0.0334620475769043,-0.0144726634025573,0.0047509521245956,-0.1139959022402763,-0.0228862594813108,-0.1265949014849495,-0.2134017199277877,0.1072575017351657,-0.1881122045121155,112
1733106762562540300,-1.3310147950053215,-0.6267769770920276,-0.1539519598275422,5.243738858115673,3.540670327366888,7.492479323413968,0.6007048487663269,-0.6604539752006531,1.3778492212295532,-0.79240826090373,-0.0093864755852451,0.3433682444457042,0.5040827798413987,-0.0014264383353292,-0.0576396062970161,-0.0736545100808143,-0.0269317626953125,-0.0104969143867492,-0.0182927921414375,-0.0686958581209182,-0.0187696050852537,-0.062739926457568,-0.1867207735776901,0.0017466273257305,-0.2342009883289225,113
1733106762602294800,0.1104927573293447,0.3886225932285189,-0.5225824431240559,5.616886526575684,3.360697206576168,7.302512047353386,0.1738252937793731,-0.4090018570423126,1.3116079568862915,-0.8014736999568979,2.6638544253e-06,0.3573170829054501,0.4795460912635403,-0.0528643317520618,-0.0380635075271129,-0.0170853715389966,-0.0196638703346252,-0.0047181248664855,0.0262510776519775,-0.0193953085690736,-0.0407463312149047,-0.0958382638319395,-0.1417887806892395,0.0829550360570661,-0.1236935448870994,114
1733106762642049300,0.3824842366039753,0.3640881636917591,-0.1644488039225339,5.782734675902128,3.0741347656354305,7.299318804270029,-0.130011186003685,0.1976208984851837,1.28364360332489,-0.8129431965164948,0.0092938368516446,0.3574240150469845,0.4596574643910553,-0.1165682077407836,-0.0519355908036232,0.0115202395245432,-0.0062920451164245,-0.0523246526718139,-0.0064786672592163,-0.0114488219842314,-0.0337000824511051,-0.0801741731668822,-0.1430712193250656,0.0347368663955945,-0.1607529268129728,115
1733106762681802500,1.2929554057240484,0.4865753101974725,0.8190893549740313,5.8256046803355215,2.7508342471450566,7.393620889776945,-0.0672768950462341,0.5090330243110657,1.1033895015716553,-0.8260208174114861,0.0173266863383819,0.3503284736076504,0.4412022740739905,-0.0704904571175575,-0.0612084530293941,-0.018507033586502,-0.0103574991226196,-0.0106032490730285,-0.0141505002975463,-0.0004895279416814,-0.0328651443123817,-0.0781122996004764,-0.130066841840744,0.0443312406589509,-0.0684224016739288,116
1733106762721502500,1.1555220344990491,0.6422475179463625,0.4974591077834367,5.806666171109676,2.549522277988493,7.480169876939057,0.2048244476318359,0.239856019616127,0.8030329942703247,-0.8370937933633449,0.0193129198699046,0.3438669389767442,0.4250370214357379,-0.1769828200340271,-0.0863370820879936,-0.0192989241331815,0.0001619458198547,0.0035700798034667,0.0026943832635879,-0.0186643879860639,-0.0590052753686904,-0.1038619684122037,-0.100751593708992,0.0331858352780225,-0.0945026130476966,117
1733106762761255000,1.2789233732402323,0.6131830437645316,-0.0590197597235441,5.839486490693688,2.5022718665137886,7.470570273944735,0.3372149467468261,-0.0671350434422493,0.3653942942619324,-0.842512270881417,0.0177705734932777,0.3446608873768909,0.4136015665660044,-0.1570077836513519,-0.0966470316052436,0.0414556339383125,0.0073774456977844,0.004898726940155,0.0250123739242553,-0.0206357222050428,-0.0470802821218967,-0.0289303720739204,-0.103962667286396,-0.0414767143109347,-0.0943775253633037,118
1733106762801007600,1.0700888996243476,0.7966998285114765,-0.7061947971999645,5.901377421939372,2.536178812290728,7.410258720844983,0.2187797874212265,-0.1709803193807602,0.1220620796084404,-0.8436967096551797,0.0153682964214685,0.3492073498313688,0.4074235769982171,-0.4775879085063934,-0.1231935247778892,0.0254995729774236,0.0163309574127197,-0.0199671983718872,0.0001122951507568,-0.0132955834269523,-0.0296783708035945,-0.0455855059032095,-0.0877986177802085,0.0352567278345231,-0.0403924079392571,119
1733106762840759800,0.9238181419491768,0.5985241115540265,-0.9218032949954272,5.935718667480349,2.5315949916318057,7.384351541650295,-0.1339465379714965,-0.0410249754786491,-5.8444624301e-05,-0.8434689644538824,0.0160663423404815,0.3510622732229778,0.4062723131714719,-0.4090554416179657,-0.160978615283966,-0.0413084886968135,0.0015820264816284,0.0517643094062805,0.0351393371820449,-0.014793406240642,-0.0255892314016819,-0.015743887036154,-0.1073326468467712,-0.0184067313035484,-0.0891226005097851,120
1733106762880512300,0.609815905418992,0.2444116906926035,-0.546034630382061,5.954636133918166,2.4792919729426504,7.386867323863506,-0.218348428606987,-0.0997932851314544,-0.0462590381503105,-0.8427357050283143,0.0197631221367192,0.3506907350681747,0.4079486319386488,-0.5429003238677979,-0.002996546216309,-0.0358774326741695,-0.0125517845153808,-0.0425648093223571,0.0357739776372909,-0.0145521331578493,-0.0006845275638625,-0.0639067189143504,-0.1326021403074264,-0.0016175924061157,-0.0768783008261118,121
1733106762920264700,0.2384785012513399,-0.2152232978701591,-0.187938400581479,5.981058276897668,2.4353961325928566,7.380120187690854,-0.1373343765735626,-0.1402144581079483,-0.0425810776650905,-0.8414532329926695,0.0235045068276524,0.3509503415895507,0.4101679701595678,-0.0026075500063598,0.0486653707921505,0.049135323613882,0.0274127125740051,0.0078084468841552,0.0497602075338363,-0.0066448030993342,-0.0219948720186948,-0.0867873442289419,-0.1144305765628814,7.103082604e-05,-0.026876019660267,122
1733106762960017200,-0.0963034884572029,-0.4853272098325192,-0.1184533609449863,6.043949325096607,2.428521132256836,7.3309852776438,-0.0154456943273544,-0.1835243552923202,0.0087972162291407,-0.8397294282490071,0.0258278031393543,0.3543397893829076,0.410646759157632,-0.3334456384181976,0.0812585204839706,-0.0042878845706582,0.0245149135589599,-0.0084526538848876,0.0440879017114639,0.0042884331196546,-0.0197104047983884,-0.0447502834883518,-0.1114708557724952,-0.0020071790997026,-0.0534255518791032,123
1733106762999769300,-0.272007261365652,-0.5575212161667644,-0.2699468217045068,6.118198802655935,2.438914662107825,7.26565326603353,0.0959287136793136,-0.2712605595588684,0.0463114939630031,-0.8382727283883366,0.0270220365983514,0.358921402364428,0.4095656411442209,-0.1030316203832626,0.1234017089009285,-0.0613071620464324,0.0628449320793151,0.0210633277893066,0.0370979309082031,0.0291857663542032,-0.0431527979671955,-0.0439711660417495,-0.1544148623943328,0.0417360228342469,-0.072888491404429,124
1733106763039522000,-0.323977687099576,-0.4797219371713697,-0.9899462723731994,6.225833832466602,2.4227662219919264,7.179106616958976,-0.0812039747834205,-0.4797197580337524,0.065896488726139,-0.8362917873130581,0.0303435863951038,0.3647556472338966,0.4082261479467511,0.1462719440460205,0.1533281356096267,-0.1421766430139541,0.0577477812767028,0.0697221755981445,0.0656201839447021,0.0212246607989072,-0.0474382080137729,0.0181934424626058,-0.1796979308128357,-0.0123778743519098,0.0435933776713442,125
1733106763079274500,-0.0181704474627971,-0.3053865300066768,-2.0395167001038788,6.350533978846669,2.2596534889787434,7.122855152904987,-0.96886545419693,-0.2651752531528473,0.0568259209394454,-0.833783059964941,0.042449807287471,0.3674689931124744,0.4098419100952298,-0.1058167591691017,0.2180239409208297,-0.1368092447519302,0.0218148231506347,-0.0112794637680053,0.0731720924377441,-0.0038249585777521,-0.0431378111243248,-0.0464406477280892,-0.1923044621944427,0.0493897889904212,0.1091451147132087,126
1733106763119025700,-1.0217571226537228,-0.366774772427231,-1.2636539079159497,6.408561220401525,1.909089408248663,7.173291208678483,-1.3035407066345217,-0.1315813958644867,0.1770915687084198,-0.8309663049365733,0.0645628729468472,0.3606876241498467,0.4186061063738092,-0.0802613273262977,0.2366572767496109,-0.0137583520263433,0.0523658990859985,0.0137308835983276,0.0337508916854858,-0.0247109699994325,-0.0356775186955928,-0.0393039094496518,-0.2420634180307388,0.0292944355963612,-0.0299797669624211,127
1733106763158778000,-0.9747802674233912,-0.0608300240159034,0.923054756361246,6.449272000974417,1.4719127736009656,7.239526891130208,-0.590396523475647,0.2778053879737854,0.8584560751914978,-0.8338139380610249,0.0857599375610437,0.3514713197876453,0.4169742625608599,0.1819830685853958,0.2092304825782776,0.0589899569749832,0.0258512496948242,0.0229215621948242,0.0318288654088974,-0.0231788232922554,-0.0358327105641365,0.012379317390325,-0.2720919251441955,0.0198303343658801,0.0215029711526818,128
1733106763198530600,-0.5980231762945651,-0.6314716377142816,1.31568687749207,6.42401364107728,1.2035361238226294,7.311219669944047,0.6011099219322205,0.2178104668855667,1.2640053033828735,-0.8450583411447828,0.0900604051486195,0.3451385966552974,0.3983024899795804,-0.1330052465200424,0.1910255551338195,0.2349463403224945,0.0333838462829589,-0.0604841113090515,-0.0255148261785507,-0.029351258650422,-0.0269294194877147,0.0566621317806886,-0.2316743582487106,-0.0044084058681561,0.0866062885736115,129
1733106763238283000,-0.0203279177576303,-0.4877385818231851,-0.4886667295187711,6.456989443483948,1.0806027679193764,7.30136755349338,0.3479978740215301,-0.1122567057609558,1.0354994535446167,-0.8557407486592081,0.0871546376676643,0.3466091925368019,0.3741308201037996,-0.2557213008403778,0.0901781916618347,0.3590122163295746,0.026591420173645,-0.0191052556037902,-0.0102404505014419,-0.0285935122519731,0.0056239152327179,0.0767815533202141,-0.1552013456821441,0.0071902950965799,0.0899184087962843,130
1733106763278028500,0.2239963869124651,-0.3110738549280911,-0.3208095784574747,6.526455193898081,0.8478239396143704,7.270279172268509,-0.4492081105709076,-0.1664217859506607,0.6123684048652649,-0.8603812511838065,0.095306341675666,0.3467500796467319,0.3611442013982778,-0.3155824840068817,-0.008874942548573,0.3480010628700256,0.0174030065536499,0.0335753560066223,-0.0440971851348876,-0.0199813190847635,-0.0324958488345146,-0.0376097777836723,-0.1060372292995452,0.1023986452608369,0.0637061365746427,131
1733106763317780700,-2.1269746188044545,-0.58319089681115,0.1056704517394304,6.547418486949801,0.4359475677767768,7.287773912426829,-0.7907867431640625,0.4612636864185333,1.3230518102645874,-0.8653342964542032,0.1121346312949928,0.3403715243296291,0.350385014975091,-0.1401025652885437,-0.0604466311633586,0.3026918768882751,-0.0583492517471313,-0.0131018757820129,-0.0638514906167984,-0.0414729118347168,0.0375819057226181,0.0129028891732799,-0.1129585206508636,-0.034930850031157,0.0162550080462009,132
1733106763357533200,-1.073063531520963,-0.528913326646015,0.909494433042407,6.323847047451138,-0.2703011515675112,7.490412454012036,-0.6609340906143188,0.9987457394599916,2.2250354290008545,-0.8810484222883463,0.1326077006770304,0.3170338206111847,0.3250513847061649,-0.1858857721090316,-0.0757892578840255,0.2396233230829239,-0.063516080379486,-0.0012143850326538,-0.0471224635839462,-0.0563682653009891,0.0374856106936931,-0.126586772977421,-0.1790144443511963,0.0436230969561729,-0.0483929234401788,133
1733106763397285600,1.467659061679244,0.4777656885370612,1.673348807528615,5.89765343298018,-0.9271274126276372,7.780006809994578,-0.3122066557407379,1.2721878290176392,1.740739345550537,-0.8998022432552576,0.1463637118961739,0.2861952188782117,0.2950016224492581,0.1843801736831665,-0.0420191548764705,0.1377996206283569,-0.0425337553024292,-0.0072804689407348,-0.0360467582941055,-0.0828652456402778,0.0144812949001789,-0.1402968343647196,-0.178087905049324,0.0753142983458237,-0.0483998920370824,134
1733106763437038000,-0.2994996639251708,0.4299279786936938,1.3224223232269283,5.476811116409301,-1.3329909173838794,8.02484023323059,-0.1168964132666587,1.009087324142456,1.4662432670593262,-0.914093542157291,0.1516507613872595,0.2604785226522255,0.2712675038630721,0.363514244556427,-0.0753505304455757,0.1532946825027465,-0.0546406507492065,-0.0305010676383972,-0.0374271869659423,-0.0902918204665184,-0.003955515101552,-0.0616690869222395,-0.1647787094116211,0.0398562735022511,-0.1249447322582825,135
1733106763476790500,-0.415090621176362,-0.3202544287927448,0.541817889469862,5.149325128927827,-1.702845827908814,8.170382676631212,-0.2429758906364441,0.5046495795249939,1.478264093399048,-0.9249040736528172,0.1584284122240176,0.2415095084973977,0.2472371005690593,-0.0829268842935562,-0.1575814336538314,0.1296409517526626,-0.0285440683364868,-0.0365208387374877,-0.0277579873800277,-0.0998136773705482,-0.0113640138879418,-0.1289883542264346,-0.1187311336398124,0.0570349882476497,-0.1361531769550405,136
1733106763516543000,2.29665226329118,0.8448061261631548,1.7571423585027457,4.851386430709064,-2.000008427188545,8.284588317003847,0.0207533128559589,0.7810801267623901,1.031777262687683,-0.9331733125014549,0.1640687552278661,0.2251332928345532,0.2271211365127894,0.0384304299950599,-0.140356108546257,0.0893562510609626,-0.0253533720970153,0.0006673336029052,-0.0285979509353637,-0.0825606659054756,0.0527652949094772,-0.0300491880699759,-0.0669868364930152,-0.0622136421277187,-0.0703443142137955,137
1733106763556295400,1.7506857297092675,0.8630209972895682,1.2282955942869185,4.452391496548056,-2.10665912213698,8.479892862439154,0.2841671109199524,1.2120158672332764,0.7858456969261169,-0.941843093042714,0.1603163951063938,0.2048034076094677,0.2128048987348032,-0.0016402900218963,-0.0767866149544715,0.109435886144638,-0.0151223540306091,-0.0275589227676391,0.0082449913024902,-0.0933195054531097,0.0199836641550064,-0.2653970494456589,-0.0728289037942886,0.0761645037006819,-0.1221814050247892,138
1733106763596047600,1.447037421672046,0.2469644439153373,0.4069774573475122,3.9394676931291817,-2.13359520598799,8.723460211262106,0.2220849692821502,1.3370609283447266,0.6805285215377808,-0.9508002128397678,0.1523944248256077,0.1788945554128872,0.2018707052016672,0.1028222069144249,-0.0762887075543403,0.1063461527228355,-0.0067306756973266,0.0313925147056579,0.00309719145298,-0.0966419726610183,-0.0215446501970291,-0.1155618955534882,-0.0955232009291648,-0.0326570438972557,-0.1251461365818977,139
1733106763635799300,1.4382204934880136,0.1395855808228254,0.1436906780540943,3.498174416942894,-2.1225831058472395,8.912227463883161,0.3145691156387329,0.8322618007659912,0.3402218520641327,-0.9572861608783612,0.1449788854839082,0.1567927812285583,0.1949366597943838,0.1371996104717254,-0.0154975838959217,0.1420245170593261,0.0028111934661865,-0.0153831839561462,0.0044742822647094,-0.0772203505039215,0.0027851234190165,-0.0310402289509191,-0.0764918699860572,-0.0336983787768869,-0.0534185832821996,140
1733106763675551500,0.3408636477097869,-0.1838729047082364,-0.2003986537039279,3.324209888917208,-2.012507697147131,9.003878158098459,0.4125711619853973,0.191134974360466,0.1129695922136306,-0.9605914127295532,0.136457752292728,0.1493628067899542,0.1906151081360444,0.04186537489295,-0.0923788323998451,0.1129385381937027,0.0086174607276916,0.0364300012588501,-0.0070303678512573,-0.0629450753331184,-0.0077690714970231,-0.0782400724323,-0.0579239428043365,-0.0049209516503091,-0.061314912322862,141
1733106763715304000,0.3329273017525673,-0.5477867347463965,0.0960702642232179,3.1377672798514364,-1.910459819819033,9.092576432248949,0.3021461963653564,0.8037418723106384,0.3151643574237823,-0.9636403460674456,0.1284673044821031,0.1410807396936117,0.1870555498389952,0.2038265764713287,-0.1088112294673919,0.0276611931622028,0.0036984086036682,0.0279414653778076,-0.0067988634109497,-0.0628798604011535,0.0191379953175783,-0.0319471192293451,-0.0673332959413528,-0.1266937678826973,-0.0268481544058071,142
1733106763755022800,0.8415563305869698,0.1316577104330062,-0.2563584413349628,2.83578778180927,-1.8475519666157665,9.204088595753907,0.234663188457489,0.6900611519813538,0.268568754196167,-0.967701093844712,0.121074482090311,0.1267401412077876,0.1811972987893669,0.126231387257576,-0.0642642676830291,0.0527629517018795,-0.0055704116821289,-0.0242581963539123,0.0280503183603286,-0.0576577596366405,-0.0310832019895315,-0.1629655248285271,-0.0491493083536624,0.0047444562931981,0.0041395994349586,143
1733106763794773800,1.0738953061699867,0.4463320010058582,-1.190782148450613,2.765656260962784,-1.7866360178820788,9.237394653028248,0.0930317416787147,-0.2510655224323272,-0.1891254186630249,-0.9688564624539878,0.1169914501446542,0.1238424120034977,0.1797028681231116,0.1034038364887237,-0.0554970912635326,0.1092541888356208,0.0206454992294311,0.0134252905845642,-0.0056601762771606,-0.0556114241480827,-0.0432846136391162,-0.0797983073255047,-0.0588906332850456,-0.0924073486683424,-0.0223890332722105,144
1733106763834525200,0.6994193117156624,0.0512630081169307,-0.591210573670268,2.884700573538244,-1.775836537578702,9.20300430764854,-0.1391367614269256,-0.0867831856012344,-0.2223266512155532,-0.967115292638278,0.1182900138826157,0.12955626536105,0.1841487138142507,0.0863159298896789,-0.058562334626913,0.1864180117845535,0.0092012286186218,-0.0086078643798828,-0.0177533328533172,-0.068952776491642,-0.0782082378864288,-0.1217356431518215,-0.0806058421730995,-0.0005734017032285,-0.0061618876263586,145
1733106763874276000,0.1668926899433135,-0.1107176521264016,0.0030985505372285,2.827355469028652,-1.801650631662458,9.215774357372522,0.0093015786260366,0.2724246680736542,0.0808398723602294,-0.9673477577153156,0.1190710433837085,0.1262867735927344,0.1846946174096837,0.294799655675888,-0.0605648197233676,0.2027111798524856,0.0068660378456115,0.0327343940734863,0.0250301361083984,-0.0604285448789596,-0.0847959443926811,-0.0278314823377528,-0.0580326244235038,-0.0438706237101461,0.0180936296417203,146
1733106763914027300,0.0596679944992065,0.3482141566030681,-0.5806430024266243,2.797512411689758,-1.8014944181874395,9.224908096420764,-0.1112662702798843,-0.0954884514212608,-0.1250228732824325,-0.9674549860414432,0.1188290691157521,0.1246604999046291,0.1853924843578294,0.5942776799201965,-0.1007842496037483,0.1582690626382827,0.0106658935546875,0.033715546131134,-0.0490232706069946,-0.0358092188835144,-0.0807430371642112,-0.0454296805872581,-0.0438397601246833,0.0440053697054507,-0.044284999497584,147
1733106763953778200,-0.45470717677176,0.1908032884933054,-0.4210965835928916,2.8507041959121824,-1.881708210978657,9.192553640782831,-0.3374466001987457,-0.0707504227757453,0.0301168393343687,-0.9663907025032046,0.1236944271507916,0.1265301765587976,0.1864908945095804,0.6672118306159973,-0.0870353654026985,0.1509867906570434,-0.0086559057235717,-0.0099205374717712,0.0073736906051635,-0.018917104229331,-0.0852212905883789,-0.0064654696870595,-0.0589612424373626,0.0377172019472112,-0.0097349540611146,148
1733106763993529600,0.2828764459043741,0.2207848775200545,-0.3628893092960119,2.8336256353393194,-2.0375350247673687,9.164573162445423,-0.4369474947452545,0.0465350560843944,0.0497582927346229,-0.9657769141881574,0.1314842755223191,0.1242927926343194,0.1858442527304791,0.7731842994689941,-0.1499491930007934,0.0182810071855783,0.0090516805648803,0.0886703729629516,-0.0172629207372665,-0.0341336801648139,-0.0583397336304187,0.0637508935983991,-0.053143672645092,-0.0071310471815231,0.0807708878178615,149
1733106764033280500,1.3361039348378776,0.5305556139603257,-0.3951280295997857,2.8278613727241755,-2.1831530176222325,9.13276698834002,-0.4631197154521942,0.0883572995662689,-0.2385189682245254,-0.9644255726233532,0.1393118522960489,0.1222730275392307,0.1884805179311576,1.3745231628417969,-0.1629407256841659,-0.0142774675041437,0.0271209478378295,0.0645837187767028,-0.0138100385665893,-0.054272498935461,-0.0434044152498245,0.0444105895054759,-0.0482777245342731,0.0250134497919352,0.0579958280698629,150
1733106764073031700,0.8018786924540996,0.2922013236105442,-1.0739046585202217,2.84374224794507,-2.3519630854941904,9.085801239025592,-0.6951425075531006,0.0022029422689229,-0.4470148086547851,-0.9615522841439974,0.1493033603626512,0.1202562464482908,0.1966321300219474,1.172365427017212,-0.0756482705473899,0.1455976217985153,0.0233096480369567,-0.0618929266929626,0.0447577238082885,-0.0625221654772758,-0.0452728308737278,0.0113882742260931,-0.0382720530033111,0.0483455954334232,0.0384286975177004,151
1733106764112782600,-0.1546589390531182,-0.0509945664390921,-0.632500030913949,2.92774330419004,-2.578437406827509,8.997242081084847,-0.8131284117698669,-0.2154847383499145,-0.4707927405834198,-0.9569816113200972,0.1634793053798847,0.1205936620232888,0.207166550981498,0.807556688785553,-0.0224224422127008,0.3656728565692901,0.0306167602539062,-0.0550705194473266,0.0765495300292968,-0.0625221654772758,-0.0452728308737278,0.029581716688699,-0.0382720530033111,0.035967723364802,0.0820220751890447,152
1733106764152534000,-0.8884715187579393,-0.4368628925234079,0.088844989144802,3.1101410217791794,-2.7689728381648657,8.878637328970433,-0.4860779047012329,-0.5644426941871643,-0.3531759083271026,-0.9520389045705328,0.1769006524937547,0.1265766487279303,0.2151895459266708,0.8965312838554382,0.0152604356408119,0.4603221416473388,0.019876480102539,-0.029842734336853,0.0158115625381469,-0.059460412710905,-0.0503110326826572,-0.0092266711788368,-0.0469823032617569,0.0510045307106804,0.0435794450441142,153
1733106764192285200,-0.3846136498481035,-0.1632350442185997,-0.0316974530339241,3.3284342286139723,-2.8729119360670445,8.765745109283923,-0.4386315941810608,-0.3529722690582275,-0.2609815001487732,-0.9478150186120474,0.1861133067840084,0.1357689764959868,0.2203982487478414,0.9242180585861206,0.0084777362644672,0.5208168029785156,0.0057535171508789,-0.001337707042694,-0.0200861655175685,-0.0521927289664745,-0.0279048923403024,0.0714629521133378,-0.0692126229405403,0.0251408732805983,0.0593651345285354,154
1733106764232036000,-0.8231497362807393,-0.0685623718336224,-0.3168324915200471,3.3960186953261493,-3.0060414726182816,8.694892288425564,-0.678756833076477,-0.1195962727069854,0.0083485906943678,-0.9453147825248932,0.1945090130815979,0.1372956922593083,0.2229260253044727,0.66664057970047,-0.1092351078987121,0.3649044632911682,-0.0361797213554382,0.0687825083732605,-0.0072758868336677,-0.0571312420070171,-0.0655850991606712,-0.065653183555766,-0.0837519466876983,0.1307864896895829,0.0792625656141433,155
1733106764271784200,0.0334080563440918,-0.0846142197072506,0.2985200052380561,3.3934427073583007,-3.258140210682153,8.604618143260478,-0.5550121665000916,-0.0702948719263076,0.2347870916128158,-0.9432371631746114,0.207726086013453,0.1346715782939625,0.2213982340289188,1.1777328252792358,-0.2428139299154281,0.3122071623802185,0.0435444712638855,-0.025599718093872,-0.0817168354988098,-0.0786130502820015,-0.0226908270269632,0.0656768795251846,-0.0942162796854972,0.0168455304184113,0.0404896303691901,156
1733106764312182500,1.053709719492495,0.3193719468697905,0.0841442641079425,3.463849538014829,-3.472385895691812,8.492035720175505,-0.4755275547504425,-0.2638224363327026,-0.1761635690927505,-0.9403984892504432,0.2201926025350533,0.1361686417216549,0.2205087488316245,0.522891104221344,-0.268628180027008,0.3352786004543304,-0.0086725950241088,-0.0463369488716125,0.0314272716641426,-0.0723624378442764,-0.0359426997601985,-0.0240356177357258,-0.104499876499176,0.0850896369329653,-0.0688986819827463,157
1733106764352528600,0.1667345767721533,0.1965159670516848,-0.0974462287515401,3.618946576224267,-3.60540992604196,8.37105897823274,-0.5311443209648132,-0.427650898694992,-0.2980334460735321,-0.9359470595148672,0.2305135518551529,0.14162728362829,0.2254066717686029,0.1091650575399398,-0.231746956706047,0.3847064673900604,-0.0076015591621398,-0.0764546990394592,0.0264461636543273,-0.0574393682181835,-0.0088011240586638,-0.0797546873794868,-0.0413771048188209,0.0783554972392041,-0.0391412205680739,158
1733106764392279800,-0.2630187760069966,-0.0249564543411135,0.5908148523509502,3.772918702057004,-3.7141879884079096,8.254712818700074,-0.3524514734745025,-0.3048629462718963,-0.2235237210988998,-0.931560905843172,0.2396904891006776,0.1472251731830444,0.2303641590681379,-0.0416332483291626,-0.1528441458940506,0.3799024522304535,-0.0229149460792541,-0.0202027559280395,0.0273442864418029,-0.0436245054006576,0.0182866491377353,-0.0207988209217204,-0.0359848625957965,0.0344138404197292,0.0058284327296685,159
1733106764432031000,-0.4433203980997204,-0.0797086197480559,0.143183897575736,3.933766851139069,-3.797251763802768,8.141053121772408,-0.3136099278926849,-0.4403805136680603,-0.051627043634653,-0.9281990927869712,0.2470900019577779,0.1544938517702682,0.2313539336806952,-0.0942386612296104,-0.1013724952936172,0.3564540445804596,-0.0278877019882202,-0.0183441638946533,0.0358501225709915,-0.066326268017292,-0.0232870019972324,-0.1130886464409064,-0.0540781468152999,0.0841903682719916,-0.0509231680035823,160
1733106764471782000,-0.2466647303164005,-0.1214683248519897,0.3505634962081909,4.051948701666295,-3.885227861158549,8.040963685035704,-0.2744851112365722,-0.3822479844093323,-0.0300618764013052,-0.9253433325654312,0.2540545506324547,0.1596284094231876,0.2317644234679151,-0.220921516418457,-0.0885282754898071,0.3500273823738098,-0.0031222105026245,-0.0072649717330932,0.0179084613919258,-0.0672389715909957,-0.0036813528276979,-0.121947568869451,-0.0709947794675827,0.0716850658648414,-0.0086991019283101,161
1733106764511533000,0.1383425950244069,0.0955018166854977,0.338261648517847,4.176158434180915,-3.9630353234604,7.938792765849828,-0.1951827108860016,-0.3163465857505798,-0.0339815095067024,-0.9228249946067194,0.2603519110398673,0.1656837097173727,0.2305639179325201,-0.2119394689798355,-0.1324419379234314,0.3106088936328888,0.0060307383537292,0.0078979134559631,-0.0035373568534851,-0.0659798756241798,-0.027947386726737,-0.1316217806030996,-0.0775380134582519,0.1195745104620233,-0.0899462740507442,162
1733106764551284200,0.0127232879728078,0.1103366899847984,-0.0878179841846227,4.310007809439301,-3.9841549761176105,7.8562541833728545,-0.046412106603384,-0.4059481918811798,-0.1162718906998634,-0.9205185330728906,0.2639218667379304,0.1725913143377123,0.2306581905235553,-0.4176044762134552,-0.2228337228298187,0.2614299654960632,0.0192480683326721,-0.0215064287185668,0.016538493335247,-0.0661836490035057,-0.0529903024435043,-0.1918522860895842,-0.0587447173893451,0.134030595310498,-0.1069901195032522,163
1733106764591035400,0.3129249626874923,-0.2072270384192466,0.0576876343369483,4.343348353505134,-3.986666082155704,7.8365937896132465,-0.0440952032804489,0.079201839864254,0.0145993279293179,-0.9196728234026258,0.2648865076818118,0.1740116686996289,0.2318552591843427,-0.4251374900341034,-0.4227770864963531,0.2223584353923797,0.0263043642044067,0.020135223865509,0.0138202272355556,-0.0201200172305107,-0.0916934534907341,-0.1000661106600426,-0.027611318975687,0.1621460982044227,-0.181494923530519,164
1733106764630786300,0.2022942581921815,-0.2769040934965014,-0.3949450742483139,4.427343564531207,-4.029666142709553,7.767290536284446,-0.2051319479942321,-0.7633779644966125,0.0072715762071311,-0.9183754516243976,0.2683645374808715,0.1787704226539863,0.2293646172108271,-0.345667153596878,-0.4246481359004974,0.2155602425336837,0.0115516781806945,-0.0010539293289184,0.0550588369369506,0.048160545527935,-0.1583272069692611,-0.1369485103175044,-0.0093009676784276,0.2011594820085913,-0.2602188248238526,165
1733106764670537700,2.164003203733265,-0.6219666542008518,0.6910562647789716,4.6382229879781605,-4.047923683933914,7.633582907584309,-0.1725372374057769,-0.6969563364982605,-0.5088883638381958,-0.9144512423689524,0.2734630955639978,0.1897723080673154,0.2301810773230606,-0.1593071520328521,-0.326821357011795,0.1307588219642639,-0.0028589963912963,0.0489760637283325,-0.0308398604393005,0.0956072360277175,-0.0833091586828231,0.0068250933547562,-0.0259420722723007,-0.0375926348526263,-0.1313397031255532,166
1733106764710288600,0.9678513449430464,-0.2558250651106238,1.0264514179497957,4.888964173953235,-3.911731837202608,7.547633055359125,0.1949604004621505,-0.1208176761865615,-0.7494326829910278,-0.9096296212592268,0.2725264125572979,0.2022551625392774,0.2395750015484376,-0.1670202016830444,-0.2556868493556976,0.1661877036094665,-0.0249887704849243,0.0177251696586608,0.0109294652938842,0.0770306885242462,-0.0978176966309547,-0.3764238040538504,-0.0363426096737384,0.1699492279697209,-0.0807740478893276,167
1733106764750039800,-2.731686479082704,-0.2019485134944319,-0.3025912001997232,5.096559168902039,-3.722297352844477,7.505995807591081,0.293404072523117,-0.7257176041603088,-0.1978674829006195,-0.906880677817581,0.2672524755036759,0.2141888103747416,0.2454925654764559,-0.4438003897666931,-0.0008048181189224,0.1447277665138244,-0.0903115272521972,-0.0518975257873535,0.0752464532852172,0.0576262176036834,-0.1201805099844932,-0.2610215012425557,-0.0801552161574363,0.0693564722202252,-0.2079918853119015,168
1733106764789791200,-0.8516729431927204,-0.0308943199574947,0.0089572134375572,5.1625832544296975,-3.720669751642644,7.461550516664982,-0.0771997570991516,0.2372214049100875,0.3530852198600769,-0.9065719505031844,0.2676806413524688,0.2188923463831039,0.2419929112415509,-0.2260646075010299,0.0601293183863163,0.0007651307387277,-0.0423448085784912,0.0887902379035949,-0.0567227564752101,0.0320012867450714,-0.0214895661920309,-0.1191383840670809,-0.1042040213942527,0.0410250295872567,-0.1953029745327308,169
1733106764829545200,0.1522007322460412,0.8107295229077339,-0.4536573754578828,5.004161455711722,-3.828471077930927,7.514756621673703,-0.081803448498249,0.3637432754039764,0.4338321983814239,-0.9096558856652742,0.2692229794623935,0.2106490680818948,0.2359496331165343,0.0459823533892631,0.0727327838540077,-0.0387586429715156,-0.0097924172878265,0.0508275628089904,-0.0601849555969238,0.0153487855568528,-0.0206014048308134,-0.1867973590538837,-0.1013742312788963,0.0812100281537976,-0.2019411521718837,170
1733106764869296600,0.2549707863688469,0.6996379229024052,-0.8212170146524905,4.831061727821827,-3.985679701466858,7.546229618301987,-0.4549500942230224,0.3571838736534118,0.3185310065746307,-0.9115508725702204,0.2739587788092625,0.2004892557355398,0.2320036912057334,0.070177175104618,0.0648466274142265,0.045333132147789,0.0303572416305542,-0.0243228673934936,0.0080152750015258,0.0152477268129587,-0.0188754610717296,-0.1429620806517545,-0.0984664782881736,0.0538561892481753,-0.2616644387885928,171
1733106764909047800,0.571439705273509,-0.0478249964922666,0.385127444589138,4.684131921716034,-4.1632761562541125,7.542971493288874,-0.3458685874938965,0.3074581325054168,0.1578812003135681,-0.9115177515223116,0.2813068428456969,0.1904781754600303,0.2317754698202674,-0.0540076233446598,-0.0051983413286507,0.1541306525468826,0.0482457876205444,-0.0169907808303833,-0.0018732547760009,0.0553842559456825,-0.0516097545623779,-0.0758466151242377,-0.047467652708292,0.0453015515624079,-0.1132739307467825,172
1733106764948799000,0.4004062622636556,-0.4168132071852684,0.6895739172667265,4.625172660008072,-4.247989452421665,7.532114583709836,-0.0908172875642776,0.0723342075943946,0.0776785388588905,-0.9115072049514013,0.2848375011556268,0.186645755837329,0.2306200141098016,-0.0321625135838985,-0.0472932793200016,0.1732653975486755,0.0415042638778686,0.0070627927780151,0.0126459598541259,0.0918772369623184,-0.0378327518701553,0.0406065986792091,-0.0163315925747156,-0.0403124197719153,0.0052688631889701,173
1733106764988550100,0.362301572535932,-0.4854974518328905,0.8842471790611743,4.58411905734688,-4.241704088541865,7.560700042203068,0.1511492878198623,0.1647245287895202,-0.0200908835977315,-0.9121393618373153,0.2838221480954808,0.1842730416202976,0.2312798101633319,-0.0780311971902847,-0.1307108849287033,0.1600075811147689,0.0401647090911865,-0.0181918144226074,0.0196235161274671,0.1020200550556182,-0.0435407534241676,-0.0352879951890441,-0.0532601438462734,0.0223618415878969,0.0252844076538458,174
1733106765028301600,0.0567132363468408,-0.1199807166427373,0.0137362644076347,4.544044528850913,-4.173271480567753,7.622719568264484,0.2678934931755066,0.0264249555766582,0.0330843031406402,-0.9140187635554012,0.2789967638399659,0.1830581167397522,0.2306952977949335,-0.0686033442616462,-0.1725854724645614,0.1203005164861679,0.010787010192871,0.0009340047836303,-0.0020949840545654,0.085874505341053,-0.0227875150740146,0.0297936401230399,-0.0779469013214111,-0.0362907402075128,0.0845592929159291,175
1733106765068052700,0.6198538998305797,0.2919432571962476,-0.6216518891632556,4.553117769883573,-4.11473512044698,7.649082090011238,0.0785659402608871,-0.0246262531727552,-0.0733188837766647,-0.9148676563809048,0.2757124027353229,0.1843583765551957,0.2302431409864131,0.0229830294847488,-0.1662438362836837,0.1205682307481765,0.0082703530788421,-0.0032041072845458,0.0038720369338989,0.0654659494757652,0.0250265710055828,0.0112885515951085,-0.0755512863397598,-0.0414101473141694,0.0487510892280843,176
1733106765107804200,0.1875041008174419,0.3271563171356916,-0.4686708201944827,4.572318437176943,-4.099071687369048,7.646037900009751,-0.0385112762451171,-0.024976834654808,-0.0775799453258514,-0.9144039136761096,0.2754768203975784,0.185129865907678,0.2317432146255128,-0.026213277131319,-0.1638596206903457,0.1401786059141159,-0.0077840983867645,-0.0184375643730163,-0.0118707418441772,0.0361573919653892,0.0285486653447151,-0.0628078314614715,-0.0563580580055713,-0.0040115018053271,0.0355928621704224,177
1733106765147555000,-0.282589445656538,0.1927870096564292,-0.3444131568849086,4.585718309237063,-4.126759320239723,7.623085478967428,-0.1631160378456115,0.0368327051401138,0.0744536519050598,-0.9136255271203252,0.2774292682749846,0.1853747910840248,0.2322877380019426,0.1568143218755722,-0.1608756631612777,0.2031221538782119,0.0161970257759094,0.0046108365058898,-0.025221824645996,0.0031441256869584,0.0238358378410339,-0.0738844573389505,-0.0429008789360523,-0.0348598192051169,-0.0106210138973547,178
1733106765187306500,-0.0051797407254576,0.0121890349656343,0.0013847323566675,4.571820132265985,-4.198899258299171,7.591975470432638,-0.2045094519853592,0.0373026542365551,0.1097746565937995,-0.9129209097033788,0.2811884413879072,0.1839838097909061,0.2316428264513549,0.3368802368640899,-0.2241265922784805,0.3098812997341156,0.0193405449390411,-0.0039545893669128,-0.0059660673141479,-0.0102315489202737,-0.0150217320770025,-0.1515772574522998,-0.015053529292345,0.0530900545807322,0.0425683043733471,179
1733106765227057700,0.146427117280662,-0.1952379099398851,0.4343517864853143,4.570449136173725,-4.243761313332617,7.567818349775671,-0.0206857100129127,-0.0664904415607452,0.0385293923318386,-0.9124470269867256,0.283594062689145,0.1836384154879304,0.2308501380114634,1.2545205354690552,-0.2243418246507644,0.3840561807155609,0.0113475918769836,0.0609074831008911,-0.0334737300872802,-0.0038693251553922,-0.0049212393350899,0.0068051676656905,-0.0063967462629079,-0.060723476635199,0.0051646772995329,180
1733106765266805000,0.184684074960649,-0.1730252013489603,0.2653834593117237,4.5841170115202665,-4.232156215734779,7.56605017105937,0.0738212242722511,-0.056911215186119,0.0178696643561124,-0.9126549505420176,0.2829767210020243,0.1848322737710116,0.2298310251337802,2.4312124252319336,-0.2134971767663955,0.5653669834136963,0.0358835458755493,0.1053971648216247,-0.0127301178872585,0.0109659042209386,-0.0222763922065496,-0.0729775670605245,-0.033625029027462,0.0581355744672706,-0.0371914427737472,181
1733106765310327300,0.251507201911509,-0.0728936790362,0.0573930353045463,4.598546811150015,-4.207340338908136,7.571132004368304,0.0726247578859329,-0.0571384318172931,-0.0329833701252937,-0.9129558964256734,0.2816869887542197,0.1860971112388539,0.2291983036902012,2.591469049453736,-0.106422908604145,0.6301756501197815,-0.0017488300800323,0.0095776319503784,0.0685376524925232,0.0091795241460204,-0.015770262107253,-0.0078959311776183,-0.0178703237324953,-0.0005170084697834,0.0220834402050473,182
1733106765350032600,0.1108010926261544,0.0703451635971665,-0.0148667297422885,4.623882620197534,-4.168918838316202,7.5769526733458035,0.1058943420648574,-0.0375432670116424,-0.0359807759523391,-0.9131072859329616,0.2799569930902991,0.1879015958908075,0.229242645875144,1.8138659000396729,-0.0277917478233575,0.5085907578468323,-0.0237932205200195,-0.087195873260498,0.0884843617677688,0.0073035266250371,-0.0062268711626529,-0.0405785461950814,-0.0157287195324897,-0.000191133520528,-0.0020539625421195,183
1733106765389783800,0.0179535898417234,0.1234767420649528,-0.3365723802566528,4.632333929939568,-4.155462267632783,7.579182039833069,-0.0154305370524525,0.019898297265172,-0.0005561893922276,-0.913144422495571,0.2793612678498783,0.1884848966746252,0.2293423629898802,1.046680569648743,-0.0377085097134113,0.4672053456306457,-0.0192936062812805,-0.0100639462471008,0.0610008239746093,-0.0006690192967653,-0.0118235945701599,-0.0594233355557545,-0.0244909450411796,0.0176957323483366,-0.0332918871850939,184
1733106765429535200,-0.0436529715046286,0.0963350526392459,-0.1009293946921825,4.624209952455759,-4.167973666420579,7.577272991341352,-0.0497002229094505,0.0801987648010253,0.0355592109262943,-0.9130240870175452,0.2799841472488572,0.1878176241928428,0.2296097084389146,0.519661009311676,0.0808016285300254,0.2070202231407165,-0.0674315690994262,0.0382629036903381,0.0274758338928222,0.0169035568833351,-0.0031669433228671,-0.0439150656400714,-0.0316423326730728,-0.0392710803257068,-0.0664586912523722,185
1733106765469286400,-0.0389779654309153,0.1049278166785836,-0.0296089563220739,4.60457060148418,-4.189286211301386,7.577479327568412,-0.0573155842721462,0.0829216241836547,0.0483468398451805,-0.9130493292114126,0.2808262552479931,0.1865280079257981,0.2295315963478967,-0.9150794744491576,-0.0773243084549903,-0.1078542917966842,-0.0421156585216522,-0.0476700067520141,0.0038855075836181,0.0307657048106193,-0.0034008673392236,-0.0835586736391764,-0.0362693406641483,0.0130296253920649,-0.0918681820240337,186
1733106765509037600,-0.0952361514866352,0.1554869143098592,0.0309527721464633,4.599028749448061,-4.205279022464156,7.571984237283468,-0.0344417914748191,-0.0402619987726211,0.0276567041873931,-0.912958970124456,0.2815938325945452,0.1861213233040504,0.2292808465601526,-1.3319324254989624,-0.1500279158353805,-0.3634145557880401,-0.019886702299118,-0.0195343494415283,-0.0488287210464477,0.0190786644816398,0.0099509796127676,-0.0843658435699064,-0.0472245588898658,0.0097899767505587,-0.0756201402914477,187
1733106765548788700,0.2041881091147661,-0.1334013392299413,0.1488484992086887,4.607259402176737,-4.216414164462686,7.5607801217019555,-0.0266856625676155,-0.010645960457623,0.0291895344853401,-0.91276725719325,0.282294828237115,0.1865934718487749,0.2287978545670981,-1.355650544166565,-0.2881720960140228,-0.3501685261726379,0.0308112502098083,-0.024098515510559,-0.0180941671133041,0.0259591396898031,-0.0198338888585567,-0.0203032993396045,-0.0135632054880261,0.0201562098859576,-0.002634431594485,188
1733106765588540200,0.3803255972653627,-0.1776978693351149,0.2339689148724079,4.5912341500490905,-4.206983196033537,7.575767262953519,0.044469378888607,0.0466027781367301,-0.0126511631533503,-0.913183292687944,0.2814485469479306,0.1858227378603189,0.2288076072568209,-0.5752596259117126,-0.1797400563955307,-0.1482539772987365,0.0352701544761657,0.0239776968955993,-0.0660476088523864,0.0245818234980106,0.0041911168955266,-0.0128748378307966,0.020669063553214,-0.0055727026904642,-0.0130401068285282,189
1733106765628291300,0.4628302774727344,-0.1643596643343567,0.0424240142315626,4.614523255699873,-4.171090629397332,7.581462259724736,0.1013530418276786,-0.0792112275958061,-0.1156169548630714,-0.9131969169775536,0.2799348902697752,0.1873218212415877,0.2293872873930648,-0.024785291403532,-0.1006206795573234,0.023907333612442,0.0242278575897216,-0.035467505455017,0.0738342404365539,0.0294185113161802,-0.0086645316332578,-0.0463646233498118,0.0127249574288725,-0.008486476382715,-0.0209294684139313,190
1733106765668042800,-0.0556380083307623,-0.1465329157426953,-0.1521989786803722,4.662680845147371,-4.1263691518783565,7.576468689221143,0.0573842599987983,-0.0957968458533287,-0.1046829745173454,-0.9127034470831866,0.2785610477622073,0.190029879123706,0.2307919025557922,-0.0621353276073932,-0.1641965210437774,0.090323768556118,0.0455260574817657,0.0292979478836059,-0.0115289539098739,0.0178887099027633,-0.0277768224477767,-0.0467522983599919,0.023668672889471,0.0318925098151434,0.1169302886967081,191
1733106765707793700,-0.0555281182155013,0.0297054024338722,-0.1628904685646295,4.7167394753322,-4.092665911979973,7.5612728736549615,0.0693946704268455,-0.0878020823001861,-0.0843372046947479,-0.9120945246168762,0.2778061248499743,0.193147965109476,0.2315196758606594,-0.3880188763141632,-0.2115172147750854,0.0748107284307479,0.0069232583045959,-0.0155794620513916,-0.033872365951538,-0.0023755668662488,0.0188287682831287,0.0441269913577008,0.0084199151024222,-0.032987383246608,0.0689959044126793,192
1733106765747545000,-0.2293681430786848,0.0758893537208438,-0.361141588845849,4.738098781964182,-4.089020541214943,7.549881711068749,-0.0560001879930496,0.0147059895098209,-0.0192361138761043,-0.9116217878434364,0.2781360198833374,0.1941739502288021,0.2321260038424626,-0.6740365028381348,-0.2699926197528839,0.0253098215907812,0.0186768174171447,-0.0112875699996948,0.0019864439964294,-0.013489693403244,-0.0058759851381182,-0.0456334823639364,-0.0087882103398442,0.0526294376319274,0.0928970684140454,193
1733106765787296300,-0.1528729324191808,0.0966471873283386,-0.1362438691794872,4.7240021598115565,-4.123395104503631,7.54001322800517,-0.0734682083129882,0.0196947436779737,0.0257580578327178,-0.911343787928834,0.2798481649218418,0.1930060096596411,0.232133927208622,-1.0153273344039917,-0.2724827229976654,0.0189439337700605,-0.0011047720909118,-0.0104960203170776,-0.0054984092712402,-0.0223342627286911,0.0039225770160555,-0.0182133687224937,0.0021430954802781,-0.0107529628640855,0.0929109964746981,194
1733106765827047700,0.1669619557872414,0.0165741181820631,-0.109003980076313,4.717658343742787,-4.148367633196711,7.530280938541889,-0.0851733982563018,0.0628734603524208,0.0132919820025563,-0.9110674997400228,0.2811712342349515,0.1923675077754005,0.2321498114445938,0.4597771465778351,-0.1815725266933441,0.2137703448534011,0.0148985981941223,0.1029092669486999,0.034598171710968,-0.0233382359147071,-0.0019293181831017,-0.048007006562245,-0.0154088316485285,0.0255377796267159,0.0083517115502792,195
1733106765866798800,-0.0409288072377443,0.0228650350198149,0.273805250698328,4.663533662584424,-4.186082446824014,7.543112947586178,-0.1018230989575386,0.1941205114126205,0.0616106800734996,-0.9112966634101096,0.2824116771407625,0.1888171172335012,0.2326590695904957,0.7803373336791992,0.010172146372497,0.1337005496025085,-0.0450038313865661,-0.0197980999946594,0.0280565619468688,-0.0070792958140373,-0.0468641854822635,-0.1717048029327765,-0.0485196523368358,0.1051257412703242,-0.1004631014878395,196
1733106765906543600,-0.0809606656357646,0.0259507260754704,0.2519353641957044,4.636228891551494,-4.212511896327138,7.545231254914403,0.0013472831342369,0.0118005229160189,0.0671426579356193,-0.9115478640071788,0.2832588394505022,0.1872557315334767,0.2319056502511274,0.8398802876472473,0.0721511542797088,0.1449849605560302,-0.0433728396892547,0.002309501171112,0.0988522768020629,0.0231802277266979,-0.0178683381527662,0.0359393398038228,-0.0318812765181064,-0.0278708325340296,-0.0376398601113934,197
1733106765946294300,0.2122773075461387,0.0495697943329811,0.01111526825428,4.630444462931156,-4.213685031759739,7.548127560877799,0.0033293915912508,-0.0059864670038223,0.0216659754514694,-0.9118037059397976,0.2830743629338718,0.1871403330894251,0.2312174026496627,1.2115651369094849,0.3167093098163605,0.0210674740374088,-0.0422714054584503,0.0598872303962707,0.0738409310579299,0.0242217015475034,-0.012154652737081,-0.0982317257065791,-0.0208055507391691,0.0327325385525706,-0.0717345218966016,198
1733106765986045400,0.2606321731314063,-0.0071016486987471,-0.0346621480584144,4.618601172663271,-4.217317543043196,7.553353186571598,-0.0023788753896951,-0.011292970739305,0.015119943767786,-0.9120544204167264,0.2829732263952289,0.1865805810826179,0.2308044710640171,-0.3960901200771332,0.1257086992263794,0.043586365878582,-0.0098752081394195,-0.1462547779083252,0.0226534008979797,0.0221273154020309,-0.0248933378607034,-0.096461565095745,-0.0264361519366502,0.0479604777065105,-0.108123187786946,199
1733106766025796400,0.2026367880195379,-0.0626888036251068,0.0225374105006456,4.617788979497552,-4.214252894775569,7.555559756705165,-0.0098240626975893,-6.74415350658e-05,-0.0125208105891942,-0.912088451213236,0.2828027719207002,0.1865375380088637,0.2309135022548285,-0.0629904642701149,0.1140786260366439,-0.1254150420427322,0.0328086614608764,0.1345870494842529,0.0709952116012573,0.0251661799848079,-0.032554168254137,-0.0592955627239309,-0.0021046972833573,0.0669479269408853,-0.0403993765361607,200
1733106766065547300,-0.0028255788147449,-0.1239507893174886,-0.1132417637765407,4.6493724507629866,-4.20192240551263,7.543048065656423,0.0386390425264835,-0.14280965924263,-0.0561254993081092,-0.9116914594729189,0.2827326498238344,0.1883449891869965,0.2310999713974796,-0.5815289616584778,-0.2914550304412842,-0.2114872634410858,0.0962038934230804,-0.0123389959335327,-0.1809952706098556,0.0078225461766123,0.0061495630070567,-0.0193122561753727,0.0346670225262641,-0.0083590540356963,-0.0195601596719701,201
1733106766105298200,0.1994046742305159,-0.2178916402965784,-0.217343943285942,4.704818151392042,-4.179658551256359,7.521005745196342,0.0098018087446689,-0.0523428171873092,-0.081137016415596,-0.9109090719726068,0.282648872876992,0.1914289668435583,0.2317524903240768,-0.9877060055732728,-0.3490786552429199,-0.0580523796379566,0.0601372122764587,-0.1311636567115783,-0.0075343400239944,-0.0042964410968124,-0.0006400914862751,-0.0523345691714668,0.0382759496569633,0.0149730933182581,-0.0391272879408439,202
1733106766145049000,-0.1950821348562836,-0.046912265561521,-0.364231956076622,4.71413806066215,-4.182444967104495,7.513617388510704,-0.0871447920799255,0.0354994870722293,-0.0218824073672294,-0.9104146009816056,0.2832281756458433,0.1915566191990023,0.232880081352013,0.3078491389751434,-0.2074454426765442,0.38700732588768,-0.0169852077960968,-0.0089821815490722,-0.1261759996414184,0.0140079436823725,-0.0340093746781349,-0.0341691791929886,0.0337927788496017,0.0430987716879695,0.0012511902252939,203
1733106766184800300,-0.3612818740993738,0.1066314057260751,0.276712662577629,4.655881102004647,-4.220169133082032,7.528833662343024,-0.0490530952811241,0.1733380556106567,0.0648304298520088,-0.9105759550943232,0.2844947756107491,0.1876140684097011,0.2339129526938058,0.2722655832767486,-0.1661809980869293,0.2138039618730545,0.0340090990066528,-0.0284848809242248,-0.0361220687627792,0.0185431130230426,-0.0131923891603946,-0.0404507733632577,0.021594114601612,0.0490610593595541,-0.0091614501807198,204
1733106766224551000,0.1095054998576641,0.0369929290935397,0.1227075112581253,4.632360817946493,-4.238218292252719,7.533201209902763,-0.0140361934900283,0.0665979385375976,0.0002382066450081,-0.9107263056543928,0.2850611409886407,0.186155226326181,0.2338032025528874,0.0007674738299101,0.0312914922833442,0.1275016367435455,-0.1054010689258575,-0.0130243897438049,0.1506419777870178,-0.013889092952013,0.0254504401236772,0.0098300393328885,0.0329513326287269,-0.0391408050095429,0.0773545857015065,205
1733106766264302000,0.1469721839427948,0.0435547718271613,0.0646697483092546,4.6161423813343045,-4.233856589911878,7.5455995037049055,0.0172686707228422,0.0106679191812872,-0.0323749482631683,-0.9109417264524032,0.2845988199325077,0.1851620992771655,0.2343153684625751,0.3045758306980133,0.2000287920236587,-0.0395187735557556,-0.0531849265098571,0.1059070229530334,0.0411618947982788,-0.0131238494068384,0.0111254416406154,-0.0851730135006364,0.0244259778410196,0.0065503269674081,-0.059372103125439,206
1733106766304053000,-0.0434960273772478,0.0703629915148019,-0.0299123231828212,4.617618299105764,-4.219664106169343,7.552642992475628,0.003505665808916,-0.0248828455805778,-0.0180330984294414,-0.9110124456038872,0.2839062370884705,0.1852555370940956,0.2348060624599993,-0.160905048251152,0.3614329099655151,-0.0749131217598915,-0.0496267080307006,-0.0560829043388366,0.0680211186408996,0.0229022242128849,0.0096269622445106,-0.0217138351410976,0.0252555962651968,0.0050528406807134,-0.1073204109035432,207
1733106766343804000,-0.0238414788365364,-0.0091553663581609,0.0034404958426952,4.617416346792877,-4.221997517552972,7.551462258258462,-0.0199688076972961,0.0208689905703067,0.0432167090475559,-0.9110129087293816,0.2840108001410344,0.1852577407550031,0.2346760030624412,-0.1095015034079551,0.0296019297093153,-0.248324453830719,0.0559052526950836,0.0462995171546936,-0.1899809837341308,0.0392833277583122,0.0131227672100067,0.0054463768928108,0.0329332761466503,0.031301615266886,0.0234457826333935,208
1733106766383554800,0.3489697972759604,0.0123231827393174,0.0722416448682546,4.635009871150553,-4.220581513275206,7.54146927203238,-0.0251578539609909,0.0168216042220592,-0.0478786751627922,-0.9107189509272338,0.284281328083213,0.186215497983351,0.2347313796622118,0.2869401276111603,-0.2469630241394043,-0.4180620908737182,0.0132801234722137,0.2108228802680969,-0.2369042634963989,-0.0098070986568927,0.0519981011748313,0.1140036606602836,0.0553807094693183,-0.0548293588289991,0.1640720247657038,209
1733106766423305700,0.3232616477847099,-0.1108425936803221,0.0030523733079433,4.63737455445528,-4.222961394149065,7.538682856184244,-0.0267661437392234,0.1152989566326141,-0.0182211957871913,-0.9106126742535688,0.2844874397012448,0.1862821449298056,0.2348413744917976,-0.5423064231872559,-0.0827900171279907,-0.0566244572401046,0.0994488894939422,-0.2171593904495239,0.1021856144070625,-0.016913341358304,0.0303504317998886,-0.115665967849316,0.0351853817701339,0.0657227781932568,0.0017135384777036,210
1733106766463057000,0.2927662640169263,0.1438552209660411,0.0922702874183654,4.6259714091703295,-4.229111441211402,7.5422402564048765,-0.0176835488528013,-0.0431222431361675,-0.0577368028461933,-0.9104476500304172,0.2848303154121949,0.185268577602951,0.235865218156546,0.0446070991456508,-0.2877393364906311,0.4162980616092682,0.0483156442642211,-0.1404418349266052,-0.1364066004753112,-0.0051235863938927,0.0437674447894096,-0.0183492654952686,0.0302550476044416,0.0036292347642709,-0.0397007906795945,211
1733106766502807800,-0.0242424608528614,0.031760873658955,0.3368406758040189,4.661811076575518,-4.21009168344289,7.530805254676937,-0.0100644845515489,0.1001048758625984,-0.1262145340442657,-0.9095501913269918,0.2848849073322282,0.1867521569244865,0.2380812594948225,-0.0698196068406105,-0.2217660695314407,0.2279836386442184,-0.0594878792762756,0.1965359449386596,0.0510745719075202,0.0189684517681598,0.0300604496151208,0.0076921316842286,0.0536593757569789,0.0091410826753039,0.1150986254232935,212
1733106766542558700,-0.7545391413912177,0.000484860907495,0.287354468101263,4.639131334994733,-4.2044034086734055,7.547969155445695,0.0432522371411323,0.0411502905189991,0.0495638214051723,-0.9098851057435996,0.2842240323998689,0.1854113789461869,0.2386385552391584,0.2429380267858505,0.0415349155664444,-0.0330674014985561,-0.0641206800937652,0.0166656374931335,0.1468574255704879,-0.0439987406134605,0.0719305425882339,0.060734148726263,0.0541683062911033,-0.0923481110280845,0.1483002633419353,213
1733106766582309600,-0.1017068088054656,0.1076885135635733,0.022501170143485,4.636923595817387,-4.192046615925431,7.556194547477364,0.056341428309679,-0.0283630341291427,0.0051101865246891,-0.9102218164780466,0.2833844944548536,0.1855654083955178,0.2382333074912086,-0.2230722904205322,0.3506624102592468,-0.2012620121240615,-0.0993004143238067,0.0157666206359863,0.1230967789888382,-0.0804305598139762,0.1128997504711151,-0.0527178876669378,0.0089055178686976,-0.1327834813262335,-0.0178048244542209,214
1733106766622060500,0.307354761339724,0.0683475600391626,-0.1195943476736545,4.63128471314758,-4.182184270341694,7.565112597948312,0.0290529336780309,0.0135999992489814,0.0152958687394857,-0.9106275103947824,0.2825834871790649,0.1855618048353832,0.2376363847827468,-0.0038038417696952,0.3405817747116089,-0.3303172588348388,0.0228328108787536,0.0334942936897277,-0.0650042220950126,-0.0263144299387931,0.0279107689857482,-0.1249163372808601,0.002197144087404,-0.0309047089207684,-0.0744592067532939,215
1733106766661811700,0.3007689532086253,0.0015679799690842,-0.051858197531104,4.625749290852248,-4.173314735187589,7.573391765993833,0.0328020900487899,-0.084035150706768,-0.0422901660203933,-0.9108004387031944,0.2820099089974632,0.1852967531113974,0.2378611972681643,0.2221600413322448,-0.0646182000637054,-0.3824642598628998,0.074240356683731,0.0007941722869873,-0.1526881456375122,0.0001866113161668,0.0230759438127279,-0.0244469864320359,0.0059879780746996,-0.0221633895564824,-0.0507911162888631,216
1733106766701562600,0.1812976473927497,-0.1092673071876168,-0.1059270568490028,4.671299912671745,-4.146276506136357,7.560273341223597,0.0213950257748365,-0.0508037395775318,-0.095843069255352,-0.9101718044734174,0.2815472459632522,0.1877883773881627,0.238859841653978,0.7147055864334106,0.0215246696025133,-0.1578671187162399,0.0301123261451721,0.0608026981353759,0.028863713145256,-0.0085365641862154,0.0290433801710605,0.0566901842648163,0.0323166139423847,-0.0449119585897773,0.0898211863663513,217
1733106766741313500,-0.1330529641836881,-0.1303840372353792,0.1013438207119703,4.687871692766249,-4.135783753694594,7.555761416757106,-0.0017746863886713,0.0434886366128921,0.0102440258488059,-0.9098296984250136,0.281438351004405,0.1885625076523483,0.2396800990492842,2.763967752456665,0.367801696062088,0.2343431264162063,0.075454294681549,-0.005344808101654,0.1223824322223663,-0.042069736868143,0.0357211120426654,-0.0226967520810896,0.0337470285594463,-0.0300662899018265,0.0493245919668348,218
1733106766781064400,0.0837953045397996,0.206114693263173,0.0174082309186458,4.709695986561477,-4.127667374995351,7.546623001533746,0.0373576059937477,-0.1806713640689849,-0.1144794300198555,-0.909448196403613,0.2815007537335096,0.1897014569458486,0.2401557136063494,2.684188842773437,0.1525687575340271,0.240996703505516,0.0508977770805358,0.0554660558700561,0.0105592012405395,-0.0457899495959281,0.0540140271186828,0.0183773156961076,0.0398144610226154,-0.0441327863442478,0.0429156884723342,219
1733106766820815600,-0.1611664212509989,0.1447995160788297,-0.0334387437433004,4.7955926472947,-4.092538486208022,7.511577991637587,0.0245696324855089,-0.1736805140972137,-0.1433387994766235,-0.9081418278645216,0.2814459778002273,0.194433204555983,0.2413758049884726,2.206714630126953,-0.1303324401378631,0.3753440678119659,-0.0047075748443603,-0.0694463849067688,0.062426209449768,-0.0495908856391906,0.0719277039170265,0.0282073550289962,0.0670947209000587,-0.0832736004869453,0.1202702741738408,220
1733106766860566300,-0.442189055982232,0.0466384170562028,0.1742424681842327,4.807566870465874,-4.081466764834523,7.509947760087251,-0.0172798130661249,0.0656625553965568,0.0450063534080982,-0.9079180210298936,0.2811917163808123,0.1950139351525923,0.2420449295352531,0.8888608813285828,-0.0646115466952323,0.2736125886440277,-0.0002071857452392,-0.1197139024734497,0.0085158348083496,-0.0417242310941219,0.0548277236521244,-0.0677586862013442,0.0486561432480812,-0.0495707487476291,0.0036842174961639,221
1733106766900317400,0.0388598920091986,0.1445496329709887,0.2069657571345567,4.783960077168048,-4.088996868078411,7.520918651434779,0.0033908290788531,0.0349230021238327,0.0181874185800552,-0.90832187897811,0.2810744091024729,0.1937447576006362,0.241685045280324,0.0554634742438793,-0.0831260532140731,0.1617081463336944,-0.0309853851795196,0.0384634137153625,-0.0037945508956909,-0.0276762396097183,0.0254079438745975,-0.0424484271536115,0.024625938385725,-0.1051748228427488,0.0446570933461422,222
1733106766940068400,0.0557575430572032,0.1395581082940101,0.2759977923065423,4.7573359818756575,-4.079067594738304,7.54316555455625,0.0654248967766761,0.0453924722969532,0.0207363162189722,-0.9090005836064028,0.2799265300245396,0.1924752759665255,0.2414794227952259,-0.3076510727405548,0.1074797362089157,0.0426732972264289,-0.0391664803028106,-0.026171326637268,0.0629546046257019,-0.0042099999263882,0.0003948024241253,-0.0612932165142847,0.0088026961311697,-0.0872879506948404,0.0134191692739899,223
1733106766979887000,0.0795966838061809,0.14909779779464,0.090896660977602,4.738135606843233,-4.056734182377159,7.567256624239683,0.053503394126892,0.0273914765566587,0.0061195632442831,-0.90971080573912,0.2782331099956557,0.1917384593229322,0.2413484679535757,-1.027118444442749,0.3527913391590118,-0.0901400074362754,-0.0317630171775817,0.0466518402099609,0.1019037961959838,0.0301201976835727,-0.0214017964899539,-0.0464643436975078,0.0006311499746516,-0.0982422288342844,-0.0106070812701247,224
1733106767019640600,0.0699625940203666,0.1283215517476201,-0.0798573805689811,4.7522588247418405,-4.03565866112262,7.56966836155653,0.0364757291972637,-0.0998243018984794,-0.027288656681776,-0.909828816838752,0.2772626415414113,0.192820498676164,0.2411580681312778,-1.062467098236084,0.3914873898029327,-0.2267571091651916,-0.0160843133926391,0.0528892874717712,0.0516677498817443,0.022885950282216,-0.0161070022732019,0.0082718061521503,0.0116678960621356,-0.1266272054525092,0.1162804556190036,225
1733106767059394000,0.0345402752444148,0.0985036288499832,-0.2633095756471157,4.801896715874969,-4.012723775736988,7.550511241143941,0.021532779559493,-0.1526111960411071,-0.043958730995655,-0.909351120049022,0.2768838650194611,0.1958733986807843,0.2409345696400808,-1.452250838279724,-0.0287386607378721,-0.3598890602588653,0.0213987827301025,-0.0202518701553344,-0.1541237533092498,0.0121971629559993,0.0024410830810666,-0.0039797395479952,0.0265250299125909,-0.0972053509340621,0.0876699996818322,226
1733106767099147500,-0.0689665687203407,-0.0948185105964541,-0.0826706844240427,4.80978542329818,-4.015427481737732,7.544050520697236,-0.0352463945746421,0.062582716345787,0.0851468071341514,-0.9091644965764474,0.277200783829185,0.1962656471407834,0.2409554773195231,0.7984995245933533,-0.0943035557866096,-0.2206981480121612,0.042756974697113,0.0793153047561645,-0.0058525204658508,0.0453562252223491,-0.0266215428709983,0.0324270687829935,0.051487635821104,-0.0988302578553091,0.0383523808784782,227
1733106767138902000,0.2364998946547508,0.1343172850310802,0.2773807710975408,4.750173250639438,-4.040457001315057,7.56841806923449,-0.0317855551838874,0.1639713048934936,0.046436782926321,-0.9098965019324088,0.2774146344592034,0.1927671931508789,0.240770405115587,2.2092626094818115,0.0179743021726608,-0.0759513527154922,0.0141849815845489,0.0510873794555664,0.1013684272766113,0.0614668242633342,-0.0425087660551071,-0.0626239536613924,0.0313038080930709,-0.0357664149393094,0.0349151752547011,228
1733106767178655700,0.0255345464900135,0.2078732273682952,0.2821107222288846,4.767058334466815,-4.028569871905446,7.564136446392536,0.071872666478157,-0.1728666424751281,-0.100223496556282,-0.9097015381967016,0.2771268707632318,0.1937448346234607,0.2410533233746237,2.871732234954834,-0.0668909475207328,-0.0016826472710818,0.0018509924411773,-0.0523697733879089,-0.0099755525588989,0.0629557520151138,-0.0431814081966877,-0.044090814932622,0.016011917963624,-0.0711505616959184,0.0739382744519971,229
1733106767218409000,-0.4340840754598379,0.1346528005957603,0.2759375865519046,4.828790860280394,-3.9782442907691,7.551604881599545,0.129897266626358,-0.0739306285977363,0.0266056172549724,-0.9093838270255142,0.2754388052640378,0.1977593321192638,0.2409271382914599,4.30800724029541,-0.0962583720684051,-0.1929252445697784,-0.0164413452148437,0.0688591003417968,-0.0444034337997436,0.0564712397754192,-0.025683781132102,0.0304730372219462,0.0303267836570739,-0.0823032850169111,0.0754187359678326,230
1733106767258163500,-0.0307177943468093,0.2253381569102406,-0.148074007704854,4.81852256424427,-3.961489847584069,7.566956179988383,0.0543936900794506,-0.0207869727164506,0.0993863940238952,-0.910388154676054,0.273800851702784,0.1980547967098679,0.2387484740835015,4.891592502593994,-0.0380004458129406,-0.2464594393968582,0.0076799094676971,0.0684858560562133,0.035297155380249,0.061686098575592,-0.0439936853945255,-0.0597069291369523,0.0007070358842611,-0.0403050995485624,-0.0222918108422774,231
1733106767297917000,0.1510232128992676,0.1912447486504912,0.088981182745099,4.798240239194035,-3.965853011229634,7.577551223760842,0.0178663861006498,0.0041499491780996,0.0659154579043388,-0.91108690604906,0.2733185053392671,0.1973560309479023,0.237209247718135,3.965889692306519,0.1218350827693939,-0.032262060791254,-0.0205802023410797,-0.0384192764759063,0.0820538401603698,0.0927263721823692,-0.0558506660163402,-0.0339292032745201,-0.002983417827636,-0.0696632457476109,0.0070033028908073,232
1733106767337670700,-0.0270008196502923,0.1390194713726639,0.4162368686020374,4.785476911471784,-3.954928297111392,7.59131963687241,0.1079075559973716,0.0038948783185333,0.0636384785175323,-0.9118158359378664,0.2721573709170394,0.1971820652551945,0.2358844415737157,3.0657601356506348,0.6623218059539795,0.0543968640267849,-0.0298481285572052,-0.0100264847278594,0.237993061542511,0.1146710216999054,-0.0556303076446056,0.0051627804575022,0.0330699793994426,-0.0266992154883686,0.0344458566929213,233
1733106767377424100,0.1732519958421587,0.0375774509832263,0.3769441381335258,4.778405950172245,-3.9176805164739488,7.615050641071796,0.1831257939338684,-0.0025921964552253,0.0522870905697345,-0.912895598050342,0.2695406728306911,0.1977075961584698,0.2342670681716686,0.7929031848907471,0.5089806318283081,0.3178912103176117,0.092223972082138,-0.0435967743396759,0.0439094305038452,0.1109654232859611,-0.0400982312858104,0.0683184344093781,0.0657029151916503,-0.1093283805919345,0.134001999403676,234
1733106767417177300,0.5199398196607827,-0.0806821409553289,0.0893377410978078,4.798779168376326,-3.843713655248284,7.639893405905365,0.2508974373340606,-0.142770379781723,-0.095884196460247,-0.9138011921126,0.265531700689446,0.1999168696193599,0.233438685064455,-0.984237015247345,0.0664364844560623,0.3498335480690002,0.0620205104351043,-0.0699489414691925,-0.1495601534843444,0.0622735098004341,-0.0087823355570435,0.0784601175243034,0.0847797766327858,-0.1309718927264679,0.2035714019885286,235
1733106767456930800,0.1564984294399619,-0.1098959604799747,-0.0132639707207679,4.883295772927999,-3.7330969792783257,7.64119045997858,0.2449175268411636,-0.1717820912599563,-0.2271161377429962,-0.9135044695680204,0.2611495162097514,0.2054474079517503,0.234737837779048,-1.195662498474121,-0.0980026870965957,0.4040679335594177,-0.0028915107250213,-0.0872136354446411,-0.0613183975219726,0.0346519313752651,0.018454372882843,-0.0361948854674701,0.0781482458114624,-0.0706335566510679,0.0518548319636611,236
