time_imu,phone_acc_x,phone_acc_y,phone_acc_z,phone_gravity_x,phone_gravity_y,phone_gravity_z,phone_gyro_x,phone_gyro_y,phone_gyro_z,phone_ori_w,phone_ori_x,phone_ori_y,phone_ori_z,watch_gyro_x,watch_gyro_y,watch_gyro_z,watch_acc_x,watch_acc_y,watch_acc_z,headphone_gyro_x,headphone_gyro_y,headphone_gyro_z,headphone_acc_x,headphone_acc_y,headphone_acc_z,frame_imu
1722327157388969000,1.213066022581607,17.412016282403467,-0.9232008137684314,-0.003245920264555,9.782373052355648,-0.6895924027714878,-0.4221207797527313,0.3719469606876373,-0.3122632205486297,0.1035960396078009,0.1113958714739821,-0.7230147897483606,-0.6738756443457037,0.1256959289312362,0.0808421149849891,-0.5009694695472717,11.953409515726566,-11.31562365336418,1.593467315431684,0.0921607092022895,-0.1468682587146759,17.82501840686798,0.3727242946624756,1.5673938397593796,-2.2437122618727385,0
1722327157428741600,0.7952062289528549,15.881679523015022,0.3755331388244405,-0.1338079838020727,9.786855166205765,-0.6082196126708761,-0.1830649375915527,-0.0041602062992751,-0.2044418305158615,0.1030195966973188,0.1194585002111655,-0.7188464628626354,-0.6770349641479504,0.2183331847190857,0.3006302416324615,-0.0691740363836288,12.124110950303075,-11.654931596064566,3.2895494944244623,-0.0536278039216995,-0.6832627058029175,14.693832843494414,0.9423189163208008,1.4776706064753231,-1.3427493642017243,1
1722327157468513500,0.2846902903933078,7.717797314319014,-1.9193208794057368,-0.1779986789125949,9.794291453686355,-0.4588695571482181,-0.6757246851921082,-0.3130328357219696,-0.1758240759372711,0.0993786632483067,0.1171345215148577,-0.7139154996954734,-0.6831749826028507,0.3318105041980743,0.3730159699916839,-0.1713269054889679,8.841789069044589,-7.281634094497561,3.429666405645013,-0.1833114475011825,-1.0019465684890747,1.562003817284107,1.1053212881088257,-0.2676411933769472,-0.2077205392909236,2
1722327157508285200,0.5116869551002979,-5.187993005496264,-3.4896178932607174,-0.2894751683159731,9.802068517428635,-0.0777422333122231,-1.2352986335754397,-0.2622794806957245,-0.3152193427085876,0.0940563026836079,0.1155316722606731,-0.7004399929455236,-0.6979897399005889,0.6606703996658325,1.2208688259124756,-0.7533454298973083,0.581085485497117,0.836770557615161,-1.1918828031688928,0.042897455394268,-0.9687070846557616,-11.336692160356044,0.7524789571762085,-2.683701908114553,-0.1240466143747791,3
1722327157548058400,1.0955373752661048,-13.801149844521284,-2.2485487421184778,-0.4262084467139095,9.783080908364058,0.5292126018535346,-1.87463653087616,-0.1910780221223831,-0.3136214315891266,0.0886221495847096,0.1135931505177858,-0.6783172288248905,-0.7205057162589386,0.8708017468452454,1.885040044784546,-0.9616434574127196,-8.73978941477239,6.4878276493400335,-2.207498938849568,0.0711426958441734,0.6580616235733032,-6.969175580278039,-0.4304992258548736,-1.302835725355893,-0.4138372601144015,4
1722327157587830000,-0.5584865175349637,-14.710706821405887,4.969093649461865,-0.4328624247103929,9.75470763131678,0.910317512928322,0.2365553230047226,0.0705400258302688,0.1821951270103454,0.0910390251751608,0.1124939697868223,-0.6640269794691637,-0.7335700771692791,0.3557611107826233,0.4951123595237732,-0.3421790599822998,-14.189510864204168,7.375705293858051,-6.359785206794738,0.0636601969599723,-0.3403389751911163,-8.542519706743954,0.1696671545505523,-1.23031599419862,1.3393581143282354,5
1722327157627602000,0.6084468090228736,-14.75753286998868,1.5788900701552628,-0.4161624151263385,9.780136671605703,0.5883114546952769,1.1772452592849731,-0.0826341658830642,-0.0714146271347999,0.089535214043983,0.1131640739410125,-0.6761644440587825,-0.7224811078353898,-0.6896279454231262,-0.0014627703931182,0.2367832958698272,-11.364331862431763,10.423884072721004,-6.65484601148963,0.1383509337902069,-0.1588128060102462,-10.37556866236329,0.0688497573137283,-1.8436317244321108,0.5238793145341798,6
1722327157667374600,0.4803405074611306,-12.689324912929534,0.0747334616839885,-0.4312593734279275,9.796531341567634,0.1112656596642918,1.1541013717651367,0.0380967557430267,0.0550245456397533,0.0849576120875937,0.1146173127804884,-0.693678529060176,-0.7060135868032194,-0.9454250931739808,-0.5685122013092041,0.6034213304519653,-10.911604461300373,8.537880356505513,-4.441710820318758,0.1979380995035171,-0.0206814296543598,-9.897556013327836,-0.1818317025899887,-1.3905239456810057,0.231494432783965,7
1722327157707146500,0.1090452984673902,-9.356071885856986,-0.9719687171339988,-0.3284139159813523,9.794808755558728,-0.3524730196239427,1.2076507806777954,0.048725139349699,0.3702957034111023,0.0871772298581896,0.1142449528580096,-0.7105766767833875,-0.6887880354688782,-0.4488320648670196,-0.777624249458313,0.6121668815612793,-8.11290488565266,5.300329929387569,-2.6316835515856742,0.1737544983625412,-0.1545554995536804,-9.747712657862902,-0.2958760261535644,-1.2180679225221276,0.3682489366330206,8
1722327157746918400,1.2055427874699234,-6.778460116198659,-3.8281343933224674,-0.2689609524723142,9.778992762267588,-0.6850857390020042,0.3039769530296325,-0.0131218060851097,-0.0707768276333808,0.0863522809493969,0.1125226692159429,-0.7226813276001695,-0.6764714500581434,-0.6407954096794128,-0.4492617845535278,0.4346057474613189,-5.14398552146554,5.175273224654793,-2.993867050699889,0.1732392907142639,-0.179804041981697,-10.186552987939118,-0.3829997479915619,-1.7807646416306495,0.8142582084905355,9
1722327157786691000,0.3679661741688847,-1.495591024699807,-2.243889518135786,-0.2841692804601974,9.783869428393244,-0.6046116878394037,-0.7512184381484985,0.7112203240394592,-0.12732994556427,0.0900860334219038,0.1167506806660163,-0.7191633302848042,-0.6790125138542196,0.1025085896253585,0.063490979373455,-0.0116036785766482,-3.464106435385346,2.403174071162939,-0.107019528260827,0.6859087347984314,1.1911274194717407,5.235604651498794,-1.582489252090454,0.3396266532607376,0.0117460826793278,10
1722327157826463000,-1.874854837952554,10.807328094267843,6.192793148130178,-0.2838172886847518,9.782208801704645,-0.6310623262610286,1.4022266864776611,0.0310146138072013,0.2691221833229065,0.0983802087769207,0.1258209900891222,-0.7185710147615746,-0.676864975564953,0.0720870345830917,-1.043972134590149,0.1794523000717163,2.3356787440389395,-3.944658247509599,-0.4146048834860324,0.2114221602678299,-0.228580430150032,11.292252130126952,-0.1404020190238952,1.6526060253597794,-0.8353810760181397,11
1722327157866235000,1.7388053223013875,11.861495786660909,-4.288956253582239,-0.2452723078436218,9.739739194765686,-1.1170025534253567,0.4001253247261047,0.1330463588237762,-0.273716002702713,0.0962745896262246,0.1264988856386596,-0.7354925643850438,-0.6586196523308006,-0.760035514831543,-0.7161593437194824,0.1734193116426468,9.707406366437674,-8.640344121158122,1.4408721770405768,0.2948885560035705,-0.1868442296981811,11.874384494328496,-0.4674971401691437,1.4996636809661985,-3.107225718854368,12
1722327157906007600,-0.6856938609629869,10.433130039972069,-4.766459199529886,-0.3331886561024934,9.74924176712632,-1.0058115846987814,-0.8148268461227417,0.0614413283765316,0.0464515350759029,0.0942722165527075,0.1295390671454946,-0.7310962657134905,-0.6631972969982337,0.3201224207878113,-0.1390426307916641,0.2996632754802704,9.720089906921984,-9.774693603768943,5.063553555878997,0.2003388851881027,-0.4073302745819092,8.364698211029172,-0.5977082252502441,1.460852012012899,-2.35940039588809,13
1722327157945779500,-0.1738059947294183,4.509183058828115,-0.6371639310717583,-0.2121094036333262,9.78240520105958,-0.6557055499345064,-0.7597832679748535,0.398514449596405,0.3455004394054413,0.1050131921860046,0.1279039685798381,-0.7190773626402699,-0.6749374577775279,0.906237781047821,0.3808725774288177,0.1100819408893585,6.269070332124829,-7.42000094718039,2.1892169938363133,0.1569302678108215,-0.2916340231895447,0.5395002967098728,0.2373163104057312,-0.3144640088230371,0.1628822669918649,14
1722327157985551400,1.2884667160026728,-2.830525038975477,0.4572726433455943,-0.1402974006203003,9.797053319615124,-0.4104363656297325,-0.654412567615509,-0.0050091175362467,-0.0076859919354319,0.1113627013609677,0.1263134457886953,-0.710613358076255,-0.6831339250502798,0.7148651480674744,0.9956896305084229,-0.0006962362676858,0.536994999358058,0.9158493550270796,-0.6548615003257989,0.0974469184875488,0.0455698519945144,-3.1118422727391124,0.627139687538147,-0.5206150520412252,0.8805889488145708,15
1722327158025316400,0.4767355052391067,-6.3218725325077765,2.526781746131181,-0.1707264959525317,9.803639712268112,-0.1728328936472535,-0.3618397116661072,0.1089127659797668,-0.0967848747968673,0.1126516113389474,0.1268960675435804,-0.7019326272527849,-0.691735153315264,0.3292791545391083,0.5197170972824097,-0.2160106748342514,-4.347754479509592,5.262161819034815,-1.5746382579296827,0.0519772693514823,-0.1778080761432647,-3.887505450701713,0.6102660894393921,-0.4049238858185708,0.5423983197063207,16
1722327158065088000,0.347493952569738,-7.711417842414975,3.265161487621069,-0.2036921240250579,9.80230349522829,-0.2091129252310842,0.4879935085773468,0.1472927778959274,-0.1053688377141952,0.1133094778568619,0.1303772482769885,-0.7026119591904217,-0.6902891666678291,0.1020579785108566,0.0236216504126787,0.051878422498703,-5.769665350970626,4.8444192220449445,-2.079075388032198,0.0105749173089861,-0.0216676238924264,-5.440955959174037,0.5443321466445923,-1.058363463582471,0.6293818258281797,17
1722327158144531200,0.2166606737295165,-3.8980589934200047,1.0274037502385676,-0.3118299705250189,9.775971953141688,-0.7095737721137702,0.7456965446472168,0.1541207283735275,-0.1468683183193206,0.1085404638067022,0.1396871323295674,-0.7187946154233034,-0.6723396955614862,-0.3313757479190826,-0.6812521815299988,0.3266952931880951,-3.964152052530646,3.528747542122006,-0.9651206048049032,0.1660516560077667,0.3341971039772033,-1.2675899321906268,0.0915804803371429,-0.4036303388766944,-0.580830049431324,18
1722327158184299300,-2.117731720293313,5.67823443698585,0.6008591303728521,-0.317620536625199,9.73279390567243,-1.1585584795854984,1.5340059995651243,-0.428714394569397,0.197233498096466,0.1048466224939326,0.1420790572922833,-0.7340869064627874,-0.6556960285643557,-0.9164384603500366,-1.0432026386260986,0.26117604970932,0.5790367362737655,0.0311509250670671,-1.4921777091249824,0.125970184803009,0.5120177865028381,3.4943341081276533,-0.0481166280806064,-0.0528023008476477,-1.390750740174204,19
1722327158224067300,0.1777085003269836,14.90796191638708,-5.044463655483723,-0.3343792541265487,9.655350600507855,-1.6830932258211075,0.7560954093933105,-0.3223839402198791,-0.1253516227006912,0.0936376437956258,0.1375027625029521,-0.7529321782367001,-0.6367246032811799,-0.886677622795105,-0.5490897297859192,0.0530133955180645,9.828340438282488,-8.13816090746224,1.7087603126496076,0.0677029862999916,0.3794059455394745,12.12854279527068,-0.338646650314331,2.2547595794573425,-1.8960741515919568,20
1722327158303604000,0.1082205928799696,18.197939865356684,-5.333784455221891,-0.2761138381679542,9.719946699059008,-1.271517919289321,-1.3322187662124634,-0.5177145004272461,0.332640141248703,0.0975980693118228,0.1322520902174364,-0.7398234622167471,-0.6524148603657465,0.6770381331443787,1.0887963771820068,-0.3306089043617248,16.73655915329456,-15.457592525434492,4.924973937228322,-0.3299246430397033,-0.7104166150093079,15.258867942422627,0.4149764776229858,3.620855624715984,-1.5895963192172349,21
1722327158343371800,-0.0716150648019742,2.898430115944147,-1.1824865407269447,-0.0795188784627709,9.784403681400418,-0.6553618510633706,-1.4813288450241089,-1.1261321306228638,0.5285025238990784,0.096526499743442,0.1090804102363757,-0.7221603836212837,-0.6762162721749185,0.720641016960144,1.3286641836166382,-0.1883729994297027,7.534852484241128,-7.106905888622999,2.5833307318270204,-0.6246275901794434,-0.5777188539505005,0.0334809754498302,0.3399953544139862,-0.4050833506966009,-0.4312355906935408,22
1722327158383140900,1.1104241979483511,-10.30059671574831,1.6419395237863064,-0.0125331539618782,9.803799871265888,-0.236094473925326,-0.880240261554718,-0.9335195422172546,0.0442249365150928,0.0863304577773435,0.0893421831789757,-0.7099686208597075,-0.6931879979302873,0.002598235849291,2.008722305297852,-0.3942814767360687,-2.76869431348443,4.929799165427685,-3.817187175111473,-0.8906623721122742,0.2283642441034317,-12.557730330860617,0.3764096200466156,-3.4753029521822927,0.616625000911951,23
1722327158422908700,2.006356919432432,-15.426325280511378,3.0330016679972407,-0.0308412814458715,9.805486801439525,0.1478449847219511,-0.7444982528686523,0.0152740506455302,-0.0997027307748794,0.0813689704604992,0.0823437539917307,-0.6969085376905073,-0.7077549307072317,0.4126595258712768,1.2073760032653809,-0.4355356991291046,-13.46920337049961,10.299656804549691,-4.043318528226018,-0.6770133376121521,0.335251897573471,-3.958049059480429,-0.383577436208725,-0.1951100275102071,1.1518442227691412,24
1722327158462676500,0.5027261979987845,-15.175170253038406,4.239292351225019,-0.0147578522655356,9.806621942949295,0.0178974289328965,1.2248839139938354,-0.4916353821754455,0.1227368265390396,0.0778075638323256,0.0787223092646638,-0.7020614525017617,-0.7034617363337319,-0.4244857132434845,-0.2072024047374725,0.3029609322547912,-13.669921173155307,9.166704329255223,-6.095644441020489,-0.6458129286766052,-0.0295906495302915,-9.27405761951506,0.2646388411521911,-1.7328092967569828,1.1435516107201575,25
1722327158542213400,-0.2310861442440189,-10.569843864750862,-0.8778511944137513,0.0676820133690955,9.771824770334362,-0.8229298099197447,0.9196574687957764,0.2307139933109283,0.0527839921414852,0.0788921164991559,0.0807489584879076,-0.7317358454176968,-0.6721742079184491,-0.3316023647785187,-0.8125417828559875,0.688217282295227,-8.477619656810164,6.710287912726402,-3.8749011129334567,-0.4600338041782379,0.2125297635793686,-9.941211615180968,0.0319388397037982,-1.5742583187013863,0.4070772644601762,26
1722327158581981400,0.7436747060928494,-8.423927229589223,-0.4231787966944277,0.0266595684645697,9.730863229870796,-1.2165502845007925,0.9933070540428162,-0.0491154007613658,-0.2747679948806762,0.0767170395755544,0.0848649804254782,-0.7448655826172554,-0.6573338300906212,-0.6325358748435974,-0.6423248052597046,0.538377583026886,-5.88899900188148,6.668540190321207,-4.0414825449705125,-0.3626211285591125,0.1382092237472534,-10.009816949373484,0.244196817278862,-1.475186242313683,0.700018373587355,27
1722327158621750000,0.3087818715333938,-6.0354217352479695,-1.3791979572854935,-0.067266742532514,9.695108025878667,-1.4733433909259737,0.286537766456604,-0.2452301234006881,-0.1058548092842102,0.0701731424542858,0.0868716101205331,-0.7533743650278057,-0.648040206091176,-0.7777466177940369,-0.1911671906709671,0.218609020113945,-4.597105087909102,5.891623505166173,-1.347196114477515,-0.2642970383167267,0.0219552796334028,-10.351077195185422,0.1993250995874405,-1.7239213491633534,0.1851242016772739,28
1722327158661518000,-0.5573285431388765,-0.851830179581046,-1.1867454402804374,-0.0476564121594419,9.69795640104711,-1.4552563839629291,-0.347896933555603,-0.0488840900361537,0.1521057933568954,0.0689443776255611,0.0837636114364439,-0.753114256749746,-0.6488831326594805,-0.0549582690000534,0.0350243970751762,-0.3490893840789795,-2.5192303078383205,2.559772746106982,1.4478069447398183,-0.2177722156047821,2.53770399093628,-2.2032975416369736,-0.7609815001487732,-2.1780261761277915,-0.612204115729779,29
1722327158701286100,-1.2059954266082495,10.12409214785099,1.9345359841942784,-0.0229783295184257,9.701543611884116,-1.4317543662138283,0.7159851789474487,0.1542590707540512,0.0618282593786716,0.071726065074226,0.0848700694738918,-0.7521942737613686,-0.6495046432003375,-0.0780500024557113,-0.3554653823375702,-0.3935530483722687,3.187290312433243,-2.9357495005130767,-1.07558632799685,-0.2472887188196182,-0.0169438235461711,8.95542246248722,0.4563930630683899,1.297529289510846,-0.649239422660321,30
1722327158741055000,0.4290015114985406,10.24906526595354,-4.955176767790317,0.0199111947494791,9.660369305452704,-1.6873871236227451,-0.2703630328178406,0.0075659365393221,0.0136055070906877,0.0726170502107328,0.0848326157217721,-0.7608128717248074,-0.6392918288320569,-0.3088395297527313,-0.0325316339731216,-0.0743991509079933,8.330891803017257,-9.561318564113972,0.2398955284424126,0.0816262513399124,1.1953997611999512,9.798137023198604,-0.3572439849376678,-0.7196288637906313,-0.2051801888920366,31
1722327158780823000,0.0766727957161143,11.309107403337954,2.217822179943323,-0.0141242522283573,9.694026075860858,-1.481904883044213,0.1862588673830032,0.3949573040008545,0.0932565554976463,0.0765074542491667,0.0901893624183033,-0.7532741856915622,-0.6469856887606461,0.2917733192443847,-1.131770372390747,0.1900933682918548,7.510508901101351,-8.453281918889283,2.896780010649562,-0.1752459853887558,-0.9823251366615297,6.582827653983235,0.6798223257064819,2.02280887253955,0.0761054943892872,32
1722327158860359700,0.2614805883879773,-1.6954145088642834,0.6532103721179068,0.0389917062619002,9.695189858943223,-1.473823575658351,-0.403393417596817,0.1284712105989456,-0.0945864245295524,0.0775294813804839,0.0871766982799645,-0.7533553693257591,-0.6471824289169879,0.3973815143108368,0.0045921923592686,0.2517499923706054,1.8277607860833405,-0.8545891229003667,1.880974489876628,-0.2898896038532257,-0.1631287038326263,-5.306729275035858,0.1165929213166236,-0.9685497755359858,-0.6744927410561591,33
1722327158900127700,0.6507280537828802,-6.3579422092765565,0.8461388360716402,-0.0294325608588405,9.72089654712975,-1.2937040321342643,-0.4677761495113373,0.0863597020506858,-0.3000129461288452,0.0774879811939692,0.090745188950236,-0.7468104578076433,-0.654243805345094,0.5732494592666626,0.3340039253234863,-0.143787607550621,-2.320698617050052,4.073983131080865,-0.949032662704587,-0.2818290591239929,-0.0519734844565391,-4.825467561076581,0.0865215957164764,-0.4997346880326047,0.1760247484911233,34
1722327158939896600,-0.629132381111756,-8.78076439923942,3.124360685789585,-0.1163620786210056,9.723929631215332,-1.2657118633590638,0.3565573096275329,-0.0066817263141274,-0.1107471510767936,0.0748301671304344,0.0941272825766424,-0.7454350414280361,-0.6556424678059487,0.0801939591765403,0.0775756910443306,-0.0046259304508566,-6.225131237155199,6.314409357020258,-2.4237452961571515,-0.2584308385848999,-0.1908173561096191,-5.3644852984339,0.3325841128826141,-0.7354197226405144,0.3542914306901395,35
1722327158979664400,-1.37000985770151,-7.540186246484517,2.158236164639145,-0.090752311470313,9.692124041631818,-1.4916000553674995,0.7661798596382141,0.3655458092689514,0.2079670876264572,0.0766219682884538,0.0963685430166064,-0.752836995678124,-0.6465899617772384,-0.4014754593372345,-0.4416186809539795,0.3565043807029724,-6.815342862915992,5.964245673784613,-2.1510494680054486,-0.1135823801159858,0.0128881921991705,-5.908006484690309,0.3920508623123169,-0.9545589518453924,-0.0467232640617527,36
1722327159019428400,0.2845657324318774,-4.009603305628896,0.5098445421040058,0.0428413354613352,9.630590253260731,-1.8493996403090656,0.9853394627571106,0.4270841181278229,0.3485865592956543,0.0849722203465776,0.0994424810686006,-0.7644634287316011,-0.631257928449914,-0.136929839849472,-0.5799331665039062,0.7668772339820862,-3.9063451757282017,2.564892573338747,-1.5292290904074906,0.1812966763973236,0.1124415248632431,-2.6717791228696703,0.064376413822174,-0.2447090844702907,-0.6879186243403702,37
1722327159059197200,0.7254829966463148,7.356526546135544,-2.989053220677376,0.2353400570951402,9.545190436133742,-2.2370390677191314,0.9467694163322448,-0.3066186010837555,0.5551144480705261,0.0909891476939972,0.095630013571348,-0.7777609876309588,-0.6145435249250832,-0.628757894039154,-0.7631689310073853,0.5270646214485168,-0.2925321630001068,-0.7179922024995088,-0.183771928551793,0.4651348888874054,0.5087287425994873,2.5825059714406726,-0.2993118166923523,0.0579186300812289,-0.7807613048192114,38
1722327159098965200,2.7919954018339515,19.627908371067047,-7.628171988451481,0.2968241428392939,9.50668271856308,-2.3885687688358126,-0.3240561187267303,-0.3074415326118469,-0.1076083928346633,0.0861357304413809,0.0860221801484034,-0.783826063943272,-0.6089314474863424,-0.6986249089241028,-0.0835654214024543,-0.0685372725129127,12.897540962386133,-11.388553280496597,1.683824608835578,0.3666416704654693,0.2386967986822128,12.520761659425496,-0.0376722328364849,2.012435362563282,-0.5582170529438183,39
1722327159178502100,-0.2013181797016412,19.72637459051609,-1.75737675178051,0.3373386884540319,9.682052729472517,-1.521332930330187,-0.7468525171279907,-0.8450459837913513,0.4389844238758087,0.0809765957024073,0.0683709488341133,-0.7568961658632941,-0.644884841964101,0.92692893743515,0.7684577703475952,-0.2471297085285186,16.969902629745004,-19.30397569215297,3.231038853266835,0.0275949258357286,-0.5442153215408325,17.477240741986034,-0.2833183705806732,3.517883910541236,-2.0233302660651504,40
1722327159218389800,0.193753845394589,1.529425489762425,-6.712498574513196,0.4230522842379287,9.732450206801294,-1.1273146155379712,-1.742340326309204,-0.1938540190458297,0.0503470450639724,0.0769933178991894,0.0541286068341796,-0.7446792228004964,-0.6607533785867836,0.7361267805099487,1.2284600734710691,0.0385344550013542,7.242872694426775,-9.076615477529169,-0.0868451936297118,-0.1300204396247863,-0.8135403990745544,-2.570159407825768,0.0581981763243675,-0.5931263806963339,1.9605800876416264,41
1722327159258162200,1.329317197307199,-15.450522148656844,-2.008980692064762,0.3744564495036378,9.79661668176353,-0.2376775601319968,-2.380048990249634,-0.1551838666200637,-0.3551957607269287,0.0781284211428739,0.0528252147945767,-0.7136719695574573,-0.694102225790371,2.186070203781128,2.289527177810669,-0.8232654333114624,-3.648289867347479,5.17624937621057,-4.626475559300184,-0.3952272534370422,0.2745780348777771,-13.87042270271182,0.0717639625072479,-3.7872690067097534,0.9353628145966678,42
1722327159297935600,-0.0433917450188659,-18.773236830580235,6.016953181621432,0.188091216523014,9.794831551912427,0.4430520660197362,-0.3999976813793182,-0.1054059639573097,-0.3984395265579223,0.0718862614989374,0.0554958470040397,-0.6887168086310917,-0.7193203798975869,1.3518190383911133,0.7489926218986511,-1.3171919584274292,-16.194487581324577,15.8045109431386,-9.56317208302617,-0.2071338444948196,-0.6136732697486877,-2.4789336610242723,0.2201819866895675,1.0111377481576054,2.316961330217868,43
1722327159337708300,0.2408960837870836,-17.63670649679899,3.696673666766286,0.073342934340774,9.805421919509769,0.1367420370931271,1.123024582862854,-0.4754643738269806,-0.2558311522006988,0.061421176366866,0.0553366147340572,-0.6999756821579722,-0.7093654180972567,-1.3032926321029663,-0.3082233369350433,0.0643834993243217,-13.922301358509063,11.745420260763169,-7.550541051760315,-0.1881235837936401,0.2720148861408233,-10.72947211664915,0.2690142691135406,-2.0635645151674744,-0.8102213541898876,44
1722327159377480700,-0.7787550064980984,-12.749725897878408,2.5455823081910607,0.0742613141275942,9.801713712641597,-0.3020657698198221,1.3163907527923584,0.2155502438545227,0.3159719109535217,0.0579004805334797,0.0542903922873078,-0.7158586604216414,-0.6937191935301128,-1.2199101448059082,-0.6475617289543152,0.6700658798217773,-11.301665270638464,9.911136794912814,-2.724194369761645,-0.1857551783323288,0.1292133182287216,-9.763632696050404,-0.4691605567932129,-1.245477322973311,-1.5970752767957743,45
1722327159417254100,0.2074466359866782,-9.337614438146352,-0.7918261580605059,0.2459552303401753,9.7661777043581,-0.8553853147793561,1.4051167964935305,0.3637647628784179,0.3198800086975097,0.0673441815871081,0.0550049798149557,-0.7352461929861664,-0.672199623588375,-0.5171051621437073,-1.187771201133728,1.1037499904632568,-8.221848659974336,4.950412914389371,-2.9827126194790003,-0.1649040281772613,-0.086500309407711,-9.7447882948488,-0.4155706167221069,-1.514328750656545,-0.5208441480893642,46
1722327159457026800,1.488620455034822,-7.68294753473401,-2.688419584286213,0.2569021928228437,9.71936509977877,-1.2799693751618266,0.7209746837615967,0.2283574193716049,-0.346655011177063,0.070557418557129,0.060675202007579,-0.7493856137085909,-0.6555618488908961,-0.441226065158844,-0.6200996041297913,0.8649713397026062,-4.219157910212874,5.978143266233801,-3.618490356889367,-0.1094706878066062,-0.075875200331211,-10.443514655864238,-0.2760639488697052,-1.7272132303155958,-0.4002150505404919,47
1722327159496799200,0.7823193479161709,-7.213398178139329,-0.6130151398517191,0.0776478330270387,9.700525959274172,-1.436721048710495,0.1557034254074096,0.5819116234779358,-0.557729959487915,0.0683991096636477,0.0732457663633328,-0.7535830690893981,-0.649668581992529,-0.559192955493927,-0.3375662863254547,0.3683087229728699,-4.744304066345095,6.246637551042437,-2.3342598171517253,0.0267148129642009,-0.1989606469869613,-9.743846045562623,-0.2830134928226471,-1.815822949399799,-0.0316862375201657,48
1722327159536572700,-0.2156811611728742,-5.145966466149687,0.8056966433070599,0.0030459997931393,9.701235568848253,-1.4340247953638434,-0.0526561439037323,0.8070597648620605,-0.1335377842187881,0.075042426677167,0.086714391927211,-0.7520608570722392,-0.6490406920852411,0.0965652093291282,-0.4073918461799621,-0.106249563395977,-4.554510393285751,4.326840286296606,-0.0974165642656385,-0.1199896931648254,1.630002498626709,-8.961075958204269,-0.6183459162712097,-2.941629206201434,-0.0618530651870183,49
1722327159576345000,-1.4212335567213594,9.47801718057096,4.078697884643078,-0.0076558650692488,9.691157826948166,-1.5005914633356034,1.0968347787857056,0.945630431175232,0.0320704020559787,0.0854928976157639,0.1003441298063516,-0.7526220362790013,-0.6451217354561208,0.4393124580383301,-0.8109196424484253,-0.2062776237726211,-1.8074492349386213,1.3575392293155193,-0.1603822851359844,0.2377095520496368,-1.111053228378296,10.698203702682257,0.6546567678451538,4.027549881207943,1.342804893781245,50
1722327159616117800,0.2785211367717012,13.747822743481397,-7.6087763831079,0.0774667043064721,9.593997429400682,-2.029680658005178,0.0626881644129753,-0.5856987237930298,0.1124574393033981,0.0889827608865203,0.1035634107871843,-0.7699087812000847,-0.6233756292355779,-0.6917576789855957,-0.3160900473594665,0.0298409666866064,16.079513294667006,-12.641223437583443,1.6751399287290871,0.0521591082215309,2.3606772422790527,5.405675386956334,-0.2562196254730224,-1.3428145383924246,-0.9595620208296924,51
1722327159655891200,-1.5449872160315512,15.089313339793682,1.0816216626383364,0.1449778409209568,9.678702250000834,-1.5722829269751906,-0.8301325440406799,1.5747849941253662,0.3546771705150604,0.0983169427088061,0.1042861247976551,-0.7545121083654042,-0.6404448444508871,-0.2492896616458892,-1.0875771045684814,0.0779186189174652,8.685972484388946,-6.800290839734673,4.069484650617838,0.1082483083009719,-1.2221747636795044,12.170029820913076,0.7466912269592285,3.412119935299456,-3.4117662995561955,52
1722327159695663600,2.2431571122080087,9.366001159197092,-1.9045583406902848,0.2994849412800744,9.692593412709236,-1.4609405670791864,-0.1818262487649917,0.071429044008255,-0.1673482656478881,0.118183224532362,0.1142355500161769,-0.7492913166602648,-0.6415181742224334,1.7741769552230835,-0.0244787149131298,0.1503653824329376,9.768793439814448,-12.121155607628822,0.9469406588613988,0.0878981426358223,-0.2695244550704956,7.80510559541583,-0.6759918332099915,1.2280432269610464,-1.1045926422506571,53
1722327159775209700,0.2361292712440714,-4.118915328741074,-2.315899107813835,0.1379647838211152,9.75247125056684,-1.020121411210671,-1.1423711776733398,-0.0371134094893932,-0.1573496907949447,0.115362219870945,0.1176922444231306,-0.7335940652946721,-0.6593025228341526,1.356823444366455,0.856173038482666,0.0083894040435552,-0.1279138477295637,-0.8338368422508239,1.7333654693350196,-0.2020540535449981,0.0935297757387161,-3.035368689389527,-0.4963342547416687,-0.6607076690707355,0.5623494765734299,54
1722327159814982100,-0.3418383744934573,-4.976237091475725,0.7309305945277214,0.0862572376739233,9.783045837050675,-0.6745172909755259,-0.495720237493515,0.0761207118630409,-0.0754098147153854,0.1176485048331072,0.1196854969358084,-0.7211561506525824,-0.6721369746527243,0.4558221697807312,0.6668707132339478,-0.2451083809137344,-3.966500661483407,3.8770296493947503,-3.2917978578731417,-0.2169417738914489,0.1076169162988662,-3.013058657903969,-0.2762379348278045,-0.3926177638119086,0.9502903346154838,55
1722327159854754600,0.0649988980652298,-3.5062685838103294,0.4209808847913518,0.0770071879027877,9.7888027931422,-0.5863301081523299,0.0702477768063545,-0.3612792193889618,0.09312155097723,0.116622135642966,0.1181695634938799,-0.7182830014933022,-0.6756513382242554,-0.0151333566755056,0.6298989653587341,-0.0878450497984886,-3.0233173093289136,3.1936645236402748,-2.5592966530278325,-0.2345146834850311,0.2298837304115295,-1.7226767559297382,-0.0508722849190235,-0.3228434589052573,0.9158112149737776,56
1722327159894528300,3.098381025880575,-0.5454857643276453,2.326404135215282,0.0544829565441235,9.779174548575282,-0.7315671388655901,0.4909151792526245,-0.4396590292453766,-0.1576477140188217,0.1107303065014483,0.115292011440101,-0.7238834827500988,-0.6711478205347986,-0.6688994765281677,0.3330054581165313,-0.0699194520711898,-1.4237778343766927,1.8270786490380764,-1.2946212931096552,-0.1803658753633499,0.2574244439601898,-0.5311056490585208,-0.0022973525337874,-0.1089332711939699,0.4356218794863671,57
1722327159974073000,0.6323322000663727,0.3054664633750915,0.3279905760027468,0.1323160008118022,9.74928151461482,-1.0508899128314106,0.3347271978855133,0.6696335077285767,-0.1154027208685875,0.1180436022631619,0.1214999868178543,-0.7340423869706474,-0.6576360293137897,0.2689449787139892,-0.2723302543163299,0.1332316100597381,0.1545768137276172,-1.205802607449889,1.1559554574802515,0.0312955491244792,0.2533402740955353,0.5934666089687496,-0.3216881155967712,0.4465720203068107,-0.2966356893287971,58
1722327160013840600,1.164428905988857,1.6140987461805345,0.3236028624378144,0.0223467832993716,9.72678677421212,-1.2488124587453902,0.6025266647338867,-0.0656116306781768,-0.3146950900554657,0.115626146761955,0.129721702028205,-0.7394890109776959,-0.6503529839722894,-0.8647603392601013,-0.1138940304517746,0.1557261943817138,-0.0829044931799173,0.6940326502412557,1.0105968462139368,0.0238355305045843,0.207202523946762,-0.5325517562136054,-0.3461908996105194,0.1146688922365196,-0.1847921567113138,59
1722327160053613300,-0.1567016055955551,-0.0889022722899913,-1.5406956563174723,0.0157428344400948,9.71134838206172,-1.3637702326595782,-0.0874211862683296,0.9275498390197754,-0.0169509202241897,0.1198560052550316,0.1366604943707749,-0.7421973039342559,-0.6450594460691309,-0.4232763648033142,-0.1795038729906082,-0.2836616933345794,0.7508382410466671,-2.2131290536910293,1.1637401200070976,-0.0118023017421364,0.2981867790222168,-0.4100967949444428,-0.182058647274971,0.1397447991056833,0.2114199235318228,60
1722327160093385700,-0.2956968193097971,-0.6422662226468324,-0.6776243901453912,0.0324844775090576,9.72915817951858,-1.229955782584101,-0.4214513897895813,0.6709792613983154,-0.0442480184137821,0.1332901089462191,0.1487473383274891,-0.7352445318595517,-0.6477062204310557,-0.2700061202049255,-0.1312335580587387,-0.3346429765224457,-0.4370686442285776,0.4863473466604948,-0.3178887225747108,-0.0307997148483991,0.3957715332508087,-0.4449571689886972,0.0628156512975692,0.1373987200367264,0.4980353367688134,61
1722327160133159200,0.6024199499487877,-1.1587450881987809,0.4101964193940162,0.0181271711517183,9.741958039858936,-1.1244167021393776,-0.1279504895210266,0.4946554005146026,-0.2139511853456497,0.1411542250798309,0.1570255452491762,-0.7298440068475986,-0.6501893468547533,-1.734521508216858,-0.1053578481078147,-0.2907719314098358,-0.2294663427561521,0.9655220252126456,-1.0055828174442052,-0.0149668408557772,0.5295031070709229,-0.3838278697652742,0.1639465242624282,-0.0047749832913803,0.3487894722729921,62
1722327160172931600,0.6494594220865517,-0.0851782833307981,0.5729156961102039,-0.0233755920575698,9.735007490068671,-1.1829882797040046,0.3861294984817505,-0.1777018755674362,-0.0248336270451545,0.1422771629131436,0.1623681935287646,-0.7307203209533296,-0.6476430846808812,-1.046966314315796,0.0339459814131259,-0.1268775463104248,-0.0254845698684453,0.5040379016518592,-0.4745845742829144,-0.0251072607934474,0.4788771867752075,0.1806279679702594,0.1093227937817573,0.2372619468021206,0.2043881069325842,63
1722327160212704300,0.2288243733244948,0.2350117019236087,0.4317591396436095,-0.026514572786598,9.70676339235902,-1.395874074537307,0.7374647855758667,-0.8802228569984436,0.1271867454051971,0.1325784129546774,0.155028538470811,-0.7396863704818734,-0.641290391131636,-1.5804270505905151,0.0479196906089782,-0.0262904781848192,0.6316244171231985,1.3099006953060626,-0.3863871623266488,-0.0464295670390129,0.3719116151332855,0.3613630861094221,0.0111510660499334,0.1098673463068436,0.2387674559942446,64
1722327160252477700,0.531511891771853,0.4741828616142273,-0.355004839656502,-0.0450402474448317,9.67079892953038,-1.626047396519035,0.258923590183258,-0.0208677742630243,-0.0344002321362495,0.1223314322342079,0.148106938813269,-0.7489790932949174,-0.6341370591704576,-0.9619718194007874,0.0526274144649505,-0.0961833447217941,0.2902577883273363,-0.500265397375822,1.061101291048527,-0.0439637601375579,0.2041550725698471,0.3297992693925276,-0.0937570706009864,0.0888045475365593,0.1905968426683917,65
1722327160292231700,-0.8660692058790475,-0.2154699661076068,-0.1274127663396299,-0.0154456883992243,9.678550858831406,-1.5798023626945912,-0.3056249320507049,0.8425753116607666,-0.0030847105663269,0.1299548771347411,0.1540778745737671,-0.7461953570978237,-0.6344793965597726,0.2716187834739685,0.0100743630900979,-0.0683500468730926,0.2635889771103858,-0.7713543748527765,0.2426531565874815,-0.0025943359360098,0.0875425115227699,0.2825713985431939,-0.1972099691629409,0.0195235608384944,0.1794856112684123,66
1722327160371776300,0.7590351376362144,-0.2399567571103572,0.6395907198272646,0.2252809468302875,9.66712696301937,-1.6328851335845886,0.3585281372070312,0.3645103871822357,0.1107807606458664,0.1588181955937893,0.1705888292118637,-0.7444148211025107,-0.6257179150006542,0.2927144765853882,-0.0909588262438774,0.0235128961503505,0.6486544623792171,-2.409514964622259,-1.7778490464448928,0.0917813777923584,-0.0055170934647321,0.0569819063535425,-0.2439199537038803,0.0505455166304949,0.2185403865288943,67
1722327160411548200,0.0921493827187456,0.251600433152914,-1.1160860961675645,0.2627909768668003,9.65455857334733,-1.7002435364559292,-0.0975077003240585,0.2329580783843994,-0.0187292359769344,0.163140303311744,0.1741377103913556,-0.7458983553102904,-0.6218496449977899,0.0149233452975749,0.0807963609695434,0.1355109363794326,-0.3640466626375913,1.1837339835047722,-0.7076063444983214,0.120352528989315,-0.0436976961791515,-0.0727493888944154,-0.1665587872266769,0.1413916621304117,0.2447843233972787,68
1722327160451319800,1.297096012660116,-0.1141845975846052,-0.209056738064438,0.2320506053620017,9.679171036556362,-1.558911258096248,-0.4040057957172394,0.5816103219985962,-0.2336029261350631,0.1683407900542405,0.1799377020320099,-0.7396653144767378,-0.6262420464800906,-0.1488341689109802,0.0912351012229919,-0.0691345483064651,-0.0545896683216095,-0.8673539119273423,0.0566511674286797,0.1042510867118835,-0.0461939983069896,-0.1536228922699578,-0.0887664258480072,0.0837731109743006,0.229676332245022,69
1722327160491093000,-0.2445779506376013,-0.0676233374178409,-0.125428022263199,0.2303622869488783,9.696355395591258,-1.448459709560126,-0.1978865712881088,0.7038249969482422,-0.0812634974718093,0.1774402682589872,0.1885341832407951,-0.7336932293539654,-0.628223028796588,0.0725648030638694,0.1647010594606399,-0.1897642910480499,0.2831809818089008,-0.5641992326259613,-0.103496614831686,0.0696268677711486,-0.0376030914485454,-0.1657186229289509,-0.0076850326731801,0.0456026077350601,0.1971732619166374,70
1722327160530864600,0.1719053487398661,0.2736462607443332,-0.559514874202013,0.2416930245847441,9.70912719888091,-1.3582410939745604,-0.2048823237419128,1.8249765634536743,-0.0303194187581539,0.191218751363829,0.2017921292614828,-0.7270013504188024,-0.6278410186984705,-0.4984590113162994,0.1318812817335128,-0.217846468091011,-0.1036784011393785,0.1933896517246961,0.2204168479252606,0.0296621918678283,-0.0400937758386135,-0.0265287931081955,-0.005150640849024,0.0548886056024115,-0.0066172741317306,71
1722327160570636500,-1.651322853681445,0.4624485846787691,0.2025849117018282,0.5477454163553193,9.706922382313012,-1.2829679724559186,0.0070665832608938,3.2270212173461914,0.8484727740287781,0.2352491805056668,0.2283319070984061,-0.7164340177420911,-0.61582839123898,-0.635562539100647,0.0187679342925548,-0.0863274484872818,0.0006160860717296,0.8030372148394584,0.915047902451083,0.0441719926893711,-0.0636936873197555,0.1155780521038453,-0.1141204312443733,0.0687132880790159,-0.2676148168266751,72
1722327160650181000,-0.9802943546697496,-0.5135907428950071,-1.8818682238459583,1.5367967491827903,9.652408117315172,-0.7997879307199269,-0.5867666006088257,3.0006682872772217,0.8082669973373413,0.3537176119195043,0.2804449387511622,-0.6798003167465286,-0.5780190515077827,-0.8991875648498535,0.0206534508615732,-0.3057745099067688,0.3625456104248762,-0.6452437771528959,-0.7967033356428146,0.0191302448511123,-0.1001045554876327,0.1303308914091903,-0.2437507957220077,0.0217912957079242,-0.1615664899518713,73
1722327160689952800,0.1987137693569064,0.030442484536767,-1.7550561998784542,1.9426006327062844,9.608764205899837,-0.2614601118555292,-1.0904077291488647,3.629739284515381,0.8213426470756531,0.4128643049934328,0.3011712728858399,-0.6500973929928622,-0.5623276716573512,-0.9263073205947876,0.0405025742948055,-0.3752190470695495,0.5080056362390518,0.3861334067612886,0.2132207258760929,-0.0058713164180517,-0.0708640664815902,-0.0042558904644873,-0.2465161830186844,-0.1196946114440448,-0.0610162901358911,74
1722327160729725700,-1.0494036928616464,-0.3323901261359453,-1.7154969274282454,2.196225995815545,9.551262449523806,0.3469112207783386,-0.8651608228683472,1.2260602712631226,0.5276806354522705,0.4586210744473308,0.3114998976274535,-0.620709484265101,-0.5543953314125422,-0.6173939108848572,0.0934586822986602,-0.3790217638015747,0.3250467776358127,-0.6264052211701869,0.1041091937720775,-0.0086607811972498,-0.0939768254756927,0.0579367685261182,-0.2063499838113784,-0.0250771626779111,0.0586804812991991,75
1722327160769497300,0.7421230196714401,-0.4485071530878544,-1.077950645975396,2.222646823620796,9.52163478850126,0.7541349445044994,-0.8319810032844543,1.7323216199874878,-0.1559771597385406,0.4821447824886016,0.3182836373475424,-0.6002044204474513,-0.5531606355147427,-0.4647830724716186,0.0710967555642128,-0.2915135025978088,-0.2048462807625532,0.276250305762887,0.0895709653317928,0.0119988322257995,-0.1440697014331817,0.0237239716704003,-0.175141841173172,0.1025869161082431,0.0766838559662457,76
1722327160849042000,-0.7421919932544231,-1.1110311508655548,0.8112064927697181,2.187092402897775,9.3569609436512,1.958136493881792,-1.1933051347732544,1.5272090435028076,0.7898675203323364,0.5335381283054617,0.3199763108610451,-0.545690370520614,-0.5614038731024741,-0.7475114464759827,0.1179345697164535,-0.1617842614650726,-0.1941775872319936,0.5389776976078748,-0.373185662382841,0.0728772357106208,-0.1219940185546875,-0.2005229742033407,-0.2245020121335983,0.0983651793605182,-0.1819810265470296,77
1722327160888813800,-0.9447638993442058,-0.9627969841629266,0.903960764312744,2.504287297989428,9.156203978028891,2.462286769866944,-0.8578657507896423,1.2629876136779783,1.4843344688415527,0.5675906641953852,0.3111606551431201,-0.5269130519872463,-0.5508016939637825,-0.6540627479553223,0.1618046015501022,-0.0568214245140552,-0.0474321977823972,0.1097790561020374,-0.0817311385516077,0.0425858125090599,-0.074167214334011,-0.2369017351876013,-0.2698395550251007,0.1372438217359595,-0.1294485008177813,78
1722327160968358400,0.1755266627758741,-1.303187461403012,1.1700605552002787,3.0264187824755906,8.767110552418231,3.185739868120849,0.063291035592556,2.109172344207764,1.2176822423934937,0.6430237957948634,0.3176813219688866,-0.4864679372979749,-0.4989467056861952,-0.5092669129371643,0.1586678922176361,-0.0592114105820655,0.0318599501192569,-0.1961415807813405,0.1075125724747776,-0.0101008852943778,-0.016102286055684,-0.1865773048287257,-0.2624049782752991,0.0546828356309328,-0.0596846625062171,79
1722327161008126200,-0.1513636969000101,-0.3516138820439577,0.2103378639161586,3.218036748352646,8.621485691431165,3.388895127056539,-0.165143996477127,1.1237444877624512,1.1130114793777466,0.6694182049012656,0.3217804144465795,-0.4729395311849873,-0.4739882141433301,-0.2654308080673218,0.2010587453842163,-0.0806263536214828,0.097189039120078,-0.1395259595900773,-0.5039527075864374,0.0085970573127269,-0.0054248585365712,-0.0984872622370719,-0.2882028520107269,0.0657718460659496,-0.0575195431944681,80
1722327161087670800,0.2601905668437481,-0.1312690033763647,1.0266910719245672,3.5362650781452656,8.42792594383657,3.554613804784417,0.8831985592842102,0.877985954284668,0.7400066256523132,0.7054563407877348,0.3315879583071681,-0.4569623243517846,-0.4284462669904929,-0.3153749406337738,0.2302441298961639,-0.0886774882674217,-0.1232359190464019,-0.2382727495461702,-0.3685153324842453,0.0556949228048324,-0.0065030273981392,-0.0010907642254554,-0.2826082408428192,0.0612404816800495,0.0272481180754024,81
1722327161127442700,1.1763619934320448,-0.3541764260083437,0.5699386530607938,3.601566694617272,8.480246498182415,3.3592458387240764,0.7282891869544983,0.4768829643726349,-0.0093413796275854,0.7089347509596575,0.3442780694386366,-0.4584743675124261,-0.4107133889507431,-0.088717296719551,0.2517169713973999,-0.0633889064192771,-0.252960031068325,-0.3678939857155084,-0.4540754547394812,0.0196582991629838,-0.0300828609615564,0.0037802965693146,-0.2599304914474487,0.0823061436942778,-0.0670252299607964,82
1722327161167214300,0.9820914672195912,-0.0157762458026409,1.4759344303324815,3.4590029747664928,8.62293062954247,3.138589409889281,0.9459450244903564,0.2775983810424804,-0.3378752171993255,0.7046379005000589,0.3613184389296996,-0.4576302678603626,-0.4043623287792401,0.0378081537783145,0.2905261516571045,-0.0467079356312751,-0.1584083547145128,0.0658902300149202,-0.3797602184675633,-0.0017183882882818,-0.0167536810040473,-0.1242649880995042,-0.2512757778167724,0.0364136998669011,-0.0868146523609757,83
1722327161206987300,-0.3224605605348944,-0.17695172714293,0.6560951337739825,3.367436159442365,8.759715181469916,2.845724069412052,0.8303422331809998,0.2657617926597595,0.0416280068457126,0.6987594646884033,0.3783782963530804,-0.4601503236880593,-0.3960135559286155,-0.1638972759246826,0.2387644797563552,-0.0371982529759407,-0.2743313203990459,0.1506704539388418,0.0439301810108125,0.0194031782448291,3.50725604221e-05,-0.1272898706123232,-0.284025639295578,0.0579963714925572,-0.1590045670419931,84
1722327161246759000,-0.1158721122801303,0.0466699812382459,0.344071211579442,3.384705274151265,8.808135221245884,2.6703783161610364,0.516659140586853,0.5434271693229675,0.2266062796115875,0.6985386833575715,0.3887016766120385,-0.4612587108405658,-0.3849613147699627,-0.2716050744056701,0.1933086365461349,-0.0818857625126838,0.0056786301583051,0.0691010087549686,-0.2890202093563974,0.0582759231328964,0.0282059218734502,-0.1745096312204375,-0.2424172163009643,0.0523497804403305,-0.0303965128034586,85
1722327161286530800,-0.1875485244810581,0.091083123460412,0.1500368322104215,3.4183737349972128,8.823427482923865,2.5753128450661897,0.4842940270900726,0.5292093753814697,0.3461575508117676,0.702097807813525,0.3976243424743317,-0.4589013758761786,-0.3719719129560233,-0.0832706019282341,0.1878977864980697,-0.1316406726837158,-0.0078436992377042,-0.45922027028203,0.2891676550030708,0.0897034034132957,0.068539947271347,-0.1912726047717966,-0.1828351020812988,0.0017376985255366,-0.1058082801743876,86
1722327161326302500,-0.0696180183663964,0.0137403560608625,-0.246273977433145,3.522655362726748,8.81338305877149,2.4668960172280667,0.4106940925121307,0.212227925658226,0.3745841681957245,0.7045842795225263,0.4027277790694471,-0.4604711042595981,-0.3596356219732477,0.2062938511371612,0.1622155904769897,-0.1509778201580047,-0.1023410150557756,-0.2694236746132373,-0.1417173321545124,0.0747770443558693,0.1214993074536323,-0.2164270476367324,-0.1403861045837402,-0.0626150123031111,-0.1506737510076258,87
1722327161366075400,0.5069724937990308,0.0197451494336128,-0.0860100579798221,3.5782837264463305,8.824735058391093,2.3431435269616543,0.4844094216823578,0.2337989211082458,0.1033296659588813,0.7047568607300987,0.4086849908323655,-0.4620708884245152,-0.3504066518076471,0.1398375928401947,0.1433241367340088,-0.2629026174545288,0.3553735268384218,-0.2392395487517118,0.5229777260519564,0.0672103837132453,0.13749361038208,-0.0730854113491717,-0.1070150956511497,-0.0320142227989388,-0.1665883367018774,88
1722327161405847000,0.3596989888221025,0.0116530283927917,-0.1255269525930285,3.5678394893214103,8.86754427254796,2.1926208109304306,0.4742788076400757,0.0622212812304496,-0.0951131582260131,0.7021090110434075,0.4163633633259528,-0.4635180717380219,-0.3447254094366517,-0.466518372297287,0.1249719783663749,-0.0743603333830833,-0.340402752199769,1.273918696820736,-0.4954839352529496,0.0537956915795803,0.131341204047203,-0.0565343589488649,-0.0852744877338409,-0.0536606027439935,-0.093713773358101,89
1722327161445619000,0.0706692809849977,0.2336900979310274,0.2507511228471994,3.539786822530627,8.912908431884645,2.0494776837565003,0.3867212235927582,0.125479593873024,-0.0038877078332006,0.6986245039427391,0.4233251967987527,-0.4650822469006287,-0.3412009433867397,0.1500047445297241,0.2784366309642792,-0.0163072198629379,0.3523877890259027,-0.1974000564098358,-0.7355436412811279,0.0676790624856948,0.1052351146936416,0.0149846935661509,-0.0605835765600204,0.0022056317019392,-0.0279188386775087,90
1722327161564935200,-0.0219520118281245,0.0885609115064144,-0.1009096670784056,3.2924314796015617,9.037686904197932,1.910626993079484,0.2418009936809539,0.3051365315914154,-0.1695778220891952,0.6977728233000545,0.4447841545383741,-0.4524955118985435,-0.3324574122340475,-0.0298393331468105,0.1816994249820709,-0.059721540659666,-0.1674187596440315,-0.5483610275030136,-0.0768411745529621,0.1351177245378494,0.024707980453968,-0.0369023282006382,-0.1133494898676872,-0.0158825431632401,0.0577804911190178,91
1722327161604707800,-0.1025663482442498,0.0542220040529966,-0.6125060212858021,3.236725666731596,9.069781247594952,1.8528519727200268,0.1976783126592636,0.2090632319450378,-0.1381225287914276,0.6969894653622412,0.4506648100738371,-0.449924512139907,-0.3296586572346463,0.0722492188215255,0.1678076386451721,-0.0560175515711307,-0.0533294391274452,-0.5745563759893179,-0.1003985026858746,0.1680428981781005,-0.0001088929129764,-0.0190006101100472,-0.1423433572053909,-0.0091382262812257,-0.0273453359387582,92
1722327161644479700,0.154784318998456,-0.0310083017259836,-0.4338870915830135,3.156246647132933,9.1048835406363,1.819231881060451,0.1492966413497924,0.1582724601030349,-0.1994300484657287,0.6959518115190664,0.4556525052658104,-0.4467950139172656,-0.3292509224009271,0.1319974958896637,0.1368066221475601,-0.060978353023529,-0.1378752697736024,0.004060089045763,0.3655109265038743,0.1752803176641464,-0.0094758411869406,-0.0405785461950814,-0.1743929833173751,0.000191133520528,-0.0020539625421195,93
1722327161684251600,-0.2233621806621551,-0.1224514906704425,-0.2409463526695966,3.076352441684901,9.143803346139192,1.75991781456545,0.3098918795585632,0.1583881080150604,-0.1443966627120971,0.6944167254501613,0.4617517961790921,-0.4439081478769012,-0.3278967623122688,0.2790205180644989,0.109378844499588,-0.0669843778014183,0.0465805493891239,-0.2552811674922705,0.4296154786784201,0.1646665334701538,0.0087958229705691,-0.0579928734943736,-0.1762976944446563,-0.0559299450486199,-0.065110281451256,94
1722327161724024600,-0.3931839097946882,-0.1974094087600708,-0.3529522910408675,3.021568419834971,9.17372151454091,1.698044857367873,0.0619428344070911,0.3877682685852051,-0.0260180421173572,0.6935463212544559,0.4676914046730712,-0.4412352591490738,-0.3249150333717657,0.4116917550563812,0.0800329893827438,-0.0631892383098602,0.1179103401094674,0.1093646300822496,0.0903997808387503,0.1418856978416443,-0.0046622538939118,-0.0565063064647372,-0.1664394438266754,-0.0131570500223722,-0.0904988755653612,95
1722327161763796200,-0.6992921782046556,-0.2143611280828714,-0.5370090278834104,3.014335838232934,9.152215200653671,1.822396044179797,-0.3281238973140716,0.7710325121879578,0.2426583170890808,0.700406156350671,0.4683038422953764,-0.4333303246768702,-0.3199180939050838,0.4669355452060699,0.092715285718441,-0.0888966619968414,0.0416682274281978,-0.0652554392427206,-0.0776373664319515,0.1327909678220749,-0.0163519084453582,-0.0426965292963199,-0.1678143292665481,-0.0712215948052471,-0.1008142986788414,96
1722327161803568000,-0.6354582961976528,-0.404506683319807,0.4199123422443866,3.0896646354615687,9.07989639889598,2.044469354075193,-0.1538714915513992,0.9787114262580872,0.5779781341552734,0.7137873739485702,0.4666299104955183,-0.4219213159086603,-0.3078093584942091,0.3932290971279144,0.0645506009459495,-0.0646732226014137,-0.074249477559328,0.2093587897509336,0.3111667208433151,0.1361819356679916,-0.0280174706131219,-0.0103255609150044,-0.1604254692792892,-0.0533984309767372,-0.0688917133858427,97
1722327161843340800,-0.4785422258675098,-0.2706464944064617,0.5163476403877139,3.26509397534281,8.989581921720504,2.167253437700868,0.0145249916240572,0.6792112588882446,0.6841531991958618,0.7250402817084574,0.464920102971381,-0.4163533651728537,-0.2912317445686499,0.0763387680053711,0.0060108588077127,-0.0397255271673202,-0.0088812255918979,0.3688578623116016,-0.1369184074401855,0.1471942365169525,-0.0538485646247863,-0.0332061862295959,-0.1551501750946045,-0.0550870599171146,-0.0188894390698638,98
1722327161883112700,0.0679337185412645,-0.3035264352232217,0.1960141550093889,3.4847619776621457,8.909933215466141,2.15404441203773,0.3432271480560303,0.0731315538287162,0.711772084236145,0.730486326535898,0.4637306958202056,-0.4184831429692089,-0.2760714244041539,0.2104331851005554,-0.0104741612449288,0.0071009001694619,0.0125187053114175,0.0837391904383897,0.02641103478031,0.1583181619644165,-0.0563272945582866,-0.0647699892467586,-0.1688152551651001,-0.0761498632539762,-0.0670600546790054,99
1722327161922884400,-0.1716129964634776,-0.3144049721121787,0.0955510626547038,3.738673610366881,8.83701410972774,2.02481349036023,0.4407530426979065,0.3091412782669067,0.8683367371559143,0.7316114827670527,0.4640566334295226,-0.425928022250487,-0.2607322419934322,0.0246569328010082,0.0031433799304068,0.0323317535221576,0.0027677111476659,0.1315092418730258,-0.1060953991532325,0.1570745557546615,-0.0585890971124172,-0.0320593223159899,-0.1635550111532211,-0.0353204361539217,-0.0397077547099208,100
1722327161962657300,0.7111351762115955,-0.5648895529776812,0.6084983930796385,4.008883759182691,8.736599094298482,1.9419247792713343,0.7306060194969177,1.1946382522583008,0.9741787314414978,0.7374955489175116,0.4683197085659153,-0.4262229964588068,-0.2347571104013283,0.0595832243561744,0.0027653705328702,0.0325993336737155,-0.0148451024323701,0.0376069693386554,-0.0565700284838676,0.1504034399986267,-0.0641674101352691,-0.0645580635291291,-0.1718818992376327,-0.0038914002524834,-0.0645228460852755,101
1722327162002429000,0.88442312014997,-0.3284434343367814,-0.5224409888267517,4.2348286498144265,8.623753636363148,1.9665932104513049,0.4085263609886169,1.5573643445968628,0.9440447688102722,0.7480946565763166,0.475472182180865,-0.4167227527717647,-0.2015509937979027,0.1151588708162307,-0.0256154034286737,0.0171226412057876,-0.0558645105630159,0.1191395896434783,0.1703337703078985,0.1551006883382797,-0.0513919033110141,-0.0703441361172823,-0.2116907238960266,0.0044039437513478,-0.0833983502446208,102
1722327162042200800,-0.2321270863980054,-0.6061597209990024,-0.1765039833754301,4.457444103762507,8.459290803915263,2.177607658454776,0.1820461004972458,1.8006279468536377,1.2309650182724,0.7634767003142422,0.4765303934325376,-0.4023576661892879,-0.1677213078277681,-0.0740813612937927,-0.0872283801436424,0.004065629094839,-0.2820890949189663,0.1718734009653329,-0.1110953993976116,0.1555716544389724,-0.063955582678318,-0.0587439384568482,-0.2467145472764969,0.0283168113194173,-0.0424324395666131,103
1722327162161517000,-0.3205062115967274,-0.1775263121604919,0.2663917595714331,5.052796015021205,8.003423351192474,2.56609844199717,0.5524305105209351,0.7209481000900269,0.9430219531059264,0.7907601917052992,0.481133267853766,-0.3710473864937474,-0.0743839956251145,-0.233168214559555,-0.0434814319014549,0.0074154194444417,-0.14125555986166,0.3076052289694547,-0.2347802312552928,0.1290417462587356,-0.047432005405426,-0.0707835550144314,-0.4170279204845428,0.0711534203732851,-0.0685056869100546,104
1722327162201289000,0.0581312864512205,0.0028612346500158,-0.3819207575023174,5.271810521867871,7.8769053417354815,2.516501175135374,0.4032423794269562,0.3754255473613739,0.6950699687004089,0.7909417861911018,0.4832673184058862,-0.3716811072915885,-0.0521255964383244,-0.1532875001430511,-0.0650141611695289,0.0078775444999337,-0.2723258257955313,0.1542810456514358,-0.2447100891172886,0.0984340533614158,-0.0242334827780723,-0.1487119768148288,-0.5005874037742615,0.0585770894233835,-0.1376057777829933,105
1722327162241061600,-0.4066571393519639,0.0593073444932699,-0.5117112127587199,5.435078591573238,7.77466895609796,2.4869275823876262,0.1840923279523849,0.1340018659830093,0.582342267036438,0.790800128221865,0.4833792664484599,-0.3735591960632358,-0.0378559145158689,-0.1497558951377868,-0.0897344127297401,0.022590110078454,-0.1584557009875774,0.1265682783395051,0.0855693284749984,0.0735293477773666,-0.0299415532499551,-0.1351857932276092,-0.5647696256637573,0.0585133765374077,-0.1369211199870798,106
1722327162280833500,-0.5442904170632362,0.046300563403964,-0.4714630812615156,5.6300230715245005,7.658838929393887,2.411514760137349,0.1856427639722824,-0.3828100264072418,0.5919046998023987,0.7887855474920247,0.4816534344064707,-0.3808634077704637,-0.0277549110970696,-0.3462044894695282,-0.1085234433412551,-0.0133635615929961,0.0147603467583656,0.1163210250914096,-0.0079798563053831,0.0615365840494632,-0.0161396730691194,-0.1329680897786747,-0.613884449005127,0.0401703581198351,-0.0484831772732082,107
1722327162320605200,0.2315226907640695,0.2234609648615121,-0.4800608137369155,5.82760316067636,7.559789357098936,2.249226349119097,0.0092248972505331,-0.5955338478088379,0.3843199014663696,0.7836278187313979,0.4794827423303404,-0.3942304757728619,-0.0246200472523256,-0.3281706273555755,-0.1487166136503219,-0.024826405569911,-0.0200847566515207,-0.1769365295737981,-0.0758779555439949,0.0533009059727191,-0.0119689805433154,-0.0487861240088473,-0.5560225248336792,0.0182054228780558,0.0278146522172493,108
1722327162360378400,0.1320282973110675,0.3465671200484037,-0.5468512074619531,5.980967091482877,7.456734640815854,2.189872242874652,-0.2792794108390808,-0.2646061182022095,0.4372509121894836,0.7817148662498001,0.4739457266670462,-0.404627036869337,-0.0239658559328282,-0.3341507613658905,-0.0522117018699646,0.0087488638237118,0.0946609819471836,-0.0644230800718069,-0.374990592912957,0.0610446520149707,0.0073291300795972,-0.094655228059832,-0.466122418642044,0.0409495303653646,-0.0015776793791912,109
1722327162400174800,0.1936538556188345,0.4942033208578825,-0.2744102308541536,6.139757723513245,7.303561264145374,2.265338548877835,-0.3862344622611999,0.0395136587321758,0.5384092330932617,0.7842850224474295,0.4643567832731315,-0.4109411832145564,-0.019929682350644,-0.2785471379756927,-0.1467575877904892,0.0464517027139663,0.2042868933141231,-0.1525087752819061,0.1506113441627472,0.0908512622117996,0.0270886179059743,-0.1036980191553011,-0.3845867216587066,0.0216999162135995,0.041324076465913,110
1722327162479721200,-0.1254851592779159,0.0370399831056594,0.1904752255827188,6.377344244360923,7.001613622546196,2.5450498087495563,-0.2472029775381088,0.156347244977951,0.4909344017505646,0.7935396466161013,0.4459477011512768,-0.4139676579833577,-0.0075024408079774,-0.1893166005611419,-0.0701886191964149,0.0521711073815822,0.2831412343204021,0.0117827922523021,0.2484662267804145,0.1318551152944564,0.0155981387943029,-0.0912426796699874,-0.3167415261268616,0.0597458455083891,-0.0672475309419678,111
1722327162519494100,0.1876274349361658,0.1179874969989061,0.2063499633237719,6.496385049805045,6.870836202079057,2.599803435461223,-0.1133004575967788,-0.1302306056022644,0.3683094978332519,0.7953303385176103,0.4395949187494068,-0.4173765873048621,-0.001657921214859,-0.02158566378057,-0.055859487503767,0.0505479089915752,0.1391729083687067,-0.2997299655497074,-0.0749288381256163,0.1336357742547989,0.0084363548085093,-0.1281250884606037,-0.309247225522995,0.0207324662707978,-0.1459714185355696,112
1722327162559266800,0.1206096621960401,0.0501496400475501,0.2614426127314567,6.606349399346112,6.775868346139788,2.5717957768559456,-0.0439808294177055,-0.1928470730781555,0.3554560244083404,0.7944326639156845,0.4355761468179237,-0.4232591704145513,0.0013296311353026,-0.1495108604431152,-0.0127929225564002,0.096207208931446,-0.0912374372392892,-0.0561100097566843,-0.2889654104292392,0.1133421286940574,-0.0004981436068192,-0.1203849774615373,-0.3099094033241272,0.0289640985302976,-0.1641622785987332,113
1722327162599040500,0.0066582888454198,0.1845668783217668,0.1034013377636671,6.733318659701943,6.655816902348398,2.555958156254888,-0.0623928122222423,0.0390679016709327,0.4835877418518066,0.7938958635348826,0.4311569963407088,-0.4287027427935042,0.0068615150858725,-0.0172987729310989,-0.0365798510611057,0.1193309724330902,-0.1196954699605703,-0.3620429215997457,-0.2044831465385854,0.086568035185337,-0.0197741463780403,-0.1205407982109114,-0.3296038508415222,0.0377127381179365,-0.1602696916069835,114
1722327162638813200,-0.0930576384037733,0.1143044245719909,0.0530091211318969,6.843209944006801,6.507309179401397,2.644956874656677,-0.0666763186454773,0.4652842581272125,0.5860527753829956,0.7965980030866361,0.4256187044746113,-0.4289445669614066,0.0169405706960742,0.0544454529881477,-0.085367739200592,0.1742042005062103,-0.2786749025613069,0.0273018484234809,0.1664801636196672,0.0707320123910904,-0.0123430462554097,-0.1371199030953459,-0.3823665678501129,0.0188555641997256,-0.2363591344771906,115
1722327162678586000,-0.3469225093573331,0.0395849914133548,-0.2199409740418195,6.946389747974276,6.323754108470678,2.815704194201529,-0.1175590753555297,0.5182099342346191,0.6660033464431763,0.8016410058710809,0.4184259082226199,-0.4258624197523166,0.0305395292519801,0.230303555727005,-0.0845372006297111,0.2203641086816787,-0.1739572215020656,0.1013701241970062,-0.0526128152906894,0.0401652492582798,-0.0083219092339277,-0.226093139996007,-0.3697340786457062,-0.046870065821032,-0.0922016426289454,116
1722327162718358800,-0.1772235298216342,-0.0610667553812265,-0.0015261866539716,7.072074813738465,6.126776661387086,2.9357702510401604,0.0441548898816108,0.264527678489685,0.6722486615180969,0.8048114957683368,0.4115451781858221,-0.4253797558255637,0.0442842187478619,0.2931618988513946,-0.1910333484411239,0.2425520271062851,-0.42956689029634,0.4291542178422212,-0.0283608559571206,0.0250815078616142,0.0160398315638303,-0.1832489093246869,-0.3744281232357025,-0.0480315108158392,-0.1349992028806358,117
1722327162758132500,-0.1614408542782068,0.1133972465991973,-0.010904548113048,7.199944822326303,5.949019463080168,2.990039016844332,0.0341350324451923,0.3270286321640014,0.6719648241996765,0.8056940264719881,0.4069107834601983,-0.4265841583614408,0.0575032957070103,0.0839588716626167,-0.3028585910797119,0.1880232840776443,0.0948953752249479,0.3109340811312198,-0.3142845606029033,0.0244980417191982,0.0290181264281272,-0.1591416191588155,-0.3588328957557678,-0.0932011659271549,-0.0796378195341676,118
1722327162797905200,-0.5783399861812591,-0.0869452930033206,0.2233367539599537,7.308889181169867,5.72499034294188,3.1583231611460447,-0.0583162195980548,0.7328010201454163,0.8726008534431458,0.8096714323391317,0.3991924096925144,-0.4238109812905875,0.0739041833539831,-0.1082497164607048,-0.2705859541893005,0.1579854190349578,0.4343845197111368,1.028968369206786,0.1468191122729331,0.0522492825984954,0.0033337646164,-0.0985714151228778,-0.321254551410675,-0.0557388063906924,-0.067164245705842,119
1722327162837678000,-0.1196031155019998,0.0382663100302219,0.5897057220652699,7.387650583195686,5.463758158090711,3.4264176329821345,0.0393613576889038,1.164920210838318,0.8725032210350037,0.8158794489095746,0.3899437897267072,-0.4162272927167798,0.0950754067019948,0.0793012678623199,-0.3403925895690918,0.1107484698295593,0.2139081236183643,0.3113829939424991,0.7557143957156688,0.0665792226791381,-0.0053916699253022,-0.1737386468479409,-0.3085649907588959,-0.0550278085771249,-0.1895787334007211,120
1722327162877451800,-0.9497083700090646,-0.9241630098640918,0.6964297745108604,7.36871265849173,5.180903339496255,3.876944016937912,0.3208284080028534,2.133676290512085,1.2966500520706177,0.8256929886994641,0.3805287760085126,-0.3968988753943537,0.1260960275813111,-0.0441660732030868,-0.403057187795639,0.0384606197476387,0.0161906718224287,0.3059533701092005,0.7355925949893891,0.0255616270005702,-0.0149073563516139,-0.2097858195239678,-0.3114757537841797,-0.0567772871595341,-0.2813357558010146,121
1722327162917224400,-0.5081675488024949,0.5104948227062821,-0.9869429989039896,7.263108257725834,4.829322775200009,4.482776405678689,0.05332588031888,2.321507692337036,1.4307677745819092,0.836871293180336,0.3681953843042753,-0.3686111304909159,0.1679417792820566,-0.2712636590003967,-0.4002538919448852,0.037104669958353,0.0971913772076368,-0.006007131460309,0.0064589668810367,-0.0158731546252965,0.0137363830581307,-0.1727195511995814,-0.2864741384983063,0.0139910040703951,-0.2032895528398454,122
1722327162956997400,-0.2204600294798612,-0.4420627992540598,-0.5095300693273545,7.125337617370485,4.340271722538769,5.15383179269731,-0.1521344929933548,2.199129819869995,1.6162080764770508,0.8478574585414129,0.3457793176381555,-0.3430223908832485,0.2095469714922925,-0.1674728393554687,-0.3210791349411011,0.0653608813881874,0.0990209307223558,-0.2594751120507717,-0.2758113298237323,-0.0201432798057794,-0.0033202625345438,-0.1252560358303133,-0.2019926458597183,0.0078984376577136,-0.0698889305625343,123
1722327162996762000,0.7727426143407822,0.5385553805425762,0.0434416668415069,6.908005949044227,3.930222018139064,5.744840121793747,-0.1221144497394561,1.970430612564087,1.349062442779541,0.8552550173899929,0.3262512930453095,-0.3172613427627284,0.2478792369610109,0.2075894773006439,-0.3552253246307373,0.1847601681947708,-0.3902998787909746,-0.4014151470452546,0.060368251723051,0.0074091590940952,0.0314368642866611,-0.1798282324273139,-0.1442742049694061,0.0343992045396007,-0.0609497825046302,124
1722327163076307500,1.8491157088011505,0.4797705986186861,1.6347311998426912,6.244483003357052,3.216876764662564,6.843136878770589,0.1070804297924041,1.849442958831787,0.6777633428573608,0.8695319451358705,0.2822627375182494,-0.2672543259238252,0.3046588782726847,0.1816329658031463,-0.2938730120658874,0.3727177381515503,0.2880120552271604,0.2351689383119344,0.1218691607378423,0.0977812111377716,0.105633333325386,-0.2633869151996448,-0.1243649795651435,0.0213695768642472,-0.1528179690952412,125
1722327163116081200,0.918638693484664,1.2397896327257156,0.5932219134926796,5.869072650662064,3.1523733128309246,7.19631260330379,0.2468341588973999,1.0850518941879272,0.3173141777515411,0.8731158020680038,0.2735031855194129,-0.2414252795339463,0.3233863461445023,0.0096681294962763,-0.1738755404949188,0.3759092390537262,0.7055658516466617,-0.0211339734435081,0.0634172640301287,0.0706485137343406,0.0374445989727973,-0.1517088022769428,-0.1586489677429199,0.1206633103457279,-0.2065807764049619,126
1722327163155854000,0.8396580957502127,0.3581374385938048,0.8691466405630112,5.646683114424348,3.1839342800036072,7.358527364563941,0.3134611546993255,0.7476573586463928,0.1314171850681305,0.8745667489323385,0.271481208410727,-0.2260917564601318,0.3321349026491494,0.2052626609802246,-0.2806021571159363,0.352517694234848,0.2210357835412025,0.2904202854126692,0.3186063693247735,0.0004976539639756,-0.0228131487965583,-0.0423805221497081,-0.139501616358757,0.0994166885742917,-0.2251367525866255,127
1722327163195626800,0.5335936664819717,-0.087942487347126,0.765471162033081,5.4792941653966905,3.332683995012939,7.418957575607299,0.7466644048690796,0.4269729256629944,-0.0871407836675643,0.8738246553613385,0.2767862208308968,-0.2124330984219189,0.338662018492621,0.2155661582946777,-0.2382086813449859,0.2953912317752838,0.3739969787657261,0.2187941420942545,0.1515453370772302,-0.0299924500286579,0.0094263646751642,-0.1969309227944351,-0.1009388864040374,-0.0392191583422245,-0.1317912736847996,128
1722327163235399400,0.8306529515177011,-0.1483326586410403,0.1806722089707851,5.27216708022058,3.6110967395067215,7.43872493687272,0.5987695455551147,0.825719952583313,-0.3341018557548523,0.8739153068824905,0.2869103012708746,-0.195992492498161,0.3399141064932185,0.5269299149513245,-0.2659392356872558,0.2726122438907623,0.1531096637845039,0.1698947943687438,0.0416917544342577,-0.0536069124937057,-0.0125416377559304,-0.0936442609190009,-0.0659289807081222,0.0463339542169123,-0.1550077890234067,129
1722327163275173000,0.3076876465559005,-0.1142766597822308,-2.694834127503633,4.922894792866707,3.726827982011437,7.61880911682248,-0.2770368754863739,1.0101597309112549,-0.4191251099109649,0.8792763397512562,0.2839924484256124,-0.1757757934101486,0.3395945282941441,0.2756151258945465,-0.252001017332077,0.1256284117698669,0.1233732816904783,-0.6267120951622724,-0.2008838068723678,-0.0562945492565631,0.0148814562708139,-0.1450918592220637,-0.0482462085783481,-0.0385036898495163,-0.0842011271280236,130
1722327163354719000,-0.3754655900135636,0.4342924575135111,-0.3595739011377096,4.295072982896865,3.697800040447712,8.003062116664648,-0.0645936802029609,-0.1659952253103256,-0.4868281483650207,0.8940909159889311,0.2651293057918771,-0.1471864063399847,0.3296117874244574,0.2781302332878113,-0.1822138577699661,-0.0648234263062477,0.3327285643100738,0.0426291814148426,-0.2142040378250181,-0.0394269786775112,-0.020714234560728,-0.1290600220900029,-0.0791442319750785,0.0732243083632085,-0.1226158874519169,131
1722327163434265300,-0.047458793528378,-0.1204772679880261,1.2758815213263035,4.142291820414364,3.85932243552953,8.007336140722035,0.030007479712367,1.1872892379760742,-0.0061388681642711,0.899380750161798,0.2681492398231387,-0.1408384121684862,0.3152376911466454,0.3030534088611603,0.0041351942345499,0.0419578179717063,0.4101443969458341,0.3437362805366516,-0.5163292279481887,-0.0193907357752323,-0.0013566515408456,-0.1719323098120279,-0.0211218707263469,0.0338821949281729,-0.0830332249929662,132
1722327163474001000,-0.7583446711540222,-0.173441673195362,0.1218517712116241,3.91345354642868,3.921265096962452,8.09190593676567,0.3635554015636444,-0.2957040965557098,-0.1798745542764663,0.9005807573174008,0.2669695419213286,-0.1271018328889475,0.3186323776929406,0.4172787964344024,0.0429933220148086,0.044369176030159,-0.0148953713148832,0.0694926384210586,0.5001952547490597,-0.0236894637346267,-0.021691583096981,-0.1467579475370701,0.0220575127750635,0.0751040622617816,-0.1746721283057704,133
1722327163513773300,-0.2461763622775673,-0.7623045146957039,-0.0748895290285348,4.120143993753195,4.105208874949812,7.895698889532685,0.5182130336761475,-0.7300122976303101,-0.2625563442707062,0.8975497849315199,0.2806216463962573,-0.1366853248495819,0.3114050490100396,0.0410414971411228,0.0110423685982823,-0.0006740654353052,0.0795902540653944,-0.2250198847413063,-0.3433212699949741,-0.0529995374381542,0.0143974618986248,-0.2344085666649975,0.058928444981575,-0.0027344196577731,-0.1917299200852401,134
1722327163553544400,0.2584334940433502,-0.522984886445105,-0.2601081492573022,4.128940755932033,4.273501494818926,7.801244243812561,0.4207968115806579,0.3965442478656769,0.0762772858142852,0.8951280198334561,0.2900945448005671,-0.1345079556920997,0.3106420060174919,-0.1929941773414611,0.0264322981238365,0.0411180555820465,-0.0849918208479881,0.2546194887131452,-0.0738099170982837,-0.0821971148252487,0.0500718802213668,-0.1736027455085888,0.1152279898524284,-0.0406456155153457,-0.0569669416798511,135
1722327163593315800,0.7921674457788467,0.7015735671401023,-1.6470289558798077,4.061328232169151,4.344655052189529,7.797433745613693,0.0091984132304787,0.0189542192965745,-0.1104577556252479,0.894163209668422,0.2929108061963194,-0.1290146482913968,0.3130985882518755,0.0127549991011619,0.1096885204315185,0.005438954103738,0.413262821227312,-0.1655138028055429,-0.4366108174584805,-0.073986604809761,0.0235837064683437,-0.1160574148523155,0.1057796478271484,0.0183994110801955,-0.1166832733993884,136
1722327163672859600,-0.8200690136611462,-0.5101940861940384,-0.2481166826903819,3.8638472194775937,4.270138155865669,7.937693864697217,-0.2585259974002838,0.4731555879116058,-0.0321649797260761,0.8996288045129872,0.2837423869591347,-0.1215750405766467,0.3088328848923019,0.0908961370587349,0.0177772361785173,0.0495748594403266,0.0748217244893312,0.1766939529895782,-0.1128184237979352,-0.0507788024842739,-0.0283011142164468,-0.0526181673192419,0.0715521126985549,0.0430277385786408,-0.0281272093147388,137
1722327163752402400,-0.2519806646421552,-0.0432011360839009,-0.186011816433072,3.6680575208738446,4.1878634850218885,8.073260273006557,-0.1427199095487594,-0.1102249324321746,-0.2033432722091674,0.9048808951631,0.2744418408758285,-0.1142801203893944,0.3046510362848515,-0.0095742745324969,-0.0304042473435401,0.0469867959618568,-0.464753939011693,-0.4263052581518888,0.4464356075108051,-0.0265986658632755,-0.0124784149229526,-0.094607251599105,0.0905988439917564,0.0583222424460574,-0.1348671557324938,138
1722327163792174600,0.2193289796233177,-0.0070899582609534,0.3153413761794567,3.6633179251313206,4.1955964173614975,8.071397986266016,-0.1015189290046691,0.075860783457756,-0.2098725438117981,0.9064374326944508,0.2741584424424521,-0.1153706759418892,0.2998300243427156,-0.0185832157731056,0.1131447106599807,0.1315725296735763,0.2127496012330055,0.3377835096120834,-0.5595604669094085,-0.0477920547127723,-0.0330628976225853,-0.1635688975491561,0.0673099607229232,0.0071192642705398,-0.1167944238899741,139
1722327163831946000,-0.0397179701432585,0.1751557836368679,0.0824491506278514,3.5852310613662004,4.176006166228651,8.116493850055337,-0.0899790525436401,0.0606220327317714,-0.1093481034040451,0.908259909473153,0.2712590335552129,-0.1122163599295551,0.2981441444460027,0.0461385212838649,0.0198758598417043,0.0926479622721672,-0.0740109926283359,-0.5429226358413696,0.3810802150249481,-0.0314427316188812,-0.0287732239812612,-0.1390938609162811,0.0614165067672729,0.0254594285773229,-0.0627884052417939,140
1722327163871717000,0.1965852328956127,0.0175505619987845,-0.1327589496731758,3.612290333205461,4.189211392499506,8.09766932259798,0.0036305547691881,-0.3587376773357391,-0.2598505318164825,0.9092459970239548,0.2719569772638107,-0.1147743679251869,0.2934928036808709,0.0020408360287547,0.1245744675397872,0.1204550191760063,0.0878179841846227,-0.0356955827593803,-0.0745402771994471,-0.0168121643364429,-0.0474043004214763,-0.0967171107593923,0.0314825177192688,0.0505439091952983,-0.0939082090848125,141
1722327163911489500,0.2277215449154377,-0.6069914956480265,0.2370785713255405,3.6850025181949135,4.257401131628454,8.029052297967672,0.1329474598169326,-0.2493213862180709,-0.1785144656896591,0.909215316395239,0.2764445317566454,-0.1192085800866732,0.2875678955834852,0.102452129125595,0.0548834316432476,0.1098682880401611,-0.0820066675573587,-0.1787181522935629,0.2638134335160255,0.002110781148076,-0.0375561378896236,-0.1581424520536326,0.0445418506860733,-0.0010515114970621,0.0431557306061731,142
1722327163991030300,0.0845455383852124,0.1487672506660222,-0.2896422867774963,3.7370492240354416,4.380314394591749,7.938368402957916,0.1172560974955558,-0.2682868242263794,-0.1561756879091262,0.9087986693240336,0.2834630639300189,-0.122084181113326,0.2807651245283141,0.2101005613803863,-0.0119235608726739,0.0485678501427173,-0.1587853713333606,-0.2198889515936374,0.3903531433481723,-0.0368800461292266,-0.0049062562175095,-0.1352138502783142,0.0442863479256629,0.0180098249574308,-0.1401360177798196,143
1722327164030801400,0.0565913635328412,0.0980415642961859,-0.5529506933808327,3.801365336601436,4.416824216343462,7.887437841665744,-0.0167392529547214,-0.225520983338356,-0.0830471441149711,0.9084587101136258,0.2863279453459281,-0.1259718244458724,0.2772188107550558,0.8429429531097412,0.0383890382945537,0.1197400912642479,-0.0419341848880052,-0.2731283743500709,-0.2040891787849366,-0.0596706569194793,0.0088191460818052,-0.1257515551291406,0.0506015643477439,-0.0063591945885244,-0.0614260628134477,144
1722327164070573800,-0.1773024402767419,-0.0665226826995611,-0.7796767975181341,3.8655700977474448,4.391947549240291,7.870105014070868,-0.1375939697027206,-0.22591333091259,0.0224117878824472,0.9085290005003016,0.2859543400995779,-0.1302552582823297,0.2753885114295744,0.716303825378418,-0.1255766302347183,0.1092951074242591,-0.390666374015808,-0.1033668509721755,0.9071686935085804,-0.0580717772245407,0.0030040619894862,-0.0677867341188946,0.0339752696454525,0.0090671960260078,0.0004693168493133,145
1722327164110345200,0.2981014875650405,-0.0735939362600445,-0.5166939696073531,3.9560952950641513,4.3487402756765485,7.849085606917739,-0.1389175653457641,-0.3403818309307098,-0.0288007035851478,0.9085267170010388,0.2850469693885856,-0.1362212287640703,0.2734430150047959,0.6362299919128418,-0.1782117635011673,0.1596077531576156,-0.0908878931492567,0.0076093059599399,-0.0352384866416454,-0.0426685884594917,-0.0008015516214072,-0.0428442261047428,0.0338048636913299,0.0011614392865856,0.0427975693848449,146
1722327164150116400,-0.5689481807187199,-0.1894829996749758,-0.5188590386867523,4.09949780382663,4.29164826914519,7.806808892202377,-0.1977510005235672,-0.6154600381851196,0.1418440788984298,0.908103542572774,0.2843165082697433,-0.1453535255838575,0.2708958662737177,0.7328313589096069,-0.0971867963671684,0.2450340986251831,-0.240429050797224,0.0932978769004344,-0.052665349195525,-0.0236316248774528,-0.0239349752664566,0.0056583014687959,0.0102286357432603,0.0409568505887174,0.025982993510412,147
1722327164189889000,-0.596085778491199,0.0405585126206278,0.0885439603716135,4.314729869525134,4.166801992292702,7.758302343186735,-0.2994536757469177,-0.3542060554027557,0.3783824145793915,0.906255887114614,0.2819256637983795,-0.1579702349774108,0.2725134953943118,0.350857675075531,-0.2305557578802108,0.3008064031600952,-0.2833902406454086,0.2116729119122028,0.1945627871572971,-0.0108297709375619,-0.060344360768795,0.0570298828142695,-0.0118277138099074,0.0679182332777651,0.0852509101755917,148
1722327164269431600,-0.0643479690089821,-0.3107385585591197,-0.3016623949170112,4.659868418075144,3.9149098827168345,7.689570752266049,-0.2221652269363403,-0.5381341576576233,0.1958779990673065,0.903097262959166,0.275727216443233,-0.1786491403485967,0.2765400633254072,0.4980045258998871,-0.2800821363925934,0.422551691532135,-0.3043038493365049,0.0669207421064376,-0.1719265924572944,-0.004941058345139,-0.0424080118536949,-0.0004394194679713,-0.0368074625730514,0.0667494726261822,0.0148926656178548,149
1722327164309204000,0.0757891082167625,-0.1075271855220198,-0.080987845903635,4.815265608274936,3.7977404241025448,7.652500958544016,-0.3249675333499908,-0.310202419757843,0.1506998836994171,0.9021294479670464,0.2724314353474055,-0.1887118294073139,0.2762813155254606,0.2109245359897613,-0.1896448135375976,0.5048195123672485,0.1137666644334793,0.8326707210808992,-0.4681657932817936,0.0033795393537729,-0.0129768718034029,-0.0987191164978779,-0.0091320108622312,0.016644223134563,0.0764476177912671,150
1722327164348975000,-0.0653711745768785,-0.1060503909677267,-0.124332482111454,4.931885324051976,3.655155076941848,7.6476617018193,-0.3739320039749145,-0.3471640348434448,0.1683495789766311,0.9020708463763184,0.2668989891377291,-0.1970854852287448,0.2760261456516575,0.4097449779510498,-0.1527070999145507,0.621009886264801,-0.5613403360635042,-0.1521037016123533,0.1572819810330867,-0.012326824478805,-0.0039934245869517,-0.0004394194679713,-0.0176848471164703,0.0667494726261822,0.0148926656178548,151
1722327164388746500,0.1200140343904495,-0.1721001954585313,0.0626928952783346,5.064928935885429,3.5203912171870466,7.623891534653305,-0.2676732242107391,-0.3186261355876922,0.2389991581439972,0.901256390170839,0.2623659959513847,-0.206043185816747,0.2764907335695784,0.2479467391967773,-0.2064695507287979,0.6240090131759644,-0.2260638408362865,-0.2304354800492525,0.1944873655672185,-0.0348591394722461,-0.0244581047445535,0.0261454746127245,-0.0303608160465955,0.0928679701837245,0.027939735335065,152
1722327164427955000,-0.0335544790774583,0.0254097510665655,-0.0896703340530395,5.2265778799563645,3.3864772522598505,7.575291462135315,-0.2324108630418777,-0.491399735212326,0.2673128247261047,0.8993880574461351,0.2588439636453113,-0.2162578059351187,0.2780888480185385,-0.0335725508630275,-0.2800707519054413,0.507128119468689,0.1962450411558151,-0.2339829433977603,-0.0583808955644257,-0.0243138615041971,0.0104641020298004,-0.0561865364584606,-0.0585392266511917,0.0329800630232552,0.0414352269564988,153
1722327164468290000,0.5640145237088203,0.3514712587028741,-0.0894014539837837,5.349962852084636,3.254645354303717,7.546890712559223,-0.3691268265247345,-0.0712960138916969,0.2267336100339889,0.8980915338052332,0.2546569149624969,-0.2244225976929612,0.2796709756698252,0.4125564694404602,-0.3656828701496124,0.4660713374614715,0.0100394557163119,-0.4531570247203111,0.1950169606655836,-0.0173526667058467,-0.018941530957818,0.0436875724605517,-0.0709877535700798,0.099736851306213,0.0838885631806682,154
1722327164508061400,0.4687386247336864,0.4102764988929033,-0.043210196173191,5.393913052970171,3.089447777840495,7.584945425665378,-0.4246189892292022,-0.1634886860847473,0.1143296957015991,0.8989347709672572,0.2466608424373744,-0.2289843683083768,0.28042966428245,0.2181078791618347,-0.4019076526165008,0.333948403596878,0.3686971187919378,-0.0761392368286848,0.3771288470506668,0.0045830830931663,-0.0153046753257513,0.0021179825304163,-0.0722152218222618,0.0714127334631746,0.0987603344242554,155
1722327164587733200,-0.8428887482345103,-0.1596869963482022,-0.1257926177918911,5.7149389045268295,2.924540708756447,7.413292973974347,-0.0571063980460166,-0.5909050107002258,0.2573808431625366,0.8940461101202364,0.2449166018835602,-0.2490845263518947,0.2804536265126081,1.1276458501815796,-0.2705554366111755,0.3836019039154053,0.2046814455896616,-0.801361390581727,-0.7252823595076799,0.0047346008941531,-0.0484244711697101,-0.0195958543231477,-0.1023745760321617,0.0663598842201288,-0.0085600833291537,156
1722327164627509000,-0.5669575914233923,0.2662345231831073,-0.7372896081656217,5.902435991081595,2.77784295784086,7.322241999217868,-0.4197348654270172,-0.3823239505290985,0.3733627200126648,0.8907638912726638,0.241843261089751,-0.2611156955283734,0.282612944270801,1.873296856880188,-0.0136442827060818,0.3963266611099243,0.714202162566781,0.0444493825793266,-1.487189691579342,0.0220163334161043,-0.0570456646382808,-0.0178374937479617,-0.0490566082298755,0.1378971710781566,0.2312748900154605,157
1722327164667285200,0.6942050841987133,0.3904696823999285,0.1734054328382015,5.985018997222185,2.5636761832863093,7.3333145973742,-0.383362352848053,0.1176953390240669,0.3310445249080658,0.8898790075589258,0.2330996105411668,-0.2678984493502498,0.2863747332993376,0.4629032611846924,0.2276633083820343,0.2415350526571273,0.9353706325769424,1.137961243367195,-0.8636709125656634,0.0893817842006683,-0.0477398186922073,-0.0877141584839671,-0.0327551513910293,0.1160551954957656,0.1361987879287451,158
1722327164707061200,0.9280302066862582,0.7169839022397995,0.2120253786116838,5.901729304116964,2.3736314580753444,7.463635506245493,-0.4968778789043426,0.4894503951072693,0.216704323887825,0.8922759602666599,0.2219022349107967,-0.2649903366549203,0.2904879758677808,-0.2953402400016784,-0.0273839570581913,0.1544526815414428,0.2807742129281163,0.0307592954009771,1.4171036173097789,0.0799691155552864,-0.1125525534152984,0.0749079049354419,-0.0853297263383865,0.2222945696969516,-0.119627099165786,159
1722327164746838300,0.505439000621438,0.2762178647980093,0.4639940605551004,5.801636360248923,2.202678679086268,7.593392351493239,-0.2728763818740845,0.1430945247411728,0.1620610207319259,0.8950967041476672,0.2110661493451244,-0.2613346984096917,0.293184399702412,0.2872893512248993,-0.0820258408784866,0.2086181044578552,-0.0849327841371297,-0.3032803515076637,0.0280683027513325,0.0526996590197086,-0.0893205776810646,-0.0450058291519992,-0.0469778925180435,0.1005115620057564,-0.0392105731769697,160
1722327164905943300,0.1025917749464511,0.1360844408340752,-0.1231149230152368,5.857324345201254,1.90512225818336,7.631032054057717,-0.2483357787132263,0.1699561029672622,0.1981899589300155,0.8932514364670642,0.1990170628837985,-0.2670540357191417,0.301954140352756,-0.1629558503627777,-0.0264883898198604,0.2300128191709518,0.175079211269319,-0.2997264584183692,-0.1738428013421595,0.0753509625792503,-0.0163530688732862,-0.1426622391886543,-0.0320040732622146,0.015411751880293,0.0067740298877994,161
1722327164985493500,0.7211953824549913,0.1966512838691473,0.0795171888291835,5.772776760989427,1.731728661913425,7.736054855543374,-0.1315753310918808,0.1647123247385025,0.0048084259033203,0.8951441454255096,0.188795784796954,-0.2644373482165986,0.3051983869785901,-0.3957368731498718,-0.0775483772158622,0.256936639547348,-0.1102230004772543,0.4108317946881055,0.101541973632574,0.0784216076135635,-0.0248077660799026,-0.0901238682405091,-0.0581197589635849,0.0390089176916051,-0.0912807466580532,162
1722327165025269200,0.4647568616211414,0.1927620213456451,0.0965185925126075,5.722309141033888,1.6947667124800383,7.781601970231533,-0.1130733117461204,0.1463495790958404,0.0033541626762598,0.8964990284889506,0.1856244180517953,-0.2622828576216431,0.3050258646772845,-0.4061352014541626,-0.1415822803974151,0.2868735492229461,-0.0830874485313892,0.2263707148283719,0.2720234818480909,0.0602916255593299,-0.021935649216175,-0.1511895824421197,-0.059720579534769,-0.0127110678120516,-0.0952914527372922,163
1722327165104821500,0.2099468187719583,-0.0347613706491887,0.2036936035960912,5.698493965682387,1.653541260383278,7.807903701701759,-0.0231734737753868,0.053614005446434,0.001226729596965,0.8975574935844617,0.182639755295508,-0.2618213535576111,0.3041101814575021,-0.3817374408245086,-0.0886499211192131,0.1835887879133224,0.1413964296370744,-0.4171972380667925,0.0883486569952219,0.0296010579913854,0.0422505587339401,-0.2050387711273506,-0.0139955570921301,-0.1109606123031117,-0.1122450534899253,164
1722327165144598500,-0.026540800923109,-0.0270199627421796,0.0681833093881607,5.676707081288099,1.643854271366447,7.825798839354515,-0.0034848265349864,0.0633221343159675,0.0399149507284164,0.8978976880472677,0.181776733671898,-0.2606770343096364,0.304605519547129,0.0005976690445095,-0.0367712825536727,0.1313879042863845,0.1187842003345489,-0.2940104188591241,0.0455873736333101,0.0251482669264078,0.0503076091408729,-0.1187188982796855,0.0079964054748415,-0.0846436649974435,-0.0736912637212546,165
1722327165184374500,-0.0173638072550296,0.126763362520188,-0.0047866497546434,5.67336595416665,1.6421028976544736,7.828588762333989,0.0568285956978797,-0.0002483488933648,0.0491768009960651,0.8975391311586014,0.1819818926123909,-0.2602607223841314,0.3058929705040037,-0.0380394719541072,-0.0597064234316349,0.1025465950369834,0.0744596131786704,0.2002121912211179,0.206053318464756,0.0198160745203495,0.0446094907820224,-0.0644302906973054,-0.0109433885663747,-0.0531435931325657,-0.0716303354363422,166
1722327165224150500,-0.1410790342509746,0.0652877340771257,-0.1925508628129959,5.669440305155516,1.6329495771229263,7.833346185994148,-0.0011870991438627,0.0826929360628128,0.16365846991539,0.8970825345523533,0.1819130730599759,-0.2598425335980541,0.3076239407845311,0.0029519035015255,-0.1123526394367218,0.1146061867475509,-0.0865150848925113,0.1447773042470216,0.2791479269005358,0.0022019331809133,0.0639301910996437,-0.1124653543102554,-0.019853601232171,-0.1191849266225472,-0.0664935251037357,167
1722327165263927600,0.1217845511943101,0.1961668613530695,-0.1906231096208095,5.653628403517604,1.572250193749368,7.857156100648641,-0.0606105700135231,0.045693214982748,0.2049968838691711,0.8963391745972512,0.1795598637759364,-0.2591424222954501,0.311736268405365,0.0472890064120292,-0.1502481997013092,0.1343932151794433,-0.1186041675925254,0.113338209888339,0.1504243702232837,-0.0062661184929311,0.0397797003388404,-0.0319034970000386,-0.0220870692282915,-0.0440690780248492,-0.0436003462682478,168
1722327165303703600,0.5093979673802852,0.2000837425358593,0.0381599270462989,5.66719340301156,1.539453401171416,7.853876932847499,-0.0264215748757123,-0.054860446602106,0.0327986404299736,0.8957071187726146,0.1786086717953046,-0.2601204693988185,0.3132809159703337,0.3416529893875122,-0.189586654305458,0.2139024138450622,-0.2787763171091675,-0.0316541984140872,0.2576416130132973,-0.0030454732477664,0.030772166326642,-0.039643607999105,-0.0222979485988616,-0.0523007080010604,-0.0254094907716615,169
1722327165343479300,0.3135644296348094,-0.0112242815867066,-0.0090010525792837,5.675081525912881,1.5346847254648803,7.849113079446553,-0.0155024733394384,0.0147118289023637,0.0133758978918194,0.8955486706066546,0.178562159058692,-0.2606188110299963,0.313346382670731,0.2728853821754455,-0.260757714509964,0.2871909439563751,-0.2313122628837823,0.3156231157302856,-0.0199859724521636,0.0005101235583424,0.0157929304987192,0.0057860743006196,-0.015569812618196,-0.0082953428621869,0.0188755064426339,170
1722327165383255600,0.207776488995552,-0.0066331544041633,-0.1139449436098337,5.6746273524045945,1.5284475846409795,7.850657970800995,-0.0584077537059783,0.0512431152164936,-0.006206729914993,0.8956530765201691,0.1781756420476236,-0.2607321802832784,0.3131735606218959,0.6323817372322083,-0.4392426609992981,0.3566130399703979,-0.2119499752879142,-0.0820551828742027,0.0918913711033761,0.0264317635446786,-0.0039027500897645,-0.0107849060720414,-0.008482807315886,0.0364818765821517,0.082505328661343,171
1722327165423032600,0.1811082623004913,-0.0201518305383622,-0.1409229669064283,5.636352859067917,1.5017135992333293,7.883322223040461,-0.1032581031322479,0.2078037559986114,-0.0010690357303246,0.8965609275905342,0.1759121089323236,-0.2590701900703918,0.3132349517714958,2.1917219161987305,-0.3438624441623688,0.4509503841400146,0.0308782456055283,-0.8996054917126893,0.2812992597155273,0.0408472530543804,0.0121737038716673,-0.0433116974860196,-0.0046889879740774,0.0274073614744353,0.0544753349266713,172
1722327165462808600,-0.045185295638442,-0.0531964603975415,-0.1693792460620403,5.58207590995729,1.469217250906676,7.927939363402127,-0.100731611251831,0.1868945062160492,0.0338366962969303,0.8977412364368201,0.1730447058115941,-0.2565991608502793,0.3134855869250967,2.9929213523864746,-0.334281325340271,0.3955291509628296,0.0915603855833411,-0.2327852580457925,-0.2055170196309685,0.0570214092731475,-0.0053012538701295,-0.042660352871241,0.0119263846427202,0.0329163547038566,0.042119880185835,173
1722327165542361600,-0.1489414381891489,0.0347042336344718,-0.0798608877003192,5.46047782124579,1.366951346913725,8.030255828538536,-0.1585161238908767,0.2006378024816513,0.0650312751531601,0.9001965142634675,0.1653469639128777,-0.2514582858152285,0.3147624983369999,1.327858805656433,-0.1203399375081062,0.2896526157855987,0.2873310872256756,0.0016518588602542,-0.7639490670323371,0.0531944148242473,0.0140619473531842,-0.0779284218003973,-0.0053092194721102,-0.0125763275249686,-0.0691000863063614,174
1722327165582018600,0.07040390804708,0.0617303338564932,0.2181967607229948,5.418901948276162,1.3126910566769538,8.067386997058987,-0.0896375998854637,0.12748783826828,0.0815204679965972,0.9008104863265156,0.1619621305228398,-0.2498919926544108,0.3160108013285535,-0.5198397040367126,0.0376593843102455,0.0773279294371604,0.3376180899173021,0.6697521954655646,-0.8762900825768709,0.0410175919532775,0.0095156831666827,-0.0784239410992246,0.0029107332229614,-0.0268339614836731,-0.0606372231238521,175
1722327165621790200,0.0731833096325397,0.068670362252742,0.1548860258072614,5.396370382994413,1.2845026346772908,8.087003551676869,-0.0222831889986991,0.0429208725690841,0.0540698952972888,0.9009338419995164,0.1603469209954619,-0.2489305688599013,0.3172393010988885,-1.289647936820984,0.1452327221632003,0.0297494865953922,0.1850979164585471,0.2655892110168933,-0.1214817688554525,0.0279321298003196,-0.0032640784047544,-0.0727656413428951,0.023329934105277,0.0141228902466886,-0.0346542296134401,176
1722327165661561600,0.2106663652181625,-0.0460033340230584,-0.0206564190596342,5.395356822037696,1.2754257403828202,8.089116013786196,-0.0166530385613441,-0.0034524409566074,-0.0055062500759959,0.900833689389694,0.1599827191261696,-0.2489485660038801,0.3176929668883941,-0.8219159245491028,0.007793472148478,0.0288937464356422,-0.2205645127676427,-0.4332879566460847,-0.0715516167774796,0.0209317784756422,-0.0022150394506752,-0.0767535054026637,0.0163244567811489,0.0476938489598454,-0.08670350187039,177
1722327165701333800,0.3001841390579938,-0.0347495340809226,0.0360924731224775,5.37961038685143,1.2756940359301865,8.099554405692219,-0.0205775760114192,0.0743513777852058,-0.0349334366619586,0.901290417419001,0.1595184885708493,-0.2481763532065611,0.3172348629221823,-0.493336409330368,-0.1308271437883377,0.1197339743375778,-0.3016897213153541,0.1551718570113182,1.0125427195847034,0.0193964559584856,0.0020123091526329,-0.1541066023999825,0.0293822959065437,-0.0172497547045932,-0.0380844666403136,178
1722327165741105200,-0.0337251594692468,-0.1786722673252224,-0.0830804342687129,5.357831101241708,1.2680340226963165,8.115178675803541,-0.0371501371264457,0.0294209066778421,-0.0108291786164045,0.9018335484279328,0.1585609960272982,-0.2471830441917338,0.3169468256607425,-0.2070756256580352,-0.1552719920873642,0.0225542243570089,-0.1664513759166002,-0.2760223422259092,0.413984705761075,0.0099798617884516,0.0261004790663719,-0.1242930451502092,0.0505670607089996,-0.0040898534255422,-0.09002955928687,179
1722327165780876300,-0.3975006039500236,-0.2750860842891037,-0.0861152719199657,5.362177021491528,1.2570078940302132,8.114023076027632,-0.0272412523627281,0.0129973981529474,0.0522215813398361,0.9017688554101052,0.1581159009808968,-0.2475869907114461,0.3170377745958143,0.2875460982322693,-0.0834245309233665,0.2368610650300979,-0.2744787660457193,-0.2626052267700433,-0.549967878177762,-0.0030143249314278,0.0387782603502273,-0.1214239925199188,0.0703509598970413,-0.016923876901227,-0.0139470667472574,180
1722327165860420400,0.1730167257815599,0.1133786880291998,-0.0647393064141273,5.288157261034846,1.142380009657517,8.179287283098697,-0.1697016805410385,0.1936891078948974,0.0433973632752895,0.9024229905136384,0.1515222384112635,-0.2449763481916727,0.3204063618975143,-0.3035305142402649,-0.0229552257806062,0.1599102169275283,-0.0865223914161324,0.0837847831457853,0.0752317665949463,-0.0158089399337768,0.043276347219944,-0.0684380787336733,0.0446035787463188,0.003558204509053,0.0128247687360388,181
1722327165900191500,0.5568360103815794,0.0978485990073531,0.0839034410893917,5.2532928684026,1.0977557819679378,8.207814873924852,-0.1019879654049873,0.0271129924803972,-0.0440414696931839,0.9034571957466422,0.148301606364458,-0.2439764870394409,0.3197610861178357,0.2863157093524933,-0.0840986371040344,0.1097117662429809,-0.0585180938117206,-0.598243541046977,0.1746644929885864,-0.020997742190957,0.0601367242634296,-0.1288524620202369,0.0049391775391995,-0.0426527906192932,-0.0035413898007478,182
1722327165979735300,0.1519236688703298,0.0362403571605682,0.1781903290271758,5.201660880842804,1.0225954001087694,8.250297340345382,-0.1302832067012787,0.0742556676268577,-0.0326598398387432,0.9053406167920708,0.1428239631291303,-0.242802812892285,0.317815426165462,-0.1066542193293571,-0.0389111302793026,0.1562409847974777,-0.0126795949615538,-0.061071431556344,-0.663278323276341,-0.0221868082880973,-0.0013580722734332,-0.0849891357005573,-0.0275850780308246,0.0252045838832855,-0.0600497877578716,183
1722327166019500800,0.0897965907812118,-0.0431024980150163,0.0865881501287221,5.211713488301634,1.0194877164170146,8.24433521707058,0.0118725579231977,-0.0951050594449043,-0.0597727634012699,0.9055696759593868,0.1425780319402184,-0.2435721354956919,0.3166820907338516,-0.4944506883621216,-0.0447105877101421,0.0953270941972732,0.2308957910373806,0.4964046302944421,0.5631722276657819,-0.0141074834391474,0.0031683642882853,-0.1133441921045537,-0.0251791272312402,0.0143140231963945,-0.0367081915847375,184
1722327166059272000,0.0778828656256198,0.0594274637416005,-0.0720481681227684,5.231408953374624,1.0284379886571318,8.230739237916469,-0.0419347435235977,0.0256490521132946,-0.0138651933521032,0.9055382168211276,0.1431871032534598,-0.2446355462051486,0.3156763264293463,0.7419604063034058,-0.1500865966081619,0.0435061156749725,0.0944007235758006,-1.0208365006774662,0.0118014969527721,-0.0082757202908396,-0.0004188917810097,-0.0792030631124041,3.89803899452e-05,0.0169092410210985,-0.0411742835985263,185
1722327166099044400,0.133733932185173,0.0500808125950396,-0.1064934585601091,5.207430111894011,0.9996268316492438,8.249472579959034,-0.0996360480785369,0.1033480241894722,0.0069421511143445,0.9060987732015364,0.1411778017548706,-0.2438499208976731,0.3155803761806412,1.5206011533737185,0.1998079717159271,-0.0060963942669332,0.3907179580725729,-0.8788461968004703,-0.7090154075786471,-0.0160518698394298,-0.0101231606677174,-0.0099017094797454,0.0063562733121216,0.091118487034738,-0.0638172916318057,186
1722327166138816000,0.043592473489046,0.0857956115115433,-0.0079062430799007,5.181003877261281,0.9757334764949976,8.26894943384528,-0.0585992634296417,0.0830186158418655,-0.0037008114159107,0.9066417444629898,0.1393999086282353,-0.2428344544891327,0.3155944816022973,0.20045006275177,0.1205665245652198,-0.0210788734257221,-0.1444777367785573,1.2868003902256488,-0.1309919400006532,-0.0316571779549121,-0.0028656576760113,-0.0588717112886719,0.0007111853919923,0.0775690047703217,-0.035324952498835,187
1722327166178587100,0.0969365256637334,-0.0977152549512684,-0.1524742884904146,5.157587345838547,0.9455616986583918,8.287073704078793,-0.0993293672800064,0.0729066208004951,0.0272405315190553,0.9071607457732656,0.1373592566273642,-0.2420935201241829,0.3155668705640218,-0.3462569415569305,0.106504388153553,-0.1410880386829376,-0.1768618569023907,0.6325087987422943,0.160507957342267,-0.0484571307897567,0.0033031511120498,-0.1109426108555402,0.023323381319642,0.0277259167711599,0.0510520596468355,188
1722327166218358500,0.2498480365276336,-0.0868941473379731,-0.0134247142404317,5.156109089979529,0.9235179168935864,8.290479128608107,-0.0459610372781753,-0.0147203532978892,-0.0156764537096023,0.9072978689093172,0.1361757099577696,-0.242403361079262,0.3154478554430074,-1.2256814241409302,-0.1477774232625961,-0.045514840632677,-0.6584560176864266,-0.1997825676321983,0.917064576035738,-0.0384203195571899,0.0509272292256355,-0.0269962622061837,0.023692587390542,0.0811345243653282,0.0050604914100957,189
1722327166258130700,-0.0499368740797042,-0.0549658081576228,-0.0324421339213848,5.157666840815544,0.9119403648898003,8.2907912632972,-0.038115493953228,-0.023038350045681,0.00486845895648,0.9074895108665147,0.1354797245500627,-0.2427602151536312,0.3149214887806781,-1.49018657207489,0.0023697845172137,-0.0325540974736213,0.1532327056422829,1.060394019562006,-0.1378489662885665,-0.0069774691946804,0.0036716670729219,-0.0108846275613817,0.0260362271219491,0.1262376216130331,0.0928277112385723,190
1722327166297902000,-0.363206120160222,0.0964651818249374,0.1818511896222829,5.156397843793035,0.890394888035953,8.293921962538361,-0.0210265703499317,0.0632257163524627,0.088525503873825,0.9072406357611488,0.1346177941797481,-0.2429109149884297,0.3158904139102449,-1.1171411275863647,-0.1696373969316482,-0.0572966635227203,-0.2437259003855288,-0.9194821585714816,0.9011088820129632,0.0029102303087711,0.0280815940350294,-0.0578008717533433,0.0388696119189262,0.0394593603062676,0.0739313104216707,191
1722327166337673700,0.1499304492264986,0.1631781263995915,0.2270224567353725,5.144996159812807,0.8850332879375666,8.301572769552468,0.0708362460136413,0.0222407579421997,0.0140908192843198,0.9070763677477856,0.1343943044764489,-0.2422307677102924,0.3169777284007423,1.1393872499465942,-0.1282621026039123,0.1652710288763046,0.4242110623516142,-1.779941050288081,-0.3331359760671853,-0.0096765486523509,0.0297834482043981,-0.0154241147465887,0.0271981451660394,0.0645438386409543,0.0428115020120749,192
1722327166377444900,0.1987280901432037,0.2408661270402372,-0.1613040761560201,5.131812268590926,0.9064055271163582,8.307425587233901,0.0305456947535276,0.0317387767136096,0.0140907755121588,0.9070604454056406,0.1353358037192366,-0.2410879235253781,0.3174938457902812,1.7925668954849243,0.1751992553472519,0.0298885703086853,0.2086133782111108,-0.230244341391325,-0.6827852800399065,-0.0020967936143279,0.0435952618718147,-0.0724739238207461,0.0233257859945297,0.0197564471457619,0.0940649705491028,193
1722327166417217300,0.2586667182773352,0.1116740760684013,-0.1216530337691307,5.124845352187752,0.9060112671017646,8.311768000352382,-0.0052404068410396,-0.01194304600358,0.0021017999388277,0.9070751877072304,0.1352489130584752,-0.240677175275074,0.3178000354295749,0.7072935104370117,0.37247434258461,-0.0464964136481285,0.3941393108233809,-0.0526379497319459,-1.233966333399713,-0.0310500580817461,0.0390404723584651,-0.0039598127172852,-0.0072335009463131,0.0740745091514894,-0.0488343744642101,194
1722327166458233600,0.1006143373936414,-0.2876329927816987,-0.1346843647778034,5.144034036782384,0.9137166538473218,8.299061663514376,0.044770561158657,-0.0820390433073043,0.0175417419523,0.9067268116534268,0.1360419240224595,-0.2415744630635966,0.317774797794048,0.1967213749885559,0.157112181186676,-0.1901769489049911,-0.4781776303388178,0.9399363330572844,1.0185890140116214,-0.0521725118160247,0.0460187159478664,-0.0238155680771451,-0.0128526017069816,0.0508032177186105,0.0733578076829202,195
1722327166498006000,0.129880763888359,-0.2765828256528824,-0.2893950340181589,5.173126275753974,0.9233166221678256,8.279893437185883,-0.011624401435256,-0.050652515143156,0.0188495088368654,0.9061981429597468,0.13714304527373,-0.2429705853700551,0.3177451598118041,-0.2598211169242859,-0.1817042827606201,-0.0208469126373529,-0.9512745964124798,0.1309761579096317,1.818938012680412,-0.0561314560472965,0.0441347360610961,0.0256499530306085,0.0071572484448552,0.0786103396499529,0.0364026030841516,196
1722327166537777400,0.0284317292362451,0.0756005268421024,0.1181324584275484,5.170128262981772,0.902879764143005,8.284018992683292,-0.0718133077025413,0.0902736037969589,0.0205524452030658,0.9061921644918384,0.1361345277405841,-0.2431048441301069,0.3180931524749,-0.5176673531532288,-0.2807289361953735,0.0368997417390346,-0.4142383882611989,-0.239724117398262,-0.489481845293939,-0.0373805053532123,0.0281461160629987,-0.0084911748198966,-0.0003609444247558,0.0760151263918262,0.0408686928146518,197
1722327166577548800,-0.2528349433839321,0.0590127454608678,0.2962555674374103,5.1489779229253525,0.8768209745831788,8.299975855749844,-0.006484393030405,0.0358913391828537,0.0194570999592542,0.906535334410935,0.1344410219693842,-0.2423728600078036,0.3183941817325881,0.1728538572788238,-0.0963112488389015,0.0713561847805976,0.1993804165720939,-0.2892313678890466,-0.3849444892376661,-0.0134734194725751,0.0198579784482717,-0.0650735113711329,-0.0047994893975555,0.0049818075713847,0.0804443958098534,198
1722327166617210600,-0.1393570327639579,0.1188671293776482,0.2686550283282995,5.151019657886028,0.8881939439255744,8.297499236503244,0.0822693780064582,0.0218717101961374,0.035459280014038,0.9062205125263966,0.1352476440288693,-0.242184559091803,0.3190909460908064,-0.1020570695400238,-0.2742959558963775,0.1514574140310287,-0.5449878978081047,-0.3472580249220132,0.153251118081808,-0.0024391249753534,0.0204165019094944,0.0027693277160171,-0.0048514632508158,0.07692171984273,0.0864048842499963,199
1722327166656977700,0.420792047688365,0.0317976254727691,-0.1553635801911354,5.138095294383168,0.9115179747592658,8.302981467306614,0.0809449926018714,-0.0245146863162517,-0.0087888063862919,0.9060579453195794,0.1363928820113918,-0.2409621213224366,0.3199896022199983,1.1713672876358032,-0.0718260928988456,0.0092612570151686,0.7067455629505217,-0.2627466810673475,-0.3736567870259284,0.0093864724040031,0.0052005006000399,-0.1134202164828311,-0.0064227329567074,-0.0435622427475638,0.0933663846925366,200
1722327166696744400,0.1433557470113038,0.0101752839904278,-0.3872667947053909,5.162493822580576,0.9356840824402868,8.28513952114582,0.0059545305557549,-0.0975507274270057,-0.0253780279308557,0.9057542477826968,0.1379930784909059,-0.2419366769847043,0.3194274103680488,0.7298233509063721,0.006200582254678,0.0148509657010436,-0.0389205361552536,-0.7722533695191145,-0.6649614540576935,0.0136982994154095,0.0553415492177009,0.0067771168940293,-0.0201034620404243,0.0202199204886448,0.0019497772235044,201
1722327166736511500,-0.0236865805357694,-0.1546361426994204,-0.102469025349617,5.172865578991175,0.9317040728934108,8.27911660759449,-0.0280587691813707,0.0204773228615522,-0.0022435260470956,0.9057331158325128,0.1379013274067279,-0.2426226733113624,0.3190060972815788,-0.0410730801522731,0.0868358761072158,-0.0528848059475421,0.2798993297897279,-0.0569178190082311,-0.8008847129806875,-0.0111076366156339,0.0282127000391483,0.0093625696640781,7.73784704506e-05,0.0653867329056141,0.0890323466767556,202
1722327166776279600,-0.3207978880196809,-0.3289139744579792,-0.1530202319353819,5.176388492420315,0.921628596015647,8.278042840883135,-0.0033767335116863,-0.030190235003829,0.0615197792649269,0.9055848569229576,0.1375554209961884,-0.2429316495505598,0.3193413661297887,0.1260187029838562,0.0256543345749378,-0.1156572476029396,-0.6026901451922952,-0.7948410489022731,-0.2584814248383045,0.0072464570403099,0.0482783168554306,-0.0061176489091216,0.0021664253436028,0.0489234638200374,0.1254140485367737,203
1722327166816046300,-0.1879968527704477,-0.0535010693673044,-0.0328916312545537,5.181104415026307,0.9013477322701364,8.2773250480026,-0.0440958254039287,0.0349782891571521,0.0825719311833381,0.9051148868540436,0.1369696827588035,-0.2433375770622931,0.3206136791621662,-0.8830021619796753,-0.1872406750917434,-0.2622690498828888,-0.3620351766847073,1.69529059022367,0.8689026026740669,0.0301584657281637,0.0307217892259359,0.0248427853831672,-0.0195461232215166,0.0818499882914591,0.0526506402501603,204
1722327166855813400,0.1174912379145622,0.1077561719723045,0.1251028819620609,5.153493354523182,0.8632422388248145,8.298596384090185,-0.0565221980214118,0.1016577780246734,0.0709300339221954,0.9052374134075052,0.1348028470614244,-0.2423170033018633,0.3219562551435946,0.7008888721466064,-0.1323071271181106,-0.1625307947397232,0.2025239752948284,-1.1207844831168652,-0.0474795440554618,0.025486396625638,0.0402637608349323,-0.0064374189153983,-0.0281509328633546,0.0027863513452321,-0.0065200534142641,205
1722327166895581200,0.2659416777163744,0.0924592341192066,0.037048166412115,5.136873643633723,0.8433744128596037,8.310934472137689,-0.0107072256505489,0.0154477031901478,0.0072216968983411,0.9053135679715096,0.1336426157946886,-0.2416607516443512,0.3227182958658399,0.9506633281707764,-0.0326607450842857,-0.1317863464355468,-0.1518222543224692,0.2160457201689481,-0.1832715778142213,-0.00120125641115,0.0220226421952247,-0.0148008203326491,-0.0183721203356981,0.0295492802903987,0.0272411494784988,206
1722327166935348000,0.34256431414783,0.0945908393204212,-0.0391238036423921,5.127437706768513,0.8520167151290923,8.315878942802549,0.0069695618003606,0.0200437009334564,-0.0581189319491386,0.90560267461117,0.1337643979426115,-0.2410710897079216,0.3222975962736174,1.572329044342041,0.0295690223574638,-0.0507917590439319,-0.1632414739593863,-1.289551150238514,-0.3240434458121657,0.0041252155788242,0.0270651057362556,-0.0357554642870323,-0.0076927505433559,0.0038840794583084,0.0369621709123835,207
1722327166975115000,0.0831231043666601,0.0177203656077384,-0.1635410414278507,5.126660292655229,0.856013602745533,8.315947331863642,-0.0602339692413806,-0.0061652399599552,-0.0334544703364372,0.905971628529804,0.1336749372397038,-0.2411134310323582,0.321264367465522,2.895712375640869,-0.1217628642916679,-0.3176984190940857,-0.451407842965424,-1.806933686631918,-0.4452414292901754,0.0044169481843709,0.0205759592354297,-0.056214584376011,-0.0154903596267104,-0.0075234891275438,0.038220329163759,208
1722327167014870000,0.0775794987648725,-0.0868614871773868,-0.0784901838690042,5.144623234847188,0.8431299365792423,8.306164188995957,-0.073759876191616,-0.0704329311847686,-0.0760123282670974,0.9062367217088078,0.132999737268741,-0.2425171058874106,0.3197365438385928,6.34649133682251,0.1059328243136406,-0.5831908583641052,0.1881461981132626,-4.217835137176514,-0.9444505956113338,0.0217874087393283,0.0326844975352287,-0.0497491146889515,-0.0141544640064239,0.0301937133904895,0.047955280941585,209
1722327167054637800,-0.3543085279554128,-0.1306472182162106,0.3566314179450273,5.130591202363371,0.8294549739047884,8.316214458367227,-0.0441372282803058,0.204666256904602,0.0479896776378154,0.9067417568154597,0.1318390902767321,-0.2420940086099791,0.3191056857176316,6.461183071136475,1.1011399030685425,-0.2242102921009063,1.230285452929884,1.7534043410182,-4.650523958885669,0.060396883636713,0.0095610190182924,-0.0766176040633115,0.0075117526575922,0.0620760420216247,0.0459082852839026,210
1722327167094404600,0.4706839135825634,-0.016589681077376,0.1206271978527307,5.088353066092729,0.8279249147932976,8.342277120384573,0.0818301886320114,0.0373271517455577,-0.0222113057971,0.9070753345900286,0.1311632833661669,-0.2397048740834247,0.3202377782303715,0.7720118165016174,0.3690212070941925,-0.2559809982776642,-1.8450830922842023,4.116976761893928,-2.029101104551553,0.0868759304285049,-0.0216634292155504,-0.0758902350702555,0.0090481927618384,0.1254613034782931,-0.0965217434509191,211
1722327167134171600,0.1719967350840568,0.175169300705567,0.022275544694066,5.088064312279224,0.860322917312011,8.339174478194117,0.0336654856801033,-0.0818137824535369,-0.0261057019233703,0.9071443021221138,0.1326792159542803,-0.2392000283349928,0.3197948397009433,0.2363044619560241,0.2608556747436523,0.2818122804164886,-0.3476892559461295,0.4657341822206974,1.9797844081968068,0.0365476384758949,0.0156057644635438,-0.2547399184887297,0.0001214195508509,-0.0633941845486406,-0.1975792489016428,212
1722327167173939700,-0.2217068146705627,-0.1385050921097397,0.0877636236488819,5.176806425571441,0.8738244231157004,8.282963930672407,0.0840762481093406,-0.4304136633872986,0.0098488572984933,0.9057840203530928,0.135092621020817,-0.2437957103044257,0.3191692443388612,-1.1367778778076172,-0.3457907140254974,0.592100203037262,-0.5527718296825885,0.8246312070101499,2.5060008239090443,-0.0237725898623466,0.0342631265521049,0.0110448059671092,0.0185398701578378,0.0531493059207219,-0.2132575872877612,213
1722327167213706500,0.2877858452558517,-0.2890955396149307,0.4386205498456955,5.295193151021003,0.9326868733856828,8.20130505363941,0.2580703496932983,-0.2670006453990936,-0.0476673655211925,0.9036145271142072,0.1405421316429724,-0.2491941251362379,0.3187960979640285,-0.8671861886978149,-0.0735857561230659,0.3538789749145508,0.4420717132128774,0.8754916256755589,-0.5498509737998247,-0.015789370983839,-0.0110906297340989,-0.0751590940843801,0.0516896732151508,0.0643453888928284,0.0173047922354133,214
1722327167253473500,-0.3064922992914914,0.2885012269835919,-0.2572714645266533,5.328031006261706,1.0109515779357403,8.170706501758097,0.0750527083873748,-0.0109919095411896,-0.0147368777543306,0.9028773557803392,0.1451498485152842,-0.2496826691116686,0.3184375030853323,-2.2417430877685547,-0.4613712430000305,-0.0906510278582573,-0.330339038825035,-1.5385300027161837,0.9234569074213504,0.0363171771168708,0.0008123347070068,-0.1433416271544061,0.0858059078454971,-0.0306007940707495,0.0159145856942515,215
1722327167293240300,-0.2196609880566596,0.2079821676354855,-0.1475455999165773,5.310182630360126,0.9961516298193483,8.184132385042309,-0.0317785032093524,0.1074208542704582,0.0598472878336906,0.9029378520676296,0.1442524938153932,-0.2488304351953599,0.319339714738039,-0.1883163154125213,-0.2668133676052093,0.1136684864759445,0.8776473424047231,-2.138242447271943,0.5541092157661914,0.0591338463127613,-0.0143625885248184,-0.0714349041957873,0.0694460347294807,0.0656444248605752,-0.0561502367357956,216
1722327167333008400,0.219720024767518,0.0859732331007719,0.2512701782852411,5.273925322064757,1.0018920001022518,8.20684515210986,0.0909489914774894,0.0720828622579574,-0.0209309011697769,0.9032479009929794,0.144006533270098,-0.2466362979298787,0.3202745298453425,-0.0123362392187118,0.1155869886279106,-0.1949852257966995,0.2133861455708742,1.2951654829889536,-1.217712825474143,0.0706375911831855,0.0061992271803319,-0.0888972033892292,0.0904344096779823,-0.0078493646476214,0.0140829247041256,217
1722327167372775200,0.0330652342557907,-0.2890126105718315,0.0216933608919382,5.292386861428618,1.0488722163334487,8.189071010488272,0.1478351950645446,-0.1740899235010147,-0.0204934272915124,0.9028165749547712,0.1467518192565395,-0.2468551614576808,0.3200758409790619,-1.224961280822754,-0.2028409391641616,-0.2762455344200134,-0.0278653275251388,-0.3948603185743093,0.1494020414382219,0.0297805499285459,0.0212090108543634,-0.0833747958390973,0.0915803462266922,0.0187252866002731,-0.0925458712230436,218
1722327167412542200,0.088138302180171,-0.2409156652703881,0.057874681341648,5.3363738871932025,1.1029778274651616,8.153338602849841,0.1500272005796432,-0.0746762081980705,-0.0119296684861183,0.9017666490660848,0.1505168119117664,-0.2482742530787841,0.3201895591824577,-0.3895327746868133,-0.0542774610221385,-0.1840008050203323,-0.0281178409814834,0.5349520953536033,0.293714066261053,0.0499299205839633,0.0313520021736621,-0.0109407291047042,0.0745981708168983,0.045230513886502,0.0863979156530927,219
1722327167457280500,0.2808563382536173,-0.010611337320134,-0.1441863526165485,5.330404165133833,1.1429191580355167,8.151743442612887,0.0645283609628677,0.0376531742513179,-0.0297517366707324,0.9016243368648256,0.1525016195437289,-0.2472246294601192,0.3204636684162589,-0.0428081266582012,0.1781949251890182,0.0258047468960285,-0.0551531474232673,1.171050443020463,-0.9179068720787764,0.0622616969048976,-0.016260715201497,-0.0175339716235874,0.1259346157312393,0.0567655099567724,0.0837704440931789,220
1722327167497047600,0.0321054493129253,-0.0525245524853467,-0.3636825055003166,5.369811461892724,1.162985136921331,8.122990226337313,0.0619876272976398,-0.3167703151702881,-0.0654426962137222,0.90110115150728,0.1541809425248482,-0.2491405001940504,0.319646481440955,-1.0443094968795776,-0.1120369508862495,0.0682623907923698,-0.4546021089620888,-0.401787487488985,0.7516261765539646,0.0533609464764595,0.0242760404944419,-0.087778391959751,0.1398099958896637,-0.0285862941768718,-0.009950292153604,221
1722327167536814300,0.021620880177617,-0.185449652505666,-0.0144745155543088,5.48968170389831,1.1981969547517597,8.037294641134142,0.0593524277210235,-0.3261073529720306,-0.0625611543655395,0.8994298116751189,0.1580780234729261,-0.2553886362963859,0.3175123397549752,0.4470755755901336,0.2403504401445388,0.2772451639175415,0.580662291648984,0.037380174845457,-0.7639186718940735,0.0119806872680783,-0.0063132187351584,0.088981356275035,0.127027079463005,0.12936001881673,-0.0044382256176846,222
1722327167576582100,0.0747206022024154,0.0492700076688081,-0.1205477028757333,5.539831343945861,1.207835282321274,8.00136115796566,-0.0586071461439132,-0.015238526277244,-0.0130973244085907,0.8987749278385948,0.1594123538254633,-0.258131383721541,0.3164797904919583,-2.845792531967163,0.1502237468957901,-0.3860519826412201,-0.5136404272556304,2.165288859629631,-0.6960451591074466,-0.0296048633754253,-0.0293784420937299,-0.0876705385379493,0.1515150517225265,-0.0547076504117809,0.1194466006328817,223
1722327167616349200,-0.0618950228989124,0.0786889213114976,-0.1745055030345916,5.518430243998766,1.163452608302608,8.02269854502678,-0.2033234685659408,0.1394209563732147,0.0085940947756171,0.8995493133138602,0.1565057914137121,-0.2578025584205906,0.315998036871229,0.491852343082428,0.3376260101795196,0.3189037144184112,0.5596113203138112,-2.113635244759917,0.9320902957320212,-0.0400418229401111,0.039152655750513,0.0370382272567017,0.1400792747735977,0.0302647442165296,0.0748313006018521,224
1722327167656175600,0.6005681846022606,0.2717252295538783,-0.0362152227193117,5.421747400835156,1.0902763859979807,8.098539675691724,-0.2712752223014831,0.4273093342781067,-0.1054392457008361,0.902064927566364,0.1502941617069314,-0.2539705821745361,0.3149438273012513,0.2980770170688629,0.2506021559238434,0.0388306677341461,-1.0088353894993662,0.622083850839734,-0.3792196818500757,0.0030130660161376,-0.0211783368140459,0.0402750240707071,0.1185153126716613,0.0809405361631885,0.1495584193100221,225
1722327167695946000,0.226098327627778,0.1949909494414925,-0.1174064822405576,5.276674328511953,1.037274571389705,8.200679615217446,-0.2002247720956802,0.4259357154369354,-0.0944006741046905,0.905613701137839,0.1438902713514918,-0.2473404196171614,0.3130208807090082,-0.7192225456237793,-0.0655949339270591,0.0288813635706901,0.0812105487436056,-0.2097024886220693,1.1824930435329677,0.0357174351811409,-0.0119433356449007,-0.0360951605531969,0.1149888262152671,-0.0191221929463907,0.0415324493864318,226
1722327167735715000,0.3812941500365734,0.0614934563606977,-0.044316111588478,5.192407314807176,1.0476205357719213,8.25298614103794,-0.0445922277867794,-0.1514709740877151,-0.4286507368087768,0.9086140176578604,0.1414216246598615,-0.2433407511328289,0.3085545233419595,0.3094324767589569,-0.0434469170868396,0.0065496256574988,0.3381941362395882,-0.5220774162113666,0.3451894019544124,0.0360564552247524,-0.0457541793584823,0.0485025258610723,0.1172104626893997,0.0397954101604875,-0.0168145758744329,227
1722327167775484700,-0.0036269583255052,-0.0880771465774625,-0.490806079635024,5.348382889416814,1.1512523943558337,8.138784007796644,0.001982181565836,-0.919649064540863,-0.5645760297775269,0.9092195516072628,0.1468825393522462,-0.2519186808800218,0.2971234266536102,0.8220270276069641,0.0983912795782089,0.0422301925718784,0.1372832952298223,0.7195657354265451,-0.3197480867058038,0.0411190278828144,-0.0832060799002647,0.0502247145777568,0.2023807317018509,0.0071947572133882,0.080086230021948,228
1722327167815254000,-0.1026549033105373,0.0893145063526928,-0.0749520728707313,5.631764362233877,1.277625003992766,7.9259882293343535,0.0420624315738678,-0.9952740669250488,-0.5261469483375549,0.9072021950087962,0.1558061101319356,-0.2676032711100602,0.2847756694541994,0.1739881038665771,0.0651672258973121,0.0204503946006298,-0.1608643695645034,-0.3833569277852773,0.2673421921640634,0.0255807153880596,-0.096575491130352,0.0405785461950814,0.282882958650589,-0.000191133520528,0.0020539625421195,229
1722327167855024400,0.2028799491256475,0.2723734643295407,-0.4139198238313198,5.925378475251794,1.4204766008742151,7.683913164895772,0.0214774515479803,-1.151808738708496,-0.743320882320404,0.9047850758959476,0.165097574028872,-0.2845562299664825,0.2704339543012494,0.4201827049255371,0.1037182435393333,-0.04458499699831,0.1862215136609971,-0.5561228936761617,0.216392926171422,0.0252205915749073,-0.1129212602972984,-0.0214221130523714,0.3243575692176819,0.0005807196432928,0.0213987846924224,230
1722327167894793700,-0.7491115633845329,-0.2675488206520676,0.0002840776383876,6.209985690471529,1.5999220445290208,7.41934745170772,0.1226331666111946,-0.9259657859802246,-0.415198415517807,0.9016811028402864,0.1758351590785336,-0.3013313155188069,0.2554461312579408,0.7895396947860718,0.1351424753665924,-0.059354156255722,-0.0992084161184728,0.13284428986907,-0.4722837499946355,0.0204165782779455,-0.1246264800429344,-0.0146169470991473,0.3529982268810272,0.0613041945660253,0.0265634625627775,231
1722327167934562800,-0.9991068994283676,-0.5056396377600729,-0.7158090132415295,6.228192962813377,1.7449382720984516,7.371240715664625,0.3930497765541076,0.965032994747162,-0.3335605561733246,0.9015312383997544,0.1826330663449558,-0.3013577204959347,0.251137831590609,0.6064484119415283,0.0739762708544731,-0.0260254945605993,0.1478410757318139,0.132217682403326,0.7443184838891029,0.0075927218422293,-0.1146067082881927,2.80507716612e-05,0.3803818523883819,0.0405035538632655,0.0032149006468505,232
1722327167974332400,-0.3787351132035255,0.6140886143021285,-2.3181226290822026,5.817462874934077,1.7362690818220377,7.70148506194353,-1.0531694889068604,0.4876834452152252,0.3707115650177002,0.9097441860082602,0.174952563506809,-0.2769930092233302,0.2550136194755256,0.4771794080734253,0.165919616818428,0.0882195830345153,0.1057677746340632,0.2230968077242374,-0.740409201490879,-0.0137570137158036,-0.1264940500259399,-0.0199636007901513,0.4173608720302582,0.0028500625187414,-0.0072047077852446,233
1722327168014097700,0.9325544061124325,0.432505135705322,-1.2482716298669576,5.617382785660028,1.2823416572511197,7.935426504287123,-1.3953675031661987,0.4551342725753784,0.2234919071197509,0.9160420444338692,0.14721539041286,-0.2715390963519962,0.2558535982607528,-0.9980035424232484,-0.0591545104980468,0.090905986726284,-0.4234735418573022,0.6668886227279901,0.1732809296756982,-0.0176082905381917,-0.1532153189182281,0.1448363135584164,0.4869078993797302,0.1370080767513252,0.0984160966970026,234
1722327168093636400,1.4187830948293207,-0.264549711901322,0.3525111231446265,5.407385113483668,0.2992655994409695,8.175635190331935,-1.4166027307510376,0.6835549473762512,-0.8917137980461121,0.934116512382862,0.078814044460731,-0.2773931489656558,0.210398856529902,-1.1978734731674194,-0.0221823770552873,0.1766672283411026,-0.0505544214561581,0.2514507955491543,-1.2060785017818212,0.0042748334817588,-0.213908240199089,0.1605284704073332,0.6639630198478699,0.2257298048426397,0.0645716125638689,235
1722327168133406700,0.5087099851161241,0.3134136960525066,0.7755915740311146,5.300820343253016,0.2169020082047209,8.247704985764623,-0.2199575752019882,-0.183584526181221,-0.9216297268867492,0.941332666009239,0.0657712628069358,-0.2741499700560612,0.1854959673145829,-1.6378405094146729,-0.008692666888237,0.1148037314414978,0.2769185604132712,-0.3558066575586796,-0.6770294929921626,0.0019027009839192,-0.2141186445951461,-0.0420008843155112,0.7452588081359863,0.102059732162673,0.1694837110835127,236
