time_imu,phone_acc_x,phone_acc_y,phone_acc_z,phone_gravity_x,phone_gravity_y,phone_gravity_z,phone_gyro_x,phone_gyro_y,phone_gyro_z,phone_ori_w,phone_ori_x,phone_ori_y,phone_ori_z,watch_gyro_x,watch_gyro_y,watch_gyro_z,watch_acc_x,watch_acc_y,watch_acc_z,headphone_gyro_x,headphone_gyro_y,headphone_gyro_z,headphone_acc_x,headphone_acc_y,headphone_acc_z,frame_imu
1721472698329182000,0.3088912501920014,20.793648432719703,-4.827817631334066,-0.1426438541485928,9.729429397675394,-1.2199359083510934,-0.9604660868644714,-0.4362708926200866,-0.2355506420135498,0.0770788343904232,0.0764195926173415,0.7458950769110755,0.6571601434125426,-0.1090859547257423,0.3901412785053253,-0.2717956602573395,15.485207677590846,-14.224154307562111,-0.1449895587582141,0.4907216727733612,-0.5195237398147583,21.687422149538992,0.6324137449264526,-1.025163350900635,-2.378364624077081,0
1721472698368934000,-1.101861317590624,18.028429686391352,-0.384385101789236,-0.1550946087903343,9.751792036131024,-1.024153735466674,-0.245730385184288,-0.2549978792667389,0.339993417263031,0.0839711808994772,0.0815150712178049,0.7386288652526258,0.663876172974321,-0.2061483114957809,0.5900241136550903,-0.0801773741841316,15.52583896318674,-16.046301929938792,3.0747330237895247,0.4428272843360901,0.5995647311210632,17.882585629695654,0.829730212688446,-0.9053301529698072,-0.0936895978980697,1
1721472698408685600,0.913230112439394,2.1734435245126487,-1.1216109240036458,0.0142238275872252,9.76539210693836,-0.8984974574055522,-0.4148293137550354,-0.1327972114086151,0.4414751529693603,0.0798008554122798,0.0885486829900658,0.7334642131309933,0.6691944250060021,0.262236475944519,1.4657341241836548,0.0874512419104576,6.051259355849028,-5.836861987408995,2.845986227479577,0.1703143119812011,2.389601945877075,0.7999689863752574,0.9896329641342164,-1.1123711672976613,0.6420736957494169,2
1721472698448438500,1.2268021408587693,-11.165692619615792,-3.394248470783233,0.111406958697969,9.79486253157258,-0.4675983686573803,-1.7985578775405884,-0.4711228609085083,0.0834755972027778,0.0832421980135939,0.0954765047119736,0.7174434606827521,0.68500355075856,1.1344568729400637,2.173457622528076,-0.7744348645210266,-4.36433736552,7.722507391706109,-2.0225025830693544,-0.388910710811615,1.2563745975494385,-11.953224806809423,1.2479596138000488,2.0754075131744143,-0.4791697466487065,3
1721472698488190700,0.5210923506967723,-14.09627611566782,3.844389947074652,0.0856880686169955,9.804370364630222,0.1932817161045037,-1.0450515747070312,-0.1985993832349777,-0.1540517508983612,0.093057677588094,0.0973041580777773,0.6933089322519473,0.70795119379106,0.7042015790939331,1.0598301887512207,-0.7641161680221558,-13.654148434484004,9.210824041488769,-6.02686024312973,-0.363875538110733,0.222999021410942,-7.170117254817486,0.2852944433689117,0.8741135422553866,-1.762423221515119,4
1721472698527942400,-0.469180011825636,-14.022576088684795,3.665525079786777,0.0302929565308615,9.804441091778871,0.2058991690826602,0.6618735790252686,0.21617391705513,-0.1226711645722389,0.0944150662479968,0.0945954170513159,0.6932198576946909,0.7082257452742485,-0.6459286212921143,-0.484726995229721,0.0171540435403585,-12.81936232868433,6.373980320885777,-6.137130882140994,-0.2404371052980423,0.4334669411182403,-9.998218866038322,0.5884039402008057,2.128343715200573,0.1421728025707416,5
1721472698567695400,0.2844524265168234,-13.111450255048274,0.0437292516112327,-0.0264773140827077,9.80625544772446,-0.0839821323487907,0.7646340131759644,0.2004730254411697,-0.1883499920368194,0.0921671770431333,0.0910586681770991,0.7042657284501983,0.6980139068241825,-0.3132374882698059,-0.3825665414333343,0.6947548985481262,-9.389873617693782,7.313332716575265,-3.689192078839242,-0.1811901479959488,0.1357086598873138,-10.272799192762374,0.6045260429382324,2.4521742489144205,-0.6253807004280388,6
1721472698607447300,0.0386760416085831,-10.868664314240217,-6.08268091455e-05,-0.0989801329210866,9.798756616401672,-0.380766911292076,0.8626577854156494,0.1910872310400009,-0.1516672670841217,0.0907803863482194,0.0871545092215893,0.7154144259363479,0.6872738555725275,-0.5701297521591187,-0.6396428346633911,0.8991235494613647,-9.3166359475255,6.678280663090944,-3.1387592134982345,-0.0519718043506145,0.0962678790092468,-9.738984577006102,0.311010330915451,2.561360307559371,-1.5366899278074502,7
1721472698647199200,0.3544268571054563,-8.132747650241852,-0.4565653718590736,-0.1362551851579453,9.776067814731595,-0.7617837056919932,0.9193986058235168,0.1133473217487335,-0.0809897109866142,0.0886032043919308,0.0856234595776801,0.7290464883025201,0.6732824663097742,-0.7238633632659912,-0.8200414776802063,0.7274362444877625,-6.420567300015688,4.900924953120946,-2.302434061563015,0.0544436052441597,0.0930081903934478,-9.722309336537124,0.0660691782832145,2.5077576044484973,-1.7271794741764663,8
1721472698686952200,1.7366930063225328,-3.173078247207403,-1.4591585059680043,-0.2165248637217096,9.75683470647335,-0.9631761927388608,0.2794702351093292,0.0797414481639862,-0.3795832097530365,0.0876945665557848,0.0804517850515667,0.7366381943995296,0.6657337845486779,0.0178126096725463,-0.4301503598690033,0.1931983828544616,-3.4157571227580306,4.004250838685035,-0.4002513639628887,0.1177013292908668,-0.4250515699386596,-9.81477953044176,-0.1634231358766555,2.713790464647114,-1.5269968013107775,9
1721472698726703900,0.7437721020527184,5.66251255171895,1.0843301909446716,-0.4163649154284968,9.751208098763229,-0.9544451892726122,0.0701557993888855,-0.1859697252511978,-0.4783163070678711,0.0971453222372079,0.0757442335678152,0.7368351054359367,0.6647552966066521,-0.4209791123867035,-0.652059018611908,0.2593667507171631,1.707347523242235,-0.3594002981364727,1.1763836207419631,-0.1951904445886612,0.7909848690032959,12.421640775460004,-0.8226302862167358,-4.48517148412168,4.577232220442593,10
1721472698766455800,0.0138970079272985,12.011143911814688,-1.990841662653536,-0.4918392586076632,9.715936294373869,-1.2365414445847271,0.5587281584739685,-0.0600840672850608,0.0434719659388065,0.1005494794244942,0.0764981981635382,0.7464543455130487,0.653332686961545,-0.3198897838592529,-0.556806206703186,0.2259224951267242,10.4152354868412,-10.904459265720844,2.161051660451293,-0.1828033924102783,0.1293175369501114,12.275641235941649,0.4285321533679962,-2.722485812278092,3.278829655228555,11
1721472698806208800,-0.7778003361217677,12.355989614897966,1.120204637402296,-0.5054917537219822,9.719896430176496,-1.1993635143131016,0.2859370410442352,-0.065521590411663,0.019373757764697,0.1016208727608721,0.0763122235385994,0.7452026345447136,0.6546164253251427,0.2619839906692505,-0.9432758688926696,0.767237663269043,9.53542249083519,-8.69445038987696,0.5584422034692019,-0.043742086738348,2.314824342727661,21.850767960655688,0.5582278966903687,-5.083135623705386,2.8096643295153974,12
1721472698845960700,-2.4840567031264302,1.0495710122525692,-6.805029558694362,-0.3298785451738164,9.677499888473749,-1.5516313302211462,0.0666792541742324,0.5667752027511597,0.7170652151107788,0.0908257999495926,0.0808069076248725,0.7566911033175371,0.642370213737622,-0.5109082460403442,0.4844392836093902,0.0701904967427253,3.751719846683741,-4.4467730721443885,2.2876906659394503,-0.4130392670631408,-0.333745390176773,1.97054779329598,0.2650835812091827,-0.4676109724106266,-1.914539051956684,13
1721472698885712600,3.369663480103016,-0.0201619135409593,1.836062896613032,-0.2435842816914431,9.728798114034532,-1.2089325760386884,-0.5139915347099304,-0.3989808857440948,-0.3059370219707489,0.0891136603836274,0.0822499709629518,0.7448982142355149,0.6560642335079326,1.5278632640838623,0.1640375703573227,0.346402108669281,-2.1006261255830525,3.1052544187814,-2.8395921425282955,0.0184828080236911,1.0026782751083374,1.2207085732240228,-1.194056749343872,0.072935878776689,-3.627734862835705,14
1721472698925465300,-0.3510887621913105,-4.495083806326985,1.6707668282113968,-0.3929095498327166,9.708908003172278,-1.324057230952382,0.5531521439552307,0.2091703712940216,-0.3814547657966614,0.0945924344436264,0.0781226373445405,0.7492696322926923,0.6508027383797897,-1.1756377220153809,0.1524083465337753,0.2110375612974167,-2.244465856719017,2.6569296365231274,-1.953083448275924,0.0265328586101531,-0.0628639236092567,-5.096740955209731,-0.847301721572876,1.5543204231746497,-0.4569507909800857,15
1721472698965217300,0.7117780041597783,-6.785746181553602,-0.9417183941684664,-0.5046794874910265,9.68557272029221,-1.450986597689241,0.0942617654800415,0.1454213112592697,-0.2070118933916092,0.0952248011796609,0.0713798278814334,0.7542444239590694,0.6457185880605271,0.2744758129119873,-0.5923523902893066,0.0721750184893608,-5.532306209138035,3.9901194374799727,-0.924834040993452,-0.0131666446104645,0.0966303795576095,-5.655684167003631,-0.5917608141899109,0.719208738682419,-0.5891367630708962,16
1721472699004969500,1.0009713781259952,-5.248802571246028,0.2167231810390949,-0.559690230768919,9.676579266497493,-1.4902885343775152,0.141634464263916,-0.0707387253642082,-0.176736369729042,0.0968428767228274,0.0693464043245934,0.7557609707926753,0.6439238795211346,-0.4140895307064056,-0.5318190455436707,-0.114364705979824,-4.525317032027244,4.366279731759429,-0.7188017653167247,0.1081922575831413,0.0024506379850208,-5.565117176371812,-0.3899548947811126,0.949468350708112,-0.2564920593856833,17
1721472699044716000,-0.4543661082491278,-0.4274567662745714,2.216020975740254,-0.6302070246059447,9.669971246534583,-1.5049423520214855,0.0968939661979675,0.1825656592845916,-0.0736620798707008,0.0983611411268433,0.0657521702709019,0.7565760764713197,0.6431129467427741,0.408497542142868,-0.3422761857509613,0.2557383179664612,-0.5824614500254393,0.5195306543380022,2.251214746457338,0.179172933101654,-0.6201558709144592,-0.4684653242176398,0.3323503732681274,-0.0084675205204955,1.352344729412347,18
1721472699084469000,-0.1741690376218408,8.561015148377418,5.234934789413213,-0.6042455214081331,9.639853756168485,-1.6966043031707403,1.224807620048523,0.2770116031169891,0.134283110499382,0.0945405934066642,0.0649845236684777,0.7630725789927458,0.636049712110724,-0.7480235695838928,-0.384550005197525,0.2061530500650406,8.489479605951905,-7.281120299756527,0.7880804687261581,-0.0014053574996069,-1.0064082145690918,4.658358890295029,1.4251360893249512,-0.6409035559915006,2.4687559658810496,19
1721472699124221000,-0.1646438150379806,15.844910758066176,-9.764899939507243,-0.5344630331950262,9.570437690114977,-2.0715835709720847,-0.1262560784816742,0.1803886294364929,0.0923423990607261,0.0878316287856179,0.065706680003365,0.7754379425609372,0.6218233282774345,0.2965832650661468,0.2492268830537796,-0.4008728563785553,12.413540471112729,-12.217229963505268,2.706498261812329,-0.0567428283393383,-1.1465119123458862,15.21182678978443,0.8805937767028809,-2.8853520231842995,0.7448577053323387,20
1721472699163972900,-0.1083953466586768,20.47290022906065,-9.612248540884256,-0.4919505734950303,9.66261503855288,-1.6006962437719106,-1.8308405876159668,-0.1008638143539428,0.0333851240575313,0.0881970315226671,0.0654376482309353,0.7598228149224013,0.6407873667415073,1.142114758491516,0.6336970925331116,-0.918009638786316,13.860026396381857,-16.88033634058833,0.6285147606700658,0.1225707530975341,0.1830570101737976,18.633996702194214,0.1947182714939117,-1.948695880841464,1.903167909245193,21
1721472699203725800,-0.1846283261854201,13.884003484296798,-1.4968741963781416,-0.5104385990070179,9.748862996941805,-0.9324920814659446,-1.6238596439361572,-0.1062635481357574,-0.1697151511907577,0.0921612692107344,0.0629197178427321,0.7372821545014862,0.6663051688238832,0.8368858695030212,0.6770263910293579,-0.9800567030906676,10.467449658203124,-11.34729655647874,0.726680462802574,-0.0657104775309562,1.1057599782943726,13.179096973341702,-0.2807972729206085,-2.210460272873193,1.5912771119110285,22
1721472699243468800,-0.0620228139970451,-0.5991355214506388,2.919047372037172,-0.6040140872724354,9.77895301477909,-0.421446054617688,-0.8544353246688843,-0.2105581015348434,-0.1998999267816543,0.1001165039757385,0.0602661055170996,0.7196219601340494,0.6844624588097628,0.192728504538536,0.8544955253601074,-0.5500071048736572,1.9043027584940195,0.2698883695155382,-1.370299926689267,-0.3290201723575592,2.0002381801605225,-4.10485933085978,-0.6713241934776306,0.3773111082823946,-0.1174001712307799,23
1721472699283220500,1.4771971437446771,-12.357720968735215,-1.4860194787561891,-0.6881577668584883,9.782307001382112,-0.0571934028129093,-1.3453630208969116,0.0315029770135879,-0.2536791861057281,0.1045233897074246,0.0556606884656155,0.7069780333734786,0.6972508043339445,1.3719184398651123,1.5997151136398315,-0.6620956063270569,-7.509765389257669,7.363979200229048,-1.261485477835685,-0.1540704816579818,-0.507534921169281,-15.375456678539514,-0.2957690060138702,5.589826085692644,-1.2467289304696023,24
1721472699322973000,1.0641812099505217,-13.979088829135891,2.222513552629948,-0.7996217073075473,9.751526663193106,0.6623498102545737,-1.4620615243911743,-0.3193168342113495,-0.1842169165611267,0.112543806952103,0.0496940147461512,0.6809993132522588,0.7218755139431094,1.022141456604004,-0.2577918469905853,-0.6728193759918213,-13.922404234361649,10.507245077496766,-4.133348927763104,-0.1655609160661697,0.7754518985748291,-3.1048148583203554,-0.780894935131073,-0.6657083999674767,1.2540275630451738,25
1721472699362724600,-1.020194184185937,-12.258691270184515,5.662448838832974,-0.779946408239752,9.754506555786728,0.6416338430274278,1.1187708377838137,0.3418816924095154,0.0914755836129188,0.112450491284681,0.0511504190764383,0.6816666424030975,0.7211582657615526,-0.9175042510032654,-0.5683894157409668,0.2161418348550796,-8.279162200301885,5.877082938638329,-5.232091674941778,0.026147274300456,0.2049285322427749,-9.87735142968893,0.467004656791687,2.70745716997236,0.647484030360356,26
1721472699402476000,1.4112266881003974,-11.860685639321805,-2.1430290970265866,-0.8227019925132394,9.768303025949,0.2716615714668296,0.553130030632019,0.323738157749176,-0.2112603187561035,0.1069229389234525,0.0457727805047097,0.695739870448119,0.7088147489592963,0.1926283687353134,-0.2527497410774231,0.6791665554046631,-8.2398963578403,7.967010560074448,-2.597563839840889,-0.0096838250756263,-0.2124863415956497,-9.670134912663698,-0.0644382536411285,2.67217133705765,-1.567622095557302,27
1721472699442228700,1.1386042905110865,-9.936630132609606,-0.1083499000817537,-0.8674609524983912,9.76798855317235,0.0655532668452477,0.6745374798774719,0.0623117312788963,0.0071193091571331,0.1049569501141554,0.0421948241148243,0.7034751668544271,0.7016596966648544,-0.5742557644844055,-0.6107632517814636,0.6560977697372437,-8.182018169367312,6.324676484012604,-1.8268790348127484,-0.0256633143872022,0.0254332609474658,-9.268647869426012,-0.4030011296272278,2.2844794488079843,-1.2919409679844975,28
1721472699481980400,1.259509355457127,-8.438999126514792,-0.8855728747069835,-0.8526448569647967,9.766435478511452,-0.2452378941173665,0.7750721573829651,0.0408882237970829,-0.0112931635230779,0.1033648359170132,0.0440040747689811,0.714539917649074,0.690515872343089,-0.4002828896045685,-0.3209637701511383,0.4586237967014313,-5.669964621290564,5.194186599439382,-1.6871750883072614,-0.0169860292226076,0.0902493521571159,-9.628532736209037,-0.2994862198829651,2.389309796461463,-1.0236168521109967,29
1721472699521731800,0.2971904371347278,-5.648474089494347,-2.6616800459206105,-0.860576234485954,9.75797277059257,-0.4602093909172341,0.2226381152868271,0.1736028790473938,0.0653597116470336,0.1011427370387707,0.0427210284117668,0.7222458466220916,0.6828661319195556,-0.1740593463182449,-0.375829666852951,0.0686708986759185,-5.140417015329003,3.4473885248184204,-1.3651771768480538,0.0272398125380277,-0.2980584800243377,-10.73864794127345,-0.2314507961273193,3.237303466619551,-1.5418917342342435,30
1721472699561484300,0.8138726432390511,2.376181434819102,-1.3960767575025557,-0.8458953096393496,9.761673963198064,-0.4057091544447466,-0.2240112274885177,0.3942526578903198,-0.1210369318723678,0.0977993349171127,0.0398814064844307,0.7204823965466781,0.6853831215328264,0.2713839113712311,-0.630389928817749,0.1043212339282035,0.3685831370234489,-0.6826221984326839,-1.3457681275010107,-0.2130605429410934,3.639762163162232,16.10943730828762,-1.5132066011428833,-7.075075749120116,2.155503817065805,31
1721472699601236200,-0.662469125785306,8.352530218851566,-0.5968401039898396,-0.824479815840721,9.73671078685522,-0.8289072038289159,0.8496577143669128,0.225786492228508,0.1151759922504425,0.0939922422833882,0.0404079248300697,0.735275257028052,0.6700022092917103,-1.0230064392089844,0.0927832052111625,-0.2895978987216949,8.469431089657544,-6.54038961122632,2.7569956923842427,0.4462385177612304,-6.193851470947266,11.97199497373104,-0.5809072256088257,-0.2441395774866454,0.0719100611265981,32
1721472699640987600,-0.6479771476395427,12.30081191755533,6.4763073074162,-0.8108398514144122,9.753227037370204,-0.6224841752689332,0.8191035389900208,-0.4891952276229858,0.3279847502708435,0.0938277716946364,0.0397977364087002,0.7281167482343786,0.6778336670696933,0.5677406787872314,-0.5837929248809814,1.4530155658721924,10.9292687128067,-11.490214496594668,2.71276375194788,0.1086745262145996,1.727280616760254,5.902599657210708,-0.2382713705301284,-0.7046574315648525,2.1396610818982125,33
1721472699680740000,-0.8449637278776615,3.642382689130306,-8.553652510654926,-0.5055156460542232,9.680451139494776,-1.484487885274738,0.5134422183036804,0.592028796672821,0.46888267993927,0.0816688980693803,0.05574284324429,0.7566905248879257,0.6462525817755921,-0.5662354230880737,-0.0175003726035356,0.3938490748405456,1.9387883809417483,-3.5110593252182003,-0.4389870450705289,-0.6314449906349182,-0.6340581178665161,10.229588996589182,-1.8102376461029053,-1.4069652312636374,-4.378417621059715,34
1721472699720491500,2.3019182209953666,3.887024389186501,3.14576120121479,-0.6038306935295462,9.69737655533254,-1.3291605454407631,0.5567812919616699,-0.5469175577163696,-0.368836909532547,0.085656682366692,0.0515535215730678,0.7517383608221979,0.6518394142404305,-0.1735091507434845,0.1591458320617675,0.8508859872817993,3.3688691148549315,-1.4845038134962318,-0.5950876342993229,0.7005302906036377,1.6262575387954712,-1.6260899204865098,-2.087554454803467,-0.4515379356184974,0.6871821998246014,35
1721472699760243200,-0.302072290892154,-2.269377595135569,-2.7672335932821035,-0.641093963997066,9.646064885768292,-1.6470764482833444,0.0091373967006802,0.7997658848762512,-0.0898827537894249,0.0826019120717969,0.0473901826811353,0.7627133781213284,0.63968710013259,-0.2622816264629364,-0.2551664412021637,-0.1842589676380157,-2.388143675291538,1.052652027133107,1.1632563550781458,-0.4905578792095184,-0.651569664478302,-2.3036428528308868,0.1742269843816757,0.1991635954836383,2.358133883083612,36
1721472699799996000,0.8071986453678458,-2.609803728210926,2.8185306497991083,-0.6566632890507579,9.662972181427476,-1.538230727508664,0.0913880616426467,-0.0697857588529586,-0.1010866686701774,0.0787634192593975,0.0408633408346199,0.759445933588581,0.6444908172879696,0.136374682188034,-0.7046451568603516,-0.0082240840420126,-0.7003221057742833,3.640767655149102,-0.5079974529325961,-0.0890944600105285,0.3371038436889648,-2.962877161413431,-0.267473816871643,-0.0720781340027693,0.0021354422677599,37
1721472699839747300,-0.4160079552169889,-2.3188100268244742,2.706877616518736,-0.6604848201002925,9.625912909099458,-1.753835572042316,0.6317616701126099,-0.1684401035308838,0.2463560998439788,0.0809577123600833,0.0446388212593413,0.7664385863955245,0.635629677016711,-1.190626621246338,-0.6664273142814636,0.135791078209877,-1.1110621305257082,1.845421530458331,2.792833313962817,-0.1217871680855751,0.1371949166059494,-3.8202828030392526,0.0140378922224044,0.7351273155651986,1.1929795854296534,38
1721472699879499000,0.0181514505013823,-3.086854254215956,0.3909083660781383,-0.5375435731515288,9.617188919895886,-1.8414954430557784,-0.0817607194185257,0.126748576760292,0.3671202361583709,0.0766788380473627,0.0498878790902967,0.769026225325316,0.6326374963880179,0.9926477670669556,-0.0766198337078094,-0.0368386209011077,-0.3612029636442661,1.6560761856883763,2.988545855677128,-0.1370892375707626,-0.2508629560470581,-4.337634652033448,0.3868425190448761,0.9831322815094142,1.6118562279507518,39
1721472699919251500,0.6803051536619663,-1.614656964585185,0.796801535320282,-0.3900083119658753,9.646156071183086,-1.7233565548874437,-0.3678835034370422,-0.2299128174781799,0.3085896074771881,0.0722466791804599,0.0554374558883744,0.7647178707850901,0.6378978989924191,0.4023424386978149,0.0008885955903679,-0.1586211770772934,-0.5078016380995511,3.582502513185143,-0.1793354074090719,-0.266674667596817,0.063357412815094,-2.291491373396665,0.4477141797542572,0.131782898582099,1.0526678092241286,40
1721472699959003000,-0.6456131949871778,3.746141754290461,1.0527319605015215,-0.3032390879155136,9.652111180195211,-1.7073969153419135,0.1489674150943756,-0.0058460840955376,0.3107203841209411,0.0729772743024786,0.0630651878379435,0.7635940027349608,0.6384523642827752,-0.366201102733612,0.136284127831459,-0.4900826811790466,3.759017017954588,-2.908243069428205,-0.3565039921730756,-0.4199684560298919,-0.3600282967090606,0.0569058728421106,0.5506964921951294,0.0073307464593526,0.3486149559563025,41
1721472699998754800,0.0626904475929215,10.6815611954391,-4.508344854438304,-0.2069410793510265,9.667806177455189,-1.631287196868658,-0.4862799942493438,0.3187535405158996,0.0645341947674751,0.0674827970468213,0.0635490677450395,0.7610085505896591,0.6420853662608694,0.3064963519573211,0.5656494498252869,-0.5827543139457703,7.427547124776244,-9.431158398762344,-1.4260522090494632,-0.7088044285774231,-0.7380512952804565,7.988170837002992,0.4646132290363312,-1.5569566168971358,-1.3417096458904445,42
1721472700038504400,0.5647015561249107,15.9813112791121,-8.020517109334468,-0.1627750254914164,9.706976158326864,-1.385103674197942,-1.154319405555725,0.4198375940322876,0.0644082650542259,0.061450401928896,0.0582204135324967,0.7531474074994838,0.652382757494312,0.4942278861999511,0.7470748424530029,-1.0171372890472412,10.186759908688067,-15.10427008590698,0.6981014340501278,-0.7317667603492737,-0.5308762788772583,17.320107229512928,0.7645891308784485,-2.6102050024881955,-0.3430239675488323,43
1721472700078255900,1.3762553279623388,14.227190314257143,-3.704829500693082,-0.1513220497153699,9.777824887531995,-0.7359658852811902,-1.7354133129119873,-0.1250931322574615,0.0058766496367752,0.0613047000598439,0.0547850677899053,0.7311103981367076,0.6772872239127319,0.9953625798225404,0.4426445662975311,-0.9357582926750184,9.563390109691024,-12.069564536601304,1.0907592010788618,-0.3489922285079956,0.7390184998512268,17.722523662555215,0.6813901662826538,-2.028402308632433,-1.91737135277316,44
1721472700118007300,0.1446906488768756,4.779961070659756,1.1207961735546588,-0.1225442104551941,9.80401906697452,-0.191247452064231,-0.9740589261054992,-0.1538612693548202,0.14387147128582,0.063918345131901,0.0562859654694681,0.7117463006502414,0.6972542698894366,0.6579299569129944,0.4125035107135772,-0.739881694316864,4.377927499455213,-6.015851357859373,-0.1871789605163037,-0.1793759018182754,2.0543813705444336,4.4532083658888935,0.1518554389476776,-0.8896084138333797,-1.090734285833314,45
1721472700157760000,-0.1058927527206018,-7.789732669717073,-0.6030033027946948,-0.0645445692933164,9.805949742776155,0.0978267890343442,-0.719617486000061,-0.2478647530078888,0.0877462849020958,0.0656240699094351,0.0603601111136867,0.7009770887833737,0.7075883628153218,0.3861379027366638,1.4060733318328855,-0.6091721057891846,-2.852038367125392,4.490114785742759,-2.129334187542647,-0.6098953485488892,1.6587750911712646,-11.10832997944951,0.6826339364051819,2.762303151142597,0.1795600647441111,46
1721472700197511400,0.4414104362925514,-13.9160422981143,-0.8055465673118829,-0.0740501510283676,9.79008523416817,0.5649292639335617,-1.6443458795547483,-0.3672889769077301,-0.1691564619541168,0.0703806605202953,0.0612671344048029,0.6836980051594085,0.7237748360162263,1.3891820907592771,1.5667047500610352,-0.6236534118652344,-10.79303068884611,10.827698682123422,-2.605165254755318,-0.1908003389835357,-0.0805882886052131,-4.569577321775257,-0.021768232807517,0.618770269312337,-1.4075561828941106,47
1721472700237263000,-1.2214432441741228,-12.797066325724124,8.002044464054704,-0.1145211908615194,9.768700500833988,0.8542570414017886,0.6428546905517578,-0.0385591275990009,-0.0561466291546821,0.0786538917293968,0.0641967986791082,0.6725502088673604,0.7330542388206354,-0.7167383432388306,-0.6602122187614441,0.507976233959198,-11.414725832629204,8.229960654759406,-5.674629690492153,0.2246922552585601,0.3782108128070831,-10.283668961822986,0.7843012809753418,3.4492148634627458,1.2380609092369674,48
1721472700277015800,0.0515068176770117,-12.72292323114872,1.4083131387412546,-0.1504171824306715,9.799603004097936,0.3399027667883783,1.4399420022964478,0.3908939659595489,-0.1381476670503616,0.0730170632751277,0.0599128239634461,0.6921562212153947,0.7155408477065459,-0.640784740447998,-0.3926248848438263,0.8641394376754761,-8.38965320406556,6.859452053755521,-2.903900656309724,0.3900134265422821,0.1523706018924713,-9.912372474187611,0.4072066843509674,2.9668855202719566,-0.9620690352145582,49
1721472700316823800,0.0155958842670544,-11.435794339621069,-1.3355331492125988,-0.1653830890979617,9.804445767953991,-0.1259767421871423,1.0093833208084106,-0.0270767174661159,0.092644989490509,0.0701278856681791,0.0590821982799652,0.7091772136582667,0.6990414906357225,-0.1962717175483703,-0.6140066385269165,1.125319480895996,-7.749187893360853,7.942875651249289,-1.9211010408207767,0.3289770483970642,0.1504249423742294,-9.564838554933669,-0.1185229495167732,2.775822850190103,-0.576481973757036,50
1721472700356577300,0.7862449238620698,-8.829134170132875,0.0309703078031539,-0.1190110039609018,9.78935867345929,-0.5698154285399243,1.2390471696853638,0.0292946714907884,0.0986574366688728,0.066765921622496,0.0619596340407051,0.7247161555681972,0.6830006375716349,-0.6898231506347656,-0.4484365582466125,0.888163685798645,-6.560337005233764,5.660041777691244,-1.910215781930089,0.261258065700531,0.1016619876027107,-9.599075755578278,-0.1903255134820938,2.813163277547061,-0.3054367440902628,51
1721472700396332000,0.7549949223347008,-4.883420860612392,-3.144908968299627,-0.1152942393269389,9.760708333036304,-0.9410949285078792,0.517555832862854,-0.2067142128944397,-0.0712525397539138,0.0676622710202375,0.0657951302062021,0.7373286169627593,0.6689090562979193,-0.5588832497596741,-0.4058413803577423,0.4314643442630768,-4.177906446892023,4.2812545931637285,-0.6851292128175497,0.2573597431182861,-0.049795139580965,-10.290174690455196,-0.3773735761642456,3.179830351816117,-0.2158583078380674,52
1721472700436085800,0.6802630680859089,2.2944956697791814,-4.035424560105801,-0.1590751845927908,9.76539678311348,-0.8843601379163563,-0.8408616781234741,-0.0405152104794979,-0.2514112293720245,0.0701910208008629,0.0648638804205436,0.7354471405163692,0.6708079731781185,0.1009431779384613,-0.2403066009283065,-0.047592531889677,1.1248971791326998,-1.0653431664019823,0.1416203015208244,-0.7361412644386292,2.231096029281616,16.26652522805333,-1.2711758613586426,-7.345098558670282,4.971328276646137,53
1721472700475839500,-1.1826875431917607,7.882581633806228,2.247580189347267,-0.2236065108120441,9.749815183100104,-1.0302774790439757,0.9187219738960266,0.1074943169951438,-0.0581113882362842,0.0739862846296656,0.0652539306268424,0.7404535470639751,0.664828107973363,-0.8866930603981018,0.5125230550765991,-0.3471395969390869,7.750242955371737,-6.000829145294428,0.8847130430072545,0.8845547437667847,-8.248282432556152,1.473944133298099,-1.6866742372512815,3.143713621035218,-0.745003689674288,54
1721472700515594200,0.1553239788331091,8.50086492331922,2.891999206113815,-0.3133412518708035,9.759261641359329,-0.91049842245318,0.5938162803649902,-0.4283292591571808,-0.0592464171350002,0.079754800016912,0.0639381374151204,0.7364335789589014,0.6687425898657976,0.0214472915977239,-0.4243150055408478,0.6439741253852844,7.0588646190315485,-9.636624272727966,2.7667724055111407,-0.0878194570541381,0.3324047029018402,-6.22833792424202,-0.4876645803451538,4.280865009324252,3.293104848818481,55
1721472700555347700,-0.0324247626614756,5.059599849817157,-4.321290543214976,-0.2548791442963294,9.694216629996896,-1.458610808957368,0.6038727164268494,0.023485230281949,0.1708196103572845,0.0785550743780872,0.0714486013657951,0.7544955623254893,0.6476576820661489,-0.6763827204704285,0.2671465277671814,0.1038432642817497,3.94836645437777,-5.578601511844992,3.7056560146451,-1.240768551826477,0.069587156176567,10.325783763974904,-1.8476316928863523,-3.7959073634564873,-2.4396786322176456,56
1721472700595101400,1.225206761426106,4.836904608631134,0.615417524818331,-0.262737474847585,9.715201550358533,-1.310034696949273,0.2803880572319031,-0.2017158269882202,-0.0888357758522033,0.0811176698144503,0.0725539851003936,0.7493524525496642,0.6531666223836575,0.3591603636741638,-0.2570378482341766,0.2527792751789093,2.5642963610112663,-4.891344639348984,-1.3195172494351863,-0.5115099549293518,0.4298267960548401,0.7595285471763461,-2.3011183738708496,-0.2735760815849528,-0.914322145459801,57
1721472700634856200,0.93364315119721,2.277338198751211,-3.380817326802015,-0.3603816738566383,9.683495914018154,-1.5067966015860437,-0.0227253064513206,-0.0686001777648925,-0.3910390138626098,0.084997749295457,0.0711639008102335,0.7561487584526854,0.644942043205356,-0.9073964953422546,-0.2820363938808441,0.0162327904254198,0.7176473345845937,-0.6435095007061958,-0.1050800846308469,-0.6290576457977295,-0.0609451867640018,3.1481942735806108,-1.1362310647964478,-1.1442016721267252,0.3346744742134586,58
1721472700674610000,-1.048234210690856,0.6583072568655014,2.805166141313314,-0.466098302825354,9.681650578412413,-1.4895521829269829,0.3114471733570099,0.1308856457471847,-0.1346659958362579,0.0890065034751514,0.0674583813869699,0.7559069986136288,0.6450827687676816,-0.2784211635589599,-0.221222773194313,-0.0411593988537788,1.9437527253508569,-1.2151947051733731,0.4861047700762748,-0.5228654742240906,0.1233438327908515,-0.267970023472514,-1.0005371570587158,-0.1304386534994468,-0.1860819955924526,59
1721472700714363600,0.5682633402597159,-0.4878074823409318,0.1201924596972763,-0.497784284617193,9.662540219751,-1.599360318993032,-0.0599117092788219,0.0976513549685478,-0.1360222250223159,0.0874497691818734,0.0640814804932942,0.7598935764571976,0.6409430866486929,0.2060176730155944,0.0368183143436908,-0.0528932176530361,0.67140230076015,1.56647424069643,1.8089771751582624,-0.4432975351810455,0.0896516889333725,-0.6818240337923168,-0.7967299818992615,0.2723914383776485,0.5849092085037381,60
1721472700754118100,0.5070570302773266,-0.5604454330503941,1.6251638916827738,-0.5374333177100866,9.671878541460632,-1.528497561262548,-0.0531518645584583,0.0891339555382728,-0.0192987918853759,0.0882513416229813,0.0613228150728897,0.7577408508840873,0.6436458225285965,0.1014949828386306,0.0253263469785451,0.0839609652757644,-0.4823749358981847,-0.1045218662261962,0.9969190339952708,-0.3603074550628662,0.0523001030087471,-0.8898794858597219,-0.6929605007171631,0.2981350062421523,0.540193503138423,61
1721472700793872000,0.5361442277476192,-0.3085065617233514,-0.738100340026617,-0.5365932501567527,9.669984690538048,-1.540731166022271,-0.1035203859210014,0.154857724905014,-0.0472555272281169,0.0866410306899472,0.0595921642763726,0.7582903137036088,0.6433800886021341,0.3348390460014343,0.0822931677103042,0.0237043555825948,-0.1853670887887477,0.242834942895174,0.0368096814811229,-0.2304827868938446,-0.0374239943921566,-1.1260863158520311,-0.5748434066772461,0.3261450212012976,0.3816373739836737,62
1721472700833625600,0.1895829529181122,-0.3047130146592855,-0.849358090379089,-0.5412311756230891,9.683099608176946,-1.454312234980613,-0.2838640213012695,-0.002698722295463,-3.00286337733e-05,0.085892881674461,0.0576592682613389,0.7555294141014377,0.6468949375783353,0.1801250874996185,0.030443612486124,-0.084221713244915,-0.3938397433549165,-0.0563590160816907,-0.065532502618432,-0.0423027612268924,-0.2180535495281219,-1.458139392053336,-0.4191063344478607,0.5007445226622745,-0.0403315674303798,63
1721472700873380000,0.7269745503783226,-0.5960404780447482,-0.4750258883096277,-0.5498038467224687,9.703135849511623,-1.3104499997518957,-0.3601903021335602,-0.1222906783223152,-0.0717675387859344,0.0874549933170076,0.0576649305128877,0.7506591169008594,0.6523322507310274,0.1649836897850036,0.0103956013917922,-0.1410268098115921,-0.565033345362544,0.5525906278967857,0.2021820299893617,0.1440206319093704,-0.1543585807085037,-0.682726535589993,-0.14607535302639,-0.0087395127121562,0.4949423757221549,64
1721472700913133800,0.6767072753004729,-0.5669593449890613,1.2632733841657635,-0.5923116667799652,9.706225632220509,-1.268360770432651,0.0874193087220192,-0.1541566103696823,-0.1853087246417999,0.0903109607846324,0.057324309067381,0.7492545155038756,0.6535866916694952,0.0014195205876603,0.0430238544940948,-0.1778190433979034,-0.3391898692786693,0.4923474638581275,-0.337849560585618,0.1588130295276641,-0.028973564505577,-0.2516663014633581,0.0633864253759384,-0.2968294766015373,0.7129262974120676,65
1721472700952887600,0.5399531185112894,-0.3984031057476997,0.3815829038500785,-0.7202665041070431,9.698529817020892,-1.2610033934071658,-0.1500847935676574,0.1950496435165405,-0.3558261394500732,0.0950001959763587,0.0527611065488313,0.7493394060571588,0.6532087996337739,-0.1451491415500641,0.0097052566707134,-0.1434008181095123,-0.3567944995522499,0.9574451017409562,-0.5747632967382669,0.0897786617279052,0.0532964952290058,-0.2731806707928888,0.0370805785059928,-0.1122651738293468,0.5849611213540657,66
1721472700992642000,-0.6073934275124222,-0.8034259218961,0.1979484840728342,-0.7267752284139394,9.710752754256127,-1.1590700093042106,-0.2666524350643158,0.7099943161010742,0.0085472203791141,0.0899967026092045,0.0457707096835776,0.7463251080425433,0.6578786824113585,0.4797264635562897,-0.196426972746849,-0.1552782505750656,-0.2483639354497194,-0.9933581266433,1.1669745718836784,-0.0197709389030933,-0.0305642690509557,-0.2461881988458335,-0.1714599281549453,-0.1556318026732653,0.3236440712310373,67
1721472701032388900,-1.166725857819617,-1.3217460314005611,-0.3632323505800217,-0.655411170097813,9.727937113291024,-1.0526385100644082,-0.3364709317684173,0.3954955637454986,0.2834788560867309,0.0764024634200286,0.0352117810713486,0.743256185906064,0.6636964471414578,0.5595160722732544,-0.0897817090153694,-0.0914466008543968,0.1076157405883073,-0.1851461395144462,0.1487462078779935,-0.1265678107738495,-0.0389122776687145,-0.1538142135909758,-0.3079668581485748,-0.3269189647158607,0.3900403876045719,68
1721472701072168700,0.0616303806133568,0.149025024819374,-0.811112896202132,-0.5843145305462181,9.743067462405564,-0.9495230035047978,-0.2091338485479354,0.0041486164554953,0.012530711479485,0.072187806823155,0.0353322016628122,0.739705234986297,0.6681142874095042,0.0262745358049869,0.2645204365253448,0.001817830838263,0.3251011381715536,0.8367214577764273,-1.325118138182163,-0.2278608828783035,-0.061820100992918,0.1832577136856503,-0.2821470499038696,-0.450201060991548,0.5741241220518947,69
1721472701111897300,-0.9372590766720472,-0.0406710330843925,-1.112695796142146,-0.5425069677125662,9.75319781127572,-0.8667108647834509,-0.2440545409917831,-0.313930481672287,0.2633604109287262,0.0740610678214693,0.0400759093676288,0.7366029318875011,0.6710625344267305,-0.0472833067178726,0.3237542808055877,-0.0936467051506042,0.3527753270387649,-0.5390782353729009,-0.2903881367087364,-0.3018388450145721,-0.0266858637332916,0.2003721858221106,-0.2202986627817154,-0.4370542138444259,0.3687419808469712,70
1721472701151650800,1.5834993175163865,1.5206524007201194,2.900519197177887,-0.4969807131493464,9.761574009954929,-0.7969135443273931,-0.020806398242712,0.6508035063743591,-0.1330708265304565,0.0694295258051245,0.0380339717729992,0.7342919719365143,0.6742019741299159,0.4014159440994262,0.4620070457458496,-0.1829550713300705,0.3693342476516962,-0.6250257495105266,-0.3782231450933963,-0.3037033975124359,-0.0158311557024717,-0.2478904361864551,-0.2346779108047485,-0.1651016418080776,0.0902388820554595,71
1721472701191404500,1.2357152228936552,-0.7762982609957456,1.5215022955477238,-0.5264329445397481,9.75575158741176,-0.8476839466217905,0.0112000200897455,0.5993174314498901,-0.1048754900693893,0.0601047376067872,0.0258940816104027,0.7365794921119064,0.6731772165863249,0.039636418223381,0.2874859869480133,-0.0158339329063892,0.0709001671314239,1.321815589505434,0.6897779154062271,-0.241467148065567,-0.0394423082470893,-0.1334954289878718,-0.2762240469455719,-0.1099103451983537,-0.2994917728796601,72
1721472701231159300,0.1462004689179361,-0.6607721856743097,0.4273381813962012,-0.5149073419189081,9.757091311582922,-0.8392895546987652,-0.0327497646212577,0.3774406909942627,0.13767771422863,0.0538632796340983,0.0199043701219557,0.7364751683754639,0.6740228435863588,0.3207000494003296,-0.0326117351651191,0.0144552625715732,-0.5687187558770179,0.3342746247082948,0.5748065513581038,-0.1524912416934967,-0.108773149549961,-0.1339392089663073,-0.2188600897789001,0.011475742446992,-0.168061825054232,73
1721472701270912800,0.961203942817822,0.4283458240687847,-1.0840098729491232,-0.4684474232347682,9.758982239896058,-0.8445194181762635,-0.0102017261087894,-0.0696108564734458,-0.0349372886121273,0.0502430834352515,0.0194751371662381,0.7366676494995833,0.6741047235085063,0.0179042220115661,0.1234115809202194,0.0502413548529148,-0.1878811174362897,0.2341670677930116,-0.3599585165411234,-0.1303894817829132,-0.0649881437420845,0.058020921411924,-0.0971476212143898,-0.096433489778731,0.0683251792439958,74
1721472701310666500,-0.5107839783785865,-0.4398439541608095,-1.3506909708559511,-0.4896929672939702,9.763164494016769,-0.7817943011287599,-0.418197363615036,0.4194915294647217,-0.0479720048606395,0.0492115705260985,0.0165276498765541,0.7345660300028782,0.6765484397320322,0.2290353775024414,0.2425196021795272,0.0157060828059911,0.1491542041569948,-0.2286439204573631,-0.455675875673443,-0.1744216531515121,-0.020758531987667,0.1000380536093376,-0.0317857302725315,-0.1216425397745799,0.1782800348709337,75
1721472701350421500,-1.2005678486015647,-0.5247112718462944,-0.2737689372759312,-0.4596612189825624,9.77844915691018,-0.583953697877191,-0.5715274810791016,1.0266371965408323,0.1553364396095276,0.0381471486949117,0.0063218277008082,0.7278278559380409,0.6846687824036413,0.559619128704071,0.2974262535572052,-0.0167347472161054,0.015546528699994,-0.4368932876616716,-0.3121189070016145,-0.2432653456926345,0.0567483156919479,0.0150208711328741,-0.0473862253129482,-0.1063435743611771,0.1150153401871677,76
1721472701390193200,0.7565477047346532,0.1621340972393751,0.3489046596178785,-0.3686869627241045,9.790112706696986,-0.4337492905475199,-0.1898109167814254,0.6585327386856079,0.0488275326788425,0.0214702591417652,-0.0047531935631624,0.7225596628298356,0.6909587145367025,0.2906244397163391,0.3450458347797394,-0.0157774742692708,0.3996878848612308,0.6686819358855486,-0.4442136936776339,-0.2628490328788757,0.040460031479597,-0.1911448319399729,-0.118425041437149,0.0475144966378342,-0.1129157649588771,77
1721472701429947600,1.3523181336663663,0.2829658777534961,1.3204618368089198,-0.4245651364862918,9.785700735473633,-0.4797986556693911,0.4265539646148681,-0.290491372346878,-0.2189675569534301,0.0213866563263288,-0.0089368278259458,0.7241429810280897,0.6892603222472499,-0.4946131408214569,0.2605767250061035,0.0460389517247676,-0.0030278233885765,0.7953723792999983,0.2010129862099886,-0.2320068180561065,0.004215789027512,-0.1637808232667855,-0.1115826219320297,0.0651392015850637,-0.1193316416168585,78
1721472701469703000,1.0041915092162788,0.0885258401930332,0.2743419148582965,-0.5237051270110532,9.771843475034832,-0.6381101258806884,0.318155437707901,-0.0287832822650671,-0.2595449686050415,0.0281251710914228,-0.0090447229577179,0.7296936035921864,0.6831357026368224,-0.4495883882045746,0.1059062033891677,-0.0031326527241617,-0.4760013092130422,-0.4260737874835729,0.7945039259023964,-0.2324902564287185,-0.0218266248703002,-0.0315918509347131,-0.0226746462285518,0.061566357200127,-0.0513855202517472,79
1721472701509457400,-0.3237506734106689,-0.2697241188645363,-0.438196186953783,-0.5965205531792714,9.76093805013895,-0.7339149441007524,0.1073567494750022,0.4282760918140411,-0.0948047414422035,0.027980470962148,-0.0145770961033711,0.7329438961547691,0.6795570885573531,-0.1697807163000106,0.070724032819271,0.0014573055086657,-0.2358230183064937,-0.6778384712874889,0.7087642092965543,-0.2705162763595581,-0.0116814402863383,-0.0557271935847122,0.0145867895334959,0.0569002513854997,-0.1099618105241097,80
1721472701549211600,-0.0268448619036003,0.2540285370826721,-0.2589489692848176,-0.5746981956128031,9.76256243647039,-0.7297070440821349,-0.0247243642807006,0.0936399102210998,0.2001941204071045,0.022607673515623,-0.018732850090599,0.7327030666099843,0.679914794551985,-0.0353688523173332,0.0147655820474028,-0.0352335982024669,0.1618862599581479,-0.3495890982180833,1.0077180759072304,-0.3128980696201324,0.0326340049505233,0.0055224029835546,0.0222311336547136,-0.0265746529603609,-0.1066287936438806,81
1721472701588967000,0.4700830616125837,0.2097258694976568,0.2633739461202174,-0.4483855360021814,9.766762226247788,-0.7613678914327174,0.154493898153305,-0.0373385436832904,0.2941944897174835,0.0180580162175063,-0.0141536764283666,0.733906420540909,0.6788629404703193,0.0042786900885403,-0.0121051268652081,-0.0870238915085792,0.025611995640397,-0.5401847353100776,0.7808874884821474,-0.2926143407821655,0.00769022712484,-0.1601607148071751,0.0941539406776428,0.1622199854245409,-0.0659269818287342,82
1721472701628721200,0.3878137610636651,-0.041418052059412,-0.2980079640626907,-0.373298950031586,9.76531845718026,-0.8182884869199246,0.0894620716571807,-0.0545683577656745,0.0828824862837791,0.0166033014711749,-0.0100682466799215,0.7359481849422632,0.6767593872144799,-0.0034117200411856,0.0431085936725139,0.0108851622790098,0.0718009153634309,0.4097106817036867,0.1449688812963664,-0.2261983305215835,-0.0480888187885284,-0.1664504260685294,0.0980850383639335,0.2318166504756547,-0.2160589084440842,83
1721472701668475600,0.049803347360529,0.3575964635848999,-0.6495289071261883,-0.4010028033846989,9.763591779518126,-0.8257479360803961,-0.2463335245847702,-0.1727281212806701,-0.1711091697216034,0.0181504652462507,-0.0104711123121167,0.7362009122181674,0.6764385678089996,-0.2148294150829315,0.1384688168764114,0.126115083694458,0.0474245989978313,0.146843004605174,-0.1844080344982445,-0.1933073550462722,-0.0157778747379779,-0.0778848018543794,0.1075995191931724,0.1833391631577164,-0.0858522827353794,84
1721472701708231000,-1.8911868179418143,1.2710831811338663,0.0441219772558659,-0.3693887177852913,9.772771695795656,-0.725871557572484,-0.0213290750980377,0.179264947772026,0.5910269618034363,0.0169602216327638,-0.0094175061766813,0.7327485660476704,0.6802229925847512,0.0876902267336845,0.3736660182476043,-0.0407788977026939,0.5691483794659375,-0.4267518328756093,-1.714844162607938,-0.176653191447258,0.0118287671357393,0.0379451175351277,0.0917919278144836,0.0627306517391465,0.0482608717254595,85
1721472701747985400,-0.5402254691792652,0.1921621557563543,0.0832908621490001,-0.0357297453238861,9.77789210754931,-0.7496271116912364,0.0006153373979032,0.6111343502998352,0.83768630027771,-0.0015351162230146,-0.0043380767695766,0.7336221967292762,0.6795420040336435,-0.3782804012298584,0.051858726888895,-0.2218863070011139,-0.3105108872830867,-0.4902572135806083,-0.785933081433922,-0.2561163902282715,0.1069516390562057,0.1381308702361769,0.0863565877079963,0.0134711403481778,0.0829290339661296,86
1721472701787739600,1.799850596503168,-0.3103746936827898,0.4571895681720226,0.1595040775293484,9.77704922698438,-0.7444941327169537,0.0333934649825096,0.3831484317779541,0.0900473296642303,-0.0152093511036126,-0.0044480584759484,0.7334431490201798,0.6795661586121463,-0.1820296645164489,0.0989469811320304,-0.0625892579555511,0.5871551607996225,0.7160211946874857,-0.3269127176381647,-0.2913331091403961,0.0708755701780319,-0.1316778855713549,0.0238960161805152,0.2005816090553998,-0.0963760696362238,87
1721472701827495200,1.2044059654597192,-0.6327391003668308,0.2918107899229973,0.1070178477603942,9.778141698396205,-0.7395270118288695,-0.0640583634376525,-0.1304634511470794,-0.2793450355529785,-0.0147772687465828,-0.0079129340374471,0.7332412755828848,0.6797619883336468,-0.4789183139801025,0.1295065432786941,0.1513212472200393,0.2218371630519628,0.6461077005058526,-0.5871943237662315,-0.2576793134212494,0.0081049185246229,-0.1331364046834409,0.0124717522412538,0.2028509604931808,-0.067772582295956,88
1721472701867249400,-2.5894822401940822,-0.030893735435605,-0.3081003190100193,0.1372212080453522,9.780382170799374,-0.7040487250819802,-0.098773144185543,0.2776543200016022,0.495166927576065,-0.01582884311337,-0.0067404050550058,0.7320184847450455,0.6810675467397577,0.0370329096913337,0.0427266955375671,0.057183351367712,-0.787547384762764,-0.387535090252757,-0.0906279270388186,-0.2011387944221496,-0.0185109432786703,0.0167268028345017,0.0381065644323825,0.0535258567486889,-0.0675224069271702,89
1721472701907004000,0.5881632053310051,-0.8712275384902953,-0.0060298547487705,0.3894193696293979,9.775411981171368,-0.6782629803098738,0.0384675897657871,0.8170849680900574,0.5378818511962891,-0.0315752435135713,-0.0047410074696001,0.7311356313768737,0.6814844905763408,0.0025516303721815,-0.0890731960535049,-0.0407326929271221,0.1712374411493539,-0.8220213167726993,0.1302636257261037,-0.1469736993312835,0.0347637236118316,0.0351240436488529,0.0031193241011351,0.0325239121870137,-0.1611110926008783,90
1721472701946759200,1.5181231745034456,-0.0805143831729888,-0.5575287418860941,0.5375981528829783,9.768203657227756,-0.6808727974820882,-0.1265166848897934,0.6842605471611023,0.166742518544197,-0.0502063381905037,-0.0136662217036156,0.7311142778603265,0.6802680033294425,-1.2236309051513672,-0.3487665057182312,0.2278156131505966,-0.03187280960083,2.0137766941696404,0.6480407143950462,-0.0891796723008155,0.0442879311740398,-0.0291703479923889,-0.0385706461966037,0.0712853076912229,-0.1001296408829279,91
1721472701986513700,1.1888492806918918,0.0131663555651903,-0.6135621062099933,0.5369210938716307,9.775227856776118,-0.5718678310250863,-0.5515345335006714,-0.250491052865982,-0.2170159369707107,-0.0526079818195987,-0.0159088637864706,0.7272578999930451,0.684160294667399,0.3337079882621765,0.0727626234292984,-0.0414695888757705,0.5521931530117988,-2.4278099152475594,0.0676141311980784,-0.0828712210059166,0.028792668133974,-0.1359692717554979,-0.0370253659784793,0.0858789789460599,-0.000920891975137,92
1721472702026267000,-1.0340160079851746,0.4016717521548271,0.8759422920525074,0.4414510605638846,9.78969594258964,-0.3706163598841056,-0.2768956422805786,0.0952112525701522,-0.006977405399084,-0.0459968008644072,-0.015342355322294,0.720181080108608,0.6920896607450471,-0.0117149231955409,-0.0355168133974075,-0.1149869486689567,0.1634334894001483,-0.0293149418115615,0.3395692239850759,-0.1339982002973556,0.0526859238743782,-0.0482906047100201,-0.0083796568214893,-0.0324630534118274,0.0193517913180286,93
1721472702066021000,-0.1873446724720299,-0.1536298882663249,-0.0882686505615711,0.5490187607593834,9.787149180716275,-0.2840295431959442,-0.3121044039726257,0.2507120370864868,0.3716149628162384,-0.0539713597081962,-0.0154183821418994,0.7171079066167669,0.6946982225112407,0.2818083167076111,-0.007204218301922,-0.0810928270220756,-0.1987099699646234,0.018431728747487,0.1709166847623884,-0.108655959367752,0.0181293878704309,-0.0922418467751704,-0.0263445004820823,0.0324038134882808,-0.1900410902154631,94
1721472702105775600,0.7098030508249997,-0.3439882094711065,-0.1870154405176639,0.6412748004566877,9.78477426827848,-0.131713422675617,-0.2607465982437134,0.6985183954238892,0.0588940717279911,-0.0602823326713711,-0.0145858031469561,0.7116900799518481,0.6997503686429909,0.1161879152059555,0.0192296784371137,-0.0780963748693466,0.1571557243049144,-0.0958709422588348,-0.1265028118878602,-0.0600399374961853,0.0108569022268056,-0.0696647435849532,0.005900009535253,-0.0504164879899239,-0.09253890262614,95
1721472702145531000,-0.3770600195981562,0.0881459009647369,0.2206792251884937,0.7691104683835059,9.775964354357123,-0.0967785312235821,0.0642845928668975,1.0593430995941162,0.5685392618179321,-0.0802881646456648,-0.0254664426869703,0.7101308276319891,0.699013197787492,-0.3554555177688598,-0.0875066742300987,0.0888924822211265,-0.40241234138906,1.5632786595255137,0.2392209901817142,0.0089186811819672,0.0136920111253857,-0.1181953219301533,0.0144852716475725,0.0298824737505405,-0.0789392245444469,96
1721472702185285400,0.5242847900625318,-0.2497176881462335,1.0645020394027231,0.9898981223825364,9.756044432878491,-0.1003876707646064,0.2228592187166214,0.7732459306716919,0.4668125808238983,-0.1010706538412248,-0.0305887804751992,0.7100582183638615,0.6961798067257902,-0.1976480334997177,-0.1966381669044494,0.0835573673248291,-0.0597439823448658,-0.2470820789456367,0.2439993104994297,0.0204044915735721,-0.0199749395251274,-0.1174162090501282,-0.0071129924617707,0.0736256831051781,-0.0984021686363499,97
1721472702225039400,0.8875141449678688,-0.2228776120156049,0.4012778209337964,1.1052097512356935,9.743119484853745,-0.1431521872632205,0.0943271219730377,1.337525725364685,0.1048662289977073,-0.1191932693179625,-0.0410622192966275,0.7110644307340228,0.6917326719088531,-0.4096987843513489,-0.2451281100511551,0.0418420135974884,-0.1853267567783594,-0.0946095440208911,-0.5589098940461874,-0.0120992800220847,-9.48748784139e-05,-0.0223371295550372,-0.0725191384553909,-0.0299417228072416,-0.0917500629365444,98
1721472702264795000,-0.3485940227661281,-0.0742956547886133,-1.142769520431757,1.1620239637389778,9.73699369544983,-0.1050582655246835,-0.0702866464853286,1.1085313558578491,0.2592595517635345,-0.137679667531722,-0.0555719808010527,0.7087088513688347,0.6897012466487873,-0.2967445254325866,-0.2153928428888321,0.0137065146118402,-0.193757315993309,0.2551069799691438,-0.3298159647990017,-0.0482482649385929,0.0378016866743564,-0.0500408367776777,-0.1448102444410324,-0.0245601530664833,-0.0807639192209579,99
1721472702304549000,0.1659736754022538,0.5669669437736272,-0.6872521963208913,1.3387819218754768,9.714782448163628,0.0325878008862142,-0.2928260266780853,1.4311906099319458,0.4697684943675995,-0.1630166995131593,-0.0671693549018225,0.7027280856163378,0.6892656643055968,-0.1180861070752143,-0.1341878324747085,0.0481582321226596,-0.0585848754376173,-0.355779769551754,0.2151093161016702,-0.0712849870324134,0.0021997382864356,-0.1246607916172128,-0.155964508652687,0.0675996825476177,-0.0886741808888502,100
1721472702344303600,-0.5878495728045702,0.0305932911843061,-1.0882558399558069,1.5435849480181931,9.680439449056982,0.2772201554420404,-0.4948625564575195,1.409556865692139,0.7080921530723572,-0.1914660041802221,-0.0780319542255518,0.6926591654693284,0.6909958107777481,-0.4276889562606811,-0.1275305151939392,0.1008206456899643,0.0097182609379291,0.1596399423360824,-0.1510738471079617,-0.0675827041268348,-0.0703219473361969,-0.2201512375253252,-0.1626418381929397,0.0639140528374351,-0.0772187208947725,101
1721472702384059000,-0.6277298939026892,0.1403413676261901,-0.6575263356208801,1.8605939651489256,9.609446342945098,0.6059015084542334,-0.663931667804718,1.5512641668319702,1.015756607055664,-0.2261574834435896,-0.0849487338931019,0.6796258774756919,0.6926363973244385,-0.3653075993061065,-0.1350746750831604,0.1215573474764823,0.0031231004565954,-0.3248579770654439,0.3477086912989616,-0.0657344162464141,-0.106910616159439,-0.1620306003322824,-0.1618502885103225,0.0572362966731423,-0.0192159265112946,102
1721472702423827000,-0.2567521168276667,0.0136439099490642,0.0425642264198511,2.2315194275148214,9.506748185014724,0.9013494858358054,-0.3514778614044189,1.0387221574783323,1.0266555547714231,-0.2585136286650007,-0.0852623477682665,0.6684117738804569,0.6921897780099178,-0.2006499469280243,-0.2323914319276809,0.0970467403531074,-0.0195598559945821,-0.1532990488767623,0.4373784408301114,-0.0688442215323448,-0.1268125176429748,-0.1085011816533282,-0.1685119718313217,0.0051238692234648,-0.1341964351303875,103
1721472702463581700,0.2553784903869032,-0.3501215976595878,-0.7193798574656247,2.5218954353943466,9.397660033786297,1.2224616274364293,-0.8339616656303406,1.052155375480652,0.7790401577949524,-0.2861688908365302,-0.0853473010631597,0.6560393606647239,0.6931345916067586,0.1610986739397049,-0.2430678755044937,0.0529232919216156,-0.0252840788602828,-0.2923696659147739,0.1690992600768804,-0.044101845473051,-0.0980959311127662,-0.0561385599977336,-0.1518995761871338,-0.0503527796705253,-0.091854253963381,104
1721472702503337700,0.4812719430923461,-0.4635609298348426,-0.4760075928233563,2.669946354484558,9.28140681323409,1.7021379719004035,-1.3569687604904177,1.271163821220398,0.5027812123298645,-0.3090262258333593,-0.0866104327936153,0.6369566300437219,0.70091922520921,0.1289953291416168,-0.2014112025499344,0.0412501916289329,-0.0383200860440731,-0.1946615713566541,0.0039081133544445,-0.0414827167987823,-0.0723251476883888,-0.0695089182690018,-0.1041336581110954,-0.041667848402285,-0.0964314896178897,105
1721472702543092500,1.058618242061138,0.2885077297896146,-1.1375172989919782,2.662868963444233,9.098856535431745,2.5080475273057816,-2.0402371883392334,1.477649450302124,0.0879991650581359,-0.3344325087789171,-0.0917664759571495,0.6030788281308669,0.7183520252735407,-0.0047715296968817,-0.1646794378757476,0.0472272560000419,-0.0343903453797102,-0.1623123764157295,-0.19187338367654,-0.0255017802119255,-0.0897647142410278,-0.0874187648671213,-0.080107606947422,0.028710865838034,-0.1510249481986276,106
1721472702582847200,-0.8343208263754844,-0.0452069229483604,0.5367267038106918,2.59645295598954,8.854672516015171,3.320181948575377,-1.6126275062561035,1.1094083786010742,0.4575966298580169,-0.3563821090447496,-0.0947401238083419,0.5672231789249443,0.7363926085561083,0.0231953896582126,-0.1348073482513427,0.0403242781758308,0.1098509522944688,-0.090055533978343,-0.0828735043866094,0.0003562959609553,-0.1078726649284362,-0.1074104181414004,-0.0907630622386932,0.0663643503326922,-0.1614445440726354,107
1721472702622603300,-0.8641738205865025,-0.0582768324017524,0.9606281156912444,2.6536896316885947,8.644631589218974,3.7945553643256416,-0.2999838888645172,0.8678550720214844,0.8447309136390686,-0.3813219091978906,-0.0979199207677648,0.5449249548029313,0.7403121122538536,0.0328323021531105,-0.1193612217903137,0.0275219287723302,0.1948176387012004,0.1577969448179006,-0.1358294431596994,0.0051205297932028,-0.115724079310894,-0.1080617581896018,-0.1371015459299087,0.0718733412788249,-0.1490891030315309,108
1721472702662358000,0.4099591035068035,0.1435901402890682,1.3032780622959137,2.7807635214626787,8.641185832679271,3.710480366061628,1.0506738424301147,0.2945061028003692,0.5866170525550842,-0.395710675972823,-0.1028348887546367,0.5479444649971197,0.7297910957511038,0.0040744259022176,-0.0706814676523208,0.0096696289256215,0.2468131988763809,0.1010433764606714,-0.2783388024747371,-0.0094359228387475,-0.0736024305224418,-0.0062535445402521,-0.1416189670562744,-0.0345412661916809,-0.0071977414716297,109
1721472702702113000,0.5090002002343536,-0.5660860692858696,1.3681266743034124,2.990125233823061,8.794358624827861,3.144644472144544,2.0339486598968506,-0.6383935809135437,0.2003911584615707,-0.3971267878472382,-0.1059816674216958,0.5730930431236695,0.7089587933020591,-0.0034708422608673,-0.0652680546045303,0.0043735997751355,0.1102449200481176,0.1331757137805223,-0.1442027192294597,-0.0426684692502021,-0.0768303424119949,-0.0634872239938005,-0.09756501019001,0.0420010395791381,0.0447334145519416,110
1721472702741868800,0.5028305716887116,-0.7004156292766333,1.6478116306900976,3.0238284737214443,9.076230862125756,2.156125602225959,2.7809627056121826,-1.3181360960006714,-0.4291653335094452,-0.3787315735277058,-0.1147032313860334,0.6139310691750282,0.6830037828539397,-0.0178628303110599,-0.0443996302783489,0.0106881540268659,0.0592424625635147,0.1078828670918941,-0.1256675301074981,-0.0636800751090049,-0.0987615287303924,-0.1024794919447042,-0.098396711051464,0.0887927566340658,0.0069684713227325,111
1721472702781623600,0.4157154750764369,-0.522526329022646,-0.0304769713282585,2.873468693166971,9.319571416455506,1.0291584118861703,2.351476192474365,-0.7935374975204468,-0.586340069770813,-0.3493594695556146,-0.1264972332540391,0.6569063672774353,0.6560644297403296,-0.0755136087536811,-0.0198978036642074,0.0275183338671922,0.0829337192744016,0.0310310980796813,-0.159851539260149,-0.100631944835186,-0.1074635162949562,0.0022177063030452,-0.0866442993283271,0.0183430207008612,0.0884379427138715,112
1721472702821378600,0.2796007852345705,0.4009183034390211,-0.9144692988455296,2.7161440420359373,9.418750168088078,0.282998428316228,1.2964571714401243,-0.4962086379528045,-0.2480674386024475,-0.3301761429859884,-0.1368157462959205,0.6832660880620808,0.6367202120725076,-0.0947834476828575,-0.0155020952224731,0.0314189307391643,0.0266010066777467,-0.0537491258442401,-0.029117382546002,-0.1169014424085617,-0.0876069590449333,-0.0164712583124986,-0.0753815993666648,0.0449785301531199,0.0533074282250367,113
1721472702861134600,-1.17192342646271,-0.0413350499510765,0.2199409740418195,2.839035677689313,9.38665231755972,0.0321987901521846,-0.0976120680570602,0.5810664892196655,0.8536175489425659,-0.3345018209576307,-0.1389839873058829,0.6921284344757601,0.6242998512813352,-0.1124066486954689,-0.0116138812154531,0.0366190858185291,-0.0258007962107658,-0.0983066449731588,-0.0193897601246833,-0.0975613072514534,-0.115918219089508,-0.0202035767086199,-0.0605286173522472,0.1099119526335503,-0.012956820450758,114
1721472702900889000,-1.0315595547437668,-0.4064671697378158,-0.7401146024584769,3.2634044148206707,9.231045576262474,0.5553120887499302,-2.062422275543213,1.133861422538757,1.2151057720184326,-0.3637200480707082,-0.1258304142983942,0.6751693643278047,0.6293018166781632,-0.0444787293672561,0.0008212709217332,0.0366600304841995,0.0382090268850326,-0.1776683509796857,0.0165945764482021,-0.0962305068969726,-0.0603597275912761,0.0632472503586206,-0.0593504644930362,0.0707609778564423,-0.0504855255049886,115
1721472702940644000,0.3934428529918193,-1.3545862247288227,-0.0444559584505856,3.630761224919557,8.959168078756331,1.649618387851119,-2.881954431533813,1.063330888748169,0.9829935431480408,-0.4005256564886581,-0.106934619710197,0.6359700115199178,0.65091181686895,-0.019656203687191,0.0072509935125708,0.03412476927042,-0.0056458969324827,-0.0752706373006105,0.075568158942461,-0.0764502733945846,0.012882774695754,0.1193621098203584,-0.0549086779356002,-0.026518260297738,-0.0783834629583638,116
1721472702980400000,1.3642466179996728,-0.9194798204839228,-0.054694882261753,3.770717392620444,8.62102801079154,2.762237684690952,-2.615540027618408,0.9999514818191528,0.2747325301170349,-0.4252364450587544,-0.0881959874331499,0.5927786577681808,0.6782395797820451,-0.0171046294271945,0.0102119492366909,0.0180026590824127,0.0110696755468845,-0.1750233894288539,0.0718354021549224,-0.0376966372132301,0.0645795911550521,0.0530338948135497,-0.0304591190069913,-0.0378547997700166,-0.1065176431532949,117
1721472703020149000,1.5268269977018236,-0.6952677449941634,-0.9880918766781688,3.6078377377107738,8.283090771922469,3.813698163951933,-2.966839551925659,0.7577594518661499,-0.7137418389320374,-0.4386438660643716,-0.0790737297551491,0.5470857813745683,0.7085449930248189,-0.0343789532780647,0.0033515400718897,-0.0003981854242738,-0.0551174915879964,-0.1133358718007803,0.1463139940286986,-0.0120618976652622,0.0757957026362419,-0.0510038320243591,-0.0152351818978786,-0.036548443578917,-0.0606232904966222,118
1721472703059903700,1.6519801485463976,-0.853001561447978,-1.8198124574273824,3.073725308051705,7.902429074570536,4.926887661895155,-3.53265118598938,0.1617517322301864,-2.216148614883423,-0.4249529569621945,-0.0703357475624089,0.4938132493844485,0.7553915677566236,-0.0031627141870558,0.0017330307746306,0.0038469599094241,-0.0266506910383701,-0.085831194281578,0.1038683707535266,0.0018418107647448,0.0475844256579875,-0.1191302646927069,-0.0216210130602121,-0.0226093660585815,-0.0555836980273714,119
1721472703099659800,0.0922056977495551,-1.043327149426937,1.5631798753261563,2.1397887999311087,7.45095898002386,6.006238310861587,-2.824480533599853,1.2959301471710205,-2.347241401672364,-0.3989900200044656,-0.0791530242388279,0.4330148471942774,0.8043879063661064,-0.0648005157709121,-0.008629435673356,0.0339880846440792,-0.130565239021182,0.0342658422172069,-0.0104150110304355,0.005371349863708,0.0340547114610672,-0.1155818240966647,-0.0383937954902648,-0.0557878833965398,0.0113582375641446,120
1721472703139414500,-1.6675436283811926,-0.1171422783464193,0.2180991455674171,1.4460799748167394,6.956029682978987,6.759651955354213,-1.9317773580551147,0.0662961825728416,-0.9082902669906616,-0.3812847829256189,-0.0871035239384931,0.3844042681675889,0.8362226723481321,-0.125989556312561,0.0117053966969251,0.0615619197487831,-0.1820025807917118,0.028241759622097,-0.0962532013083808,-0.0033941562287509,0.0157377105206251,-0.1309062162122689,-0.0356975123286247,-0.0305759792899014,0.043847352432413,121
1721472703179169500,-0.5918041556492447,0.3808545895755291,1.1934119124323128,1.503246800149977,6.60407911632657,7.092022207745909,-0.7013140916824341,-0.6223477125167847,0.5780511498451233,-0.3794088601223193,-0.0729163618006389,0.3648159853691687,0.8471372220347559,-0.1626208126544952,-0.0055634980089962,0.0572704374790191,-0.1007324108153581,0.090064886328578,-0.1432394271552562,-0.0329357199370861,-0.0002614358672872,-0.1157376448460388,-0.050841998308897,-0.0645365229841787,0.0152508291224716,122
1721472703218925300,-0.2657883868508041,-0.366650707656145,0.3136725661844015,1.8821737826637923,6.4488201655536885,7.1442644361585375,-0.1278016716241836,-0.2156524807214737,0.8912241458892822,-0.3896614870819281,-0.0545226422227947,0.3643777616903758,0.8440497332914251,-0.037578210234642,-0.0554133467376232,0.047508355230093,-0.1405529645502567,-0.1229050796568393,-0.0565326556155458,-0.0349665470421314,-0.0145878549665212,-0.1133722400221042,-0.0529041476547718,0.0261895261002937,-0.0399230916607659,123
1721472703258680000,0.0495711095072329,0.1189361760258674,-0.4829015901207923,2.158630863045156,6.29917087135613,7.199385434877872,-0.6967606544494629,-0.1635974496603012,0.9332576394081116,-0.4039423962928057,-0.0431283036555536,0.3620406666194042,0.8389857756926523,-0.0715833157300949,-0.0527638755738735,0.0513419769704341,-0.1202221241831779,-0.0145072487801313,-0.0569768557190895,-0.002613405464217,-0.0251151192933321,-0.0969570843945722,-0.0560263395309448,0.0622181082402821,-0.0996603246044367,124
1721472703298435000,-0.116422001247853,0.0054524201869964,-1.4373212065607308,2.408570815639943,5.816048916482925,7.519491248980164,-1.977827191352844,-0.4045340418815613,0.7558078765869141,-0.4178500201493859,-0.0232290726986035,0.3406949640335694,0.841895903372375,-0.0481490939855575,-0.0398615486919879,0.0496322251856327,-0.03450257358253,-0.2537368606597185,0.0413304103085771,0.0398336164653301,-0.0425234921276569,-0.0673554437292739,-0.0730800405144691,0.1213166688210796,-0.1541426235614344,125
1721472703338190800,0.2350684005469083,0.4308031540930271,0.2008300308585167,2.5715342033103106,5.052516613557934,8.001853909918665,-2.5284225940704346,0.0599408335983753,0.5384329557418823,-0.4287198423830659,0.0012482804843335,0.3033437557592653,0.8509877683274031,-0.01567317917943,-0.0325823314487934,0.0574502684175968,-0.0031038112342357,-0.1658914039462804,0.1016098147043958,0.0703442022204399,-0.0158064309507608,-0.0004475445505668,-0.0852542147040367,-0.0031150809760991,-0.1248266131707932,126
1721472703377945600,0.894046396280825,0.8545143040984868,-1.874153703945875,2.747534328816831,3.992696594491601,8.525245915859937,-3.630021810531616,-0.2810080647468567,-0.1354321241378784,-0.4287993944636103,0.0364737808330689,0.2529883444435,0.8664857731481317,0.0140764601528644,-0.0152135686948895,0.0544827729463577,-0.1112877070993185,-0.3402092754542827,0.1410533152878284,0.0906321257352829,-0.0075275963172316,-0.0684742551587522,-0.0776559859514236,0.1005797410042956,-0.1301094124119263,127
1721472703417700600,0.419169414922595,-1.176279868106544,-0.6983224563896656,2.637328279474377,2.7019848760411143,9.050644585448502,-3.794221878051758,0.4897208213806152,-0.6228610873222351,-0.4192163695418424,0.0639021719532717,0.185639635209225,0.8864040746580176,0.0821881368756294,-0.0082209063693881,0.0331888683140277,-0.0178296712011098,-0.2606920866250992,0.0183002113223075,0.0849331989884376,-0.0064601521007716,-0.0838983721886295,-0.0535613931715488,0.0360359000800526,-0.0872979058332741,128
1721472703457456400,1.5093563690714538,0.0322333134762942,7.989780025765299,2.3325891074605285,1.8273130423158408,9.348280209067465,-0.6990496516227722,0.0237533543258905,-0.9149627685546876,-0.4026122574226373,0.0714958275705099,0.135124806853716,0.9025147919608042,0.0779374614357948,0.0026268942747265,0.017649857327342,-0.1221703356415033,-0.0768248810052871,-0.0795955147624015,0.0630830004811286,0.0147048812359571,-0.0765696321691619,-0.0458931438624858,-0.0794487632354721,-0.0873811910693999,129
1721472703497164300,-0.8241688501954079,-0.5098429346688091,-0.0057949500143527,2.594381702673436,1.7961279227182267,9.28512203436494,-0.1490873545408249,-1.4808764457702637,-0.5074907541275024,-0.3865821507846728,0.0869815953839071,0.1379301323635315,0.90772456650835,-0.0276845693588256,-0.0180579833686351,0.0271638017147779,-0.079148940038681,0.1853963148832321,-0.1061234196713194,0.0375264398753643,-0.0008598081767559,-0.2666155766562558,-0.0309831202030181,-0.034328171430272,-0.0878258021648973,130
1721472703536918500,0.7356751587063074,-0.5861733101554215,1.1088549758702515,2.830787489303946,1.7570875595755877,9.223322288534044,-0.2497879564762115,0.3572568297386169,0.0095181493088603,-0.3785600436507142,0.1003188827729796,0.1402767655098492,0.9093683517077902,-0.0267111826688051,-0.0112974969670176,-0.0212289653718471,-0.0104758013069629,-0.112017774939537,-0.0062578913509845,0.0324469618499279,0.0196580905467271,-0.0809408101578243,-0.0538336746394634,-0.2607762943098321,-0.1181080089728813,131
1721472703576671500,1.2793544581338765,1.2145111068233847,1.281449092325568,2.5884783238485456,1.7565435158267615,9.294338190999628,0.4452880024909973,1.3696681261062622,0.0669502839446067,-0.382159331560114,0.0881554813332216,0.1354594151631341,0.909853608616454,0.0250974185764789,-0.0269309449940919,-0.0440707616508007,0.0155161335617303,-0.0585305149018764,0.0417465168287977,0.0255044475197792,0.0184637364000082,-0.1845391135320067,-0.0349993221461772,-0.1927204654925502,-0.0871063105176202,132
1721472703616424400,-0.0485980266913771,-0.1619688236750662,0.6501841561645268,1.806540595661104,2.009544463427365,9.427010631433127,0.7824325561523438,1.2416510581970217,0.5300138592720032,-0.3903485667725476,0.0446976643124247,0.1317510762162512,0.9100944221295082,-0.0080240489915013,-0.0186621490865945,-0.0658856481313705,-0.0546136337190866,-0.0437941335409879,-0.0846890385091304,0.0497505478560924,-0.0236352421343326,-0.2826711143243126,-0.0327824167907238,-0.0702321864756755,-0.169163228691183,133
1721472703656178400,2.148042833535373,1.112085189963132,-0.6784025349110364,1.875413056357205,1.9629675673000515,9.4233737362355,-0.0909523069858551,-1.5262795686721802,1.4752860069274902,-0.4141042738428195,0.0454461872709907,0.1321979875595834,0.8994309043871781,-0.0113420812413096,-0.0182163901627063,-0.0669552385807037,0.0380500369310379,-0.056084290793538,0.0067640873074531,0.068628616631031,-0.0427993312478065,-0.1105268879278097,-0.0181273184716701,-0.1086084505532402,-0.0835927859713323,134
1721472703695931600,1.89016127428636,1.2979412313126026,2.0987942339807746,2.158433733037859,1.786538694987446,9.397862862882018,-0.0728878751397132,0.7592265009880066,0.4724831581115722,-0.4319533467502046,0.0598754752559609,0.131366922717881,0.8902662290225166,-0.0244733300060033,-0.0190953910350799,-0.0757984668016433,0.031391748085618,-0.0292465527504682,-0.0026023645181208,0.0797687992453575,-0.0195441022515296,-0.0281150782022392,0.0091254580765962,-0.1018714613152667,0.0290937116927583,135
1721472703735684900,1.754167580475658,-0.982548563337326,1.504265329542756,1.4901253066398203,1.872892305707932,9.510109770402313,0.541419267654419,2.2916648387908936,-0.1647287160158157,-0.4349233895325992,0.0266440069668644,0.1200393587995224,0.8920326899984115,-0.0562477707862854,-0.0071071195416152,-0.0859993696212768,0.0549316136270761,-0.116225163501501,-0.0816296509385108,0.0800686627626419,-0.081711545586586,-0.0059699486757657,0.0263578239828348,0.023459569130151,-0.018197817243624,136
1721472703775438800,-0.3945609703015535,-0.1357268595680594,-1.319965577724576,0.628743893250823,1.933473031137884,9.593578327205776,-0.1506740152835846,2.1844263076782227,0.3301407694816589,-0.4455193594655868,-0.0155838619603612,0.103057119408257,0.8891843500240314,-0.0596449002623558,-0.0030417507514357,-0.1306545287370681,-0.0142155723571777,-0.2235463050574064,-0.0583844209620729,0.0652914047241211,-0.0055380188859999,0.0860362792664673,-0.0036269794218242,-0.0843177849107887,0.0495538569783326,137
1721472703815192000,0.6639301382485777,0.1404933433175086,-0.3154220402002334,-0.426155949341692,1.78205058978796,9.633954176735877,-0.7344385385513306,3.073686361312866,-0.0776911750435829,-0.4505960718699394,-0.0607655507650018,0.0715023858435196,0.8877826365564949,-0.1547080278396606,0.0175468288362026,-0.1343036442995071,0.0347270299881696,0.0257563725471496,-0.0144902976453304,0.0329325459897518,0.0043335882946848,-0.0817005972828716,0.0077556427568197,0.0312480789983412,0.1376444110266398,138
1721472703854945000,-0.1845283729422837,-0.8624182090908289,-0.8297130403190851,-1.105946248816699,1.5284550372950731,9.62346551594734,-0.2594917416572571,0.2369961142539978,0.104339525103569,-0.4538451509891515,-0.0861217694291315,0.0438501939274625,0.8858243942610486,-0.1743768006563186,0.0733797401189804,-0.1082720533013343,0.1494452960580587,0.0584597877532243,0.0198562451252713,-0.0190426837652921,0.0224777664989233,0.0275279624966671,-0.0153158018365502,-0.0372610511109698,0.1294108174222056,139
1721472703894699000,-2.1448720945447683,-1.4607972130857407,1.466036428913474,-1.33569856890738,1.484589445953071,9.601160745158792,-0.0965249091386795,1.3189280033111572,0.50441575050354,-0.4571193310738637,-0.095771674962969,0.0361223124121496,0.8834958870757255,-0.0889324843883514,0.0814996063709259,-0.1212891861796379,0.1848410190880298,0.0481312859624624,0.2185715123195201,-0.0842411592602729,0.0819681361317634,0.0533337408432271,-0.0240313243120908,-0.1071227511732839,0.1619208380811847,140
1721472703934452000,0.5776328608252108,0.561633473791182,0.1450859318047762,-1.7970295477330684,1.521920374829322,9.519707619830966,0.0818211734294891,0.553087592124939,0.4895621240139007,-0.466341757430722,-0.1182046594158718,0.025644944353728,0.8762964089953518,-0.0552922263741493,0.0920775756239891,-0.0792635753750801,0.1477227100491523,0.220296363350749,0.174810623461008,-0.1452671438455581,0.141201913356781,0.0187731146472389,-0.035073347389698,-0.1481461596256122,0.0447752124336315,141
1721472703974205200,-1.1043502117969095,0.6950120166674256,-1.2345716058164835,-1.2205692378185689,1.5497018234632909,9.60619698576033,-0.1054105386137962,-1.5121394395828247,0.175731748342514,-0.4729151674300766,-0.0927853819194657,0.040138952860391,0.8752890861914554,-0.0194050669670104,0.0848262682557106,-0.0332756415009498,-0.0108323596596717,0.2186164474397897,0.1130278287649154,-0.1347715705633163,0.1226892098784446,-0.0663001716558355,-0.0092890551313757,-0.0518400910522555,-0.024919277835614,142
1721472704013959400,-0.2515621469691396,0.6989826738640665,0.4371954854786395,-1.2687559072300791,1.5181977010443806,9.60498410283923,0.0444000922143459,0.5595158338546753,0.1422482877969741,-0.4731304615920448,-0.0942033781425512,0.0375210319936247,0.8751373377025357,-0.0275623295456171,0.0597918592393398,-0.0126242917031049,0.0280307472199201,0.1394961489737033,0.0317336568584665,-0.1329127252101898,0.11117884516716,-0.0152121901706035,0.0133506162092089,-0.1368023067798465,0.045348715172382,143
1721472704053717200,1.0097355532094836,0.7983189541459083,0.8137029857605695,-1.5431933183521032,1.6935960612654686,9.53523310574293,0.8540903925895691,1.4698494672775269,0.2066902071237564,-0.4778308751769838,-0.1112954498763651,0.0381016144658711,0.8705395594205602,-0.1013276353478431,0.0509910695254802,0.0102703040465712,-0.0352893400460481,0.1958767923653125,0.0732277332961559,-0.1669715344905853,0.1285914778709411,0.1028354383760597,0.0110146952793002,-0.2390678089139983,0.2678998077805153,144
1721472704093470500,1.4949601794503629,0.0578225127629935,1.595534915485978,-2.40176391210407,2.272633528191596,9.232391145652532,2.2086212635040283,2.990508794784546,0.2453301846981048,-0.4787296268549516,-0.1657751331597567,0.0423986385424041,0.861126519133038,-0.0521355867385864,0.0463786348700523,0.0100950682535767,-0.0950181248217821,-0.0825216313421726,0.1629284624874591,-0.3555462956428528,0.1668178141117096,0.0452222072824602,0.0014495365321636,-0.1857809120203368,0.5974099762996659,145
1721472704133224700,1.525890009112656,0.0365717810720205,-0.7966220871001481,-3.440053944146633,3.21625015719682,8.601868552291393,2.4441494941711426,2.6881344318389893,0.7570303082466125,-0.4785717620904756,-0.2410249990231255,0.0577381759097024,0.8423433259098584,-0.0598353147506713,0.0476466715335845,-0.0043953238055109,-0.0903776055395603,0.0977408277839422,0.0798748796930536,-0.5918298363685608,0.1770883053541183,0.0095427759360376,-0.1479851901531219,-0.2475412208899855,0.5042975755013526,146
1721472704172977700,-0.5566708829477429,0.8380351707234979,-4.997303844901919,-4.08269338402003,3.752696582761408,8.088218188163637,0.8621776700019836,0.9570988416671752,1.0340744256973269,-0.4788339612990548,-0.28898031864736,0.0640782600605914,0.8265001575831706,-0.0622388198971748,0.0193216130137443,-0.0222282484173774,-0.0805704972743988,0.3070329820394515,0.0115325803508982,-0.7480853796005249,0.2469481229782104,-0.1191258168464526,-0.3129540681838989,-0.2366433947786688,0.5000784965015947,147
1721472704212731000,1.2670397509619593,-0.4572726433455943,-1.1667711582660674,-3.2949285571143028,4.480279620426893,8.077185337495804,1.5192852020263672,-1.1797775030136108,2.1900951862335205,-0.5041357874883399,-0.2757099096858442,0.1102823625582857,0.8109679094518495,-0.0804308727383613,0.0125007228925824,-0.0444912761449813,0.1424246036410331,-0.0391518606930971,-0.2600269007146358,-0.7121769189834595,0.0993181318044662,-0.0159551323337713,-0.1847204715013504,-0.2846834770600311,0.2077458198626525,148
1721472704252484900,2.7600045188114044,-1.885808485904336,2.043981278297305,-3.0854663069888946,5.43266802330017,7.558862305381893,2.558920860290528,1.4491746425628662,2.6953835487365723,-0.5276964667960722,-0.3035071142778944,0.1499623641617475,0.7790578801302237,-0.0671848431229591,-0.0171451065689325,-0.0697014257311821,-0.0045306291669607,0.0774146635919809,-0.1372727007705718,-0.5163983106613159,0.1000527068972587,-0.107733275153907,-0.0681519880890846,-0.3505348911682143,-0.2502295831911266,149
1721472704292238000,1.948438837340474,-2.950547841194272,-0.7707493946969509,-2.542051211455464,6.543047432258724,6.848131033796071,2.445389986038208,0.4734888672828674,3.792093753814697,-0.5641968447236364,-0.3328576963442106,0.2001205402465534,0.7285873903609069,-0.1247107163071632,-0.0480731949210166,-0.0123690944164991,-0.0491407552659511,0.1639730031043291,-0.0132721540272235,-0.2093826085329055,-0.0957524925470352,-0.3457507256316021,-0.0239083394408226,-0.045479287316068,-0.3987939316961914,150
1721472704331991000,2.728122649121284,-1.7698042716771365,1.0397487064182758,-1.5590039048157631,7.448700971964001,6.185203715914487,1.81867253780365,0.7011204957962036,4.3910441398620605,-0.6092300946068664,-0.3487412468925442,0.25104169269863,0.6664804773486737,-0.0887971967458725,-0.0345105156302452,0.007197150029242,0.1369143157869577,-0.0172790515810251,0.0566086069285869,-0.0593601241707801,-0.1042987704277038,-0.1589689660056494,-0.0752812176942825,-0.3379556878412142,-0.1768857127020135,151
1721472704371745000,1.453067057225108,-1.1393950755625963,1.821153350642324,-0.3089379388779401,7.966460524976253,5.710556159397959,1.1709988117218018,0.8441339135169983,4.668346405029297,-0.6609527976447911,-0.3511806916299103,0.2924291226230773,0.5952300440441937,-0.0724720135331153,-0.0235489439219236,0.0215525869280099,0.1885346129089593,0.2664490427166223,0.1727355707526207,0.0311822462826967,-0.1698508709669113,-0.3257191604720428,-0.0975083485245704,-0.0627695498442743,0.0108164086052915,152
1721472704411498200,-0.0188538266170769,-0.9672001875579356,2.631376093071699,0.9368805256832392,8.084263897579907,5.471500150519609,0.2743324637413025,0.3801278173923492,4.11948299407959,-0.7083376262804083,-0.342521788990781,0.3220403125634795,0.5265231629677914,-0.0451264083385467,0.0261780265718698,0.0727647021412849,0.0806453160762786,0.0497369675934314,0.0716751700919121,0.0767472013831138,-0.2230356335639953,-0.0468601426486391,-0.0984656065702438,0.005771155863523,-0.0124666052314219,153
1721472704451251200,-0.3482103572107851,0.27115327488482,4.458679783037304,2.105704013369232,7.751964956858754,5.625248696729541,-0.964263916015625,1.1230909824371338,4.303246021270752,-0.756416127753029,-0.316756211397552,0.3359429189770753,0.4632951409393091,0.0096207251772284,0.0301883742213249,0.0735616609454155,0.0339390944808721,-0.1209656360268592,0.0345008930820971,0.1039612516760826,-0.1632676273584365,0.1805157580337487,-0.059529285877943,-0.0752477267824811,0.191528515761625,154
1721472704491005400,-2.3320728285014627,0.980892612823844,2.8703654664546248,3.116622785013914,6.978780443969368,6.144402334448695,-1.7196117639541626,1.2704960107803345,3.9163084030151367,-0.8078986549357421,-0.2751699747501931,0.3331728501972186,0.4007209138950909,-0.0268571246415376,0.0426491424441337,0.0858640000224113,-0.0787251616686582,0.0946966377824544,-0.0532149459023028,0.1202404126524925,-0.1342788785696029,0.1064474274612963,-0.010574878193438,-0.0783526385618373,0.1815851773635484,155
1721472704530758400,-1.926869395089149,3.088106884625554,2.7023089934289453,3.3325647525474427,6.189873461291193,6.837387521463632,-1.7357463836669922,2.4227371215820312,1.7992709875106812,-0.8504399276304999,-0.2453835207188653,0.3019556183354534,0.3540645046841909,-0.0404847860336303,-0.0014236140996217,0.0533173717558383,-0.0976022960960864,0.0730564683824777,-0.0682324092268943,0.1146825850009918,-0.1303477883338928,-0.140756177238468,-0.0472110211849212,-0.0145660137796425,0.1029971591432578,156
1721472704570474500,-1.8632558778345585,2.295201187700033,-2.1808523394644257,3.132032827852666,5.382704261213541,7.575437592607736,-2.63228702545166,1.2206250429153442,0.657214343547821,-0.8787947322352324,-0.2113084853995867,0.2628857130582259,0.3375791791703868,-0.0287157464772462,-0.0223323050886392,0.0307731162756681,-0.0353168125748634,-0.1346907945185899,-0.0235796130299568,0.1008375957608223,-0.1281468868255615,-0.0244669126919237,-0.0673652961850166,-0.0452942267724778,0.0857132578571792,157
1721472704610226000,-0.6229845990717411,2.575667649853229,-0.473715244102478,2.7629519704401493,4.630280796802044,8.19127465801239,-2.0610032081604004,1.521941065788269,-0.5463131070137024,-0.8947796147386421,-0.177685574295475,0.2253642456828315,0.3420648352905857,-0.1456428915262222,-0.0551097989082336,0.0136641031131148,-0.0756131671279668,0.1049701945155859,0.018959552013874,0.0719487741589546,-0.1580564081668853,-0.1598128877501934,-0.0716065317392349,0.0755793196572922,0.0692220139192882,158
1721472704649977600,-1.846408934060484,1.9717004704624408,-4.306875356632471,2.318814849130064,4.014551867946982,8.641576877823471,-2.072176456451416,0.2196376174688339,-1.3270444869995115,-0.8987613461318525,-0.1497718581547469,0.1922773385724353,0.364452859363115,-0.078415922820568,-0.0334288962185382,0.0108685176819562,0.1591968747437,-0.3131038263857365,0.1503448021810501,0.0599439516663551,-0.1367658823728561,-0.0509801360549405,-0.1004040092229843,0.1110835719624999,0.059128900920134,159
1721472704689730300,0.5464091627828777,2.079149330051244,-2.3314766161739824,2.0213721177347,3.663343059572577,8.869292577520012,-0.6583486795425415,0.0163722597062587,-2.311641931533813,-0.8888722007897855,-0.1307763105816939,0.1751841167030204,0.4026340285946759,-0.0512114688754081,-0.0135115953162312,-0.0204948652535676,0.218321263885498,-0.0833779559105634,0.1217921499788761,-0.0007364019984379,-0.1344542950391769,-0.025833828547399,-0.1602970659732818,0.1103652493590023,-0.0357249138851417,160
1721472704729482000,2.0578921686194835,-0.2823129668027162,-2.467688336649537,1.704296318978071,3.7151492346554993,8.914225944223999,-0.6251570582389832,-0.4303284883499145,-1.060944437980652,-0.8737590578981751,-0.1336059844427075,0.1662841000402772,0.4370860136819909,-0.0521049574017524,-0.0026748736854642,-0.0608430206775665,-0.0174456403195858,-0.0098111999183893,0.0404372243285179,-0.0347071029245853,-0.0875119566917419,-0.0475395397475454,-0.2050840556621551,0.0517836983896326,-0.0033260517082584,161
1721472704769233400,-0.3689696521230042,-1.9410209622994063,-1.205946399834752,2.071695945305377,3.339683936902881,8.984707593682408,-0.8163915276527405,-1.397628903388977,0.0509890839457511,-0.8700267734505026,-0.1051798696327265,0.175626262388912,0.4484931945518512,-0.1077666208148002,0.0116510149091482,-0.071882888674736,0.0979208605259656,0.0515197593569755,-0.150131963147968,-0.0653381943702697,-0.13416488468647,-0.4845697059961035,-0.2466761767864227,0.3633332536712289,-0.2395078442990779,162
1721472704808986000,0.508945255176723,3.598084989981353,4.045466646170616,2.047164292247593,3.4464044822171327,8.94996068994999,0.6787891983985901,0.6772503852844238,-0.2969582378864288,-0.8672667254583799,-0.1100379197671904,0.1776813055238087,0.4518511020975389,-0.0814258307218551,0.0259446799755096,-0.1221744865179061,0.0556079054534435,-0.2715782222986221,-0.0265443080544471,-0.0859088227152824,-0.0783093124628067,-0.0787156631879508,-0.2962880432605743,0.0324675149578135,-0.1893564324195496,163
1721472704848738000,-2.809640656378865,2.0706445365563035,-5.131762584230303,2.101854644464701,3.4146211044654247,8.949466768953204,-1.008368730545044,-1.2269278764724731,-0.8462064266204834,-0.8629774634944013,-0.1055637794195806,0.1804452151820065,0.4599626285598775,-0.1258803755044937,0.0350829437375068,-0.1244174018502235,-0.0151426240742206,0.0998462756305933,-0.2726256124597042,-0.113734170794487,-0.0761155188083648,-0.1727276797071099,-0.2841262817382812,0.0496433801589999,-0.3430088430449366,164
1721472704888489500,0.047114656265825,0.955554465688765,1.794796089592576,2.3253894052147865,3.2565944425448774,8.95307443805635,-0.5025137066841125,-0.6395362615585327,-1.0651121139526367,-0.8494122752750551,-0.0873663279349555,0.1894396127186634,0.4847458704312784,-0.0220658313482999,0.0362125523388385,-0.1285577565431594,-0.0801706843018531,-0.2921516392499208,-0.2837901266831904,-0.1121940165758133,-0.0559202246367931,0.0361630564239458,-0.2409598976373672,-0.0133640678110881,-0.3113262953191995,165
1721472704928242200,-0.1020440779358148,-1.899652302339673,-2.790200627371669,2.6113170553833243,3.008766221407056,8.960956131216884,-1.2050645351409912,-1.634024977684021,-0.4824064075946808,-0.8396242006967828,-0.064770604555614,0.1972895464434515,0.5019090985638303,-0.2504617273807525,0.012342850677669,-0.1273534148931503,-0.0393482600480318,0.0944295112788677,-0.1661643026035278,-0.1259732991456985,-0.0966739803552627,-0.2221133861774578,-0.1070484295487403,0.1440754213216714,-0.1798716514439322,166
1721472704967993900,1.1014105050832033,-0.2160653016522526,3.2648470148444173,2.8925670691296457,2.878866460557282,8.917150307238101,0.1995352506637573,-0.1644261479377746,-0.1882113814353943,-0.8322245312280996,-0.0488753875539027,0.2072753212281488,0.5119087152090568,-0.0575591102242469,0.0212366916239261,-0.1365060210227966,-0.2651648481249809,-0.5208323845863342,0.1712333494961261,-0.1185965463519096,-0.0556432828307151,-0.0277118357301689,-0.0589915961027145,0.0690159562534419,-0.1287331373563502,167
1721472705007745500,0.3101230570092797,-0.5397089344918727,-0.239890121614933,2.9902839315161107,2.939896098798513,8.864851964724064,0.1534079164266586,-0.5034863948822021,0.0391486063599586,-0.8309749295546858,-0.0489487244762497,0.2135939198071809,0.5113339245420183,-0.1827891916036605,0.054851908236742,-0.1273380815982818,-0.0202069217264652,0.1061918452650308,0.127740317793563,-0.0845515951514244,-0.0180332828313112,-0.0582565385323949,-0.0578300058841705,0.021059949226072,-0.1906145792544819,168
1721472705047501000,-0.3078133187621831,0.7114499412491917,-0.2154103448748588,3.081944854864478,2.989087999729812,8.816879084193706,0.1304765492677688,-0.2437162548303604,0.0690546482801437,-0.830048251793512,-0.0487512010805605,0.2192888549826978,0.5104464750346007,-0.0826562121510505,0.0723275244235992,-0.0857226699590683,-0.1646662460654974,-0.2729962724030018,0.3334311596214771,-0.1113378778100013,0.0462081395089626,-0.1133921685652807,-0.0522876977920532,0.0030586905967647,0.0965812916184309,169
1721472705087252700,0.1468973651409149,-0.2844222140416503,-2.128465734145045,3.391433413362503,2.823772349844873,8.75756121830642,-0.8954861760139465,-1.6714985370635986,0.3147308826446533,-0.8286093346247269,-0.0329008265149516,0.2289239672764836,0.5098216322975448,-0.0739804282784462,0.0650771111249923,-0.0720555260777473,0.0825362443894147,0.1313648649662733,0.0932591523252427,-0.1631664186716079,0.0068098744377493,-0.1274456913616974,-0.0753083303570747,-0.0667450110801961,-0.1551119800502434,170
1721472705127004400,-0.1728577358275652,-1.1488067547693848,0.181079036206007,3.812792447283864,2.765042512978613,8.601600841265917,1.1447021961212158,-0.4417290985584259,-0.0909605994820594,-0.825148512483264,-0.0188001684558195,0.247157770256839,0.5076312047739707,0.0255168676376342,0.0219890866428613,-0.077577456831932,-0.1756745468139648,-0.2577542796075344,-0.0833317786812782,-0.1312566697597503,-0.0251702088862657,-0.1354974438595119,-0.0473455376923084,-0.0760106602792628,-0.1291359460035804,171
1721472705166757000,0.9484156998500228,-2.5187796414613723,-0.5530617525398731,3.8962513594761488,3.465686398053169,8.30533709052205,2.932068586349488,0.0157226771116256,0.0400483608245849,-0.821918383700428,-0.0501639011362672,0.2720831427737896,0.4979000180657161,-0.0479751899838447,0.0184941682964563,-0.0730546787381172,-0.0715203448563814,0.0788221923023462,-0.2404185294032096,-0.046040765941143,-0.0957647636532783,0.086783581369277,-0.0588932894170284,-0.1245722000183071,-0.2293805459025315,172
1721472705206508500,-0.5017813548967242,-0.5117655732944607,-1.945837130409479,3.9657419520705934,4.35864879848957,7.838715019550919,2.137462615966797,-0.2970533967018127,0.5849561095237732,-0.821451278735724,-0.0963311882259479,0.3017566383836761,0.4742161260268204,-0.0138779431581497,-0.0220640171319246,-0.1176177561283111,-0.1583802976638078,-0.263894682058692,-0.0433351377271115,0.0075080497190356,-0.0660127028822898,0.0116001999437226,-0.0038490328006446,-0.023912865855603,0.0409659106780076,173
1721472705246260500,-1.6127949701055884,2.7723113349378106,-1.957053520950675,4.235792234149575,4.5648692902147765,7.575646266922354,0.0633149966597557,-1.8304654359817505,-0.0469530038535594,-0.8175009794619437,-0.1009264549967672,0.3218126372483001,0.4668433342633991,-0.0875966399908065,-0.0270299073308706,-0.1103501170873642,0.0207271462082862,0.0923164646476507,-0.0375578694999218,-0.0357685424387455,-0.0849533975124359,-0.2392278765802271,-0.0072296061553061,0.1309285376419313,0.0255105194437433,174
1721472705286013000,0.263079566283524,2.824553855611384,2.9667724152863024,4.859164955756068,4.667052776621282,7.125834460976719,0.1142876595258712,-1.920586943626404,-1.1623084545135498,-0.7942186690808787,-0.0805250255541826,0.3608313503622128,0.4822169295617596,0.0022275235969573,0.0058209295384585,-0.1117454841732978,0.2019803699374198,-0.232525145804882,0.0203987910367548,-0.0259191114455461,-0.1126670539379119,0.0522983973129652,-0.038977961987257,0.089164850482624,-0.1038068863572552,175
1721472705325764600,0.1861333969861268,0.9764812261223792,-2.0449065764486787,5.158622534105182,4.794742167945206,6.824181418409943,-0.5312747955322266,-1.9727685451507568,-0.3552353680133819,-0.7747399421597679,-0.0689793431287245,0.3838038859195773,0.4977092940242157,-0.0408602952957153,-0.0079055353999137,-0.1149628460407257,0.0487917956978082,0.2326432192265987,-0.0599205079555511,-0.0177754610776901,-0.0574665591120719,0.0141214255170314,-0.0124242873862385,0.0755618250997969,-0.0181005982386239,176
1721472705365517000,2.8638860413074494,1.5699331489786506,2.874728922361135,5.4415995177745815,4.848622226692736,6.5612687331259245,0.1139074712991714,0.0041597452946007,-0.5190696716308594,-0.7588786971539814,-0.0557266079261356,0.4029428639961731,0.5085614290371219,-0.1165262907743454,-3.2437383197e-06,-0.0944603681564331,0.1367167473882436,0.2059451819151639,-0.1413258486188948,-0.0422929599881172,-0.0109836133196949,0.0463646233498118,-0.0041337241418659,0.008486476382715,0.0209294684139313,177
1721472705405269000,0.86603406150043,1.766427196459472,1.227886428964138,5.438796735313535,4.819722295422852,6.584841916415095,-0.2084599137306213,-0.4194036722183227,0.1996073871850967,-0.7584692957067289,-0.0536813961960076,0.401727261631575,0.5103506285091943,-0.0858591943979263,0.0149235073477029,-0.06980961561203,0.251883926269412,0.1094680904567241,0.0123814157325774,-0.0914502590894699,-0.0275101512670516,-0.0855451164823491,0.040700864046812,0.2581957214984111,0.0585205597634427,178
1721472705445020400,1.0598778867334129,2.1796195827990767,-0.3659808455705642,5.543779204788804,4.709994969508052,6.576689589619636,-0.5309527516365051,-0.3745209574699402,0.2344350665807724,-0.7582941143634042,-0.0453573089005693,0.4032677217573654,0.5102038091329484,-0.1420755833387375,0.0563393905758857,-0.0674059838056564,0.1479968508154154,0.1203372749954461,-0.1156057164289057,-0.1234228014945983,0.0583194568753242,0.1260270293359644,0.0345607846975326,0.1152760278168134,-0.0892932900347281,179
1721472705484773000,1.014076505023241,4.297823450648784,-0.6132908880531788,5.622051361992955,4.446998113071918,6.692318540793657,-1.5999162197113037,-0.7069221138954163,-0.6390830874443054,-0.755170094410716,-0.0261775089124371,0.3976197313984114,0.5205107316172437,-0.1284298151731491,0.0512231402099132,-0.0732828453183174,0.0771773477047681,-0.0712310065209865,-0.0604290419995784,-0.1697424501180648,0.1509075313806533,0.1453754619364161,0.0658915266394615,0.0194971409057383,0.0732010462186299,180
1721472705524524800,-0.1150631339848041,1.5647139530256389,-0.634223201444745,5.751762030011415,4.158325840370357,6.767270029142499,-2.515803098678589,-1.9302786588668823,-1.4455770254135132,-0.7330168199977961,0.0085996528072317,0.3935623233071995,0.5547261122859021,-0.0191840250045061,0.0556831359863281,-0.0864343345165252,0.0547679474979639,-0.3036380789041519,-0.0682616353213787,-0.1405048221349716,0.1198227107524871,0.1384468773827888,0.0643680840730667,-0.1571671407480724,-0.0413934290748089,181
1721472705564276500,-0.296030526509881,-5.968484042006731,2.666765386360884,6.2357455701500175,3.8460242702782153,6.5187389204323285,-0.8484088778495789,-1.9400907754898071,-0.2998831570148468,-0.7026510469063767,0.0567438576697919,0.4054836092056244,0.581931768228451,0.0895714834332466,-0.0116538815200328,-0.1006988883018493,-0.2781429876416921,-0.3128103963971138,-0.0138985422972589,-0.0800174325704574,0.1025794818997383,-0.0079831722112983,0.0321004576981067,-0.342042737959139,0.0555878125134855,182
1721472705604029200,-1.2589824089735746,-7.537710211759805,1.7063620193362234,6.427764518043398,3.87323464102596,6.312866803753376,0.8958366513252258,0.5381907820701599,0.1716256141662597,-0.6971793474826692,0.0635552708694701,0.4172458498890232,0.5794891358654805,0.1334641128778457,-0.1128069683909416,-0.090951383113861,-0.4373001148968934,-0.2957195608645677,-0.0495851380325853,0.0231133569031953,-0.073270209133625,-0.1891982461831532,-0.0094941202551126,-0.2439132579174824,0.0097042438290198,183
1721472705643815200,-0.8015840934216976,-5.530791712921857,1.502427592721581,6.225947229713201,4.1532276404485104,6.337086468252539,1.8875746726989744,1.2546629905700684,0.7947977781295776,-0.712670591629367,0.0331733752982855,0.4192827533668039,0.5614286874542193,0.1294006556272506,-0.1857904195785522,-0.0404522642493248,-0.391917835381627,-0.0608925678580999,-0.0480300906103104,0.1420449614524841,-0.2367179542779922,-0.2046828155628405,-0.015919879078865,-0.0393144491099752,0.1626232324631884,184
1721472705683568000,0.2992950812637805,-1.8924428093522785,-2.655527953031659,6.207995393437146,4.171872135163843,6.342448872068524,0.1912292242050171,0.0190472435206174,1.5047625303268433,-0.7323594056018609,0.0167565534889544,0.4199337090004149,0.5357467233155587,0.0855525061488151,-0.2360929995775222,-0.0280920639634132,0.0035457097828388,0.2165589303880929,0.0783703568816184,0.1745538115501403,-0.2471424043178558,-0.0729177037991816,-0.0532073006033897,0.1016296427828725,0.22549493664084,185
1721472705723321900,0.5125882878541946,0.1667170411154627,-2.435317514398694,6.59085781570375,3.581555295462906,6.316916955927014,-1.3535429239273071,-1.282017707824707,1.730817198753357,-0.7454358222747037,0.0453977463994242,0.4193637052432094,0.5161381482960761,0.0550646409392356,-0.2263271957635879,-0.0263634733855724,0.352525151669979,0.5254641360402107,0.1003448728024959,0.1468965262174606,-0.267301470041275,-0.0521188805941725,-0.130100592970848,0.0672158023631433,0.2196665044819936,186
1721472705763074800,-1.7084411636978387,3.212060888813436,1.011191304975748,7.049456154695153,3.0002938688769936,6.12158376891911,-0.3385176062583923,-0.9408186674118042,0.2184303402900695,-0.744098653972327,0.0848276997291361,0.4250768611908183,0.5083612308685203,0.1327200233936309,-0.1978622674942016,-0.0138926887884736,0.4672743974000215,0.0865180075019598,0.0919593217730522,0.1213050037622451,-0.278000146150589,-0.1273982994228601,-0.1600611507892608,0.2285190154360607,0.0843924119164235,187
1721472705802827800,0.1737216591805219,3.1085701192006465,-0.9368389515638352,6.902341347411275,3.394829777802527,6.083025197944044,1.4173120260238647,0.5369157791137695,-1.2432258129119873,-0.7394875049815671,0.0649094415620089,0.4308581907054564,0.5131337423369524,0.117990605533123,-0.1666925102472305,-0.0247533917427063,0.1820604484587907,0.1765735414803028,-0.0889198079466819,0.1033355668187141,-0.2506025731563568,0.0755704650639789,-0.1625169962644577,0.1715984199488535,-0.0354123499377863,188
1721472705842581800,1.3752677782297134,1.2417743768021463,-2.637383224532008,6.649945964488387,4.051356288731098,5.961133094722032,1.3033956289291382,-0.0419159270823001,-0.9707650542259216,-0.7320895633608537,0.0302195316228573,0.4417618884370295,0.5176659591136236,0.0997463539242744,-0.1630197018384933,-0.0162604395300149,0.0140542443156242,0.2550029350727796,-0.1836835926812142,0.0442344099283218,-0.1237102821469307,0.181003157958202,-0.1349375247955322,-0.0258709753701463,0.0433463669406017,189
1721472705882334700,1.7469886287569998,0.5497285164639354,-1.2382751365095377,6.655461513039469,4.531515302145481,5.598264828214049,0.3471179902553558,-0.8708670139312744,-1.0571110248565674,-0.7143684281664452,0.0164673608043817,0.462921960757006,0.524509016042481,-0.0260155666619539,-0.1267940402030944,0.0002001602842938,0.1465355460911989,0.27115327488482,-0.3380393840692937,-0.0004765666089951,-0.0641207844018936,0.1171961548249702,-0.0905235335230827,0.0622671761129749,-0.0438543210293166,190
1721472705922087700,0.9697814362227916,0.9594444588646291,1.3340508017003536,6.69720046761632,4.746985852774977,5.365075081020593,0.0636803582310676,-1.1494721174240112,-0.6598238945007324,-0.6987120504780154,0.0171839282430924,0.4755649416728636,0.5341763348273124,-0.1194768100976944,-0.0837552398443222,0.0379025973379612,0.1397749659150838,0.169674429616332,-0.0953786286972463,-0.011521534062922,-0.0137288253754377,0.133463609077502,-0.0486634895205497,0.0259127275860635,0.0400203095241216,191
1721472705961841700,0.8984089754045009,-1.716062744617462,4.348894881716371,6.726823452463746,5.049239783844351,5.04236054572463,0.841204047203064,0.0760785713791847,-1.025814175605774,-0.6796442313900244,0.0150165633132669,0.4926313773634515,0.543297732881434,0.0039481921121478,-0.0023351074196398,0.074418731033802,0.3005447890639305,-0.0853004484057426,0.2759093833707273,-0.0223202761262655,0.0099617019295692,0.0069809186707076,-0.0657245367765426,-0.0288439952649874,-0.1352322901173029,192
1721472706001594600,1.0196610271573066,-2.017427617892623,1.2747045865014195,6.585071048995852,5.5802983788907525,4.654834515561163,2.099194526672364,-0.8640692830085754,-0.7928754091262817,-0.6688726914820274,-0.012910728401324,0.512350276528534,0.5384605232828732,0.1735180616378784,0.0267066098749637,0.0561503767967224,0.1296323420852422,-0.3290712108463048,0.3356055810511112,0.0140961809083819,0.0565820783376693,0.060462350614136,-0.0777002424001693,-0.0635837112047942,-0.1169233200998045,193
1721472706041349400,0.6010077450633049,0.7010860758841038,-1.5645084935814142,6.359685253551602,6.104433312153816,4.29659215528816,0.3479801118373871,0.4778468012809753,-0.9607699513435364,-0.6580267327199528,-0.0436347973865315,0.5282336265679626,0.5348516096660252,0.1433247327804565,0.0322679281234741,0.0502946861088275,0.0694400314509868,0.1052735613763332,-0.0610989040851593,0.0494286939501762,0.0121425744146108,-0.1372395565527956,-0.0553420558571815,-0.1317421555797569,-0.0895323777539189,194
1721472706081102300,-0.2657470319271087,0.044579146438837,-1.5133333098784088,6.137376381334662,6.069463121059536,4.654525595742464,-1.4328693151474,0.8979251384735107,0.0830628126859664,-0.6612328387015626,-0.0450355950493232,0.5105458207893395,0.5478009381084556,0.0486791804432868,-0.0062253470532596,0.0205279365181922,0.006566518908739,0.1749900716811418,-0.0564320813179016,0.0741605162620544,0.0157808512449264,-0.2116955621354281,-0.0605777874588966,-0.0944680714572779,0.0383840500917984,195
1721472706120855300,-1.1671890914171934,0.6487731203228235,1.1226245580255985,6.1659834671378135,5.766041899776458,4.9903714152902365,-1.291732907295227,-0.9655293822288512,-0.1052348092198371,-0.664346468417815,-0.0257180880255035,0.4948741695370495,0.5595373820934614,-0.0943900942802429,-0.0499343685805797,-0.0018689160933718,0.1888853260427713,0.3056225307196378,-0.2777834336142987,0.0602192878723144,-0.0929602086544036,-0.3183829723650589,-0.0424339510500431,0.0966465845401398,-0.1489532473579514,196
1721472706160609300,-0.7151824057757854,0.2891688240468502,-0.2060714386433363,6.415327061274647,5.46918485931456,5.0101861228287214,-2.4468164443969727,-1.973926544189453,-0.1092800050973892,-0.6463183956298659,0.0130495154378356,0.4943493796503857,0.5811375169068731,-0.0632135346531868,-0.0184606537222862,-0.0270640850067138,0.255552385649085,0.0287689983665943,-0.0290296951293945,0.0458339415490627,-0.001234783208929,0.1940182502181269,-0.029159914702177,-0.2228160362877883,0.0724609730076277,197
1721472706200362200,-0.7336661569714545,0.0411371892914175,-0.720920072644949,6.913399917042255,4.848271805819869,4.986938518232106,-2.6269705295562744,-2.2588765621185303,0.6642526388168335,-0.6255706186092153,0.0765141233402005,0.4897779954709454,0.6024322322304358,-0.0300055127590894,-0.0414530001580715,-0.0546930506825447,-0.1221527999848127,0.0172170922607183,-0.0879426334775984,0.0099218841642141,-0.0327178910374641,-0.0248066089580883,0.0066460259258747,-0.0222879543677787,0.0902835340479388,198
1721472706240115200,1.1590776811540129,-0.4221685967385769,-0.2175835972607135,7.271354692545533,4.290151016324758,4.989228090474009,-1.8142220973968504,-0.7383763790130615,0.1811875402927398,-0.6131335370904681,0.1245455462200365,0.4796963413751702,0.6151805909520762,-0.1407911479473114,-0.0177537985146045,-0.0498753264546394,0.046751814302802,0.0300952785342931,-0.0792835262037813,-0.0384236350655555,-0.0060623735189437,-0.172531901406683,0.0022630225867033,0.0787552554128225,0.0522893235239433,199
1721472706279869200,0.8353577682077884,1.564303910920024,0.9768108964681624,7.427779764488338,3.87547219081968,5.0969788556188345,-1.4162017107009888,-0.1331571489572525,0.8962247371673584,-0.6088484936504547,0.1525920805610684,0.4656630154177678,0.6238407111895741,-0.0486766695976257,0.0233726520091295,-0.0383119471371173,0.1052723923325538,-0.1508569164216518,0.1277110186338424,-0.0555880330502986,0.0265668425709009,0.2115397322528995,0.0662609487771987,0.085719431869639,-0.0344914631000487,200
1721472706319622100,1.9146090484529728,5.763742975184321,1.1652823810130355,7.283614454659819,3.2279812192618844,5.718346667143702,-1.8738824129104608,2.8653318881988525,0.4852250814437866,-0.6263483490232992,0.166206604350707,0.4252303112865723,0.6318563466816325,-0.2637037634849548,0.0909593626856803,-0.031212955713272,0.2932318357020616,0.6236316648036241,-0.0547965890705585,-0.1473283469676971,0.1711311787366867,0.0209141110145952,0.0809045881032943,0.2666082883989438,-0.0361179089578334,201
1721472706359374800,0.5350274986773729,4.225070056866109,-0.2913502597391605,6.66463616861999,2.752381768848002,6.646608929020166,-1.0331008434295654,2.107994079589844,0.8496768474578857,-0.648971934719777,0.153234709773752,0.3709937883684907,0.6463112023815762,-0.329179435968399,0.1857911795377731,-0.0197998471558094,0.7481652224451303,0.295444835576415,-0.0213711432002484,-0.2920120060443878,0.2993547916412353,0.4069641594745218,0.0614264532923698,0.0661423324793111,0.259192787978053,202
1721472708187888600,1.133125859099999,-0.9283984554767608,0.978803531590104,0.9603043636295944,2.950152119874954,9.302945860347153,0.6894127726554871,-1.2791322469711304,-0.738803505897522,-0.6892950009712708,-0.0709087426081943,0.1437140041271817,0.706534173528513,0.0274694971740245,-0.0287894569337368,-0.0015340901445597,0.0708475601613521,0.0768845022380352,0.0047673605322837,0.0611133277416229,0.0551246739923954,-0.0697644639326492,-0.0620820187032222,-0.1401722398706711,-0.0822165200489107,203
1721472708227641300,-0.4547013315528631,0.0314522461012005,0.8966980798333882,1.009407855625078,3.191741446623206,9.2176062489748,0.4004015326499939,0.255009263753891,-0.5140187740325928,-0.6770593080866736,-0.0756422162122314,0.1559202590671365,0.7152326746006,0.0789321511983871,-0.0266703274101018,0.0199688039720058,0.0291851779520511,0.2038876648634672,-0.0288157601177692,0.0653706118464469,0.0274081751704216,-0.0173139196817181,-0.0809039622545242,-0.192658360041771,0.226026942892,204
1721472708267394000,0.5879007184699178,-0.315898425540328,1.880685151541233,0.7495601839348673,3.41085298410356,9.163767106759549,0.2126267403364181,0.9452017545700072,-0.5593534708023071,-0.6688607524159148,-0.0917718033300055,0.156063594983787,0.7210044592547283,0.0479718446731567,-0.0519695580005645,0.0353080779314041,-0.0592336947351694,0.1113461592882871,-0.0870973417598754,0.0410005450248718,-0.0684800744056701,0.0266970965965185,-0.0418896079063415,-0.1881326993108727,0.0259066723046125,205
1721472708307148000,0.0868459790810011,0.0492792869538068,-0.6945347545444965,-0.1948842559303157,3.3563229370146987,9.212356073361637,-0.4807923436164856,3.1227786540985107,-0.7953905463218689,-0.6670094960909831,-0.1251316287478074,0.1210067940815136,0.7244292565637294,-0.0377507880330085,-0.051298763602972,0.0457137823104858,-0.0877057559818029,0.1526157427877187,-0.0538286938864737,0.0337793976068496,-0.0333791635930538,-0.0058016429041541,-0.060351513326168,-0.2195617289332672,0.001091584925013,206
1721472708346900700,-1.4494555887296794,-2.026834036402404,1.107602929982543,-0.9300815862581132,3.3846453606575726,9.15693755300045,1.0569634437561035,-0.7658529281616211,-0.725567102432251,-0.653429570941782,-0.1526627726773603,0.099096844185265,0.7347814376355432,-0.0257881321012973,-0.0686692297458648,0.0329495184123516,0.0291314019381999,0.0995668741673231,0.022950667476654,0.0114174215123057,-0.0565018653869628,-0.172711422692053,-0.0552752651274204,-0.0776253928663674,-0.0635702854676405,207
1721472708386653700,-0.8533930449835956,-0.652490971802175,-0.7383095988631247,-0.4756882246758788,3.736521985290944,9.0544194278121,0.9171777367591858,-0.7336308360099792,-0.5203543901443481,-0.6394220000638631,-0.1454258149624977,0.1311656209801825,0.7434961473310091,-0.046848140656948,-0.046027299016714,0.0447107702493667,0.1387736799180507,0.1756149255812168,-0.0895850669223815,0.0268555656075477,-0.0651735067367553,-0.0997058077139779,-0.0102342776954174,-0.1762645303300581,-0.0231639357679989,208
1721472708426407700,1.0822130526602267,-2.089573693431914,0.7076917577594518,-0.8022410960257053,3.877743058361113,8.971616641440987,-0.1516295820474624,0.9428660869598388,-0.4286773800849914,-0.6299868227590123,-0.1620788275135724,0.1276922559785895,0.7486934080947741,-0.060250237584114,-0.0577091500163078,0.0289422590285539,-0.0032610476225614,-0.0248445183992385,0.0946738414287567,0.0795528143644332,-0.0981601253151893,-0.1293236962611787,0.0190484356135129,-0.1080942996191792,-0.2481201898217201,209
1721472708466160400,-0.5108373525336385,0.7675029601216316,0.5094178411245346,-1.067390381255373,3.9134605606913566,8.928375465607642,0.6119894981384277,0.2202042788267135,-0.3565086424350738,-0.6247516330265225,-0.1733220992217438,0.1214042445869606,0.7516021663280855,-0.0445751324295997,-0.0485762655735015,0.0463546067476272,-0.0498977111130952,-0.034150106883049,0.0688099168539047,0.1847216933965683,-0.1545041501522064,-0.2679706993259489,0.0220379289239645,0.2080965512627735,-0.4854876245586201,210
1721472708505913900,-0.4956812113907188,0.0745785633832216,-1.8770979407042263,-1.1757707495406269,4.033721847841143,8.860984183380006,0.2363542169332504,0.4869621694087982,-0.1434622257947921,-0.6220575498352854,-0.1817508657413036,0.1232159637407501,0.7515510093256218,-0.1396228224039077,-0.0235418584197759,0.0692794993519783,0.0283276843398809,0.2252911028981208,-0.0398106168627738,0.5458868145942688,-0.3315686285495758,-0.1140717483272776,0.1121397614479065,0.1008681020921561,-1.2386771414391695,211
1721472708545666800,1.2947044413484632,-0.2158905296072363,0.1868932754427194,-1.5790157423615454,4.047361373876035,8.791811862954496,0.144246757030487,1.7016149759292605,-0.4853492379188537,-0.6195370032565625,-0.1986069463265376,0.11089463649483,0.7512865630084206,-0.2010174691677093,0.0117673948407173,0.1056186631321907,0.3820902688503265,0.1109077678710222,-0.106059158796072,0.9795848727226256,-0.2771960794925689,0.034073039041867,0.2248179763555526,0.0434435437047621,-1.0790712475031614,212
1721472708585419800,1.0609342639185488,0.9708245155349372,1.7632126183271406,-2.134733708498626,4.289685444639623,8.556395087361336,1.0198185443878174,1.0467743873596191,-1.2350045442581177,-0.6080638342460011,-0.229545467069974,0.105138664832085,0.7526707172912968,-0.0098493788391351,0.0325519852340221,0.094300627708435,0.2907213141858578,-0.0754331343859434,0.0960731868326663,1.3491448163986206,-0.2642482817173004,-0.0780126751509029,0.3073791265487671,0.1599854495718143,-0.750944258704409,213
1721472708734970600,1.1250675672635435,1.5755243931144476,0.3696533966034651,-3.777094818697869,4.149909309680759,8.042523773959278,-0.3950456082820892,1.6444261074066162,-0.0582561753690242,-0.5500378445796239,-0.2928198653194371,0.0648222574372449,0.7794311843759488,-0.2848681509494781,0.1040436848998069,0.0137837463989853,-0.2019885532438755,0.0823293236404657,-0.034880686179921,1.465693473815918,-0.3009272217750549,-0.1868453263814561,0.3253297209739685,0.0985827402344904,-0.0686516712520038,214
1721472708805385500,1.308408118660748,-1.534045550778508,2.2548060489475725,-4.732266130287945,3.789083947177231,7.708364884585142,-0.1577782481908798,1.3339972496032717,-0.183130457997322,-0.5548707348774282,-0.3267116129918502,0.0155656430677585,0.7649417188443901,-0.1060076057910919,0.1025159358978271,0.0066330255940556,0.0964671545863151,-0.119030284050107,0.0217849846981465,0.9510601758956908,-0.3796607553958893,-0.2071883686429821,0.3358107209205627,0.0465788140897639,0.8739221844017505,215
1721472708845294300,-0.7322241414695978,1.9803326897293327,1.193693067461252,-5.132372825083136,3.708140817198157,7.488579393365978,0.4411004185676574,0.9454541206359864,-0.5893934369087219,-0.549667497956848,-0.3437858082658586,0.0001243500094427,0.7613652104296527,-0.0355515480041503,0.1503004431724548,0.0277283247560262,0.1162386075049638,0.2170809084355831,-0.1658615933299064,0.3072801828384399,-0.2992013394832611,-0.1434537457593716,0.2184494882822036,0.1667165479251183,0.6752544461436569,216
1721472708881792800,0.6983411610901356,-1.3693416030511258,0.82955463488698,-5.388881488543748,3.8569171279534697,7.228729602783918,1.2155721187591553,1.0068262815475464,-0.174036368727684,-0.5394707646890997,-0.3625401776705955,0.0014056306216248,0.759956539828716,-0.2016595602035522,0.1634875237941742,0.0623896978795528,-0.0870014071047306,-0.0495966823399066,-0.1252196402095258,0.1258093863725662,-0.2590221762657165,0.1556611748982221,0.1476243287324905,-0.0801629576531238,0.4151015078965574,217
1721472708920383000,-0.2222913365602493,0.9970543508127332,-0.8911702563226223,-5.891152965044975,4.037353190080822,6.720452748388052,0.3136610388755798,2.178288459777832,-0.1664424389600753,-0.533459441125908,-0.3966025107297224,-0.0076617481767102,0.7470400783567785,-0.1638690382242202,0.1227798238396644,0.0405761450529098,-0.1853477995663881,0.0211941791981458,0.2002675746701657,0.0492401458323001,-0.161551684141159,0.0394716261327965,0.0897316932678222,0.040320986670861,0.4220630174722522,218
1721472708958420000,-0.1584282284587621,-0.0324225524380803,-0.530844075512886,-6.353052099147439,4.117529135079682,6.2333835171937935,0.4789503216743469,1.012417197227478,0.1620429903268814,-0.529044059811806,-0.4263023061155554,-0.0212658893196163,0.7334347629629064,-0.1575778424739837,0.063407689332962,0.0128281377255916,-0.0194727622330188,0.075540101891756,0.1113408985912799,-0.0023071961477398,-0.0954268649220466,0.2359792683141306,0.0473787300288677,-0.1670179785571061,0.1759860239159315,219
1721472709063068000,0.887367941430211,-1.540788887558877,-0.4288485128939151,-6.395977633160352,4.680634727250039,5.77525104214847,1.020613193511963,0.6107892394065857,-0.3244344294071197,-0.5124985250147458,-0.4532864808630112,0.0086902011067394,0.7292470012068311,-0.1639662384986877,0.1364195793867111,-0.0168690383434295,0.130397481238842,-0.1260293491572141,0.0668679890058934,-0.037917573004961,0.0375697016716003,0.128209232213255,0.0131154572591185,-0.1007781861858442,0.155616111913789,220
1721472709115549400,0.5741776058048009,-0.5385980506405234,0.0226028769522905,-7.149402383568883,4.477957607220113,5.000431037011742,0.5239334106445312,1.9237604141235352,-1.2808984518051147,-0.484075127428205,-0.4947808246664847,-0.0155206552579914,0.7215415593544887,-0.1823737472295761,0.2041351944208145,0.0354747958481311,-0.0206681094974279,-0.3029448359429836,-0.073328271061182,-0.10724788159132,0.0931062921881675,-0.0648896381376311,0.0433365851640701,-0.0367367212761891,0.0797667066108435,221
1721472709173585200,1.7666110285937786,1.7939722059890626,-0.1241670624166727,-7.708420998686551,4.319172820408642,4.2538656509786845,1.2786893844604492,0.5608179569244385,-1.3247891664505005,-0.452389016041293,-0.5313380852997168,-0.0281611040558379,0.715703094603119,-0.1409994065761566,0.1658573597669601,0.0168540384620428,-0.4294663525313139,-0.1226338615000247,-0.0047289282180368,-0.1243543177843093,0.047463335096836,-0.1289802257189061,0.0554032400250434,-0.0065993999775004,0.0035660955545637,222
1721472709217565700,0.7054910328447819,1.726298015166819,2.662371535316109,-8.203980994850397,3.950204191198945,3.641561435875297,3.2917640209198,1.0572168827056885,-2.2793524265289307,-0.388313390512375,-0.5602189312010876,-0.0220633433074533,0.7313553649504807,-0.1377996206283569,0.1074381545186042,0.0425969511270523,-0.5280196657419204,-0.0180611418694257,0.0255893454171717,-0.1213210523128509,-0.0368819423019886,-0.1396174372658133,0.0242349691689014,0.0293017558197141,-0.0575404398520244,223
1721472709255544300,-2.860740144497156,0.1856841919139027,1.355697400841117,-8.645643396610021,4.048760719279945,2.242937478107959,4.181168079376221,2.715629816055298,-0.181799903512001,-0.3254663583877273,-0.6209712053806475,0.0060643175171878,0.7130425323948395,-0.2509706318378448,0.0874041020870208,0.0691983327269554,-0.0628887101113796,0.1375152042895555,-0.0667687664151191,-0.1125856712460517,0.0107237305492162,0.1956325718132779,0.0067766550928354,-0.2163367390047758,0.039964894109033,224
1721472709295498500,2.126177915468812,-2.1000652768298984,-3.481166291257739,-8.838772351571917,4.120322857451439,1.034142703104764,3.082305669784546,0.9471270442008972,-0.7336626648902893,-0.2715017171733036,-0.6674842563457206,0.0416912995197044,0.6921080659467385,-0.2287391126155853,0.0668463110923767,0.0604688264429569,0.2500941202431917,0.0627384879857301,-0.0093840605475008,-0.1138757765293121,0.0880454331636428,0.1322812491588294,0.0369268469512462,-0.1887178787876851,0.2173100958152674,225
1721472709338329000,-0.1103098019778728,0.9503975213170052,-1.210800854128599,-8.897125756341218,4.100919068801403,0.4404662507776171,2.1880593299865723,0.4521195590496063,0.4868414402008056,-0.2342416757513835,-0.6874615986247493,0.0702781752850909,0.6838043614077868,-0.1635087132453918,0.0759481936693191,0.0248695537447929,0.2685077288120985,0.0006388824254274,0.0115701724149286,-0.1280150413513183,0.0920076593756675,-0.1219113924443721,0.0603217482566833,-0.0324528836442623,0.1342350775071885,226
1721472709378165200,0.1978834560126066,0.6032710138201713,-0.0082569744800217,-8.566966165736318,4.770814472129941,-0.1297093163115903,1.7667810916900637,0.8836526870727539,3.2892489433288574,-0.2326995351201236,-0.7014533621994273,0.1207332399199649,0.6627501107818818,-0.1506541669368744,0.0942229107022285,0.0120751960203051,0.0809849232941865,-0.1322521691948175,0.0402465240620076,-0.1512236148118972,0.091630682349205,-0.0503163109845016,0.000703037250787,-0.1461953817508649,0.0699554290606407,227
1721472709413998300,6.228627262577414,-1.5793483353167772,0.12926350877285,-7.6908859265178435,6.038249652150273,-0.7484643515221774,0.3926295042037964,0.9013458490371704,3.941089630126953,-0.2687915481938983,-0.7091334197094235,0.1878586035190008,0.6241714627807805,-0.1338623911142349,0.0899149850010871,-0.0006882702000439,-0.1927846715688705,-0.2442863107472658,0.0454582673609256,-0.1845611482858657,0.0419390760362148,-0.1068787224174942,-0.020812788978219,-0.0520312251436058,-0.0269732398069114,228
1721472709454972400,6.655548606801033,3.430069725748897,1.0683095419269055,-6.801296217384934,7.025259871071577,-0.7473373202536254,-1.1572463512420654,0.6096177101135254,3.16287899017334,-0.3210047794615301,-0.6986632120714339,0.2235471176406217,0.5990429829769337,-0.0805725529789924,0.070009559392929,-0.0125009212642908,-0.3530933069467544,-0.3847276316165924,0.1557389893747866,-0.1761297136545181,0.0424607843160629,-0.0499566838918719,-0.0549390353262424,-0.1460708146562799,-0.0711192167095839,229
1721472709494947000,1.832601796373725,1.1827402962923048,6.577492722696065,-5.560224728155136,8.03239342508912,-0.8572961899019778,-0.9096317887306212,1.7372382879257202,4.6988606452941895,-0.3845346243278728,-0.6901784849160528,0.2595449836203181,0.5553586786526988,0.0273078437894582,0.0144076533615589,-0.0025996209587901,-0.3967354647964239,-0.450747625491023,0.1941045219957828,-0.1604429185390472,0.0878443121910095,-0.0574848691733088,-0.0564057677984237,-0.2100976619521155,-0.050391157185845,230
1721472709532202800,-0.1519803674936294,3.7259061909914015,4.692259990853071,-4.395058082476258,8.740253525152802,-0.679578300692141,-2.378288507461548,1.1485142707824707,4.0468339920043945,-0.4420836792942902,-0.6735232393862872,0.2846318646828116,0.5195317387691122,0.0709701031446456,-0.0541924461722373,0.0186785701662302,-0.3068278148561716,-0.3254699714839458,0.1792294628165662,-0.1438133120536804,0.084333524107933,-0.0803654944879002,-0.0261938534677028,-0.2084090330117382,-0.0003888828698662,231
1721472709575145500,-8.035989403754472,3.754913674288988,2.9906553951770065,-2.7718858030021187,9.345110346859691,1.0751480096448212,-5.40671443939209,-0.053978357464075,3.677982091903688,-0.5482482488442835,-0.5992658615119368,0.2933651895258629,0.5042232793597334,0.165183424949646,-0.0921601802110672,0.0759194195270538,0.0519809471279382,-0.2234112805008888,0.062581105466932,-0.1184459030628204,0.0720944553613662,-0.107361756694084,0.0042549287900328,-0.2895435391107574,0.004671617673384,232
1721472709603350500,-7.994096719920635,2.5640385868579147,2.355451658262312,-1.8267682679146529,9.223663064795732,2.7851982890397307,-6.78582763671875,-0.0401443317532539,2.7673449516296387,-0.6262007686623026,-0.5312188471455825,0.275319713946498,0.4998781200073757,0.2291618734598159,-0.1181378737092018,0.0854643881320953,0.0440367101252079,-0.2651338684648275,0.085010525548458,-0.0353367179632186,0.0112168928608298,-0.151049333721213,0.041966401040554,-0.1898066969376988,-0.0792169546404387,233
1721472709654664400,-6.13958061338067,-2.2374989403158425,-1.4374153145849704,-1.038385747501999,7.8206275741964575,5.824939494425058,-6.081328392028809,-2.347954273223877,-0.2484726011753082,-0.7108084639093629,-0.3915041481512187,0.2230139843174912,0.5401300790902522,0.3249517977237701,-0.1591217964887619,0.0272989552468061,-0.0470586882948875,0.0416010074108839,-0.1433292973957955,0.3681454062461853,-0.3280659019947052,0.0275073535334784,-0.0627290159463882,0.278143298168946,-0.0334904510976513,234
1721472709702718200,-3.554939967998862,-2.33985515294075,-1.6450661313742398,-0.5416889293279499,6.613654753923416,7.220563247463106,-1.2180006504058838,-2.613896369934082,-1.7088452577590942,-0.7095381309050054,-0.294808599366472,0.211994394707938,0.6039055739944897,0.2641432881355285,-0.1862940192222595,-0.0060002114623785,-0.0286456642478704,-0.0142471365392208,-0.4340658822160214,0.3632062673568725,-0.2198555916547775,0.0644458581591956,-0.1769832819700241,0.1581228157714009,0.0516632457811618,235
1721472709769987300,0.9447114385046064,1.7922312075406313,-2.892635165929794,-0.4051182393468916,6.8963266171664,6.960383786535263,2.614262104034424,-0.6038883924484253,-2.0200963020324707,-0.6415043284873384,-0.2799403949316547,0.2583651637206848,0.6658476439995734,-0.0467762351036071,-0.1120352894067764,-0.0460553541779518,0.0500298130601644,0.5748375310182571,-0.2918107168577611,0.3549606800079345,-0.2495631426572799,-0.0165753328916151,-0.1622602343559265,0.1433583499603439,0.1801671089928597,236
