frame,pose_x,pose_y,pose_z,ori_x,ori_y,ori_z,ori_w,phone_acc_x,phone_acc_y,phone_acc_z,phone_gravity_x,phone_gravity_y,phone_gravity_z,phone_gyro_x,phone_gyro_y,phone_gyro_z,phone_ori_w,phone_ori_x,phone_ori_y,phone_ori_z,watch_gyro_x,watch_gyro_y,watch_gyro_z,watch_acc_x,watch_acc_y,watch_acc_z,headphone_gyro_x,headphone_gyro_y,headphone_gyro_z,headphone_acc_x,headphone_acc_y,headphone_acc_z
0,0.040532,0.227265,0.360172,0.011995,0.024659,-0.72921,0.68374,0.8422926820375025,20.98446911073923,1.2290133871674538,0.3304171820951626,9.774138892495632,-0.7262311115998774,0.1992507576942443,-0.3437865972518921,0.4743003249168396,-0.6675987899174138,-0.7233855178337478,-0.1172214812968519,-0.1314700184994621,-0.3951078355312347,0.484691172838211,-0.0823839083313942,17.518745303285122,-10.602070894616842,1.4736141706913708,0.3732592761516571,0.1065494567155838,21.85686335492134,0.5343657732009888,1.1830561573084444,-0.8886502363257109
1,0.038402,0.219099,0.358385,0.008874,0.02107,-0.731464,0.681496,2.8178812459796667,16.386683054828644,-3.221087368094921,0.4373351862102747,9.76877122798264,-0.7417653653401881,-0.4020342230796814,0.0690437480807304,0.0903399363160133,-0.6663013868906545,-0.7245523565779062,-0.1133286837818782,-0.1349922424226745,0.5154010653495789,0.6572287082672119,0.1638610810041427,13.17059919410944,-11.07703701556325,4.714922489038109,0.2663237452507019,-0.545459508895874,18.564749562966824,1.0641590356826782,1.2266261997699737,-0.0109696355387801
2,0.029625,0.162324,0.353326,-0.013668,0.00673,-0.724403,0.689209,0.8683714184068143,7.5116843746215105,0.0242097276270389,0.4508336598066613,9.776247262951731,-0.6262015152916312,-0.1645309329032898,0.1925076693296432,-0.158094510436058,-0.6700666799983779,-0.7203369455038975,-0.1142019116330727,-0.1381423170810659,0.6839397549629211,0.9128400683403016,0.2162839472293853,6.916531785327196,-5.064892695528268,0.6160882636867463,-0.1324541568756103,-1.383098602294922,4.151247864808142,0.7605546116828918,0.221192618070729,0.2580817945288494
3,0.026214,0.117482,0.354629,-0.021216,0.000636,-0.722209,0.691349,-0.4430875391919165,-5.168884984922409,-3.56868967640996,0.3524071513134986,9.792087806162238,-0.4014955188050866,-1.0231952667236328,0.2563841342926025,-0.2044266164302826,-0.6784954430588022,-0.7115975239836485,-0.1187414755540457,-0.1384677598344146,0.8388185501098633,1.4985136985778809,-0.5372439026832581,-1.863571519654989,3.140672353643178,-2.327495729844272,0.1282852590084076,-1.3275736570358276,-10.035228454005718,0.3449612855911255,-1.7795697327576576,0.369962170291692
4,0.023001,0.067478,0.357863,-0.023904,-0.004441,-0.721357,0.692137,1.0938248722597956,-11.884128474229572,-1.612773050534725,0.3009472689175978,9.801620773661137,0.089612110192934,-1.4727835655212402,-0.0753335952758789,-0.2054704278707504,-0.6959632842838794,-0.6936301842885086,-0.1196169772646971,-0.1421406781743638,1.1466318368911743,1.2350571155548096,-0.5722463130950928,-8.664045899263025,5.181877737486362,-2.485888886989653,-0.0564555190503597,1.3700613975524902,-9.373305929252504,0.0949483811855316,-2.349393965658545,-0.3020202136450447
5,0.015842,-0.006313,0.360246,-0.033301,-0.024649,-0.713282,0.699652,-0.72842021914199,-13.716452622705695,0.8461865476708859,0.1681770671980455,9.791008778753875,0.5274866548437624,-0.0761692598462104,-0.2594928443431854,0.1881628781557083,-0.7138803712837889,-0.6784998308775729,-0.1128877515595873,-0.1314119625715002,-0.1097828969359397,0.0871081575751304,-0.0140667697414755,-11.362242781198024,6.277019829824567,-3.88740023676157,0.0452384017407894,0.0192321576178073,-10.841042147821188,0.1226674169301986,-2.5016166174754497,-0.2542677891986444
6,0.01483,-0.019619,0.360313,-0.030675,-0.036434,-0.714461,0.698053,0.3426750079806894,-12.519359975934028,0.8365162905931472,0.2733830980298109,9.790717102330923,0.4873273341411724,0.3607731163501739,0.0335780270397663,0.1473772972822189,-0.7121129953771858,-0.6808361697113776,-0.1077744405225297,-0.1331983259911643,0.1406937837600708,-0.2118207961320877,0.2626443803310394,-9.952960505163668,5.615090875330567,-5.143003524690866,0.0505330897867679,0.1222313791513443,-9.01351575501561,-0.2886665165424347,-1.6540356197714805,-1.049352985587716
7,0.015932,-0.019491,0.361373,-0.028257,-0.041447,-0.719465,0.692714,0.2546535371132195,-12.117012516474723,-0.4438812103202566,0.224934873338975,9.80137176733613,0.2300489101507701,0.9251827001571656,0.1956866979598999,-0.336652010679245,-0.7031773352116044,-0.6896352898456961,-0.1125785809466967,-0.1314190197079589,-0.4623172283172607,-0.3137086629867553,0.4151875972747803,-10.443879397523403,6.411345882683992,-6.605577245929837,0.0154358325526118,-0.0682941377162933,-9.621682139661909,-0.3926649689674377,-1.5096422002755103,-0.8091868235103785
8,0.016751,-0.009322,0.367346,-0.018648,-0.013813,-0.721145,0.692395,-0.0843052907553967,-10.974351717114448,-2.661670693570376,0.0866994284834712,9.805981306958198,-0.0749020277505042,0.5863420367240906,0.128972440958023,-0.2467537373304367,-0.692735332053949,-0.6991567787476299,-0.1224693402809324,-0.127667044728409,-0.3913003206253052,-0.4116024374961853,0.4576286077499389,-9.33088600667417,4.896961894708872,-4.5772290055722,-0.0139256296679377,-0.2512253522872925,-9.91552538526058,-0.371659517288208,-1.1047719443403183,-0.4585794881604612
9,0.015694,-0.010255,0.369044,-0.017662,-0.006918,-0.719996,0.69372,-0.3165560491988435,-6.020688861018419,-1.1255880840063095,0.0389784220886416,9.801880301380155,-0.3033011568336747,0.5878942608833313,-0.0984208881855011,-0.0090021705254912,-0.6847935891982905,-0.7068174992872251,-0.1259884046745331,-0.1248743818329269,-0.4387677013874054,-0.3884838819503784,0.3248063623905182,-6.395131245464087,3.064330287718773,-2.3010636499926447,-0.0413571260869503,0.9528012871742249,-10.12306455836892,-0.3028058707714081,-2.566233466553688,-0.245229400283657
10,0.015944,-0.020325,0.368272,-0.020832,-0.006535,-0.718632,0.695048,0.960542337103933,9.55246714913845,2.871529249536991,-0.0390742380127776,9.79866893811822,-0.3936803515421226,0.7154048085212708,-0.0084516843780875,-0.5620404481887817,-0.6821692625551445,-0.7096199557042383,-0.1284975876648723,-0.1207193684058358,-1.6135162115097046,-1.4373749494552612,0.3799740970134735,1.559657546418905,0.3288941007137298,-1.2917296633213755,-0.0816937386989593,0.0279143881052732,3.4082436783879992,-0.0160131957381963,0.5366384410053491,1.16867545751743
11,0.01357,-0.057464,0.360633,-0.039584,-0.033674,-0.718122,0.693974,-1.33642571413815,13.761604600596428,-2.098116773110628,-0.1734176895315758,9.778035315412282,-0.7282387250952422,0.3422889113426208,-0.4165904223918915,-0.0301042553037405,-0.6713685005111674,-0.7210030402513039,-0.1314703628220048,-0.1101565662799435,-0.5433380603790283,-0.8874268531799316,-0.0051612919196486,11.299766743540763,-9.134476130345464,5.794174353805184,-0.1885914206504821,-0.2279281318187713,10.650032084709403,0.6689038276672363,1.5046753716483712,0.7201459464672952
12,0.013986,-0.066218,0.355416,-0.050383,-0.064232,-0.720058,0.689096,-0.7303617816638202,6.395070455187558,-4.470146348947286,0.0092581423168681,9.765640528741478,-0.8958583410736173,-0.5973057746887207,0.1658312082290649,0.4554550647735595,-0.6660004819215608,-0.7300004557369163,-0.1130283084129031,-0.1037656088839505,0.5448335409164429,0.6047799587249756,0.0036152219399809,7.2239119733691215,-6.429248034599423,2.3591548966944216,-0.2372243106365203,-0.4334014058113098,4.643066920877993,-0.4143086373806,1.027475354170054,-1.3458685191355644
13,0.019695,-0.048933,0.353118,-0.053877,-0.069457,-0.728575,0.679303,1.538387671636045,-0.69947045738101,-0.222715772517398,0.0700667896137805,9.79040438311994,-0.5598893700702116,-0.8435993790626526,0.4496456384658813,-0.1629949063062667,-0.6772546947181659,-0.7179289119728803,-0.1145621688877881,-0.1130476533860709,0.961743414402008,0.9074333906173706,-0.2294541150331497,0.7499182035923003,0.0390238503992557,-1.5766344001829624,-0.2197804898023605,-0.5472269654273987,-0.3673242230035364,0.0107993390411138,0.2688426598548889,0.182159652783256
14,0.029319,0.053788,0.361142,-0.028987,-0.061478,-0.733591,0.676183,0.3611785598553717,-5.373277092176675,1.892755528563261,0.0136635291066311,9.80060604366064,-0.3440058912582695,-0.3419631123542785,0.2674688696861267,-0.1078017354011535,-0.6846576122832657,-0.709279307270585,-0.1202592378847983,-0.1170667858566489,0.284956157207489,0.3492717146873474,-0.2636050283908844,-4.627539389139414,3.623158348700404,-1.6307316088125108,-0.1177791729569435,-0.1700302213430404,-4.114730152010917,0.4712251722812652,-0.7087254847213625,-0.2211516284732148
15,0.031289,0.114336,0.368843,-0.01839,-0.039315,-0.731604,0.680347,-0.8014684311527759,3.958500894901156,1.0014319813750685,-0.0118121530608157,9.757731363052129,-0.9782388834446668,1.5992554426193235,-0.7870268225669861,0.3762429058551788,-0.6616838978200028,-0.7311872587338369,-0.1234564459038437,-0.110897569901094,-1.7579072713851929,-1.6296550035476685,0.7049835324287415,-1.6531494845867156,0.3383504958450794,-0.7235705871537327,-0.0706238970160484,0.7762884497642517,1.5572653905853628,-0.192719966173172,0.1369147815778385,-1.282085344402492
16,0.032771,0.164308,0.37921,0.001723,-0.014351,-0.73377,0.679244,-3.434190020549297,21.8108334251523,-6.894047566318512,0.1114870473300106,9.673367903235556,-1.6074629614278673,0.9736461639404296,-0.3785574734210968,0.693848729133606,-0.6386194486432663,-0.7548142128582122,-0.1105138439482496,-0.1010322091745618,0.3132916688919067,0.0723072662949562,-0.2265068590641021,28.530625663805008,-15.109895524573323,5.668058495408296,0.0981447100639343,0.5902403593063354,15.40166664007306,-0.1240385472774505,1.9062429327763617,-0.0157324146524246
17,0.031063,0.22203,0.390297,0.028846,-0.014613,-0.726326,0.68659,2.6475276019275187,10.804620588874815,-2.938319058740139,0.4574526030223816,9.71114204583466,-1.2863989698179066,-0.6505388617515564,-0.3541595935821533,-0.2490941435098648,-0.6500526113972017,-0.7467547512417638,-0.0891371622237,-0.1088274800154382,0.5708723068237305,1.223275661468506,0.7253943681716919,9.243134073463082,-10.045399134886264,2.550149762237072,-0.1491561233997345,-1.2962143421173096,10.714622922563551,-0.3837533295154571,2.0239443063102662,-0.3736468136211857
18,0.029634,0.228965,0.393007,0.031766,-0.01635,-0.725287,0.687519,0.2041577870417386,-5.324065025240182,-2.296891625005007,0.3444137414067983,9.764859607496858,-0.836220960908383,-1.571292281150818,0.6501772403717041,-0.1749271005392074,-0.6671115495852314,-0.7304545232873927,-0.0952449202375182,-0.1110256662522827,2.011138677597046,1.6305960416793823,-0.1980467289686203,-0.923991160428524,0.7124760694265365,-2.336687921081483,-0.2944620549678802,-1.4114552736282349,-7.7871467448770995,-0.1768534928560257,-0.8276550118107349,0.6531028200902045
19,0.02848,0.222172,0.395214,0.029007,-0.017561,-0.725122,0.687785,1.280570117533952,-12.772226483500004,0.1781389093671925,0.382203081575036,9.798476630416513,-0.1188826009414158,-1.8191864490509035,-0.1940355896949768,0.0644405558705329,-0.6925615484067182,-0.7051934486013619,-0.0936137049464611,-0.1195702912367092,1.239840030670166,0.6543912291526794,-0.8199595808982849,-10.366007053291796,9.65894073395431,-4.016490142533183,-0.4218972623348236,1.614242434501648,-10.022347929644583,0.291944295167923,-2.997953735491633,1.3416975170612335
20,0.024273,0.169265,0.397534,0.002965,-0.024017,-0.718906,0.694685,0.9298159210592508,-12.950474095672368,4.2121763807624575,0.2602519416421651,9.800003986114262,0.2501664730933495,-0.0488797649741172,-0.7450931668281555,-0.4939023554325104,-0.7076077046627246,-0.6923783488548662,-0.088641306652102,-0.1097556381368542,-0.5344388484954834,-0.1000803112983703,-0.6273879408836365,-13.185671675556897,9.936430226123331,-7.963225196316838,-0.1257529407739639,-0.4510016739368438,-8.609140589120983,-0.1308266520500183,-1.5631480188831686,0.8830989588741213
21,0.021581,0.125651,0.401249,-0.009989,-0.02949,-0.714054,0.699398,-0.7302499187871814,-12.809296861743926,-0.5882727666527032,0.1619262083760462,9.803077402210237,0.2093902078025042,-0.0696755200624466,-0.2107190042734146,-0.0856345519423484,-0.707865273946648,-0.6943987044649825,-0.0844660292098535,-0.0979934259429706,-0.5285825729370117,-0.1054064258933067,-0.4141854643821716,-8.814742072165012,4.962043146428465,-4.648106960871815,-0.0873893499374389,0.0859714373946189,-10.196004706895351,-0.0141521748155355,-2.181696096812189,0.159919124603644
22,0.019656,0.076522,0.406459,-0.016093,-0.028015,-0.71172,0.70172,-0.6249386557489633,-12.184421918880938,0.3986111955404281,0.148492671508342,9.80323756120801,0.2117604623314924,0.2287453114986419,0.0720984861254692,-0.0071782320737838,-0.708062152741227,-0.6942951864584753,-0.0846015065572444,-0.0971836552215482,0.0463196188211441,-0.0900589451193809,-0.0460590571165084,-9.484705864554645,4.997139009729027,-4.88169973590821,-0.1427192091941833,0.1543769836425781,-9.336189373779296,-0.1631644517183303,-1.610081181102246,-0.430651689858362
23,0.015978,0.000498,0.407022,-0.039592,-0.048253,-0.703087,0.708359,0.5272251543633639,-10.756445463770628,-0.2735386904503218,-0.0391073091653175,9.80295406809151,-0.2663538935127668,0.8623288869857788,0.3536693155765533,-0.443794846534729,-0.690436522051674,-0.7090411489433156,-0.1041197317631748,-0.0985755872822836,-0.3832144439220428,-0.3548932075500488,0.2026277184486389,-8.970919306826591,6.082262396878003,-5.647547622299194,-0.032914537936449,-0.2031518220901489,-9.978201329404117,-0.3634552359580993,-1.2745137401044369,-0.173837449313607
24,0.015607,-0.015447,0.407683,-0.040767,-0.043734,-0.705254,0.706429,-0.4449781752441078,-7.198240941017866,-1.38185767801404,-0.1826018618591129,9.789664378407595,-0.5472698712654411,0.4590159952640533,0.3306079506874084,-0.2375267744064331,-0.6802915120453734,-0.7173499865263832,-0.1153776147555067,-0.0964387108114009,-0.5277612805366516,-0.338023692369461,0.0896911844611167,-6.618379444357752,4.873362992456555,-2.856268552041054,-0.0642381757497787,-0.3925415575504303,-10.519401963758469,-0.2412625402212143,-1.7003545956149697,0.4317193921551108
25,0.016757,-0.019888,0.404889,-0.04998,-0.051983,-0.711947,0.698521,1.3782456249967217,6.575068125897646,1.643905855423212,-0.2752669938139617,9.786756382006406,-0.5603801857944578,0.2247624397277832,0.2943851053714752,-0.5082917809486389,-0.6796511347495553,-0.7164776031246948,-0.1234150834465828,-0.0974831459749316,-0.3957683145999908,-1.8713330030441284,0.234747365117073,-1.4272341123104095,1.1092764161527155,1.1516156747102737,0.6471360921859741,-1.5717803239822388,16.847495562738178,-1.6323930025100708,7.280061730614304,0.051470714317169
26,0.016868,-0.014436,0.398389,-0.066125,-0.048863,-0.718977,0.690154,-1.0327023681033405,13.344632403457164,-0.0922657573737204,-0.4213263737607747,9.742205877140163,-1.0403412654839457,1.2983330488204956,0.0246108435094356,-0.1445507258176803,-0.6625274334190536,-0.7319794766096446,-0.1313342567417216,-0.0895255721709859,-0.7982302904129028,-0.2392651587724685,0.1187450736761093,16.83243944790363,-8.863209458214044,3.9573961485296487,0.4443394541740417,-1.6579691171646118,10.9655640150249,-0.1074619442224502,2.7311320600703355,1.298472561710328
27,0.016418,-0.01484,0.394593,-0.066733,-0.051677,-0.719656,0.689182,-0.780130094243586,14.5780390571475,-4.658493330329656,-0.4008096554327756,9.731635383287072,-1.1423584554128348,-0.4920459985733032,0.2778386771678924,0.1178741231560707,-0.6584002711481884,-0.7353024459468872,-0.1325684174679541,-0.0909115388894979,0.0904921367764473,-0.5034649968147278,0.4285198450088501,11.345607288217543,-5.581688956466317,6.439367862075567,-0.3230440020561218,-2.750464916229248,17.27096062902808,0.5039320588111877,4.029481433792412,-1.2493668777577578
28,0.015532,-0.01924,0.390281,-0.066875,-0.054169,-0.719953,0.688666,-1.8363671402566133,8.174595910412073,1.362698219513893,-0.229380016179569,9.7190687471807,-1.2874303586922584,0.7859722375869751,0.0399043560028076,0.7218856811523438,-0.6517412765572671,-0.740895557076816,-0.1292843944565172,-0.0979420772094337,-0.3507928550243377,-0.1699724197387695,0.5983425378799438,6.796949712613225,-7.508951734787225,4.485545578131079,0.362767606973648,0.1333241164684295,7.004072121614217,0.0625932067632675,1.3834212740689515,-0.4020435811419039
29,0.011565,-0.046149,0.383914,-0.067512,-0.059168,-0.719077,0.689108,1.3705072858296334,2.899007623571157,0.948255979243666,0.0084032973195106,9.708108961749076,-1.3866935737378894,0.2188257873058319,0.6626161336898804,0.3039658665657043,-0.6454964680796769,-0.7443619725096933,-0.1289455286930867,-0.1123946888409184,0.4891670942306518,0.1185293570160865,0.5526689291000366,2.987767857041955,-0.8382371230363845,1.025169561445713,-0.0902940779924392,-0.7851318717002869,-0.021150317223533,0.2835851311683655,0.0293451177541166,0.2866223727007396
30,0.008912,-0.062057,0.383127,-0.069106,-0.064442,-0.719275,0.68827,0.0444148683883715,-4.378679194605351,0.7962697665311396,0.1074673268272541,9.679141810461878,-1.5725899470977485,0.0711623728275299,-0.0776542052626609,0.0628735795617103,-0.6374174800948694,-0.7508021708655167,-0.1283583660905067,-0.1162718732904869,-0.0905857682228088,-0.0937154665589332,0.27161905169487,-3.255940654811263,2.9911738660931584,-0.8724974122956395,-0.158089742064476,-0.1006316915154457,-4.954752989420294,0.2921063899993896,-1.4017106717363,0.1010778449858538
31,0.007506,-0.066952,0.382473,-0.066867,-0.073918,-0.723559,0.683028,0.6697704617746174,-5.481895287805795,0.6015924130834639,0.1161262879705987,9.669353406897187,-1.6310988346897064,0.1987193822860717,-0.0507654324173927,0.0108959134668111,-0.6352985669637097,-0.7530117601821635,-0.1270282938737758,-0.1150336429661069,-0.2515586614608764,0.0558597445487976,0.1215389221906662,-4.198602028918266,3.504034541147947,-1.417576057127118,-0.2058931738138198,0.2762657403945923,-5.2824979200989,0.3587409555912018,-1.2252087341874838,0.1624979986483231
32,0.006434,-0.006544,0.388468,-0.039183,-0.076118,-0.729479,0.678625,1.2394427189841866,-4.175010725450515,-0.22816943481341,0.100262592213368,9.662971012383698,-1.6695350944593548,0.0449574775993824,-0.1368525922298431,-0.0439587160944938,-0.6341047661465774,-0.7544040812831203,-0.1264795649682841,-0.1130869604468777,-0.1695972383022308,-0.351703017950058,0.1830435544252395,-4.8455245529383415,2.1997505166798828,-1.011207963849604,-0.1182646080851554,0.140609472990036,-3.471632154715061,0.1833407282829284,-1.2936686685599386,-0.3886766249706968
33,0.007734,0.056746,0.394404,-0.019445,-0.069267,-0.734776,0.674484,0.8493355132210999,4.480419905680418,-0.7252488956294953,0.1025093025610782,9.647764090901612,-1.755143878161907,0.4377652108669281,-0.2281433641910553,0.1697546243667602,-0.6310578831568038,-0.7575795306951367,-0.124742480156669,-0.1108084916857557,-0.9212467670440674,-1.0082234144210815,-0.3350279927253723,1.3516010714381932,-3.665652505558729,1.2541291237235068,0.0843058601021766,0.8734450936317444,2.687122822473943,-0.3122954666614532,-0.143541917233169,-1.124879497345537
34,0.00971,0.125028,0.403219,0.001189,-0.03673,-0.740875,0.670637,-1.5009300476402043,16.153112783885,-4.809609774470329,0.2418791765403002,9.623161564564704,-1.8726064745038744,0.0696155726909637,-0.5912066102027893,0.6509825587272644,-0.6266382879155211,-0.7633647200363358,-0.1129188415946343,-0.1088492480437575,-0.5052706003189087,-0.1682029664516449,-0.5230581760406494,16.798008770513533,-11.409487347453831,3.765001060800254,-0.1232211366295814,0.3989103734493255,14.840964017391205,0.1452934294939041,2.35718096627295,-0.0149590111356228
35,0.013082,0.224809,0.419223,0.049877,0.001335,-0.74457,0.665677,2.0023017988227307,24.120485163009164,-7.295912210696935,0.3383295261222869,9.644641574966906,-1.7426478230737148,-0.8456504344940186,-0.6116203665733337,0.167020708322525,-0.6324932376842557,-0.7608899550496008,-0.0994826056422155,-0.1053661954284442,0.5788924098014832,0.5004876255989075,-0.4428378343582153,19.85681181924343,-15.86579104900956,4.665906236934662,0.0034471554681658,-0.2766571938991546,24.95804424065352,0.4010978639125824,3.632579380257428,-0.7093264462891966
36,0.010748,0.249273,0.420159,0.055182,-0.00192,-0.739963,0.670377,-1.579675083053112,-0.6893126359820365,-2.528465169173479,0.5859317199518904,9.761091779395937,-0.7403687964152544,-2.3347280025482178,0.7896289825439453,0.3957472145557403,-0.67082848003268,-0.7293889642847606,-0.0757630674818382,-0.1106381258341421,2.687257766723633,2.0536582469940186,-0.3780983090400696,2.3449200351148844,-1.253349371522665,-2.195800025488436,-0.1469350010156631,-1.5270715951919556,-6.369422803711891,0.249230146408081,-0.6362673475582152,-0.144397949540615
37,0.007783,0.256824,0.418444,0.051702,-0.003718,-0.73427,0.676875,-0.2527143857441842,-13.681017736709116,0.2581581842333078,0.7384380475483834,9.777720842635633,0.1458630445239599,-2.079839944839477,-0.269128680229187,0.3379917442798614,-0.7012489138128701,-0.698225970312281,-0.0710179481808881,-0.1252475910858198,1.7504292726516724,1.6363898515701294,-0.9090895056724548,-8.602794434964656,11.421536681687831,-6.005733283948898,-0.4999412000179291,2.074801683425904,-12.001300563192366,0.1219808831810951,-4.199102379655837,-0.3968024290854111
38,0.00157,0.230659,0.411636,0.033078,-0.016108,-0.727458,0.685165,1.405430130650848,-15.662212596225736,3.756706987446546,0.758030271442607,9.752277189299464,0.6992016503769904,-0.5516944527626038,-0.4910145103931427,-0.2855426967144012,-0.7218781194059632,-0.6787991814583011,-0.0598523820459357,-0.1205878209359645,-0.6675758957862854,-0.5373657941818237,-0.6818692684173584,-17.669764716792105,9.03583864598274,-10.88534890705943,-0.1865361481904983,-0.5365207195281982,-6.851022079062462,-0.1558611243963241,-0.3992215825237333,0.9528649343438446
39,-0.000281,0.199242,0.408813,0.022743,-0.022644,-0.725308,0.687677,0.1662210742920637,-15.664534317171572,0.3487971441227942,0.5939378432096913,9.763726219552757,0.6980673856500536,0.1580311059951782,0.0307165402919054,-0.5376208424568176,-0.7234409812838072,-0.6786614815435462,-0.0618632647559241,-0.1105659081537198,-0.2651644945144653,-0.5591134428977966,-0.1799687892198562,-11.441520316052436,6.909004896953702,-6.420737980407476,-0.1279691606760025,0.0212241243571043,-11.331050355076789,0.069521814584732,-2.770013579389453,-0.3775023930707946
40,-0.002398,0.158749,0.407006,0.014664,-0.027186,-0.724177,0.688922,-0.541648451187089,-12.65930386867523,0.6674438454579562,0.39575193365179,9.78132325104177,0.5826289155468344,0.5387170314788818,0.2094607353210449,-0.4259353578090668,-0.720192307410007,-0.6820489139426182,-0.0714385913886034,-0.105017770873567,-0.4230143129825592,-0.570745050907135,0.2948913276195526,-10.338609343278408,5.170165087860823,-4.597767351210117,-0.1326230615377426,0.0301001742482185,-9.107526748621463,-0.2359700947999954,-1.332676444607228,-0.9035998220458626
41,-0.007237,0.069337,0.408409,0.015569,-0.027817,-0.722216,0.690933,-0.3972537530494853,-9.593175591623783,-0.738130150642991,0.1880602003302425,9.80476433238387,0.0405193770534824,0.6574041843414307,0.2108620107173919,-0.1889777332544326,-0.7016192520146718,-0.7004879118591315,-0.0851514653036132,-0.0989771677603952,-0.3839324116706848,-0.3550348877906799,0.4177942872047424,-6.574558422809839,5.616127232640982,-4.340829064160586,-0.1790356487035751,-0.0683546513319015,-9.987613300871848,-0.2849251627922058,-1.6958084766179322,-0.4289859486032277
42,-0.008751,0.034549,0.405714,0.004071,-0.041779,-0.722457,0.69014,-0.0165678163054399,-6.774605778858065,-0.8040975375473499,0.1430115823492873,9.80416870457828,-0.1679485922044143,0.4122640490531921,0.0762568712234497,-0.0595113821327686,-0.6940599553853928,-0.7074374918117352,-0.0899732753948561,-0.0985788985827012,-0.3771450817584991,-0.3998303115367889,0.1521787196397781,-5.783485202008485,4.303186438986659,-1.851609571443498,-0.1867540776729583,-0.0042735175229609,-10.13796635942459,-0.3541969060897827,-1.6712554885111748,-0.5373104950480163
43,-0.009593,0.010943,0.405629,0.004424,-0.04105,-0.722202,0.690449,-0.3099284112200141,-0.1979723033398389,-2.173584394288063,0.1276698829058557,9.802162040930986,-0.2677528553241863,-0.2506977319717407,-0.0791117325425148,-0.0367267318069934,-0.6906556735392924,-0.7110109242814963,-0.0900836407386171,-0.0966597383187238,-0.188860148191452,-0.7046042680740356,-0.2159159928560257,-2.0691548825204373,2.141243382653594,0.1254489189207553,0.1998916268348693,3.762840747833252,3.802894153603911,-1.0912630558013916,-0.531037113866955,0.238354473012872
44,-0.00884,-0.004812,0.401602,-0.0071,-0.059,-0.721976,0.689361,-0.8667820303235203,8.802947004953026,5.227901822036505,0.0837283767834305,9.80299264653623,-0.2543964936122298,1.2441308498382568,-0.1227062717080116,0.0601727217435836,-0.6913752604926998,-0.7103561555554809,-0.0914589711537195,-0.0950247682320334,-1.1594171524047852,-0.0524275787174701,-0.0006377798272296,10.82805524047613,-8.939377336615323,1.9807991381973027,-0.366182416677475,0.5638043880462646,2.458986559277773,0.2450536787509918,-0.8033234113696962,-0.0281288989483262
45,-0.009473,0.000626,0.395268,-0.016937,-0.07077,-0.720949,0.689157,0.319304544189386,9.69803180437088,-5.620937847793102,0.1013266503814607,9.790321381011603,-0.5565512020908295,-0.4580700397491455,0.0150368092581629,-0.0332359559834003,-0.6803752947946202,-0.7211327931119429,-0.0913439063177463,-0.0933453024035758,0.1890168488025665,-0.4336104094982147,0.2343886494636535,6.999729708495735,-4.235392421177029,4.439415110597015,-0.2851855754852295,-0.8738842606544495,19.806666855371,0.2298065423965454,4.115830514468253,0.2366897181384265
46,-0.009478,0.007925,0.39435,-0.017018,-0.070644,-0.7219,0.688172,-0.1344959569330792,10.115650482720136,4.318714262986183,0.0946925278629176,9.791685070580243,-0.5331820900063962,0.8224143981933594,-0.2891445457935333,0.081317201256752,-0.6814122983832543,-0.7204320420407706,-0.0903459682866522,-0.0921541874065215,-0.7967093586921692,0.07505863904953,0.442053347826004,8.96251154396534,-6.5792760989815,2.350110881756246,-0.0572230853140354,0.3290289640426636,8.759693554159998,0.1946658194065094,1.0464470350131392,-0.4226252544648945
47,-0.01295,0.026707,0.394147,-0.011699,-0.060044,-0.720774,0.690465,0.8406015140801668,8.41613730636537,1.050945807737112,0.0977758990973234,9.764681912842391,-0.901009001835063,0.964185893535614,0.006984815467149,-0.0741069540381431,-0.667981068743457,-0.733388230368903,-0.0898909325136822,-0.0886714867940922,-0.5422853231430054,0.0584395490586757,0.5543348789215088,6.59316843073368,-5.083234992426633,3.1379087341487404,-0.5361605882644653,-0.5433520078659058,4.519788039472699,0.1146167740225792,0.591632013952732,-0.9602776217531412
48,-0.014662,0.030942,0.398711,-0.007049,-0.051332,-0.717946,0.694168,0.1880261519301682,2.933128504359722,-3.307058847630024,0.0808725580940488,9.730552264225482,-1.2166358438923954,0.2809039056301117,-0.1037300527095794,0.0405186899006366,-0.6562565908612641,-0.7441951066736747,-0.0905803878937089,-0.0854175590477061,-0.064981609582901,0.1576620638370514,0.1951668113470077,3.13615633752346,-1.7249843022197484,1.8321330098181965,-0.2752703428268432,0.1122440993785858,1.8913968074306844,-0.2793356478214264,0.4550870794674381,0.1838522455126978
49,-0.017106,0.03552,0.399217,-0.006886,-0.041459,-0.715114,0.697743,0.669245268856734,0.4291986415058374,-1.6553250750601292,0.1254799625129904,9.739873634800317,-1.1355658726632594,-0.3859546780586242,0.2235019654035568,0.066948652267456,-0.6589605010794637,-0.741467303418646,-0.0901331566796658,-0.0887320144780064,0.4473213851451874,0.0179278645664453,-0.0399488992989063,-0.0070031567603349,-1.3679086476385591,-0.4312883072614669,-0.2565956711769104,-0.2971397936344147,-0.9582489654697476,-0.1267854273319244,0.0382002727564191,0.5826301211232319
50,-0.020644,0.039942,0.392948,-0.02042,-0.047679,-0.708855,0.703445,0.8245183942854404,-1.2878484379738568,-0.8362802898801863,0.0975483830849174,9.753148126915097,-1.0183283903140574,-0.3066538870334625,0.0091641247272491,-0.2031881213188171,-0.6633420669255932,-0.7371632919468845,-0.0922528043493949,-0.0897613190385709,0.0696576982736587,0.1209124624729156,-0.170999526977539,-1.4546025962293148,1.203436462840438,-0.7118916936673223,-0.0750992745161056,0.0052743214182555,-1.7176093895375728,-0.0336165130138397,-0.0182529540974996,0.8440422291185706
51,-0.022684,0.041129,0.389342,-0.030643,-0.03684,-0.709225,0.703352,0.3112916623972356,-0.8517419167757034,1.8625766633987424,-0.2315347830606624,9.774781282052396,-0.7552581033155321,0.5894564986228943,0.0194379203021526,-0.3702493011951446,-0.6734287621008521,-0.7249634481553888,-0.1137340936789348,-0.0893656378730198,-0.2578743696212768,0.0480399057269096,0.2385535091161728,-0.1567079805374145,1.8355729211390013,-0.296657133975625,0.0090207736939191,0.2835142612457275,-0.8535282887358218,-0.3226822912693023,-0.0907788889499846,-0.5605472494570538
52,-0.025446,0.042357,0.38675,-0.031976,-0.02402,-0.707366,0.705715,0.4113860310373827,-0.4461082752525806,0.0215057293653488,-0.2467847217005677,9.756410343581438,-0.9601827830765396,0.0228495933115482,1.0063889026641846,-0.0138605153188109,-0.6653699694514738,-0.7312638442747637,-0.1192010432312275,-0.0912533493070349,0.5267844796180725,-0.2867328822612762,0.108048215508461,-0.8444739715993403,-1.4196797514081,0.6364578286290168,-0.0026790001429617,0.1361365169286728,-0.6485973984297364,-0.5737427473068237,0.0463030704548815,-0.5776990944618359
53,-0.027516,0.037212,0.38588,-0.046027,-0.025292,-0.698932,0.713257,0.561093521695584,-1.4671680632919073,-1.802244652032852,-0.2565811441749334,9.768016025701163,-0.8309288458496331,-0.5169310569763184,0.5295573472976685,-0.2320805341005325,-0.668658440670602,-0.7247478557347731,-0.1307903899984969,-0.1026178963944077,0.3498350381851196,-0.1481416970491409,0.1721831262111663,-1.0435404999166726,1.9473937122017144,-0.7932477883614599,-0.0160359945148229,0.0666789636015892,-0.7200204203914851,-0.6328729391098022,0.0510807149191619,-0.2378734662965871
54,-0.027024,0.034392,0.383101,-0.054016,-0.037805,-0.700391,0.710707,-0.2215726668968796,-0.8486544721543788,0.8521428987920284,-0.3874524169379845,9.771694421952962,-0.7309366589423268,0.1907351613044738,0.3113479912281036,-0.5023705959320068,-0.6722349768961653,-0.7193426253924458,-0.1407607431509731,-0.1040807479317738,-0.4029870629310608,0.0608021467924118,0.1888153702020645,-0.728555097568035,0.1598164679467678,-2.2101481381841004,-0.0269762221723794,0.0813387557864189,-0.4496406506298109,-0.4493074417114258,-0.002311648788859,0.1756880456163548
55,-0.024897,0.030357,0.383831,-0.058776,-0.045071,-0.704037,0.70629,-1.302245796638727,-1.1179746863931417,-0.0987782080076634,-0.4931060636730864,9.74443173649609,-0.9865436973880976,0.9000914692878723,0.0059817805886268,0.0321822203695774,-0.6629021556791528,-0.7267095765996046,-0.14897288527399,-0.1012963590203186,-0.6792994141578674,-0.102593220770359,0.079196996986866,-0.1301835462272167,-0.4051870667994022,-0.263529063616693,-0.0138822318986058,0.0845349580049514,-0.0944713502597529,-0.2773173153400421,0.0727044446409912,-0.002255368007379
56,-0.026114,0.028184,0.381671,-0.074423,-0.033069,-0.705639,0.703876,-0.0651763826571404,-0.1300678108930587,-0.9311725963652132,-0.4150106512753292,9.710465754008291,-1.3057595038481056,0.6484997868537903,0.131139650940895,0.272917777299881,-0.6507359696308137,-0.7384538737025004,-0.1458118153365436,-0.099837432675063,-0.3814935088157654,-0.0248998124152421,0.0128993345424532,0.0979804817587137,-0.1421791044473648,0.2086998874507844,0.0006204706151038,0.1539081037044525,-0.2182489475679583,-0.2694414258003235,0.059741383962403,-0.2372521743267774
57,-0.02341,0.027788,0.383906,-0.08314,-0.027661,-0.709662,0.699072,2.663627672857046,2.3983476739197966,-0.2921335190713405,-0.2807985801843926,9.69491454913318,-1.449199275881052,0.1084040254354476,-0.0348106399178504,-0.0517555773258209,-0.6447989881361501,-0.7445702488293677,-0.1396558150500062,-0.1017139552376833,-0.7550069093704224,-0.419328510761261,-0.0273049436509609,-1.4166145186185837,-0.5420031829088926,1.9504747270822524,-0.0194124579429626,0.1915401220321655,-0.0621322017888072,-0.3015081882476806,0.1745252123820595,-0.2298042512073181
58,-0.021799,0.027593,0.385918,-0.090386,-0.007972,-0.712236,0.696051,-2.4670439012661576,-0.4693032728791236,0.3641523149691522,-0.2545651829763315,9.695061264127492,-1.4530657420508564,0.0362719222903251,1.0564295053482056,0.2585584223270416,-0.6429668113531288,-0.7428104898995577,-0.149393135137326,-0.1118395837370562,-0.907081127166748,-0.3542371690273285,-0.1507365405559539,0.927827377590537,-2.0763509315043684,1.2374964072220027,-0.0318606831133365,0.1913778334856033,-0.0637103606586111,-0.3037956953048706,0.2851424546075984,-0.0543739980106241
59,-0.016332,0.025188,0.388958,-0.104354,0.019452,-0.714002,0.69205,0.3135847783030941,0.0861404063612222,-1.4206160093449056,-0.0723687829458387,9.687737789371608,-1.5208100754998624,0.007141625508666,0.5686677098274231,0.2657812833786011,-0.637461074479159,-0.744206188971349,-0.1539379278487526,-0.1268998528727511,-0.6469252109527588,-0.1529054492712021,-0.0367303378880023,0.6397609618276358,0.7931482735097408,-0.4999282013107091,-0.0277957320213317,0.1399297267198562,-0.2552347528009675,-0.2872461974620819,0.26088335314719,0.1102892706464976
60,-0.014186,0.023695,0.390179,-0.110681,0.02115,-0.712043,0.693035,-0.5166137439779936,-0.7615905212074517,-0.9326302478276192,0.039718741894816,9.713210084280371,-1.3499413215324283,-0.6955698728561401,1.3774441480636597,0.1359910517930984,-0.6403158659953777,-0.7361377172351808,-0.1641009182461593,-0.1454911373616302,0.2938162386417389,0.0829886719584465,0.0424883849918842,0.6038508595347404,-0.083638068151474,-0.9135013305962084,-0.029604872688651,0.0677844434976577,0.1803206738530658,-0.2722824513912201,0.4428947930987924,0.0956360009917989
61,-0.013376,0.022611,0.390923,-0.114012,0.015321,-0.710705,0.694021,0.0113669779930263,-0.5605395410746336,0.4260930767059326,0.1327339796287007,9.737813779661058,-1.1522844408173114,-0.1643579453229904,0.803321123123169,0.0286050904542207,-0.6436488728408719,-0.7267463687660977,-0.1748996091466234,-0.1642133913497105,-0.4581403434276581,0.1700819879770279,0.1344213038682937,0.0330143808513879,0.92327102946043,-1.2504115645051002,-0.0380020067095756,-0.0658938735723495,0.1107076695885043,-0.2621279656887054,0.3861827988609671,0.1260641830085776
62,-0.011138,0.019671,0.394638,-0.108307,-0.005721,-0.711621,0.694142,0.9326211877383292,0.002663081729412,-0.0476503705777227,0.1390832390575669,9.736800803226233,-1.160074583236873,0.1649996638298034,0.4283455014228821,-0.133439838886261,-0.6413028073518602,-0.7249295913135742,-0.1833696593553572,-0.1719984266806541,-0.3867630958557129,0.2010796219110489,0.1456466615200042,-0.2024409731864929,0.678084555003047,-0.8250872071493417,0.0023783450014889,-0.0689956545829773,0.0903283413040451,-0.2365105152130127,0.3081503321642056,0.2535043122791685
63,-0.010743,0.019511,0.396412,-0.107768,-0.002274,-0.712279,0.69357,0.7227038142565637,0.3503267648428678,0.3637491409957408,0.1026971350170671,9.723277304786444,-1.2718997582137583,0.3967700898647308,-0.1297938525676727,-0.0387372747063636,-0.6369804993727858,-0.7277481129624195,-0.187700630720401,-0.1714847983100773,-0.7259827256202698,-0.0324185565114021,-0.0296011213213205,-0.1314694943845272,-0.026824294039607,0.3775923729091882,0.0369351990520954,-0.0631267055869102,-0.0752706190343014,-0.1765039712190628,0.2408663827685639,0.3038508266056887
64,-0.009982,0.022225,0.398239,-0.110478,0.003479,-0.711924,0.693503,0.29341254429752,0.0165437230437993,-0.2417909868001937,0.0733491722853155,9.69987480188906,-1.4413327802896498,0.4106598496437073,-0.6487885117530823,0.0729343742132186,-0.6321980310070674,-0.7344918981978177,-0.1844157528936675,-0.1638235129208754,-0.5601983070373535,-0.0937785878777504,-0.0832954421639442,0.0485036264061927,-0.0351636678397655,0.749559380217269,0.0574987269937992,-0.0260092243552207,-0.0220011093835695,-0.1092701405286789,0.2033476214363239,0.3196225971626117
65,-0.009464,0.024568,0.398475,-0.116005,0.00359,-0.710355,0.694209,0.2775211294163018,0.3206616944193839,-0.5200783513486386,0.0985182053646072,9.684407768166064,-1.5404317446842788,0.0448953546583652,-0.3121267557144165,0.1236193627119064,-0.6301679279260103,-0.740142025869628,-0.1752995897589148,-0.1560392540220224,-0.4879533648490906,-0.0550714582204818,-0.0601959154009819,0.1941863550603389,-0.1913631143331527,0.2668804929364472,0.0507788024842739,0.0283011142164468,-0.1398929023394826,-0.0715521126985549,0.0923334705813787,0.0931789084295742
66,-0.008219,0.025292,0.397692,-0.11408,0.001953,-0.707481,0.697462,0.1394342079197056,0.4274287092238664,0.3056044105410576,0.1318587859630584,9.69450772189796,-1.4729277958624063,-0.2456980496644973,0.4073680639266968,0.014943704009056,-0.6320065175909562,-0.7377298378675029,-0.1756505252140228,-0.1595912184996012,0.1504449546337127,-0.0969807729125022,-0.0552881099283695,0.0287082080900669,-0.4412357007801532,0.663168140900135,0.0128351729363203,0.0673203393816948,-0.150666015225742,-0.0746229216456413,0.0420501165849855,-0.1005394181270618
67,-0.008249,0.025925,0.398006,-0.110376,0.004094,-0.704008,0.701551,-0.389326174920611,0.2540577631771564,0.671708005708456,0.1358401106841862,9.697890350073576,-1.4501231127277017,0.0904125347733497,0.3053517937660217,-0.0697321519255638,-0.6316784222731452,-0.7357467952166504,-0.180588907466401,-0.1644587991708258,-0.1454980075359344,0.036513265222311,-0.1216653361916542,0.2820055082887411,0.197386612406373,-0.1599018812078982,-0.0408238619565963,0.057677749544382,-0.0996142021740786,-0.1204625964164733,0.0228743850867613,-0.1732055994171649
68,-0.00801,0.024359,0.397698,-0.114099,0.009534,-0.700416,0.704491,0.3497978455979377,0.1739233192324638,0.0641875177502632,0.1464003388715908,9.690037883007523,-1.500708513844013,0.1181749776005745,-0.0365443304181098,-0.0327877961099147,-0.6291547115529853,-0.7369274070803068,-0.1829011568540234,-0.1662815945699282,0.1556061506271362,0.0112170716747641,0.0218923632055521,0.6433101787418126,-0.0774877288281917,0.4113262636741623,-0.0725976005196571,0.0830658674240112,-0.0865037506477441,-0.1344626247882843,-0.0580718615812947,-0.0378760982863721
69,-0.008033,0.022912,0.39689,-0.108501,0.002104,-0.700786,0.705069,0.6952978478714823,-0.0312017784714698,-0.509155975317955,0.0644123257823521,9.686567576548455,-1.528608474291116,-0.0394033603370189,-0.1556052565574646,-0.2723353207111358,-0.6292358991342453,-0.7375593679752788,-0.1842376820245098,-0.1616318405272794,-0.3470351099967956,-0.0098809693008661,0.1254096329212188,-0.2889344307690858,0.8377379413425922,0.0684059756955131,-0.0553745962679386,0.1004550606012344,-0.0462567744945874,-0.1076847463846206,-0.0176348769980832,0.1084674255141988
70,-0.008951,0.021816,0.395076,-0.10259,-0.007113,-0.701033,0.705676,-0.1992276736957952,-0.234902980852127,0.6371649539850652,-0.1603515794704668,9.70038041332364,-1.4308433888487515,0.0276460647583007,0.4393846392631531,-0.1986629962921142,-0.6341967086954582,-0.731472759018843,-0.1946800253862351,-0.1576132183121056,0.0230537094175815,-0.0762181803584098,-0.0171423889696598,-0.6056915189653634,0.0566097759723663,0.2162906348407268,-0.030108755454421,0.0227131098508834,0.0823918857489712,0.0171520020812749,0.0163938434114446,0.2491908877931535
71,-0.011467,0.021531,0.39211,-0.088227,-0.027767,-0.701377,0.706764,0.0128742955497466,-0.1782984655767679,-0.4413363846756518,-0.2478054978493601,9.68911667650938,-1.4933284865953027,0.070513978600502,2.169798851013184,-0.1046805009245872,-0.62740804920201,-0.7260574344926046,-0.2213123646000424,-0.1738410603525441,-0.0565793327987194,-0.241085797548294,0.0316991880536079,-0.2235726085424423,-0.4517372210502624,0.1259580374866724,-0.0027897229883819,-0.0081457262858748,0.0438352692689746,-0.0926359072327613,0.0273538252058904,-0.0597233003164408
72,-0.013604,0.022373,0.392287,-0.081899,-0.031986,-0.701814,0.706914,0.2034041921954602,0.2638900058835745,-0.1025448670648038,-0.0521205062956782,9.687458972430228,-1.523416896997392,0.0208849813789129,2.652929782867432,0.1233525425195694,-0.6136631044804419,-0.7163493910568569,-0.2540003904156486,-0.2138806340134966,-0.3306918442249298,-0.1931907087564468,-0.0024033891968429,0.2014928786814212,0.0453834485590457,0.5052081144750118,0.0324205048382282,-0.0249871127307415,0.0067771168940293,-0.1379657536745071,0.0202199204886448,0.0019497772235044
73,-0.014647,0.023467,0.395351,-0.077954,-0.02256,-0.704066,0.705482,-0.5676803527399897,-0.2085679316341877,-0.802515821313858,0.170392533024121,9.682872813683748,-1.5438016595087944,0.0072748633101582,2.774187564849853,0.1852014362812042,-0.597603231211929,-0.7055285915246016,-0.2845020008897702,-0.253295073104063,-0.0952247306704521,-0.1354937553405761,-0.0732872784137725,0.1125298161149025,-1.1944868481874464,-0.269549365085829,0.0591668859124183,-0.0327563807368278,-0.0357554642870323,-0.1212044581770896,0.0038840794583084,0.0369621709123835
74,-0.01625,0.025054,0.395763,-0.077461,-0.02155,-0.704531,0.705104,-0.474027159595862,0.3391968835413456,-0.9877470087632536,0.4128254892559722,9.6868200900048,-1.4715464245066046,-0.227462500333786,2.423356294631958,0.2368817180395126,-0.5831060369211248,-0.692105906548816,-0.3098667431995309,-0.2914776616416409,0.1502982079982757,-0.0025265435688197,-0.1169339567422866,0.2031388923227786,-0.7354074476808309,-0.641511604887247,0.0962174087762832,0.0305536109954118,-0.1500906904226634,-0.0888491198420524,-0.0103171584128402,0.0171797056926647
75,-0.015512,0.024768,0.396075,-0.075691,-0.028511,-0.705418,0.704161,-0.7096399692177772,0.4917816466689109,-1.2958277462899683,1.1777063207130878,9.683276133787633,-1.008740989214182,-0.3318073749542236,3.7970032691955566,0.8770113587379456,-0.5401065698499617,-0.6474752554198816,-0.3636031774828725,-0.3960472251568004,0.0896287411451339,0.0698493868112564,-0.0747871026396751,0.2237643317222595,0.1079962643384933,-0.0565314500391483,0.1769576519727707,0.1024840176105499,-0.0508480067084077,-0.0830692946910858,0.0277998017079895,-0.0645158820549491
76,-0.016322,0.026491,0.396085,-0.072996,-0.042358,-0.706197,0.702968,-0.5871516536682844,0.1296142219066619,-1.5194459475398063,1.6512246540039777,9.648604048857091,-0.5901444788087159,-0.8512849807739258,3.096125364303589,0.9091497659683228,-0.5131436125539199,-0.618634259986401,-0.3839018711847077,-0.4545267512178158,-0.1345572173595428,0.0938532054424285,-0.0548869036138057,0.2211748997509479,0.3382908746123313,0.0164852708548307,0.2190900593996048,0.0889421701431274,-0.1034942219452001,-0.0912596881389617,0.0303239887066534,-0.0958579914457164
77,-0.014828,0.02664,0.396901,-0.07231,-0.043351,-0.70608,0.703095,0.581166587909311,0.1172755493372678,-0.625329116371274,1.9849689712278544,9.603633272752166,0.0231871179974754,-1.2475537061691284,2.7647690773010254,0.5965606570243835,-0.4960820693171843,-0.5866542543119285,-0.393261454865276,-0.5050593327425513,-0.1775544881820678,0.1048366650938987,-0.0319911763072013,0.1106722055494785,0.2467068158924579,-0.2304956858038902,0.2032606303691864,0.0732619389891624,-0.1313899354754481,-0.0973929986357688,-0.0704468841057038,-0.2239134396030567
78,-0.014559,0.02754,0.397614,-0.071818,-0.040664,-0.705742,0.703645,0.5205059291109443,-0.5966998187363147,0.2147287923514843,2.088724821517616,9.550116202098131,0.7764705488227307,-1.5447989702224731,2.0929088592529297,0.1356716006994247,-0.488762492079946,-0.5492816549945977,-0.3983725454121471,-0.5483614550811728,-0.1514445841312408,0.1668613702058792,-0.0603844001889228,0.0937941359847784,0.2080254953205585,-0.3299029854953288,0.1578383147716522,0.0967434048652648,-0.1431459584518335,-0.0936836898326873,-0.085611103523802,-0.2609867587227374
79,-0.014488,0.029848,0.400016,-0.070878,-0.044277,-0.70176,0.707495,0.4654715857617557,-0.1952992847383022,0.3494938211500644,2.0294361817248165,9.484951363748312,1.44481097779423,-1.301065444946289,1.126306176185608,-0.1163842976093292,-0.4919573234074634,-0.5185914593067327,-0.3967342167126598,-0.5758844353754026,0.1329389214515686,0.1447785943746566,-0.1169175803661346,-0.0703653296023607,-0.1718371606081724,-0.0718412473738193,0.1010125279426574,0.0456753186881542,-0.0342290493041975,-0.0826638340950012,0.0003952983400988,-0.2614351783436723
80,-0.014181,0.030753,0.401293,-0.068204,-0.050198,-0.700945,0.70817,0.1840380321420729,-0.3312742738485336,1.0261346070855857,1.922260732249916,9.415473922896386,1.9555444315619763,-0.910680651664734,1.071468710899353,-0.0034004892222583,-0.4961696955748356,-0.4943467550332029,-0.3948623422681446,-0.5945760636148222,-0.0143266860395669,0.1300028413534164,-0.1096425577998161,-2.0458266139e-05,0.092815646341443,-0.1427613247821107,0.0562209486961364,0.0288567952811718,-0.125759683636669,-0.0845305025577545,-0.0699935873802518,-0.2011453438853845
81,-0.014218,0.031732,0.402024,-0.064885,-0.054395,-0.701021,0.708097,-0.2012447491392493,-0.6824100169867277,2.125206147827208,1.8423204957030712,9.36378640575707,2.25738013721928,-0.0629217624664306,1.8900887966156008,0.2083956003189087,-0.4888988907408272,-0.4731206443191413,-0.4013259236123405,-0.6132473905755622,-0.1936383843421936,0.1445038020610809,-0.1353079825639724,0.0669715955108404,0.1889794340670108,0.0488864882439374,0.0639473870396614,-0.0148738380521535,-0.0347444971462013,-0.0884536728262901,0.0092685061639669,-0.116467931881966
82,-0.012948,0.030626,0.405943,-0.061358,-0.057076,-0.701831,0.707397,-0.9348318495251238,0.7606944491505623,-1.0000212377943098,1.5968286085583268,9.423640278217196,2.194428298743814,0.0248551461845636,1.1469659805297852,0.3693488538265228,-0.425945540637183,-0.4217639800420934,-0.45850892765361,-0.6560907136646716,-0.2309817671775818,0.0989088416099548,-0.1098435595631599,0.0215402161568403,-0.0706546679377555,-0.0195826523482799,0.0296432524919509,0.0054732379503548,-0.1373318288129754,-0.1066698804497718,-0.0534029016558779,-0.2388963613372296
83,-0.013067,0.031358,0.406843,-0.058515,-0.056325,-0.701624,0.707904,0.594640548118949,-0.2207785939097404,0.7043173128902912,1.680150304237008,9.385333636176586,2.294121283508837,-0.1069462969899177,0.1112935319542884,0.0324449315667152,-0.4209601264767678,-0.4185710842271034,-0.4558844278732294,-0.6631442140925545,-0.0616542547941207,0.0858423113822937,-0.076876625418663,-0.1006149219155311,-0.1551344476103782,0.0667079761385917,0.0180295556783676,-0.0099461348727345,-0.1131964907295536,-0.0957400575280189,-0.0580690074705053,-0.180320052798558
84,-0.01313,0.028919,0.408226,-0.055513,-0.055986,-0.701681,0.708115,-0.3345155938573181,-0.3850333365648984,1.2305448345184324,1.6160120324559508,9.402644251939654,2.269179296084493,0.3828378617763519,0.5240194797515869,-0.009490992873907,-0.4171180193922624,-0.4137216732473153,-0.4616691787297481,-0.6646115775644003,-0.1939638257026672,0.0578933358192443,-0.0764927268028259,-0.1252133565992116,0.1516477745383977,-0.0036187932853586,-0.0119635248556733,0.0082801915705204,-0.1173682325894013,-0.102245807647705,-0.056252966457908,-0.231691654122807
85,-0.013512,0.02809,0.409803,-0.050924,-0.05793,-0.700715,0.70926,0.4634058854036033,0.1422901636064052,0.270614053441584,1.6210457888394594,9.435862046408651,2.122988764038682,0.4296246170997619,0.7283532619476318,0.2285213321447372,-0.4060367388774633,-0.4116390835169013,-0.4714986320358215,-0.6658651009930102,-0.1260004937648773,0.0300764609128236,-0.1024523600935936,-0.0692407094866037,-0.1488186885923147,0.0869371005637105,-0.029715334996581,0.0056980568915605,-0.0626320821689209,-0.0821709930896759,-0.0278679784232401,-0.1048041081005241
86,-0.012899,0.025344,0.410847,-0.047825,-0.059234,-0.699466,0.7106,0.8957160830587149,0.2420195348590612,0.065517597310245,1.615502329368144,9.444173363158106,2.090012377110124,0.1071977317333221,0.7848439812660217,0.0798611640930175,-0.3943963379824067,-0.404287909257831,-0.4795730545135456,-0.6715747471764041,-0.2413451969623565,0.0238440763205289,-0.1021703258156776,-0.0736480045348405,0.1895411596029996,-0.0819908854663372,-0.0356358252465724,-0.0114444214850664,-0.0444386374230263,-0.0554070211946964,-0.0154901017880416,-0.0612107258626027
87,-0.012801,0.024016,0.411381,-0.04707,-0.06127,-0.697802,0.712112,0.6706754477903246,0.2124737069010734,0.5087003405049443,1.5550341244019568,9.458456155532598,2.071202024308592,0.2506701350212097,0.4591239988803863,-0.1367570459842682,-0.3876440849455008,-0.3970268839174318,-0.4865878548463754,-0.6747844868499218,-0.2692124843597412,-0.0198238268494606,-0.1003382727503776,-0.1052642090260982,0.0301250891506671,0.0716816820310894,-0.0164586491882801,-0.0079471953213214,-0.0511877052578609,-0.0566214993596077,0.0047935304449347,-0.0599456058641895
88,-0.013002,0.022498,0.412785,-0.047783,-0.062072,-0.694279,0.71543,0.1684574550420045,-0.0171457805901765,0.5895613451585173,1.451968009942025,9.50162718873918,1.9445516206435856,0.5197666883468628,0.3556245863437652,-0.2033696472644806,-0.3833369491013735,-0.3930413808503763,-0.4963606883334183,-0.6724563128286035,-0.4543764889240265,-0.0071395644918084,-0.0599439777433872,-0.1337321786195039,0.2013397339463233,-0.288939691466093,0.0111514870077371,-0.0364952161908149,-0.0447222355708014,-0.0797738879919052,0.0425107335337903,-0.0502106495197862
89,-0.013256,0.021483,0.413109,-0.050686,-0.06347,-0.692341,0.716984,-0.2367674595497548,-0.2448930444687604,0.0012027999185025,1.3752102028235793,9.549806990018489,1.7550934631489217,0.5456878542900085,0.1522803753614425,-0.1042550504207611,-0.3786725727870832,-0.3922207004621109,-0.5066340510966986,-0.6679010744273037,-0.4582681655883789,0.010535143315792,-0.032717153429985,-0.0621598113149404,-0.0214496152639389,-0.0826315214574337,0.0362964421510696,-0.043177206069231,-0.0711232535638846,-0.097733087837696,0.0481471456852974,-0.063935410719295
90,-0.013993,0.020611,0.413113,-0.053587,-0.065529,-0.689589,0.719237,-0.2607774268209934,-0.2173351754575967,-0.2829793217569589,1.343554981496185,9.589438158661126,1.551756710166484,0.5301955342292786,0.1256405711174011,-0.0036197886802256,-0.3739677851006396,-0.3941230066737853,-0.5153149327094092,-0.6627713155156039,-0.3109373152256012,0.0045933644287288,-0.0004777904541697,-0.1557207230657339,-0.0403974768400192,-0.0311362754872068,0.0496532954275608,-0.034781415015459,-0.1113901536936406,-0.1076448187232017,0.0308409983180812,-0.0737745489573804
91,-0.014673,0.018009,0.414606,-0.061345,-0.057593,-0.686407,0.722333,0.0740520552910864,-0.2420201193809509,-1.0903023972220718,1.406911016858369,9.617264323219656,1.303535690318793,0.0861169546842575,0.2463899254798889,0.1615843325853347,-0.3599498820549349,-0.395283855436921,-0.5265822341717167,-0.6609825106463842,-0.291715145111084,-0.0006792152998968,0.0358923338353633,-0.2655073779523372,-0.2987362783372402,-0.0685807477405294,0.0608049221336841,-0.0102148735895752,-0.1049527319241315,-0.1183767393231391,0.0280546464020269,-0.0672544949722941
92,-0.015325,0.016519,0.415379,-0.063979,-0.053022,-0.685914,0.722923,-0.1043291201330721,-0.294652223894,-0.5913330310061574,1.4676773279882966,9.607047465109824,1.311837800848484,0.0033920060377568,0.3571805953979492,0.2473934590816497,-0.3539625334894717,-0.3935649060630373,-0.5274671079443396,-0.6645265101019492,-0.2729009687900543,-0.0110471146181225,0.0688285753130912,-0.1771434503227472,-0.1789835252314806,0.1386625476937741,0.0676870569586753,-0.0115049378946423,-0.0261890945587423,-0.1390602886676788,0.077894875723822,-0.0111875480392016
93,-0.016341,0.014568,0.417313,-0.066268,-0.04786,-0.685559,0.723414,-0.0237722129926085,-0.2644137374967336,-0.8014940770506859,1.55516344987005,9.589230653390288,1.3410874223388731,-0.0659993886947631,0.2244699597358703,0.2744597792625427,-0.3472981117287991,-0.3920936938541043,-0.5271490377864939,-0.6691490850988552,-0.0799333900213241,0.0034631718881428,0.0921038091182708,-0.0248112006515264,-0.2755962257683277,-0.078309566605091,0.0886929407715797,0.0097705954685807,-0.1011206977468915,-0.1481524109840393,0.0032323295597976,-0.0113126357235945
94,-0.018035,0.010614,0.419584,-0.073275,-0.037456,-0.684669,0.724194,-0.1528597806766629,-0.3705249187409877,-0.5008779763162136,1.6538745839908715,9.567102408212422,1.3804478112161158,-0.0555356778204441,0.1245951279997825,0.310734361410141,-0.3425004467994098,-0.3924141838698476,-0.5250027192560983,-0.6731097310730075,-0.1502445638179779,0.008973678573966,0.1638198047876358,-0.1776777033299207,0.076683426707983,-0.3109410953938961,0.0917970240116119,0.0290168356150388,-0.1313537590503692,-0.1630745232105255,0.0336910608368227,-0.0809792607383802
95,-0.018711,0.008197,0.420355,-0.074602,-0.040312,-0.684399,0.72416,-0.159232238318026,-0.5064303497463465,-0.3826034790694713,1.9891504946962,9.496208670821783,1.4267749703660606,-0.0575776398181915,0.2631288170814514,0.611232578754425,-0.3276077104421321,-0.3977469987565553,-0.5187022715446598,-0.6822158681184918,-0.4048299789428711,0.0055645126849412,0.1962673664093017,-0.118386725449562,0.1788619446784257,-0.0048375762242823,0.0878543555736541,0.0528668165206909,-0.123953346600756,-0.1566523611545562,0.0189164206916233,-0.0945998354776296
96,-0.018885,0.004985,0.42125,-0.068453,-0.06437,-0.686776,0.72077,-0.3204869223743677,-0.4578595033228397,-0.1336656892545521,2.2295634711414576,9.43402021793425,1.4827983247525989,-0.0780484452843666,0.3702144026756286,0.7672756910324097,-0.3154417424382112,-0.3998671705529344,-0.5143000803893357,-0.689998658456933,-0.2455005049705505,-0.0579470321536064,0.2182521522045135,-0.1389005211681127,0.4457020325392484,0.0586064296822994,0.0861715823411941,0.0623748153448104,-0.0748474480190547,-0.1181525439023971,0.0468481097175506,0.0095196136853366
97,-0.014694,-0.005406,0.425944,-0.04735,-0.117401,-0.702958,0.699875,-0.232422562213242,-0.7083481758415698,-0.0160560856573283,2.519783265545964,9.348424585974216,1.5582215222664175,-0.0901445150375366,0.74118971824646,0.995080590248108,-0.2984561310908963,-0.4007621067668631,-0.5098456076583,-0.7002651496674471,0.0174642670899629,-0.2338278889656067,0.0965258553624153,0.0445639488697051,-1.658695428276062,0.9115970313448458,0.0940064564347267,0.0460687018930912,-0.0226487756203627,-0.0979297384619712,0.0474390019825194,-0.083964888953045
98,-0.013664,-0.010065,0.426092,-0.051583,-0.13684,-0.701112,0.697894,-0.8359446281850338,-1.0318991619616746,0.5023929109238088,2.927878036485612,9.199268043729662,1.7237658663406967,-0.1296934187412262,1.4574028253555298,1.6535098552703855,-0.2701714800028302,-0.397757881321105,-0.5038859681053454,-0.7175617762670529,-0.3043387830257416,-0.0630201995372772,0.2470250725746154,-0.1976765352636575,0.842719821408391,-0.6650923869609833,0.0774884521961212,0.0729318559169769,-0.1108148380237165,-0.086658202111721,-0.0215262766797444,0.043944574862346
99,-0.012623,-0.014381,0.427858,-0.051746,-0.141409,-0.702633,0.695437,0.4104655917242169,-1.1799877827137708,-0.5084890358418226,3.468141097728908,8.953212385222315,1.9955876881368453,-0.4322814345359802,1.280765414237976,1.7096613645553589,-0.2327533121644158,-0.3940142467375555,-0.4929565034454974,-0.7399814825488279,-0.469801515340805,0.1357942074537277,0.2435316145420074,0.5387766220778226,0.5847860935807228,-1.676587497188896,0.0641275346279144,0.0923752039670944,-0.0378372709631919,-0.0720290914177894,0.0366092955042375,0.081136013069516
100,-0.011498,-0.019471,0.431715,-0.054026,-0.153937,-0.699164,0.696099,1.1016454828828572,-0.095396895006299,-0.0324409648776054,3.8651255688503374,8.723501127794384,2.265332995919883,-0.1723317205905914,0.3235902786254883,1.00547456741333,-0.2081574575367741,-0.3926046940574174,-0.4799601211760906,-0.7564194871568937,-0.1245567873120307,-0.0325754135847091,0.1488407850265503,-0.5299778140723705,0.0909106895029544,0.1289829382658004,0.0478652790188789,0.0803204625844955,-0.0663001716558355,-0.1310955137014389,0.0518400910522555,-0.024919277835614
101,-0.011938,-0.021382,0.433741,-0.052474,-0.152503,-0.696637,0.699061,0.6537874413534999,0.2034416746616363,0.8446101651996374,4.16020390920192,8.602731306600571,2.2036573148600755,0.4504633247852325,-0.178404688835144,0.7629005312919617,-0.1959574722279531,-0.402781923935097,-0.4747751734472539,-0.7575988160500519,-0.280765026807785,-0.0555336251854896,0.0421702042222023,0.1812707593858241,-0.1507253989964723,0.178757388325408,0.018620278686285,0.0822548195719719,-0.0400549744121264,-0.1538572013378143,0.0549523184883873,-0.0073019290735333
102,-0.011689,-0.023584,0.439153,-0.050937,-0.144523,-0.695915,0.701585,0.3256611101418733,0.2492126612335443,0.347426367226243,4.431018745912612,8.516707804617285,2.000537419498712,0.6115131974220276,0.1587588787078857,0.8321362137794495,-0.1803944308106739,-0.4133175868273626,-0.4766230668055876,-0.7546236730467544,-0.2926459312438965,-0.0555081106722354,-0.0241336524486541,0.4147159426450729,0.0477554383873939,0.2004535987615585,0.0102117182686924,0.084355741739273,-0.0174859951628604,-0.1549417376518249,0.0741382220374653,-0.0495190322601236
103,-0.010167,-0.028602,0.444489,-0.049613,-0.141197,-0.695109,0.703154,-0.4265186086416244,0.0371685779213905,4.61772292852e-05,4.926869541716576,8.251856844747065,1.950180566441268,0.0569451376795768,0.772502064704895,0.9989553689956664,-0.1454792277333242,-0.4207815166309461,-0.4727699010461536,-0.7604389066676925,-0.150648832321167,-0.0365402251482009,-0.0449720248579978,0.2642436416268348,0.06242167712152,0.1261455228827893,0.0125415232032537,0.0602817125618457,-0.1044092361645773,-0.2126052230596542,0.05968499129978,-0.2090068345081061
104,-0.008631,-0.031376,0.448297,-0.050603,-0.141385,-0.694333,0.703812,-0.8351362344115972,-0.2670300574749708,-0.1576218805119395,5.233583959326148,8.010627583482862,2.147053968628496,-0.0879329442977905,1.060818076133728,1.326709270477295,-0.1198534232887108,-0.4180666652946477,-0.4644900147804579,-0.7714301958878824,-0.2634241282939911,0.0080490289255976,-0.0628865733742713,-0.0075882631719112,-0.083306059718132,-0.3305725553199649,-0.0028038301970809,0.0618439354002475,-0.1759762697068974,-0.2242636829614639,-0.0135539518019126,-0.1415123019685503
105,-0.007412,-0.034542,0.450725,-0.052697,-0.139486,-0.694248,0.704121,-0.4155447946846485,0.0042746085792779,-0.0704652828454971,5.578042124396562,7.70954386523664,2.370395106502622,0.0519302561879158,0.8087591528892517,1.3604494333267212,-0.0906643414254085,-0.4159445197031465,-0.4540194238182025,-0.7827110262674766,-0.1597089171409607,-0.0012874279636889,-0.012801568955183,-0.2636918529629707,-0.1658130780130624,-0.2065923937775194,-0.0148054808378219,0.0790623053908348,-0.1377911716867238,-0.2385525703430175,0.0364774127528769,-0.0874993101568892
106,-0.004632,-0.039441,0.455227,-0.0564,-0.136297,-0.694643,0.704069,0.316691037222743,0.2167483154803514,-0.1992369164481759,5.884141040456295,7.441105110007524,2.48539993442893,0.1133348047733306,0.4922833442687988,1.0753347873687744,-0.0662300873715663,-0.4177264261216772,-0.4458525507355166,-0.7888812491458784,-0.0678974986076355,-0.0312167238444089,-0.0072676530107855,0.0726888041138649,-0.2365419802308082,-0.0015009060822427,-0.0013719756389036,0.1156764850020408,-0.1777944067784585,-0.2225341200828552,-0.0156987292952428,0.0281658494082512
107,-0.003438,-0.041773,0.457429,-0.058218,-0.132341,-0.69651,0.70283,0.1832435207635164,0.225081844061613,-0.0980669909983873,6.159744865009189,7.20382663219571,2.516509942963719,0.1140053123235702,0.0622868761420249,0.987634539604187,-0.0478402643407331,-0.4234548035577407,-0.4386111400133617,-0.7912127857115185,0.0509769544005394,-0.0444575361907482,0.0367092564702034,0.0490378794133663,-0.0690910718828439,-0.0304362009264528,0.0063650202937424,0.0970241576433181,-0.0276276805610745,-0.2483054101467132,0.0524946962032001,-0.1190884348449762
108,-0.002979,-0.04442,0.458948,-0.060703,-0.125756,-0.698754,0.701601,0.3777320736408233,0.3295096022635698,0.1775226588986813,6.631741614755987,6.798925981122255,2.44233221546635,0.1881701648235321,0.1978325247764587,0.8069095015525818,-0.018240756252233,-0.4378713254962405,-0.4286541866222558,-0.7900579264168419,0.2575415968894958,-0.0914110913872718,0.0516971983015537,-0.1575800871968269,-0.2232160501897335,-0.198315417689085,-0.0065755331888794,0.0742359384894371,0.0425886804410954,-0.3046749830245971,0.0973429510401561,-0.0285825952492887
109,-0.001321,-0.04816,0.463186,-0.068877,-0.128797,-0.699222,0.699826,0.356074368584156,0.0662093789666891,0.5194876919791102,6.819796335193514,6.589969926953315,2.4966075571417807,0.2197484374046325,0.6521298289299011,0.893287718296051,-0.0009884024303344,-0.4395508260024176,-0.4236785444046788,-0.7920167556830308,-0.0450912564992904,-0.0247190911322832,0.1291791349649429,0.1649327880471944,0.2400748305320739,-0.5089525617003441,0.0181245170533657,0.0786680802702903,-0.1127688764346297,-0.2976550161838531,-0.0380532518014311,0.0810109345182776
110,-0.000714,-0.051443,0.46442,-0.072624,-0.132251,-0.69973,0.698293,0.0336696298897266,-0.0467103132486343,0.4543751683384179,6.958446680992841,6.360220091080665,2.7014818949550388,0.2818910181522369,1.2900925874710083,1.010445475578308,0.0229507769503869,-0.4324099349541579,-0.4186698074624034,-0.7982546587273415,-0.1367974877357483,-0.1014887541532516,0.1548213958740234,-0.1819973200947046,0.1755085425972938,0.0694819708965718,0.0402036532759666,0.1048634350299835,-0.0809732237232383,-0.3196070790290832,0.0321371801750385,-0.0047856137124268
111,0.000676,-0.053199,0.46743,-0.07575,-0.136022,-0.699084,0.697884,0.0962988122820854,0.0456564202815294,0.1511067995294928,7.0686483464211225,6.07721446583867,3.045002194653452,0.357492983341217,1.7638429403305054,1.2100180387496948,0.0553439834124451,-0.4180145508664167,-0.4123250277073726,-0.8075820748730096,-0.0941506773233413,-0.0829972550272941,0.2101002186536789,-0.1832803456425666,0.311271350261569,-0.2885539070188999,0.0617564022541046,0.0895318910479545,-0.109823799426062,-0.3124016225337982,0.0069889866710873,0.0270188484973274
112,0.002301,-0.060297,0.471204,-0.078995,-0.142773,-0.699138,0.696119,-0.1042044708400964,-0.0599088175177574,-0.3098234895408153,7.081955571761727,5.76574028648138,3.5738688326135275,0.3993009328842163,2.631835460662842,1.3683068752288818,0.096352565431217,-0.3926574023708108,-0.4044793837942666,-0.8203248266251977,-0.1562065780162811,-0.1501382142305374,0.2015901505947113,-0.1547071621090173,0.2124959187328815,0.0398212843872606,0.0652835294604301,0.1323361247777938,-0.1934105118496343,-0.277933657169342,-0.0465441903009545,-0.0680642358860233
113,0.003305,-0.063416,0.472362,-0.078321,-0.14569,-0.697683,0.69705,-0.3107037795066833,0.0725409200757741,-0.6169698688268661,6.974066274929046,5.385789952269196,4.304189770810305,0.0661271438002586,2.7202420234680176,1.6502063274383545,0.1442581757619933,-0.358045053847223,-0.3903218281156131,-0.8358482008259833,0.0439933463931083,-0.2830149829387665,0.2368417531251907,-0.2466647303164005,0.3419622566014528,0.3999966585494577,0.0629504173994064,0.0994205474853515,-0.0048230824788712,-0.2462257742881775,-0.0036929459377803,-0.0390161374502582
114,0.003021,-0.066703,0.472756,-0.077799,-0.149565,-0.693253,0.700698,0.4221171588122844,0.2777414211034774,-0.3738818279534578,6.863288270917535,4.938325586232542,4.967756263378262,-0.009396556764841,2.124256134033203,1.5008176565170288,0.1887172369876479,-0.330457873892755,-0.3708268053950223,-0.8471545621317608,-0.0454787462949752,-0.4649238884449005,0.3050329685211181,-0.2499310386359691,0.7744236992955207,0.2935034922502935,0.0768077298998832,0.0747639685869216,-0.0463926712673623,-0.2114902287721634,-0.0320170746264397,-0.0241443684899597
115,0.003,-0.072957,0.473633,-0.077712,-0.152448,-0.686305,0.706899,0.2917845595031976,0.3897729323074221,-0.0506967525362968,6.633144467291236,4.206046791966259,5.872048451602459,-0.2787196040153503,1.32369065284729,1.0613137483596802,0.2507206352753405,-0.2958224392426818,-0.3363003539214555,-0.8582134880309846,-0.1328131258487701,-0.4991475045681,0.1963565796613693,0.297625102224946,-0.5173381127297878,-0.4622434174954891,0.0935629233717918,-0.0364458747208118,0.0483186571941478,-0.1980566978454589,0.0080404981681494,-0.0161368878170673
116,0.003688,-0.07648,0.473877,-0.080885,-0.149246,-0.687526,0.706039,0.2145364846497774,0.0317108970373868,0.4674480004012584,6.520203147765994,3.8747283867150544,6.216414846736193,-0.0819321572780609,0.9905113577842712,1.0439764261245728,0.275076001369188,-0.2838347919000185,-0.3201388337937771,-0.8609774093684239,0.2484836280345916,-0.4391618967056274,0.1861951500177383,0.3813105166494846,-0.384122066938877,0.0602794043958187,0.097855307161808,-0.0079666385427117,-0.0964896130132954,-0.1550633758306503,-0.0884640270031988,-0.1113380855796858
117,0.003843,-0.08006,0.474017,-0.082536,-0.144825,-0.688347,0.705969,1.8413158487051724,0.6218500420838594,0.7005202586948871,6.465366811206937,3.682325992462039,6.388262528738379,0.0488731786608696,0.5455884337425232,0.3761204481124878,0.2890639032592079,-0.2781969593764005,-0.3112807721835986,-0.8614829438677655,0.0007183102425187,-0.3448810875415802,0.2388875931501388,0.3716916244328022,0.1508130772799253,-0.3972682564988732,0.0725987404584884,-0.0246370080858469,-0.0882539827154017,-0.1181637942790985,-0.0659747664932161,-0.1379918088253587
118,0.005258,-0.085322,0.474338,-0.087282,-0.141231,-0.688089,0.706378,0.4011000897467136,0.262594705376029,0.5666437031686306,6.339924322026968,3.635464872565865,6.539047548967599,0.2400487512350082,0.7565881013870239,0.3910381197929382,0.2979217732402095,-0.2684376857293907,-0.3074777550825061,-0.8629260338658961,-0.0861603990197181,-0.3629769384860992,0.2295614629983902,0.2398334229916334,-0.2624737093448638,0.0243745627999305,0.0622677877545356,-0.0094379894435405,-0.0807974744306877,-0.0930401980876922,0.0002577010881155,-0.145182578845974
119,0.005466,-0.088357,0.474224,-0.089528,-0.137905,-0.689247,0.705624,1.2716776398956775,0.6867080064415931,-0.2290577619552612,6.21873189150691,3.606395137687027,6.670208415794372,0.0847513675689697,0.540509819984436,0.1123952269554138,0.3061536147359582,-0.2590523646817529,-0.3046405950756071,-0.8639189801907335,0.0195793490856885,-0.3457175195217132,0.2587920725345611,0.1068383264750242,-0.2260422135263681,-0.2375321603119373,0.0414265170693397,-0.0340272039175033,-0.1172323312500491,-0.0846087932586669,-0.0418707642629742,-0.0990798578353598
120,0.006051,-0.090418,0.474932,-0.090886,-0.135961,-0.690368,0.704732,0.4591232396483421,0.0614221446901559,0.121340899080038,6.048167235052586,3.628042613610625,6.813763484770059,0.0911339744925499,0.7655882835388184,-0.0454657524824142,0.3084870998243004,-0.2482778974998284,-0.3015838864589859,-0.8673182784499498,0.1419300436973571,-0.3406722247600555,0.2182435095310211,0.3615770576536655,-0.2294733570188283,-0.1212469371862709,0.0413344949483871,0.025344006717205,-0.1214800974881742,-0.0533005073666572,-0.0979309800611808,-0.020376862332737
121,0.006775,-0.093999,0.475361,-0.091217,-0.130739,-0.691439,0.704627,0.0189835174113512,-0.0110045013561844,-0.186411044883728,5.811346437880396,3.650939212812483,7.004947150883078,0.0777449384331703,0.8657872676849365,0.0361787043511867,0.3143238240921765,-0.2327646658797669,-0.297771205945815,-0.8708349685028834,0.0697796717286109,-0.2651312053203583,0.1382384151220321,0.5025228209137916,-0.0111491705238819,-0.2962675501361489,0.0609835237264633,-0.0074894251301884,-0.0599188548545818,-0.0511698201298713,-0.0319533663070411,-0.0248290240025846
122,0.006801,-0.094686,0.47568,-0.089568,-0.124651,-0.691814,0.705573,0.6483037492454051,0.2525245622605085,-0.4750444468796252,5.612683229666948,3.670973408320546,7.154867078715562,-0.0029701204039156,0.5222467184066772,-0.1812233626842498,0.3176121377487287,-0.2204801775423796,-0.2942648350094614,-0.8740246872609332,0.3198350667953491,-0.2349348068237304,0.0288316290825605,0.3511743215829134,-0.3264303409487009,0.2962228342115879,0.0792781263589859,-0.0136752184480428,-0.0198358279583277,-0.0502296984195709,-0.0464021332154516,-0.0143121942822006
123,0.007276,-0.092546,0.477038,-0.08871,-0.118078,-0.692412,0.706225,0.1937117232859134,0.0341012993052601,-0.2571066293537616,5.361285041087865,3.6858898224234578,7.337658179536461,-0.2322254627943039,1.092817783355713,-0.0714014992117881,0.3182991724051678,-0.2064734850709463,-0.2885346381809653,-0.8790917285107949,0.1852602064609527,-0.1403560042381286,-0.0754282623529434,0.4566682477116584,-0.2405383563905954,0.1720025803029537,0.0868994444608688,-0.0278407633304595,-0.0530139662703732,-0.0523432381451129,-0.0609856347027234,-0.0299867355593247
124,0.00796,-0.09337,0.477742,-0.084048,-0.115224,-0.692423,0.707255,0.5763648867160082,0.1003504257604479,-0.0630079525768756,5.06856407751739,3.6087168586328624,7.580052977448702,-0.228770449757576,0.7219398021697998,-0.1321661621332168,0.3219352788576766,-0.1911105735159426,-0.2774916071973085,-0.8847784500702895,0.0265792030841112,-0.1811216920614242,-0.0928176417946815,0.119776133981347,-0.2530705057054758,0.2435501054272055,0.0902357622981071,-0.0413350835442543,-0.0376895718714804,-0.0762118771672248,-0.0357737351626623,-0.0624758504275931
125,0.008624,-0.094511,0.478024,-0.082442,-0.115154,-0.694181,0.705731,0.2862985293075442,-0.1583306133031845,-0.1525526144236326,4.676731874592602,3.644138592886924,7.811454087659716,0.127007856965065,0.3404818773269653,-0.2201245427131652,0.3208404547893639,-0.1703698972941333,-0.2696308196258837,-0.8918153755091975,-0.0450686179101467,-0.1159460395574569,0.0157266128808259,-0.1229939269840717,-0.3738613696873187,-0.073255498085916,0.0961253643035888,-0.0471657291054725,-0.1169406091613229,-0.0628226473927497,-0.036237203938968,0.0296393446104717
126,0.008948,-0.095208,0.478354,-0.080823,-0.110458,-0.697194,0.703695,-0.5957347730964422,-0.3258551714092493,-0.8095511267781257,4.67036672347486,3.7188878366619353,7.779969985115527,0.0558696538209915,-0.3461731076240539,-0.1663777530193328,0.3169446641347311,-0.1699431455024176,-0.2728575826490015,-0.8923082692910105,0.1644803583621978,-0.136840134859085,0.0706377997994422,-0.2505202367007732,-0.3238683815062045,-0.053031332963705,0.0924165919423103,-0.0275614988058805,-0.1199654825409874,-0.052369225770235,-0.0146545368798892,-0.0425505586541025
127,0.009533,-0.097858,0.479758,-0.080484,-0.107303,-0.702335,0.699095,-0.4043339571014046,-0.3234197609558701,-0.0055400984704494,4.7046194139495485,3.741890818847716,7.748238629812001,-0.0427817478775978,0.196438118815422,-0.0177628956735134,0.3142672889083811,-0.1721575848464237,-0.2744294923156996,-0.892348841028186,0.12160424888134,-0.1431394219398498,0.0641168430447578,0.0651075552046299,-0.0175222126871347,0.0062967620566487,0.0878627374768257,-0.0177785027772188,-0.0342969497415237,-0.0332850143313407,0.006153422333757,0.0083586778638942
128,0.009838,-0.099069,0.480195,-0.079609,-0.103306,-0.70651,0.695582,-0.1590206413939595,0.1235816637441515,-0.904513137498498,4.598169502270221,3.682151220417023,7.840215487241744,-0.2821535170078277,0.300890177488327,0.0350269600749015,0.3162092766738915,-0.1670414758880445,-0.268993299077364,-0.894288189476894,0.1037165969610214,-0.1887939870357513,0.0250093936920166,-0.0120212771832942,-0.2604857503980398,0.12735182993263,0.1021331846714019,-0.0527553483843803,-0.0697407725298078,-0.021744392812252,-0.0074597790956788,0.0375356713678455
129,0.010973,-0.102333,0.480789,-0.076454,-0.097299,-0.711812,0.691383,0.4658464104235172,0.2413438275545835,-0.260334359228611,4.5510532385692,3.6058386728480456,7.902924749132991,-0.2334223091602325,0.0630854591727256,-0.0663641542196273,0.315877165642418,-0.165989976931094,-0.2636480683344036,-0.8961911040526196,0.2478007972240448,-0.1637917011976242,0.0683454126119613,0.0375339041024446,0.1841542058676481,-0.1824512013420462,0.1136303171515464,-0.0090822000056505,-0.101304566413816,-0.047385424375534,-0.028522581290896,-0.0106349465245846
130,0.012803,-0.107559,0.481631,-0.06935,-0.092529,-0.723724,0.680333,0.4588581589713692,0.099100717960298,0.002780570629239,4.513299846497178,3.5453228293478487,7.951804223114252,-0.2132267951965332,0.0793115496635437,-0.1154296845197677,0.3136527813711833,-0.1656996027697604,-0.2590645595792974,-0.8983602189177214,0.3220566511154175,-0.1794399619102478,0.1427352279424667,0.0324012173891067,0.0854214444369077,-0.0469978980183601,0.1164410039782524,-0.0118416175246238,-0.1009929249150678,-0.0674877241253852,-0.0460198650327511,-0.018420120508084
131,0.012967,-0.10929,0.481285,-0.067665,-0.092507,-0.726781,0.677239,-0.1760167843803763,-0.0756526223555207,0.1894932288080453,4.447422183702886,3.5053465005293485,8.006457604321836,-0.1894996017217636,0.2566148340702057,-0.0001240274868905,0.3122430142590887,-0.1633594065567438,-0.2551430241538767,-0.9003999326980382,0.3735968172550201,-0.1454588174819946,0.1768350005149841,0.1552764864295721,-0.0143406600415706,0.1721273757264018,0.0981464087963104,-0.0056558204814791,-0.0958301444575656,-0.0684278458356857,-0.0193206449778052,0.0160257339015486
132,0.013476,-0.109827,0.480332,-0.069915,-0.094266,-0.726986,0.676548,-0.1827767800346016,-0.0501347347393631,0.2534066057920456,4.372031134893,3.4252108875408767,8.082305164727568,-0.1177433803677558,0.2027134448289871,0.2063648998737335,0.3155527006641372,-0.1598798687776873,-0.2497109010625032,-0.9013930828749632,0.0005920764524489,-0.0627821087837219,0.1667208522558212,0.3382195629417896,0.5273597405284642,-0.5449594023659825,0.0934311151504516,0.0033686989918351,-0.1145191085022874,-0.091769278049469,-0.0459561521467752,-0.0191047760207089
133,0.011277,-0.112004,0.480288,-0.074675,-0.09904,-0.72621,0.676191,0.2660927766248583,-0.0266243875533342,0.393717578279972,4.359953743608296,3.385090766337514,8.105698315274715,0.0199059024453163,0.0975306630134582,0.1379112899303436,0.3190154851730004,-0.1589799878865868,-0.2478906055716655,-0.9008355739712384,-0.0283013582229614,-0.0791672095656395,0.0593166314065456,0.4253513184279203,-0.2895312276184558,0.1559153688549995,0.0860745832324028,0.0362616144120693,-0.1036780997452791,-0.1257776767015457,-0.0014309221440402,-0.0951803022467065
134,0.01048,-0.112893,0.480881,-0.074461,-0.100174,-0.725472,0.676839,0.1771361437991261,-0.1553451677516102,0.3604688041508198,4.328302467803657,3.3753967630580064,8.126676805895567,0.0851407572627067,0.0860106721520423,0.1230347231030464,0.3214830629037636,-0.1568436509361093,-0.2470928194009218,-0.9005519379796064,-0.0175666864961385,-0.0013361638411879,0.0503849908709526,0.2531143448472023,0.429980731794238,-0.1848047787308692,0.0628438964486122,0.0855237990617752,-0.1166090391193982,-0.1245918348431587,-0.0768653317466843,-0.1146502058023586
135,0.010645,-0.113587,0.480754,-0.07255,-0.100363,-0.726369,0.676057,0.666662997278571,-0.0926753610879182,0.4595622155874967,4.342755063787102,3.389640684726834,8.113026466205715,0.2441547214984893,0.0291215125471353,0.135809525847435,0.3255556633107495,-0.1562148753840551,-0.2488929322707429,-0.8987005273569056,-0.1541676819324493,-0.052579004317522,0.0341458320617675,-0.1650321567684411,0.1877186203509569,-5.83060584962e-05,0.019191674888134,0.0767651796340942,-0.0927654231247026,-0.09154012799263,-0.0871649910354521,-0.1847931065593846
136,0.010685,-0.114357,0.483005,-0.068322,-0.099824,-0.728839,0.673914,0.3562918107271194,0.0881610985338687,-0.0836807382494211,4.327963445107638,3.454658515821397,8.093481807780265,0.2507614493370056,0.0870955884456634,0.056123774498701,0.3289373061272747,-0.1533754506230198,-0.2526326129493716,-0.8969130078578118,-0.0137399919331073,-0.0404758937656879,0.0360673032701015,-0.0074988313227891,-0.1436561912626028,-0.1686594073548913,-0.0195978060364723,0.0537013746798038,-0.1130406699801795,-0.0605889670550823,-0.0668176470581442,-0.1842126580566167
137,0.010436,-0.114245,0.483336,-0.065624,-0.099558,-0.728763,0.674304,0.0285188229978084,-0.1023360466197133,-1.017718660917878,4.35212144254744,3.493722405970096,8.063703924632073,0.0368548333644866,-0.1095929443836212,-0.0484125390648841,0.3283115802458478,-0.1540964627147375,-0.2551857880565268,-0.8962956981633128,-0.030648399144411,-0.0093070045113563,0.033513069152832,-0.0553834490478038,-0.2469166592508554,-0.1750888558804988,-0.0208430476486682,0.0229447744786739,-0.1473376197217032,-0.0683065354824066,-0.0606642252952093,-0.1758539767677895
138,0.009965,-0.113964,0.483452,-0.063939,-0.099207,-0.727909,0.675439,0.160312142509222,0.0517924388185143,-0.6678992610752582,4.255044631630182,3.363985142205656,8.169980525571107,-0.3969089686870575,0.1967038959264755,-0.0075507131405174,0.3303073169720238,-0.1508824997052789,-0.2463359481762651,-0.8985822286883874,0.0508677624166011,-0.0472974777221679,0.0342495627701282,-0.0807972917675971,-0.2362953119933605,0.1307426414147019,0.0316864103078842,-0.0026560185942798,-0.168236158707831,-0.0538421906530857,-0.0053223223965236,-0.1597031437654048
139,0.008261,-0.11461,0.482582,-0.061305,-0.09402,-0.726738,0.677682,-0.2199123324692249,-0.2787646266713738,-0.0379617741256952,4.271949004679918,3.2701699634328483,8.199196683183311,-0.218920037150383,-0.2403841167688369,-0.084745854139328,0.328107489224938,-0.1539893090790602,-0.2413391741480953,-0.9002157003894837,-0.0161695927381515,-0.0683418288826942,0.0475768186151981,-0.03767302031219,-0.039043724143505,-0.0397322909295558,-0.0002942787250503,0.0017613373929634,-0.2223490215642377,-0.0435491725802421,-0.0687018625027034,-0.302161046887841
140,0.006988,-0.116015,0.481731,-0.058182,-0.091868,-0.726385,0.678631,0.2844631305739283,0.1522097923353314,-0.067850716432929,4.3029765956282615,3.20490984801501,8.208734911379217,-0.3218319118022918,0.0433994010090827,-0.1165211871266365,0.3248243999889005,-0.1575794453593657,-0.2379910005661781,-0.9016751695002868,0.1005706042051315,-0.1436809599399566,0.0263106133788824,-0.1922439888209104,-0.060405661123991,0.2883259434819221,-0.0707532614469528,-0.00171244435478,-0.1487201053223572,-0.0667766481637954,-0.005057300514233,-0.2773250588549301
141,0.005589,-0.11687,0.481764,-0.053764,-0.090315,-0.72318,0.682616,0.6509647851482033,0.0590361263364553,0.0631838936656713,4.254904054115713,3.09786840018332,8.274623387828468,-0.3771938681602478,0.1169136092066764,-0.1004070043563842,0.3222855977676608,-0.1576176247335368,-0.2307992828779939,-0.904444857461506,0.2770649492740631,-0.2470747232437133,0.01776166819036,-0.2674070740938186,-0.369468687686324,0.1152447741620242,-0.0829300880432128,-0.0062587084248661,-0.1974264329601079,-0.0585566982626915,-0.0534767888759961,-0.1233284105022903
142,0.000737,-0.123035,0.479187,-0.065714,-0.087699,-0.708121,0.697536,0.3366244027048349,-0.5009589325979352,-0.0992757822662591,4.239892070683837,2.9632457024648784,8.331438915506006,-0.1491154283285141,-0.1510320454835891,-0.0542487800121307,0.3175047421840303,-0.1603166495625246,-0.2225160633643463,-0.907731232235134,0.2826845049858093,-0.4089745283126831,0.0593271516263484,-0.4981120187342167,0.1075181254327297,0.0031682547725737,-0.0062188333831727,0.0124580040574073,-0.0870989948608446,-0.0120678208768367,0.0174262506325263,-0.019090843393479
143,-0.001386,-0.127511,0.478525,-0.066806,-0.089595,-0.70119,0.704161,0.1314636491656303,-0.2864066658571362,-0.2925157963871955,4.306787678349018,2.923919069726765,8.310996431457996,-0.2041171044111251,-0.1390054374933242,-0.0121258366852998,0.315254526490854,-0.1649514444916988,-0.2214681500705262,-0.9079412913692,0.284540444612503,-0.4489135146141052,0.0203106440603733,-0.0798795924007892,0.0190916539609432,-0.0991010102212429,-0.0203572083264589,-0.0073467576876282,-0.0406583425661781,0.0029062549583613,0.0668160396229475,-0.1282359558233991
144,-0.002485,-0.131081,0.477887,-0.069995,-0.091551,-0.695669,0.709058,-0.6783908444732427,-0.2178127298414707,-0.5679226370632648,4.3506472783416505,2.8119302286207675,8.326782029610872,-0.392239511013031,-0.1947949826717376,0.1224035769701004,0.3144883188537384,-0.1692396945101913,-0.2163566203269589,-0.9086500169399644,0.4893330037593841,-0.3488456606864929,0.1547659188508987,0.0486152700871229,0.2403723521739244,-0.8270809382498264,-0.0407144166529178,-0.0146935153752565,-0.0735447587894974,0.0058125099167227,0.057866091609816,-0.0151912900881143
145,-0.002662,-0.13984,0.482063,-0.068479,-0.09047,-0.689762,0.715091,-0.2139306277111172,-0.1530287075027823,-0.2696037073552608,4.4504704653576015,2.65092922706455,8.32684048179984,-0.357373833656311,-0.2957346737384796,0.1720940172672271,0.3153159481997913,-0.1768424147649984,-0.2101809910413987,-0.9083647838749652,0.7021672129631042,-0.2285642027854919,0.2065925151109695,0.1103536411195993,0.6951976023674011,-0.147135850071907,-0.0308398157358169,-0.0200897045433521,-0.0965812094200402,-0.010852763429284,0.0649261068236548,0.0387035826360573
146,-0.002553,-0.142974,0.484263,-0.064814,-0.087806,-0.687932,0.717523,0.1749298659265041,0.1921381903588771,-0.1463765561372041,4.549428559976816,2.510466571146249,8.316888996627926,-0.3769102394580841,-0.1370389014482498,0.1289528310298919,0.3156683832021919,-0.1841934843521937,-0.2050108093119523,-0.9079630418112024,0.1318265199661255,-0.2083420753479004,0.2885600626468658,-0.1586924323529005,0.4206026625961065,-0.8189046460568904,0.0001735124969854,-0.0067301732487976,-0.0440627624484943,-0.0354866348206996,0.1116541109926067,0.0771531813778914
147,-0.002001,-0.146701,0.487229,-0.058929,-0.084098,-0.685849,0.720463,0.2156502911105751,0.0883285640552639,-0.0452250431269407,4.593103451052308,2.3519613319285213,8.33918850671947,-0.4022539258003235,-0.0865713357925415,0.1193786188960075,0.3160819392355174,-0.1889783092067276,-0.1977547111353891,-0.9084450342076368,0.7003067135810852,-0.2713012993335724,0.1813559234142303,0.0632066900193691,-0.6968395243555306,0.4235049599088728,0.0129118086770176,-0.0415518209338188,-0.0126348630539723,-0.0539745278656482,0.118334721267689,-0.0072879941630148
148,-0.002016,-0.153341,0.491355,-0.05294,-0.077941,-0.681847,0.725402,0.0142371996670961,0.0041724633790552,0.122172673729062,4.698299563278257,2.1115536161802706,8.344921497413516,-0.2409763634204864,-0.0962577909231185,0.1043165773153305,0.3166607443431425,-0.1982919089605974,-0.1876372685479284,-0.9084044841450056,0.3416396975517273,-0.1398661285638809,0.2704940438270569,0.2751432213038206,0.213028418174386,-0.4875367025755345,0.0008465952705591,-0.0227457229048013,-0.0891527490528766,-0.0646949559450149,0.0906550251082982,0.0282979011229705
149,-0.002246,-0.157122,0.493067,-0.051204,-0.075949,-0.68102,0.726514,-0.3022922172531485,0.0645322395347058,-0.1002928503543138,4.746977669468522,2.010492411801964,8.342332065442204,-0.2202331870794296,-0.1360619068145752,0.1743565946817398,0.3176929498470989,-0.2022923307278245,-0.1836769984423134,-0.9079712619738406,0.4545347988605499,-0.1262841671705246,0.2159396708011627,0.360240840613842,-0.1471907951295375,-0.171779146810621,0.0138424383476376,-0.0069287051446735,-0.0787274632235988,-0.0715010538697242,0.0542977179040201,0.0868672319315839
150,-0.002178,-0.160623,0.494467,-0.050515,-0.075545,-0.680695,0.726908,-0.0973415993332862,0.1264237553022801,-0.1227735622316598,4.795812427525222,1.8809645530045032,8.344611116290093,-0.2830854058265686,-0.0049444469623267,0.2502651810646057,0.3205736812278139,-0.2064275649735676,-0.1786921529443285,-0.9070221960584324,0.9198055267333984,-0.1523614227771759,0.079111710190773,0.3683262396529316,-0.532694087293744,0.2424212475277483,0.0279115345329046,0.0138081349432468,-0.0627517310597933,-0.0911671072244644,0.0850186083902139,0.042022657755902
151,0.000385,-0.168656,0.499622,-0.046557,-0.072389,-0.688192,0.720406,0.0856760037198662,0.1166043720774352,-0.024037878191471,4.788469663546979,1.7628439311452209,8.374564356005191,-0.1714577823877334,0.0697198361158371,0.1916090250015258,0.3236609617404905,-0.2074374819938285,-0.1731639179829349,-0.90676767351744,0.9645735621452332,-0.1374993324279785,0.0843685865402221,0.3903139073163271,-0.0944575683295726,-0.2505636374510824,0.0340284220874309,0.0268430672585964,-0.0555351918436819,-0.1203760057687759,0.0384890585359651,0.0290797744989511
152,0.002117,-0.172271,0.502635,-0.041803,-0.068588,-0.693625,0.715844,0.1597758436754345,0.3074254884883761,-0.3086082685321569,4.816123394148051,1.6680901563480497,8.378115326485037,-0.2059714943170547,-0.1502578258514404,0.1377968341112136,0.3258741424902949,-0.2100758094309523,-0.1694200605226022,-0.906074542547468,0.489419549703598,-0.0301305819302797,0.0620497018098831,0.2191127065241336,0.5759732570499181,-0.6917371597152203,0.0392636209726333,0.0064279846847057,0.0362591120933881,-0.1090613305568695,0.0740079467213014,0.0942942492603324
153,0.003736,-0.175298,0.504989,-0.037687,-0.064541,-0.699202,0.711007,0.3595990355789661,0.2701654328912496,0.0487479565560817,4.847041387242078,1.5681323831669984,8.379590659734607,-0.2345227897167205,0.029368357732892,0.1303213983774185,0.3271742366281853,-0.2131643383271118,-0.1652899167572028,-0.905647395448248,0.655491054058075,-0.0512553602457046,0.0195402577519416,0.0860492209464311,-0.2688876680403947,-0.0809304896932095,0.0523573458194732,0.0245912112295627,0.0120957203841942,-0.0698733329772949,0.0381704986726632,0.0325030474954983
154,0.004927,-0.179501,0.505458,-0.032804,-0.062285,-0.705929,0.704775,0.3702028471797704,0.0135419108793139,0.5126876565754414,4.82626221858561,1.3643211445406078,8.427111704844236,-0.1713143438100814,0.0841994285583496,0.138133630156517,0.3305472636139448,-0.2150112346623904,-0.1552644735902035,-0.9057603047773094,0.0839708521962165,-0.0518344938755035,0.073361612856388,-0.1095508003041148,0.3208785520404577,-0.1362835436027497,0.0286075007170438,0.0004152097972109,-0.04122989080986,-0.0873337164521217,-0.0053178579964267,0.0103014893446059
155,0.005162,-0.182107,0.506028,-0.032914,-0.063296,-0.707247,0.703358,0.0902159852370619,-0.1013813762433826,0.3295014189571142,4.841540159477293,1.319431616978347,8.425495501819253,0.0147905107587575,-0.1359716206789016,0.1613289415836334,0.3328431835646371,-0.2162015238847842,-0.1538706504245851,-0.904873637682819,0.2850150167942047,-0.0723307058215141,0.0624397248029708,-0.0887421132922172,-0.2935024693369865,0.1616858054826036,0.0269278995692729,0.0058510545641183,-0.0626520061455201,-0.0919202491641044,-0.0047371377823117,0.0317002751786727
156,0.005233,-0.184987,0.506618,-0.032933,-0.065045,-0.707741,0.7027,0.1070516769647598,-0.053079848280549,0.1477630420595407,4.918976158118248,1.310783907881379,8.38187964745462,0.0791267678141594,-0.2272418439388275,0.1425679177045822,0.3350329797079832,-0.2200213384009893,-0.1556717341230698,-0.902834320337044,0.2622396647930145,-0.1115923672914505,0.086479477584362,-0.1997045339599251,0.1021142205625772,-0.2179447952559217,0.032254371792078,0.0108935199677944,-0.0280153578545432,-0.0812408849596977,0.0121157117178081,0.0187713199823745
157,0.003982,-0.193977,0.508249,-0.031999,-0.061742,-0.707857,0.702924,-0.1929980220586061,-0.1111944758579134,-0.3421475500404835,5.013423205053806,1.318171387784183,8.32456552260518,0.1462182253599167,-0.392108678817749,0.1234712898731231,0.3371239573357015,-0.2244676767097438,-0.1586805859431187,-0.9004344703885196,0.4171064794063568,-0.2656291723251343,0.1015467792749404,-0.4092842729851603,-0.49016076746881,0.3433283207902685,0.0164062734693288,0.0258132722228765,-0.05267426772092,-0.0560913123190403,-0.0379793668646016,-0.0345570094667957
158,0.002578,-0.197155,0.510083,-0.016268,-0.051523,-0.705286,0.706861,-0.335766324570775,-0.1849393648959696,-1.0136620790034532,5.214850032761693,1.3257766020908952,8.19866126113236,-0.0316172093152999,-0.6627363562583923,0.1357165724039077,0.3379475368274103,-0.2347832202385697,-0.1638946372014646,-0.8965528551769758,0.73954176902771,-0.2363627403974533,0.0813054889440536,-0.1453232476919889,-0.1627420000046491,0.2988648731529713,-0.0152451824396848,0.0236032716929912,-0.1093282709940802,-0.0471196994185447,0.0212466194881475,0.0185559807482408
159,0.001084,-0.198707,0.510436,-0.009202,-0.049408,-0.701443,0.710951,0.855955735078454,0.3936143371012061,-0.5248989033728838,5.318989621672034,1.219927798109874,8.148036989310384,-0.4441083371639251,0.1823534965515136,0.1537603437900543,0.3378930315564893,-0.2422206918742844,-0.1609188136662392,-0.895132706779596,0.1997871994972229,-0.1761104762554168,0.1566062271595001,-0.1638829867333173,0.374681453898549,-0.9131763364255427,-0.0061015011742711,0.0364660248160362,-0.0868633777403738,-0.0227477736771106,-0.0579472990532871,0.1031985543337184
160,0.000511,-0.199844,0.509647,-0.013141,-0.049142,-0.697015,0.71525,0.8303916702330112,0.4507594620592892,0.0200000009775161,5.158105232232809,0.9884550839673728,8.28174461801052,-0.610092043876648,0.644390881061554,0.205865666270256,0.340786994172763,-0.2374062357442828,-0.1462423290946363,-0.8978395047071236,-0.2167181372642517,-0.0593219175934791,0.1435116678476333,0.208440505862236,0.4627408456236124,-0.5234440283894538,0.0127292806282639,0.0446236357092857,-0.0064374189153983,-0.0474221184849739,0.0027863513452321,-0.0065200534142641
161,0.001138,-0.20091,0.509466,-0.015174,-0.046677,-0.697373,0.715026,-0.1897299601733684,-0.1001180052440613,0.2158200947195291,4.9953416049182415,0.7338334032971412,8.407046821936964,0.0456480607390403,-0.1468052268028259,0.0382092408835887,0.340350253695625,-0.2335503644176745,-0.1296692760802989,-0.9015552496105482,0.2589274942874908,0.002943695988506,0.0748766884207725,0.0948190951183438,0.0703022012382745,0.0088905870752874,0.0219984203577041,0.0258161146193742,-0.1180114441300742,-0.0431648977100849,0.0018724371001531,-0.0796169137434568
162,0.001727,-0.202233,0.509531,-0.014694,-0.045803,-0.698852,0.713648,0.1933382137984037,0.0757171389590948,-0.2322609419107437,5.042182266548275,0.7327749802853911,8.379130641007423,-0.0223099440336227,-0.1371308118104934,0.0481518320739269,0.3409428910847032,-0.2359458127574724,-0.1308159440016911,-0.900541415171577,-0.0086749251931905,-0.0563062578439712,0.1741553992033004,-0.2310495202943682,0.2194125662535428,0.2561702252864837,0.0020543411374092,0.0081490846350789,-0.019887576411874,-0.063453584909439,0.0607263261794112,-0.1372792857749853
163,0.003217,-0.205683,0.507781,-0.011102,-0.045401,-0.705335,0.707331,0.392296605566144,0.0144248311936855,-0.2012280902653932,5.050771231195331,0.6846821266371756,8.378025310114026,-0.1158320158720016,0.0158228203654289,0.1119373515248298,0.3423374276740661,-0.2370789995518056,-0.1289695032244898,-0.8999808818141681,-0.2757758498191833,-0.0608620755374431,0.1405666023492813,-0.073339376977086,0.2808767965197563,0.4679553654015064,-0.017440628260374,0.0125905312597751,-0.1260632057610433,-0.0443968474864959,0.0111380874408641,-0.0536408888299483
164,0.003995,-0.206963,0.506792,-0.01626,-0.044053,-0.70768,0.704971,0.3538672139286994,-0.1893723789073526,-0.1280488722860813,5.049097745025158,0.61883230169788,8.38415402212739,-0.1665428131818771,0.0455017462372779,0.1076310724020004,0.343488802044508,-0.2380428310834436,-0.1259472501231347,-0.8997156678709857,-0.1123456582427024,-0.088816687464714,0.0822505131363868,-0.1452799930721521,-0.4288736473351717,-0.1292284374594688,-0.0244988165795803,0.0158829595893621,-0.1057599018548615,-0.0395734421908855,0.0312942950435332,-0.0510064578062854
165,0.003946,-0.207903,0.506277,-0.017607,-0.045925,-0.706791,0.705711,0.3441992218732834,-0.2193445790512487,0.0802355662316083,5.074178410267829,0.5674015723312273,8.37264303255379,-0.1098392233252525,0.0305736400187015,0.04341496899724,0.3439645297511498,-0.2402499474967477,-0.1240724444227315,-0.8992076392530456,-0.0261191632598638,-0.0854220613837242,0.0774455070495605,-0.0742334032073617,-0.1655745930820703,-0.2037269213438033,-0.0166794471442699,0.0261046774685382,-0.1202771331728901,-0.0311541110277175,0.0028427428662107,-0.0347653823873144
166,0.005656,-0.207309,0.505772,-0.018865,-0.049357,-0.706211,0.706027,0.0227262110710144,-0.0510934602363035,0.0369675023913383,5.1182233036994935,0.5272403884651139,8.348424537098408,-0.0744201391935348,0.0251576602458953,0.0621998161077499,0.3444612110924941,-0.2432511248250347,-0.1231978124023624,-0.8983305194645274,-0.1618860363960266,-0.1458935588598251,0.0617506951093673,-0.2498176413893699,0.0788122554302215,0.0278244109928607,0.0024325158447027,0.002694834023714,-0.0455294009349541,-0.0417779386043548,0.0457503821752965,-0.0339626100704888
167,0.006114,-0.205455,0.504815,-0.019677,-0.049813,-0.707126,0.705056,0.0338444019347429,-0.0557808874001726,-0.0550800821870565,5.136732773858308,0.427480549008958,8.342758181899786,-0.0831440016627311,-0.0159670487046241,0.0598945654928684,0.3463676922494367,-0.2458385787432737,-0.1191683451176644,-0.8974361782198031,0.1130075678229332,-0.3068403601646423,0.1666824370622635,-0.3948810691013932,-0.067763038149476,0.4269067677089944,0.0247985571622848,-0.0020216086413711,-0.1197816047409083,-0.0414190739393234,0.0171003751124488,-0.0432282432865351
168,0.006576,-0.204893,0.504277,-0.019755,-0.051369,-0.707159,0.70491,0.0739846891433,0.0058696957509964,-0.0863058260560035,5.140736164280772,0.3903707886027172,8.342111700689792,-0.1231563240289688,-0.0061575346626341,0.047733187675476,0.3466527117190094,-0.2467110026389843,-0.1174919084689262,-0.8973078313550815,0.8095056414604187,-0.6215526461601257,0.2505464553833008,-0.5263911877572536,-0.2227075161457061,0.3230067962408066,0.0233210735023021,-3.7653138861e-05,-0.0915823782194405,-0.0401901081204414,0.0367395753869786,-0.0626772547512082
169,0.006008,-0.201517,0.502644,-0.021246,-0.054154,-0.706901,0.704916,0.0889788446575403,0.0387005367290228,-0.0274988323003053,5.128585123237968,0.3350942705281078,8.351988367059827,-0.1493174731731414,0.0728451162576675,0.0476256869733333,0.3468644391007588,-0.2470838475754724,-0.1145280253168828,-0.8975065602992051,3.163838148117065,-0.4962524175643921,0.3161393105983734,-0.1760954025745391,-1.4072954861313105,0.3971095588058233,0.0257879141718149,0.0065911235287785,-0.1121973236243706,-0.0324054956436157,0.0340806469595874,-0.0575265072247944
170,0.005738,-0.200029,0.501945,-0.021833,-0.055643,-0.706738,0.704946,0.1455909587174653,0.0950448849645443,-0.0104202717274427,5.111028423759341,0.291169861670956,8.364388414427637,-0.1182592660188674,0.0665264651179313,0.0071782073937356,0.3467242855016111,-0.2470030548861743,-0.1119123043215989,-0.8979127854554441,3.8545215129852295,-0.3437295258045196,0.4843970835208893,-0.1406897426724433,-0.3086719814181328,-0.5814835449039936,0.0343610867857933,0.0011765275849029,-0.078863364562951,-0.0319816544651985,0.039915511142509,-0.0457445597892859
171,0.006021,-0.200028,0.501753,-0.022252,-0.056752,-0.706681,0.704901,-0.0025303952604532,0.010404106043931,0.1826478929579257,5.106968334713578,0.267921873481851,8.36764478587508,-0.0620211437344551,0.0323257930576801,0.0133919175714254,0.3462156242124057,-0.2472903491827296,-0.1105275327834283,-0.8982015101939183,1.9980566501617432,-0.1775452345609665,0.5768792629241943,0.113308399271965,0.7358616211891174,-1.712088580289483,0.0369404256343841,0.0073906742036342,-0.1268984236093238,-0.0047684418968856,-0.0261258154976065,-0.0406077494566794
172,0.006925,-0.197925,0.501725,-0.022715,-0.057717,-0.706871,0.704618,0.0113747959733009,0.0811891771620139,0.1046434467792511,5.104285963761806,0.2566925503938458,8.369633329343795,-0.0558796636760234,0.0256793275475502,0.0249125119298696,0.3462529100443085,-0.2473559080648735,-0.1099204973468526,-0.8982435780790526,0.8040714859962463,0.1808330565690994,0.336692601442337,0.565956597687304,0.1688105062633752,-0.854271435253322,0.0285490322858095,0.0114585645496845,-0.0574693017114186,0.0189282950013875,-0.0011687589391163,-0.0703582468410255
173,0.007077,-0.197822,0.501756,-0.023452,-0.058097,-0.706797,0.704637,0.0210182381093502,-0.0375221040667966,0.1631412284553051,5.104668241077661,0.2383358596439473,8.36994312594533,-0.023249477148056,-0.0194854084402322,0.0321536511182785,0.3464972843380678,-0.2476930765982367,-0.1090862729428501,-0.8981581567960285,-0.271239697933197,0.2404984086751938,0.2954872250556946,0.0866810891091823,0.3940396498411894,-1.0991323310181498,0.0162133127450943,0.0108816362917423,-0.0713351792815141,0.0360693782567977,-0.0241113224535947,-0.0664726238796021
174,0.007092,-0.196898,0.502355,-0.024658,-0.058656,-0.706629,0.704718,-0.0226443780064582,-0.0056180042785592,0.0550689762711524,5.115560221970081,0.2347133400315418,8.363392973649502,0.0124471578747034,-0.0785498172044754,0.0536744818091392,0.3471312298378405,-0.2482603490291908,-0.1093271470889416,-0.8977273489557026,-1.2501806020736694,0.1886158734560012,0.1554947644472122,0.3553299799576401,0.5409381840258837,0.0465247275486588,0.0143153201788663,-0.0059645953588187,-0.0387803376666968,0.0392550453543663,0.0254667488006758,-0.0352277323521906
175,0.007021,-0.196748,0.502847,-0.027632,-0.059054,-0.706249,0.704955,-0.0679594375044107,0.0546274247824214,-0.0122767132490873,5.140524567356706,0.2213044078821316,8.34843798110187,-0.0411385707557201,-0.0547791644930839,0.0562399737536907,0.3478138867575131,-0.2497522177134971,-0.1094163820614871,-0.8970381975322863,-1.923188328742981,-0.0848506093025207,0.0295118000358343,0.1017623383849859,0.4174877454459667,0.7473159121394157,0.0188227742910385,-0.0121928872540593,-0.1159495705636683,0.0485205613076686,-0.0077219423006026,0.0127136159621644
176,0.007033,-0.196016,0.502901,-0.029522,-0.05771,-0.705971,0.705268,-0.0049731122374534,-0.0401166323383338,0.1561947703182697,5.126170463311672,0.1897542908970266,8.358035246008635,-0.0471645072102546,0.1006644889712333,0.0696354135870933,0.3488045826600808,-0.2494735866588713,-0.1078040805014291,-0.896926218227059,-1.430553674697876,-0.287736713886261,-0.0223240330815315,0.1230874504864215,-0.2318652205914259,0.5811227487675845,0.0326156429946422,-0.0114947343245148,-0.0666398702052887,0.0484555959701538,0.0288338186475564,-0.0203489993615658
177,0.007261,-0.195326,0.50337,-0.030088,-0.055599,-0.707083,0.7043,0.0047334582626819,-0.0570399475505575,0.0196206462711095,5.087433613160252,0.1706149070705287,8.38208130750656,-0.0031336643733084,0.1060190349817276,0.0938533991575241,0.3503212700429579,-0.2476122300164657,-0.1064000015040255,-0.8970185077032913,-0.1432559192180633,-0.1747994571924209,0.0990466699004173,-0.1237856618836522,-0.5315823266595602,0.2173592869855463,0.0489014089107513,-0.0056173289194703,-0.0750313212525565,0.0461305901408195,0.015093195441924,0.0101973017427022
178,0.008168,-0.194173,0.504389,-0.027389,-0.058,-0.708689,0.702599,0.1173299098730087,-0.0157096833724528,-0.2051502321451902,5.077338920125365,0.1614567094344645,8.388381284433603,0.0439112298190593,-0.0655038058757782,0.0597606934607028,0.3520039563318553,-0.2470563184970981,-0.1061825869274441,-0.8965387402705528,-0.8677867650985718,-0.2024915814399719,0.2497194111347198,-0.6210945475414394,0.3340829015284776,-0.1052046608585864,0.0404725112020969,-0.0014112265780568,-0.0563704096919624,0.0633511245250701,0.001225150460095,0.0421129161555087
179,0.008331,-0.194612,0.503684,-0.030574,-0.060851,-0.708633,0.702283,0.0972609353125095,-0.0705665695291943,-0.2331213581323623,5.120452670186758,0.1588528836116194,8.36218359785974,-0.0271392073482275,-0.130617618560791,0.0081948768347501,0.3521309429281392,-0.2493652136305613,-0.1070713211305099,-0.8957436050507797,-0.5715023279190063,-0.1291025429964065,0.1156436949968338,-0.1629702558025717,-0.3162468005865812,0.3043810062259435,0.0166289862245321,0.0052891736850142,-0.0149566445069562,0.0642212107777595,0.0382979221613262,0.0311337364702485
180,0.007922,-0.195142,0.503211,-0.033333,-0.06285,-0.707383,0.703242,0.0561766452521085,-0.1229327622482087,0.0377367331981658,5.129514513042569,0.1328088258300442,8.357082475328445,-0.0744103640317916,0.0800984501838684,0.0422685779631137,0.3524225315440036,-0.2503115184195671,-0.1060731667515517,-0.8954836332513,-0.366951584815979,-0.0741771310567855,0.1068486645817756,-0.0604290419995784,0.1607008495658636,0.4736592030663043,-0.0066351378336548,0.0268504284322261,-0.0642663414404029,0.0542134679853916,0.0017421595007006,0.0641963540772674
181,0.006633,-0.194465,0.504376,-0.03581,-0.063545,-0.704848,0.705599,0.0218693019807338,0.0428416596883209,0.2246083813309669,5.071196179586648,0.0548715859689516,8.393470132005215,-0.0418849065899848,0.0970763713121414,0.0453900694847106,0.3537339844304975,-0.2485914244397055,-0.1012641483323126,-0.8960022767300985,-0.1711101830005645,0.1352407485246658,0.0581102222204208,0.5036699451223016,0.3107558019548654,-0.9344541022539138,-0.0004025748930871,0.0353985801339149,-0.0774808789622969,0.0013468130491673,-0.0156914102135342,0.0557265222978545
182,0.006293,-0.19431,0.504399,-0.03676,-0.064058,-0.705099,0.705252,0.194158298009634,0.1310936376763042,0.1390636027753353,5.0489937001287934,0.0474240281756734,8.406889585548639,0.0319602154195308,-0.0065771313384175,0.0012058250140398,0.3544207482001993,-0.2474894916456402,-0.1005826218878975,-0.8961126841163077,-0.097144603729248,0.1093398034572601,0.0067634778097271,-0.1107487779170274,-0.5196504813253879,-0.0441880647620186,0.0181201994419097,0.0243113711476326,-0.0162593337365135,-0.0019422230543568,0.0272799379857722,0.0558446459519211
183,0.006531,-0.194221,0.504487,-0.036956,-0.06485,-0.706374,0.703892,0.2199918274462222,0.1138180658271536,-0.0958534066021442,5.054135154670477,0.0581155591591261,8.403733167344331,0.0034451759420335,-0.0180402603000402,-0.0136437388136982,0.3544005515285815,-0.2475546431353462,-0.1012203563331117,-0.8960309401682617,0.7080826163291931,-0.1320447921752929,0.1686809360980987,-0.0723880676016211,-0.8664122471630573,0.373942545164749,0.0208682194352149,-0.0006273058243095,-0.0134981311030918,0.0198929086327552,0.0405672621826641,0.0025302457050478
184,0.007635,-0.192275,0.505049,-0.036106,-0.06727,-0.708248,0.701823,0.1632575483113527,0.0641778411730425,-0.0659153644561767,5.049667653867602,0.058375452204328,8.406416122817992,-0.0392579659819603,0.0326489806175231,-0.0288718417286872,0.3539218777042301,-0.2473684772587903,-0.1009994289667744,-0.8962965104763252,1.0987313985824585,0.1983047723770141,0.2584688663482666,0.4958563487619161,0.2140408100873231,0.1535972281057387,0.0189229436218738,0.0098481616005301,-0.093224765998451,0.0130593320354819,0.002715320519192,-0.0333960736453533
185,0.007525,-0.19151,0.504788,-0.037287,-0.068012,-0.707686,0.702257,-0.1067313589692115,-0.0435023338204482,0.0786129334658384,5.04267677206695,0.0560718742699595,8.410627018511295,-0.0308580808341503,0.0451420880854129,-0.0149259902536869,0.3531550826962363,-0.2471313124241028,-0.10051598779398,-0.896718531927762,0.7542279958724976,0.3356557190418243,0.2414105385541916,-0.0954728828519582,-0.0404839860796928,-1.3688586418397723,-0.0094426525756716,0.0255376920104026,-0.0534533851675223,0.0312294159084558,0.0057638362109923,-0.0150940699414699
186,0.007227,-0.191058,0.504494,-0.038377,-0.068297,-0.707485,0.702373,-0.1697837352097034,-0.0699822120362892,0.0633306086599826,5.046173966532946,0.0526242500001564,8.408551965802907,-0.0152949914336204,-0.0076522044837474,0.0133100133389234,0.3529884115846089,-0.247400799894677,-0.1003793695909216,-0.8967251517838827,0.5125972628593445,0.4568283557891845,0.1775898188352584,0.6142421974286437,0.2985959930837154,0.2315747132122516,-0.0259720999747514,0.0510895289480686,-0.0461807455497328,0.0259801000356674,0.0402413866625865,-0.0216071576129412
187,0.006035,-0.189962,0.503876,-0.038074,-0.070468,-0.70496,0.70471,0.0376373644769191,-0.1002470841169822,-0.0387479560673236,5.058121593958139,0.0484725417147623,8.401395079785585,0.0209168810397386,-0.1198865175247192,0.0177423171699047,0.3532885303322421,-0.2480767569813545,-0.1005284840941846,-0.8964034976576911,-1.7290476560592651,0.0971917957067489,-0.090243823826313,-0.8973565437421203,0.5363771597206592,-0.2533364631652832,-0.03064582683146,0.0321366973221302,-0.0433116974860196,0.0043974900618195,0.0274073614744353,0.0544753349266713
188,0.005508,-0.190276,0.502122,-0.044787,-0.071997,-0.705147,0.703973,0.0162450323581695,-0.0282711455467855,-0.072595280611515,5.095375512075424,0.0525123505908995,8.378829027712344,-0.0214618798345327,-0.059933066368103,0.0140636842697858,0.3531407174749073,-0.2499793280680444,-0.101533000846844,-0.8958197175875298,0.1894647777080536,-0.2123922705650329,-0.0228540692478418,-0.055916533011198,-2.4886387702196835,1.7217735234797,-0.0467115454375743,0.0770361721515655,-0.0070887635301769,0.0119280936196446,-0.0027226401717227,0.0058353990432835
189,0.005675,-0.189114,0.503017,-0.038822,-0.070992,-0.705155,0.704421,0.5440747284859418,0.0155038586020469,0.0859872616261243,5.056711142638325,0.0219056428025942,8.40235544925034,-0.062887392938137,0.1618994623422622,-0.0060210512019693,0.3537797220343587,-0.2484628715777859,-0.0993241737275336,-0.8962370316509569,-0.7953149080276489,-0.1721418797969818,-0.1435762792825698,-0.2119137349307537,1.6354764652520415,-0.3894154971718788,-0.0476447194814682,0.0376852415502071,0.0190567105117253,-0.0218921657651662,0.0901453311536461,0.033775136090815
190,0.005835,-0.186869,0.502124,-0.036771,-0.070778,-0.706764,0.702939,0.0489683213084936,-0.0382670475324499,0.0874818840980529,5.039757669749855,0.0228545136258006,8.412532559871673,-0.008772830478847,0.0017589007038623,-0.0712661743164062,0.3525978512332646,-0.2476819915858057,-0.0986601764886026,-0.8969920500064058,-0.3011366128921509,0.0726237073540687,-0.0263749677687883,0.3107324210792779,-0.392719799414277,-0.8055617648810148,-0.0255964696407318,0.0409074686467647,-0.0592874342164024,-0.0036910362541675,-0.0033135352908022,0.0993198954026214
191,0.005932,-0.186751,0.50106,-0.036336,-0.074544,-0.706445,0.702893,-0.0565542463928461,-0.079987135295337,0.000441898548603,5.05893934008181,0.0370411681324592,8.400960780021547,0.0315869152545928,-0.0765262395143508,-0.0758862197399139,0.3514278762552813,-0.2485482244706636,-0.0994684380282377,-0.8971222470720419,0.8651987314224243,0.0712871700525283,0.0220216605812311,-0.1309229664176702,-0.1526373700976371,-0.0868973622083663,-0.0213839244097471,0.0452404767274856,0.0104813839476672,0.056458443403244,0.0446497913890983,0.064999126394093
192,0.006945,-0.186757,0.500188,-0.035744,-0.075567,-0.707636,0.701615,-0.2090343801021575,-0.1014301472885534,-0.1176163255989551,5.089913739538193,0.0595316867344779,8.38210118125081,0.0127902161329984,-0.0553993321955204,-0.0362960398197174,0.3502474650667138,-0.2498822158077714,-0.1009487673853667,-0.8970479420202196,0.8555365204811096,0.1326727718114853,0.1768015772104263,-0.2823755106449127,-0.5255734416335821,-0.2744132995940744,-0.018155014142394,0.0416164062917232,-0.0755268405513837,0.115854762494564,0.0008355649081524,0.0186601694917888
193,0.007408,-0.185571,0.49987,-0.031587,-0.073415,-0.707753,0.701925,-0.0007680617630481,-0.0082919361955486,-0.0961743091195821,5.085603475123643,0.0545299192246981,8.384750818976759,-0.0560975112020969,0.0509198978543281,-0.0062561305239796,0.3497483269464416,-0.2498065567446167,-0.1004657106718677,-0.897317868824089,0.1215382069349289,0.3083392977714538,0.3015739917755127,-0.0234974877044558,0.4340262077927589,-0.5983130991518497,-0.038512222468853,0.0342696495354175,-0.0501966620936291,0.1187610179185867,0.0333087926541222,-0.0768713322292082
194,0.007501,-0.185258,0.498639,-0.030864,-0.074171,-0.707148,0.702487,0.1246095454871654,-0.0040558763782377,0.0153536364763975,5.066618204146623,0.0256037598183029,8.396374621275067,-0.0804941207170486,0.0184843651950359,-0.0309081263840198,0.3494111850714344,-0.2493958640465885,-0.0985176679486747,-0.8977794005419304,-0.7519664168357849,0.3069027960300445,0.0412718504667282,0.28372341812253,0.4423012841850519,-0.4430173234999179,-0.0565640330314636,0.0327931940555572,-0.0585881131408968,0.0870262458920478,0.0195681717317784,-0.0463250265583628
195,0.007321,-0.18562,0.497132,-0.0322,-0.076796,-0.705028,0.704273,0.054616556328535,-0.1047252798438072,-0.0471586415380239,5.115362653571367,0.0400818030535476,8.366710135373472,-0.0051058907993137,-0.0109158176928758,-0.0357496961951255,0.3470945441347244,-0.2519535695725791,-0.0996789461136924,-0.8978356617818882,-0.0367526337504386,-0.2064879834651947,-0.3357087969779968,0.1222059914767742,-0.402949517005682,1.7707726783178743,-0.0568640306591987,0.0338988713920116,0.0180656696307822,0.0352166444063186,0.0616300655195256,0.0507008670224109
196,0.009144,-0.18533,0.494416,-0.030799,-0.076833,-0.708896,0.700439,-0.0952770680189132,0.1649405329622328,-0.1624193439215421,5.099906725764274,0.0315336407743394,8.376177051898837,-0.0855583846569061,0.0416962094604969,-0.0518134087324142,0.3464411013651923,-0.2513696569497867,-0.0987275460003158,-0.8983566652455215,0.9529661536216736,-0.1833797842264175,0.1083461567759513,0.1321662444770336,1.0395452928006648,-1.837306613063812,-0.0350424386560916,0.0094555560499429,-0.0487580760912969,0.0015827709576115,0.0587089767413213,0.0310295522932778
197,0.009309,-0.184763,0.493866,-0.027011,-0.07743,-0.708467,0.700963,-0.0285714299678802,-0.0521239449283573,0.1278390289276838,5.064624984502792,-0.0062347285294614,8.397613807681202,-0.0839881896972656,0.1263640075922012,0.0095368260517716,0.3460967299508818,-0.2502572641596424,-0.095979964177028,-0.8990974193062686,-0.1383370459079742,-0.1627605259418487,-0.0185135826468467,0.1593599563509225,1.2028683075636624,0.5446329468905925,-0.0185717158019542,0.0099141029641032,-0.0157357619535585,-0.019708015024662,0.0820411269493866,0.0505966759955743
198,0.009051,-0.184927,0.493191,-0.028613,-0.076374,-0.707832,0.701657,-0.1732131251364946,-0.0934502270510885,0.1144990703612565,5.068308056929707,-0.0065076945437234,8.395391455456615,0.0231307353824377,-0.0981109142303466,-0.0204503033310174,0.3455793669936257,-0.2505126154969941,-0.095904119328614,-0.8992334385271453,0.6649228930473328,0.1445775777101516,0.0572639368474483,0.3822483820214867,-0.952358007735014,-0.2212896121717989,-0.0179335884749889,-0.0012354275677353,0.0177540224238124,-0.0040457556024193,0.0791273492613807,0.0584860410059103
199,0.008491,-0.186786,0.490816,-0.031268,-0.081345,-0.705922,0.702908,0.195431971207261,0.0656799162990646,-0.1153676698893308,5.113111659774184,0.0044999979937347,8.368180792447925,-0.0291912090033292,-0.0061014648526906,-0.0153154134750366,0.3452858038428184,-0.252709837560262,-0.0973614967350608,-0.8985744712214379,-0.1631920635700225,0.3481515347957611,0.0042291469871997,0.1680159948848187,0.485375286757946,0.6221387958973645,-0.0327427573502063,0.0146702015772461,0.0048791845930158,-0.0413186885416507,0.0847000530934892,0.0454459330357378
200,0.009059,-0.187056,0.490054,-0.031772,-0.081622,-0.70689,0.70188,0.2034989578068256,-0.0464349395065102,-0.1122650276988744,5.0968146049678325,-0.0191062795662728,8.378096621784568,-0.0799842402338981,0.0281121842563152,-0.0213030893355608,0.3448215558644615,-0.2523432427664013,-0.0957018760779699,-0.8990340000143773,-0.9748641848564148,-0.4033686518669128,0.0907670333981514,-1.5751844936355948,-0.4864578212976455,0.292410582447052,-0.0049883429892361,-0.0150863155722618,-0.0276955855649779,-0.0468267053365707,0.0582528259050799,0.1507054247875232
201,0.009182,-0.187283,0.489231,-0.031911,-0.079913,-0.706432,0.702531,0.1785796206057071,-0.0604864712752401,0.0690197602123022,5.0988393887937065,-0.0318398822954739,8.376825871196388,-0.0414235964417457,0.0250207278877496,-0.0355203710496425,0.3439880031757774,-0.2527804204915633,-0.0948831406984648,-0.8993172995419217,0.0768359825015068,-0.2956331372261047,0.0673451349139213,-0.0183051797583699,-1.2762322344601154,-0.3478330483309924,-0.0074478052556514,0.0074353669770061,-0.1154540512648411,-0.0333730913698673,0.0065356899456353,0.0042507527796551
202,0.010418,-0.186551,0.488333,-0.027905,-0.078669,-0.707817,0.701447,-0.2075748289436101,0.0743991425625514,0.0888987651586532,5.090399477228522,-0.0369896662740851,8.38193576155603,-0.0511210113763809,0.0636059045791626,-0.0089039234444499,0.343249841022642,-0.2525074329635284,-0.0942347813627876,-0.8997440949809783,0.0107315294444561,-0.0812076702713966,0.131764143705368,0.1553916372418403,1.5586615211188792,-0.5993255641300231,-0.0256210099905729,0.0097900368273258,-0.017981515603332,-0.0497105419635772,0.0598805869371164,-0.041056164511037
203,0.010653,-0.186565,0.487816,-0.027037,-0.078781,-0.707852,0.701433,-0.2406207739770412,0.0322102796605788,0.0122223527133464,5.091572612661123,-0.0585464065907523,8.381100479775666,-0.0431877262890338,-0.0224641412496566,-0.0080364057794213,0.3429485963285917,-0.2530084602843067,-0.0931102177013935,-0.8998352954520636,-0.0075747733935713,-0.1041948422789573,-0.0469847023487091,-0.3317059432640671,0.6664210052162408,0.1310537531904876,-0.0244833119213581,-0.0106448708102107,-0.0923097517790738,-0.0277699716389179,-0.0266456815031124,0.0797527785501908
204,0.010748,-0.186785,0.486774,-0.027884,-0.08012,-0.707635,0.701467,-0.2844230908244848,-0.0090347447863314,0.0211076699584722,5.105896321567893,-0.0609956172406207,8.372364800134301,0.0103361159563064,-0.0772131457924842,0.0250971484929323,0.3429959867890511,-0.2538107985369519,-0.0933181443762296,-0.8995696921059118,0.8155614137649536,0.2671826779842376,0.1705672591924667,0.2404422025397419,-0.998140100222826,0.1268154580336064,-0.0159230977296829,0.0151961725205183,-0.043467522801971,0.0121971741318702,0.0361560010620742,0.058367921918421
205,0.010254,-0.187762,0.48408,-0.032361,-0.083022,-0.706015,0.702569,-0.1123445226758718,0.0555281501815421,-0.0768359869211912,5.119667657288908,-0.065553810267942,8.36391612074077,-0.018623448908329,-0.0461609214544296,0.0563569143414497,0.3436302912321916,-0.254563238925905,-0.0935762945671773,-0.8990880228158761,-0.865760087966919,0.3017027974128723,0.153714582324028,0.1064062186680734,0.5717167686492204,-1.7249110908530652,-0.0152271315455436,0.0018032508669421,-0.0644221667563542,0.0160305555909872,0.0104907990883395,0.0680889456355944
206,0.010822,-0.187669,0.483806,-0.032039,-0.081502,-0.707677,0.701088,0.1656388904899358,-0.0326060009798966,0.0557452680975198,5.102502587476373,-0.0974288940242491,8.374089139708875,-0.0876953452825546,0.1166431382298469,0.0749648064374923,0.3444777898879082,-0.2541688454478594,-0.0918612149082502,-0.8990522402923605,0.466294527053833,0.205571636557579,0.3173534274101257,0.14913520719558,-1.2096107675611971,0.6655097355902194,-0.0172099061310291,0.0124169280752539,-0.0297574659812496,0.002720778575167,0.0678472047350136,0.0583748859487473
207,0.01057,-0.187515,0.4835,-0.029026,-0.083012,-0.705422,0.703311,0.4338350691348314,0.0193927192667499,-0.082778236451745,5.080759542223811,-0.1260842028832994,8.386917057099938,-0.0255491062998771,-0.0459867008030414,-0.0191494021564722,0.3451682924838106,-0.2534901584182968,-0.0901608853011102,-0.8991511064557565,0.2733381390571594,-0.1473578661680221,-0.5171166062355042,-0.1329819447740912,-0.1689478689074516,1.2240047652252015,-0.014139262959361,0.0039622317999601,-0.0411737904081819,-0.023394901305437,0.0756892463051713,0.0167312883550184
208,0.011765,-0.188142,0.482347,-0.028619,-0.08513,-0.706835,0.701654,0.1583610084414482,-0.1333362655039411,-0.0623725772827863,5.087933379375935,-0.1289783625553827,8.382522621533274,-0.0561738312244415,0.0457061938941478,0.0170266740024089,0.3447688856681408,-0.2539661409556155,-0.0900638176536041,-0.8991797038060929,2.2505908012390137,-0.0414738357067108,-0.2519170045852661,-0.4265560180425644,-1.834301001507044,1.0003957701951265,-0.0291855037212371,0.0281857680529356,-0.083686446471,-0.0216127503663301,0.0362225680588395,-0.0847606972395442
209,0.011655,-0.187745,0.481498,-0.027054,-0.086201,-0.706077,0.702349,0.1949479870826005,0.0224927859076298,-0.1474298645824193,5.06556197309196,-0.1637505559926852,8.3954545838207,-0.0971163883805275,0.1202363073825836,0.0015868754126131,0.3448113446881432,-0.2534370380814817,-0.0878670009044618,-0.8995300923366977,2.8422884941101074,-0.1207561939954757,-0.2689233124256134,-0.5142039063572883,0.0905997238576412,-0.7763485298782586,-0.0556058250367641,0.0333998315036296,-0.0711232535638846,0.0033909094054251,0.0481471456852974,-0.063935410719295
210,0.011201,-0.187423,0.480796,-0.025503,-0.086229,-0.704662,0.703822,-0.0752519326001405,0.0798281910071149,-0.4408206902384757,5.049355519178509,-0.2017829294028691,8.404384324729442,-0.1370567381381988,0.0044653411023318,-0.0031679803505539,0.3444033092159814,-0.2533413643516752,-0.0855208196148692,-0.8999392015496476,2.781853437423706,-0.0259724259376525,-0.3573166131973266,0.3236906868517398,-1.6255997988820077,0.0616854718014597,-0.0424908734858036,0.0256908852607011,0.0230925533155095,0.0626428201794624,0.073947087946115,-0.0474650680055376
211,0.010733,-0.187011,0.478909,-0.024834,-0.084153,-0.703451,0.705307,0.2068032600492239,-0.0530218710156157,0.174926358795166,5.413285861960053,-0.2697465316257439,8.172757004547119,-0.2125323563814163,-0.2377813160419464,-0.1700021475553512,0.3322778229375894,-0.2753375701213262,-0.0865712795735906,-0.8979343210991392,5.16641902923584,0.6560407280921936,-0.7521294355392456,0.24718787740767,-0.7800789485782385,-1.9892858115136625,-0.0722496807575225,-0.051324363797903,-0.0587240099136717,0.2567305862903595,0.0051859735325997,-0.1789368182792328
212,0.012332,-0.187078,0.475868,-0.028232,-0.085515,-0.704799,0.703668,0.1326537357330322,-0.0235066025926731,0.1046563062608242,5.445237582015991,-0.3052471215359866,8.150251742750406,-0.1910667717456817,-0.0424929782748222,-0.1344512403011322,0.3284292926637724,-0.2781073571369327,-0.0843155670316459,-0.8987110325691131,4.707701683044434,1.0944944620132446,-0.3482265770435333,-0.1925204676747322,0.3577601297140121,-3.2809552690804,-0.0726644620299339,-0.0694988891482353,-0.0813927095106337,0.2669477164745331,0.0757558133019367,-0.1263973239530809
213,0.014972,-0.185125,0.473759,-0.023328,-0.081599,-0.708002,0.701092,-0.3715092536032199,0.0638941790931858,-1.4707394920378922,6.382002883821725,0.0734729265291476,7.445469734957814,0.4769503176212311,-2.448198080062866,-0.7768121957778931,0.3039986391035211,-0.3269189609162654,-0.1162355024898368,-0.8872417961087451,-1.1272132396697998,0.0887148976325988,0.0691484287381172,0.296090147742629,1.0876482294514775,0.4885188454806804,-0.0252634231001138,-0.0757548883557319,-0.0611934961665887,0.2812655866146087,-0.0024677954776852,0.0030967809885391
214,0.014945,-0.184207,0.474457,-0.019607,-0.076531,-0.70725,0.702536,-0.4392471573114395,-0.1214475743249058,-0.8098784590363503,7.161866143822669,0.4068065577600151,6.686745709097385,0.102804034948349,-2.877556085586548,-0.8976011276245117,0.2830207070832837,-0.3717752966688359,-0.1444090189126511,-0.8722548645139607,-1.5469284057617188,-0.521003007888794,0.2857346534729004,-0.3293608414426446,0.4837278118118643,2.1636106972843407,-0.0388312935829162,-0.0772823020815849,0.0940681123542599,0.3201877176761627,0.0981829729277174,0.1600822062108665
215,0.014426,-0.183845,0.472823,-0.019846,-0.07722,-0.705635,0.704076,-0.3428670964866876,-0.6054718118000775,0.2274795528531074,7.756512537160515,0.6346511445332318,5.96691927690804,-0.0221706982702016,-1.809002041816712,-0.6244323253631592,0.2622078898607651,-0.411166477472867,-0.1634439500393885,-0.8575985772832224,-0.9667479395866394,-0.6603091359138489,0.3831004202365875,0.1489832315042615,0.3985401761308312,1.0680571015357971,-0.0136041017249226,-0.1161520183086395,0.0029812522920023,0.2673771977424621,0.1491801788484677,0.0889420928437262
