time_imu,phone_acc_x,phone_acc_y,phone_acc_z,phone_gravity_x,phone_gravity_y,phone_gravity_z,phone_gyro_x,phone_gyro_y,phone_gyro_z,phone_ori_w,phone_ori_x,phone_ori_y,phone_ori_z,watch_gyro_x,watch_gyro_y,watch_gyro_z,watch_acc_x,watch_acc_y,watch_acc_z,headphone_gyro_x,headphone_gyro_y,headphone_gyro_z,headphone_acc_x,headphone_acc_y,headphone_acc_z,frame_imu
1734085048722187300,0.6494004584409296,16.34199986349344,-5.370409427785873,0.2807470509265549,9.55158919726014,-2.2042462206639346,-1.178243637084961,-0.5299740433692932,0.1783694624900818,0.2901254798669864,0.3441685857238452,-0.702803860118288,-0.5508555965521492,0.4715760350227356,0.9242225289344788,-0.3456301391124725,-1.0183336734771729,0.8091449737548828,-0.7583709955215454,0.3016397953033447,0.0554854199290275,0.2895715596288442,-0.3546975255012512,-0.1170945576140191,-0.4617493503682315,0
1734085048762187300,2.2548997185803947,12.28654958344698,-6.430743826115131,0.2319277096346952,9.703892805358766,-1.396799518819153,-2.940947294235229,-0.3122135698795318,-0.336203932762146,0.2984705095521727,0.3283233418468053,-0.6807501306393043,-0.5828364652432491,2.2103159427642822,1.7263211011886597,-1.3738374710083008,-1.3278474807739258,1.07635498046875,-0.4603001475334167,0.281599223613739,0.0841421633958816,0.511358453798294,-0.5266451239585876,-0.0493042798311682,-0.28819004214257,1
1734085048802187500,1.363764971962571,0.9527630814045668,-4.342547558516264,0.0290618963489658,9.805730547067522,-0.1310183530835434,-3.2988951206207275,-0.7346968650817871,-0.5702136158943176,0.306517874085941,0.3087412430689751,-0.6413726855041467,-0.6319545964592133,2.6980459690093994,1.3304086923599243,-1.6691867113113403,-0.4538328647613525,0.6860730648040771,0.0217249989509582,0.1732019484043121,-0.0219140797853469,0.7283440851658582,-0.4225195050239563,0.1542598202003166,0.4851894087970256,2
1734085048842187500,0.1349789820765145,-8.534593589919805,-2.83445477963984,-0.1634102911876514,9.741570501846075,1.116016611127928,-2.946154356002808,-0.1737300604581833,-0.4163376986980438,0.3121013888995148,0.288494267142386,-0.5998916951293449,-0.6778597002567786,2.1604909896850586,0.6843529939651489,-1.7616914510726929,0.4325499534606933,0.2177852988243103,0.6060224771499634,0.1197362691164016,-0.1382298469543457,0.0998825159877538,0.0157785415649414,0.041188453687774,0.8791846349745989,3
1734085048882187300,0.3234878577560186,-13.742019610160588,-1.5312493441887198,-0.2833848520842381,9.58553530600369,2.051240163384378,-1.9577149152755733,0.1113515496253967,-0.2066144794225692,0.3214864795565157,0.2767988146659327,-0.5646222390069203,-0.7079763790274463,1.7036153078079224,0.0270532444119453,-1.3745311498641968,1.124565362930298,-0.2254328429698944,0.8427543640136719,0.0917766094207763,-0.1344939023256302,-0.7140607082694769,0.2583937048912048,-0.2044516006228514,0.2777547189764678,4
1734085048922187300,0.7674510107386857,-15.572698914039131,-0.7026128470599651,-0.3441262662349268,9.432469481360911,2.6609201674640177,-1.1711394786834717,-0.0611794143915176,-0.0840703099966049,0.3293200719945439,0.2691919994238546,-0.5402466967599788,-0.7260974963304355,0.9226044416427612,-0.0045558148995041,-0.6140406727790833,1.1666991710662842,-0.6396015286445618,0.8036062121391296,0.0775494575500488,0.0178229212760925,-1.1694348245173691,0.2481063604354858,-0.5036285901986062,-0.2010574098736047,5
1734085048962187300,-0.2178908731115982,-14.897636921727656,0.6494745465904473,-0.323946853569895,9.384687739488482,2.827205539163947,0.287065714597702,-0.166586622595787,0.066609539091587,0.3300275274308655,0.2639101170030661,-0.5349804571955359,-0.7315936694110943,-0.4167719483375549,0.3794687986373901,0.2033551037311554,1.1202456951141355,-0.6924827098846436,0.8846186399459839,0.0973883122205734,0.1485776901245117,-0.7472440159469842,0.1671599745750427,-0.3841450094230473,-0.3245630857720971,6
1734085049002187300,0.1055119732420891,-11.795486898702382,0.2589703773990273,-0.2903141033581458,9.477150334608554,2.50393804616034,1.4504351615905762,-0.0574485287070274,0.0208743717521429,0.3250813547163428,0.2672978474253024,-0.5485312609778091,-0.7224868696303133,-1.470614314079285,0.5316013693809509,0.9242141246795654,0.9417755603790284,-0.6281551122665405,0.8854701519012451,0.1059664636850357,0.0601515024900436,-0.2075859348595142,0.044779434800148,-0.0797320188899524,-0.4253890200898051,7
1734085049042187500,-1.9000395480915904,-4.575756594932079,0.9097698889829218,-0.2520486883770674,9.64398340331912,1.7608124253176152,2.27300238609314,0.1264978498220443,0.3684479594230652,0.3165157431883605,0.2791306210202195,-0.5764630484298753,-0.6997101809469047,-2.3439266681671143,-0.2304596751928329,1.4841927289962769,0.6548022627830505,-0.3377501368522644,0.5229339599609375,-0.0378436595201492,-0.0008500702679157,-0.0748018507450819,0.3881544470787048,-0.2720952319100499,0.9706506202727556,8
1734085049082187500,2.432191783593595,5.209155620512366,0.2661923645418137,-0.0929069961530156,9.772859958600998,0.8080559928495437,2.632818937301636,0.115830548107624,0.1986067444086074,0.3103259442596559,0.2915522764048751,-0.6113901224628907,-0.6670061307038899,-1.893033146858216,-0.9249191880226136,1.5456591844558716,-0.0890178680419921,0.2430586218833923,-0.0369760394096374,0.0180434212088584,-0.214702159166336,0.6792448309540748,0.8540338277816772,0.2120870456710457,0.8299908343471586,9
1734085049122187300,-0.4293989863835274,8.932682807412743,-1.3893839818656444,-0.0641058262496022,9.804939104428886,-0.1716347699038684,2.1396634578704834,0.0351011119782924,0.1095925197005271,0.2959311108396948,0.3053773961822361,-0.6445894692716897,-0.6353533940134822,-1.979039192199707,-1.033220887184143,1.052806377410889,-0.7273367643356323,0.5214846730232239,-0.4280571937561035,0.0309403948485851,-0.0472621023654937,-0.0324894801944494,0.7429479956626892,-0.4929293919319286,-0.177594262830168,10
1734085049162187300,1.3199744916833935,8.0363845405519,-3.625429216241837,0.0052160969595162,9.778421099859475,-0.7435404121886938,0.7821593284606934,0.422199934720993,0.1536262780427932,0.2932372276138269,0.3160281434351048,-0.6618430494300036,-0.6132715646193058,-0.1297332346439361,-0.629824697971344,0.3977425694465637,-0.6390364170074463,0.7354447841644287,-0.5076289176940918,0.0245551206171512,-0.0306960437446832,0.3505775247335433,0.4498597681522369,-0.0460667820475529,-0.1912593616977334,11
1734085049202187300,0.2085277640205808,5.320913283210992,-1.6645673890493808,0.0633639949063537,9.766146724697949,-0.8881004934884608,0.1699999123811721,-0.0833416953682899,0.1225722432136535,0.2950109667437108,0.3187400554340792,-0.6660970641699065,-0.6063727195385707,-0.3438263535499573,-0.2844091355800628,0.0801113247871398,-0.4535276889801025,0.2825350761413574,-0.322722852230072,0.0120505020022392,-0.0184240825474262,-0.0692465547055006,0.3249085247516632,-0.3787911542396992,-0.047699324285984,12
1734085049242187300,0.1712300615604966,1.9701123244881629,-0.7185153495907783,0.0924313779979012,9.765366387975217,-0.8941293253239244,-0.1878291666507721,0.1899690479040146,0.0286493580788373,0.2953641143767836,0.3173434533688071,-0.6669940334842445,-0.6059473149555666,0.2121220976114273,0.1472412794828415,-0.0786458998918533,-0.2265390157699585,0.2528843283653259,-0.1283152997493744,0.0044717746786773,0.0364921912550926,-0.1432423497647047,0.1596290022134781,-0.237180643460527,-0.2288695459067821,13
1734085049282187300,0.5466683982409537,0.3805383632332086,0.8357119154077023,0.1009629316356033,9.774469147363304,-0.7873791885890066,-0.2245959043502807,0.3011325001716614,-0.0447101779282093,0.3011817022598866,0.319598811107622,-0.661817019848193,-0.6075726594885276,0.2237212359905243,0.0710302367806434,-0.150590717792511,-0.0112956166267395,0.0083386898040771,-0.0377298593521118,0.0163346920162439,-0.0085710026323795,-0.0168295542478561,0.0191711783409118,-0.1212887487676925,-0.0626505174413323,14
1734085049322187500,0.5681153100911528,-0.5823901383548975,1.2574234890937803,0.050785978889442,9.77492624348104,-0.7865147537793964,0.1934769302606582,0.0860862880945205,-0.2207341194152832,0.3016440579273585,0.3234654994014657,-0.6599023886659232,-0.6073793665607905,-0.1539874523878097,-0.0797829777002334,-0.0704672038555145,0.0596938133239746,-0.1104819774627685,0.0432194471359252,0.0331377126276493,-0.0038850414566695,-0.0917658450275659,0.0077386042103171,-0.1851511810157448,0.0989792835377156,15
1734085049362187300,0.327312421012856,-1.1070873816758393,1.1369464403014629,-0.0311798611838952,9.765868492278456,-0.8928873624388128,0.3504602611064911,0.1245153322815895,-0.1848604828119278,0.2986272663733364,0.3292884363654916,-0.6611306320992831,-0.6043982780692849,-0.2252786755561828,-0.2221629619598388,0.0466886498034,0.0790228843688964,-0.0711413025856018,-0.0064114034175872,0.0503636747598648,-0.0276857446879148,-0.0071568860173225,0.0009685195982456,-0.1145854700030759,0.0333018194906413,16
1734085049402187300,0.2754909387629479,-0.7524211263239383,0.826035886176303,-0.0709362522249575,9.74758581661284,-1.0723385051820429,0.5408234596252441,0.1164260953664779,-0.0688314661383628,0.2956223388321952,0.3347766984213972,-0.6652808519570289,-0.598275282030556,-0.2809683084487915,-0.3142714500427246,0.1498374789953231,0.0808850526809692,-0.0445769429206848,-0.0193144679069519,0.0406794138252735,-0.0599868670105934,-0.0426350266337394,0.0070569668896496,-0.1186861741870176,0.0326980083785951,17
1734085049442187300,-0.0237095230199396,1.1535112791985274,0.0723158791482448,-0.0894164414903614,9.723047587683796,-1.274653733097017,0.4664205014705658,0.1647255420684814,-0.0178591348230838,0.293367731532173,0.340512093999716,-0.6701050438399239,-0.590716658955588,-0.2472039461135864,-0.2712888121604919,0.170898824930191,-0.0076540112495422,0.0220735669136047,-0.0710907578468322,0.0118018556386232,-0.0641840770840644,-0.0041734862923622,0.0277636144310235,-0.0654920975428074,0.0485832675136625,18
1734085049482187300,-0.4793121873266994,5.891296757429838,-1.3240111998535693,-0.0387333156206179,9.708424603569506,-1.3839805153869091,-0.0049757463857531,0.0615990683436393,0.2514939606189728,0.2940881662736582,0.341674914538879,-0.67366284050751,-0.5856184063858462,0.1993802040815353,-0.2222547382116317,-0.0499263033270835,-0.3077118396759033,0.2384913563728332,-0.2922603785991668,0.0269796755164861,-0.1138565242290496,0.1556821446210146,-0.0360840931534767,-0.0164082977701269,-0.0693980920054018,19
1734085049522187300,-0.6567516249213368,12.174375156641004,-2.7506314180493354,0.0981542856893502,9.73810837869346,-1.1532643187001348,-1.3620661497116089,0.0802485719323158,0.3819142878055572,0.3036815847187221,0.3350479975514832,-0.6682386969289696,-0.5907431537686035,1.2129268646240234,0.3917859494686126,-0.6495028138160706,-0.8476966023445129,0.5916577577590942,-0.6824589967727661,0.0232104379683733,-0.0971001088619232,0.2864578115224838,-0.1281532049179077,-0.1376119974612258,-0.0706792178571224,20
1734085049562187500,1.2811691063404085,13.058969541704654,0.6496867280364036,0.1878232863018289,9.79443407702744,-0.4518660350617021,-1.7770065069198608,-0.3023745119571686,0.0302046351134777,0.3169379870505852,0.3195133511865214,-0.6488065771014286,-0.6136054328310331,1.4808379411697388,0.989903688430786,-1.0830793380737305,-1.205338478088379,0.7184191942214966,-0.5843268036842346,0.0096085891127586,-0.1830644607543945,0.8971580985605716,-0.1381897777318954,0.2168866827714256,0.1864540072426199,21
1734085049602187500,1.185923894764483,5.043960382136702,-4.225729105296731,0.1301387024384923,9.802934194347262,0.2365402449314482,-2.087437152862549,-0.4536618292331695,-0.2116960287094116,0.3204741528058961,0.3045170113588055,-0.628656658124847,-0.6398098478916393,1.96707546710968,0.6140741109848022,-1.410297393798828,-0.4974754452705383,0.6395764350891113,-0.1560428142547607,-0.0677981153130531,-0.3060153126716614,0.8312789744615554,-0.0111665874719619,0.3303072189146652,0.5521465373910963,22
1734085049642187300,0.9242509804084896,-5.494442634689808,-4.49891710087955,0.069342708556354,9.737566526901722,1.1599033913884311,-2.4381844997406006,0.3876442909240722,-0.1251803338527679,0.3316374052967187,0.2902341684852999,-0.597181307553418,-0.6701904399056318,2.6708929538726807,0.2474147528409958,-1.549263834953308,0.3532953262329101,0.3926209211349487,0.4877000451087951,-0.1272377371788025,-0.2712472081184387,0.1414203950345516,0.2986688017845154,0.1416039349079132,0.7302863052748143,23
1734085049682187300,0.2781659301258623,-12.39611704262495,-4.632007766725122,-0.0460779107963433,9.585922259494662,2.0684157545909283,-2.301038980484009,0.827716588973999,-0.2158069163560867,0.3505209400869694,0.2856469969733307,-0.5594157151488323,-0.6946904536439912,2.314207077026367,-0.2923162281513214,-1.2239227294921875,1.153672456741333,-0.2233462929725647,0.8818793296813965,-0.1121178269386291,-0.2517000734806061,-0.5369102436840534,0.4550186395645141,0.0903328530823811,0.2533078215926885,24
1734085049722187300,0.3056237910949625,-15.38210269242525,-2.0286481000870467,-0.1690046771286055,9.392558911255,2.814544795033336,-1.4508836269378662,0.3362764120101928,-0.0923641696572303,0.3667499334179406,0.2824847359769933,-0.5260233094177817,-0.7134398011505946,1.3164674043655396,-0.3340185880661011,-0.9436638355255128,1.2422312498092651,-0.5253400802612305,0.8643690943717957,-0.0584257878363132,-0.0613221377134323,-1.2016945876091718,0.3738548159599304,-0.2949695827474817,-0.2990681406401098,25
1734085049762187300,0.2705819960691966,-15.0476895360291,-0.7822589229658246,-0.1879819109296426,9.30923648492396,3.077849109983444,-0.0140188774093985,-0.3290474116802215,-0.1576922684907913,0.3689544813847928,0.277103889392669,-0.5160298534026221,-0.7216641293285677,-0.3211902976036072,0.0622891522943973,-0.3326482772827148,1.177492618560791,-0.6668713092803955,0.9285731315612792,-0.0053242444992065,0.1571740359067917,-1.0818950727522372,0.2030358463525772,-0.3174811281545087,-0.4414327577222138,26
1734085049802187500,0.1677921777999959,-12.649579762518403,0.5272431284114718,-0.2626624733826145,9.363237539702654,2.9036475583314894,0.9778860807418824,-0.1643697470426559,-0.3500347733497619,0.3596746575342297,0.2798429610041795,-0.5231090665360151,-0.7201936844778455,-1.3898252248764038,0.4911188185214996,0.4892293810844421,1.045349359512329,-0.6295077204704285,0.859100878238678,0.0122669246047735,0.1839598715305328,-0.3732645728379488,0.0777387022972107,-0.0203258719310164,-0.3512940024398267,27
1734085049842187500,-0.049422823610343,-5.991644552841782,1.612047951130569,-0.3540002657238393,9.534166353294252,2.26820519035533,2.380254983901977,-0.2552455067634582,-0.1881971657276153,0.3438585423073105,0.2921832220075621,-0.5467930882194851,-0.7052713804022998,-2.53020977973938,-0.1761442422866821,1.2529587745666504,0.8410241603851318,-0.3733884394168854,0.6426070928573608,-0.0720444247126579,0.0904017612338066,-0.0418920993119478,0.32211834192276,0.15268031419022,0.7721004439797252,28
1734085049882187300,-1.0870602004304528,3.868073605000972,0.6296928645387292,-0.313098492623493,9.71692413636744,1.285967154271901,2.554589033126831,-0.2754020094871521,0.1766686737537384,0.3253238953875934,0.3041157860314679,-0.5847627808128444,-0.6780341403226142,-2.7173423767089844,-1.418576717376709,1.7915444374084473,0.2042062282562255,0.11249440908432,-0.0023140907287597,-0.093613401055336,0.1719327121973037,0.2569482239216566,0.6553239226341248,-0.2638166118538007,0.7648679354429244,29
1734085049922187300,-0.0542936993160285,9.45528278619349,-0.0651934799224138,-0.2689236709355376,9.797839501556751,0.3168841851746663,2.293484687805176,0.4350286722183227,0.0105806281790137,0.3127194745717193,0.3198406213627622,-0.6176935973820556,-0.6468099898239317,-1.6950069665908811,-0.8810375928878784,1.113934874534607,-0.980193853378296,0.6323770880699158,-0.2333572804927826,-0.074185162782669,0.1791383177042007,0.4342220226258039,0.4615907073020935,-0.0150273088651709,0.250925639163889,30
1734085049962187300,0.773646796638891,9.27168972133994,-1.874793170893192,-0.3036349736316129,9.7913928096354,-0.4547651175040751,1.7430369853973389,-0.1106103211641311,-0.1472215503454208,0.301846179288366,0.3361960831916066,-0.6404363833047765,-0.6210493260592481,-1.3044594526290894,-0.5629964470863342,0.7406954765319824,-0.8016758561134338,0.574985921382904,-0.4554206728935241,8.04439187049e-05,-0.0059505105018615,0.3894681041419506,0.1442621648311615,0.0402668361976742,0.1161528654502704,31
1734085050002187300,-0.4790813742455094,5.817793714323639,-3.204251968628168,-0.3716085857918486,9.757387079659104,-0.908687281377986,0.4137960374355316,-0.1750372946262359,-0.0516756437718868,0.2889975971599738,0.3423196249727162,-0.6550934517825091,-0.6083998194685779,-0.5432116389274597,-0.1490859985351562,0.1820836216211319,-0.5545172095298767,0.4242479801177978,-0.4400926232337951,0.0250722765922546,-0.0199152026325464,0.0537818590700626,-0.0453309267759323,-0.0398236772737465,0.0086686605534516,32
1734085050042187500,-0.3192302368441596,2.6083371627897023,-0.5826583608370274,-0.3159813545834273,9.762801505923273,-0.8707715383511037,-0.3431878387928009,-0.0269401352852582,0.2590892016887665,0.2904960930110734,0.3389230382258322,-0.6553839839460197,-0.6092741693896093,0.2830740213394165,0.1831196397542953,-0.0457530654966831,-0.3364949822425842,0.2905526161193847,-0.3051258027553558,0.0197777468711137,0.006660308688879,-0.0575631311744451,-0.0761762559413909,-0.0101780970020219,-0.071132076191157,33
1734085050082187500,0.4572157985918224,0.3391384313523769,0.8783727340698242,-0.2338068196458742,9.774418293958902,-0.7592613476075232,-0.1544594168663025,0.0702694281935691,0.1233419179916381,0.2955331873464616,0.3350846048002619,-0.6530159737487637,-0.6115133902383325,0.3029223084449768,0.2629789412021637,-0.0654077902436256,-0.0675337314605712,0.0397274494171142,0.0097984373569488,0.0140794534236192,-0.0089045381173491,0.0069441200494766,-0.1284970939159393,0.1309154406983405,-0.1861970550731755,34
1734085050122187300,0.6675992552153766,-1.0716764610767364,1.0763351736027746,-0.2336502225783653,9.773401810392738,-0.7722711974367499,0.1920042783021927,-0.0207385774701833,-0.1127180084586143,0.2952664229291547,0.3352240555100206,-0.6534521445648336,-0.6110997115935922,-0.1348560899496078,0.0462429150938987,-0.0186283029615879,0.0966489315032959,-0.1316484808921814,0.092373639345169,0.0320460200309753,-0.0331214852631092,-0.1234463469266891,-0.175724372267723,0.1053375847895629,-0.1812992913605645,35
1734085050162187300,0.5576001996871084,-1.435907248109579,0.960333297463134,-0.3041138979886658,9.762041627466678,-0.8834196421958506,0.3473751842975616,0.1289937645196914,-0.2331269383430481,0.2919565853755382,0.3401243445788061,-0.6552536133661663,-0.6080455698346241,-0.228572741150856,-0.1112190335988998,0.1517951041460037,0.146732747554779,-0.1132605671882629,0.0587326884269714,0.0659352540969848,-0.0052096676081418,-0.2454845806211233,-0.1550725698471069,0.0265021311468444,-0.1303966775212436,36
1734085050202187300,0.2167536857752129,-0.4159826015800237,0.6744121501006186,-0.3785118258416652,9.744240013316274,-1.037731740572676,0.4185229837894439,0.1676302105188369,-0.1193902045488357,0.2888305399636805,0.3469864008038156,-0.6576549478493079,-0.6030483213963955,-0.1934155523777008,-0.2587850987911224,0.2193615585565567,0.0861487388610839,-0.0555281639099121,-0.0234907865524292,0.0625655353069305,0.0408359766006469,-0.2323877831608057,-0.1399356424808502,-0.0783433592768386,-0.2735228900929913,37
1734085050242187300,-1.1093486776713282,4.3087160160630935,-0.102841950315237,-0.3368986530689522,9.729386143055558,-1.1814977488853036,0.2612919509410858,-0.0398128405213356,0.2631819248199463,0.2886649660518802,0.3489408468480884,-0.6621781531243597,-0.5970200611105664,0.1299827545881271,-0.2141284793615341,0.2383264005184173,-0.1396480798721313,0.127069890499115,-0.2269875109195709,0.0126523375511169,0.178051620721817,-0.4133049068033695,-0.1383834332227707,-0.550917799313739,-0.3261474323540926,38
1734085050282187300,0.1130579499085433,14.19211900087595,-1.684055494982004,-0.2658380346788093,9.728649060952662,-1.2054471450757234,-0.241785854101181,-0.1873746365308761,0.0241641011089086,0.2889454015601722,0.3452366862713624,-0.665035586407135,-0.5958606099968653,0.4385014474391937,0.4011997282505035,0.0582930408418178,-0.7700390815734863,0.5305808186531067,-0.4840237200260162,-0.0882487967610359,0.1096359491348266,0.6012520752131939,-0.2854938507080078,0.162880933551304,-0.3569203178890049,39
1734085050322187500,0.9475283225562424,15.815460207176208,-4.153950401765107,-0.276254141687788,9.765987150222063,-0.848284762059152,-1.7316964864730835,-0.412985235452652,0.1385485827922821,0.2911356230541211,0.3361903569277812,-0.6559165577562768,-0.6099095728105312,1.530658483505249,1.1182299852371216,-0.8883538842201233,-1.4860762357711792,1.0521531105041504,-0.9278160333633424,-0.0545690096914768,-0.0195314735174179,1.3209066579669713,-0.3574968576431274,0.4949421930590644,0.2576067243630066,40
1734085050362187300,0.6900424846265465,6.145349259909987,-5.553078363531828,-0.1874100293258205,9.80407518107593,0.124076561988471,-3.052609205245972,-0.3384980857372284,0.2669265866279602,0.3052227678169538,0.3134603938578133,-0.6288214668887301,-0.6427793903673509,2.799147844314575,0.5296100378036499,-1.693057417869568,-0.691399097442627,0.9017619490623474,-0.3455350995063782,-0.0602474622428417,-0.0470527186989784,0.6150906309515237,-0.2366046905517578,0.167678543091379,0.6710083330065012,41
1734085050402187300,0.5532729110725224,-6.260580151677131,-4.325848352649808,-0.1344372946815565,9.713616911515594,1.3408774328500033,-2.88338041305542,0.1021060049533844,-0.0032024718821048,0.3237405835683921,0.2903086724835391,-0.5893684377608928,-0.6808507471001655,2.901806831359864,0.3778199553489685,-1.8160635232925413,0.1751615405082702,0.4262142181396484,0.6037354469299316,-0.1113525629043579,-0.031022360548377,0.1256523325383663,0.0857082307338714,0.1376531697218306,0.7667126134615391,42
1734085050442187300,-0.5697062690770254,-15.31164208575487,-4.956539288315176,-0.143915344522288,9.518571893799304,2.3550892546907067,-2.554478406906128,0.4015736579895019,0.1508715450763702,0.34273438362187,0.276635686668476,-0.5508144512389723,-0.7089493565094177,2.30637788772583,-0.333839476108551,-1.214980125427246,1.306194305419922,-0.302385538816452,0.9974132180213928,-0.1142187565565109,-0.0524201691150665,-0.7107996606469154,0.1891007423400879,-0.1388171719999052,-0.0542442889500409,43
1734085050482187300,0.0187379268861375,-17.910936110389233,-1.8069199503675104,-0.1183963426612783,9.28776816495955,3.145427731476724,-1.404389500617981,0.0961571335792541,0.0858225375413894,0.3588843901703052,0.2640161109775953,-0.5195414399610083,-0.729091288369576,0.8971624374389648,-0.0137424962595105,-0.6382688283920288,1.3942015171051023,-0.6197399497032166,1.0600521564483645,-0.0275404080748558,0.0421930775046348,-1.1506558897674084,-0.0667990744113922,-0.1990567193093709,-0.8495203682687134,44
1734085050522187300,-0.2955616668891161,-16.974368376982213,0.2513800684005022,-0.097835721259471,9.213712748667596,3.356831178797781,0.2212821394205093,0.0168036110699176,0.0077173146419227,0.3627508450985883,0.2593650459926092,-0.5114479563532333,-0.7345492960315322,-0.6499112248420715,0.6928579807281494,0.2101908922195434,1.36169171333313,-0.7287304997444153,0.9970837235450744,0.0292443670332431,0.0585499554872512,-0.9373533308267592,-0.320747047662735,-0.1273478844098746,-0.5668127030599862,45
1734085050562187500,0.1326066451882943,-13.012268580806255,2.694289353102445,-0.1601400738779455,9.336569897529484,2.9955305999979376,1.804495334625244,0.2644555270671844,-0.2091094851493835,0.3583327202809065,0.2703880401146908,-0.523603615856007,-0.7241044356475312,-1.5934371948242188,0.8505541682243347,1.2687807083129885,1.0949196815490725,-0.6272152662277222,0.8717256784439087,0.0936702489852905,-0.0122020095586776,-0.3015074966162443,-0.298298180103302,-0.0601708979534683,0.0581725683096796,46
1734085050602187500,0.3725524790458381,-4.399581697380542,0.9574971241891383,-0.2323420443229377,9.59110872222185,2.0315135725207627,3.0384528636932373,-0.0887770801782608,-0.0362145975232124,0.3412691830345074,0.290189363938365,-0.5587591325296875,-0.6979353652783207,-3.0687451362609863,0.03632253408432,1.7886236906051636,0.6397348046302795,-0.3783336877822876,0.4437406659126282,0.0637229457497596,0.0110517870634794,-0.2592173378974199,-0.1643019318580627,-0.0766686583971139,0.6254783155836164,47
1734085050642187300,0.8986084434993564,7.654748445209861,-1.6020225239396095,-0.2104250490092672,9.753641463389991,0.9962896500505506,2.1750640869140625,-0.0243727136403322,-0.0198898259550333,0.3261142587691321,0.3074241752790174,-0.5955617006144392,-0.6666679820840575,-2.577577829360962,-1.441783428192139,1.4948716163635254,-0.2436946034431457,0.3621012568473816,-0.3530471920967102,0.1774994283914566,0.0643848627805709,0.9156576318472625,0.0121108889579772,0.2475888959566131,1.002607747156173,48
1734085050682187300,-0.3120763830341398,10.556180081057548,-0.5093804682562127,-0.2734552864831872,9.799471486672758,0.2567922296423465,1.7329837083816528,0.0268788393586874,-0.2671864628791809,0.3114313259903061,0.3207906740342581,-0.6196778061089347,-0.6450605877864198,-1.4290846586227417,-0.8481276631355286,0.9992896914482116,-0.9925652742385864,0.6482999324798584,-0.353963553905487,0.1566775292158126,0.0622130781412124,-0.0015396306574344,-0.196019098162651,-0.2426448454168625,0.2285108686622232,49
1734085050722187300,0.1321835974706336,8.414016660949587,-1.1896692187726496,-0.3600816314641386,9.792838332268596,-0.3755407376090064,1.506015419960022,0.1717060059309005,-0.1445602923631668,0.2998323404153061,0.3352050589292912,-0.637796846373181,-0.6252625640205828,-1.0068535804748535,-0.2983841300010681,0.3395605385303497,-0.7384235262870789,0.6757184267044067,-0.4056195616722107,0.1461729407310485,0.0777143612504005,0.3126414695709943,-0.2732089757919311,0.0917392675478942,0.1361347097165882,50
1734085050762187300,0.0104549046494066,4.42780533682406,-2.659454186564684,-0.3900854688553139,9.765770292600989,-0.8049554695509373,0.4125437438488006,0.2758636176586151,-0.0180565137416124,0.2941375653297591,0.3455506252748533,-0.6493351010847618,-0.6102800964521513,0.035214964300394,0.0170665495097637,0.0959104597568512,-0.3607959747314453,0.3896597027778625,-0.4368513822555542,0.1049100458621978,-0.0381775647401809,0.1662532229959964,-0.2350206971168518,0.0154983832759084,0.0295132408626377,51
1734085050802187500,-0.1067449856357648,2.49804489646852,-0.6014086540143937,-0.3884057721400633,9.77208838970661,-0.7251284110549837,-0.5919274687767029,0.2511434555053711,-0.0678092464804649,0.2985329188186194,0.3473858705313882,-0.64520873949846,-0.6114791937436899,0.3316719233989715,0.0881165415048599,0.0504704043269157,-0.2441804409027099,0.0481014847755432,-0.214813083410263,0.0718012452125549,0.0546231940388679,-0.0297574248820543,-0.1287535429000854,-0.0870060467472299,-0.0686613021634519,52
1734085050842187500,-0.2499000224431976,0.4517448198348283,1.8517255990386008,-0.432447596831806,9.780625331905483,-0.5681348915744573,-0.0896294340491294,0.494620531797409,-0.1481882929801941,0.3053900151281582,0.3520803320615202,-0.636401019752112,-0.6146302091563952,0.3326333463191986,0.1739109754562378,-0.1982460767030716,-0.0954043269157409,0.0813859105110168,0.0917844474315643,0.0317382849752903,0.0212388522922992,-0.0718757341653108,-0.115587905049324,0.0528198547706473,-0.2442659986115992,53
1734085050882187300,-0.1248101460931822,-0.825211052724719,0.768694288798049,-0.5258137897280976,9.76875018519461,-0.6822029501073062,0.3822988271713257,0.5415567755699158,-0.3663720190525055,0.3056705202382483,0.3623923077348373,-0.6351806710558725,-0.6097398997804413,-0.0975025966763496,0.1330476999282837,-0.2217856794595718,-0.0202242136001586,-0.143236756324768,0.1539034843444824,0.0012561455368995,0.0258473418653011,-0.1705687481075525,-0.1272815465927124,0.0338505348480073,-0.2605962250351906,54
1734085050922187300,-0.1817385960932821,-0.7454694074898958,0.3853881413519382,-0.6439617745183408,9.755299167469143,-0.7680116402961313,-0.0638960748910904,1.5582952499389648,-0.4803577959537506,0.3112806923051717,0.3789426134224309,-0.6289357609946693,-0.6032799292289877,0.3760026395320892,0.1336533576250076,-0.1854298710823059,0.0323451161384582,-0.0264734029769897,0.1170171499252319,-0.0064624082297086,-0.0114999040961265,-0.0578214898496866,-0.1230805218219757,0.0526706875243457,-0.1095040385529398,55
1734085050962187300,-0.2159678326271474,-0.6024550212621689,-0.4376747203629463,-0.7797205635946244,9.748155140933394,-0.7320425012923777,-0.1785175204277038,1.004751443862915,-0.1668641865253448,0.3253080063199307,0.400781498048522,-0.6137572586949229,-0.5973699795925718,0.1970121264457702,0.0236579272896051,-0.1342114210128784,0.0098569393157958,-0.0493435263633728,-0.1250471174716949,-0.0154193211346864,0.0237542688846588,-0.044931613138318,-0.0777076780796051,-0.0056007608828134,0.0125378484033048,56
1734085051002187300,0.4426818079352378,-0.2788017438113689,0.4471721781570464,-0.7400115074101835,9.74756886547804,-0.7795169307813048,0.3197193443775177,0.4336878359317779,0.1671541631221771,0.3336064270531336,0.4086568588222263,-0.6105275391509596,-0.5907303253405238,-0.0690949261188507,0.0341974385082721,-0.0640509128570556,0.0698697566986084,0.1156302690505981,-0.0563623309135437,-0.024050397798419,0.0354143381118774,-0.0205763395607471,-0.0444415919482708,0.0566919880628353,0.0520271243572235,57
1734085051042187500,0.1719947623226791,-0.3063993603110313,-0.34435470469594,-0.6342253203365952,9.739254626119136,-0.956594549326226,0.4775112867355346,0.1418147832155227,0.31511390209198,0.3359095625612939,0.4113473252797677,-0.6160893806599363,-0.5817147532451771,-0.1846462935209274,0.0900648087263107,0.0016996054910123,0.0563899874687194,0.0240718126296997,-0.0064199566841125,-0.0383801199495792,0.0116148702800273,0.0123223059564828,-0.0720222145318985,0.1177544006290845,-0.0567677430130541,58
1734085051082187500,0.2981886178592219,-0.4446586609661578,-1.4422409811757504,-0.4886770317170769,9.729371530008317,-1.1273358044564723,0.3221112787723541,-0.0859014466404914,0.3810719549655914,0.3380363136694511,0.4111916280756747,-0.6232171168533258,-0.5729338734755623,-0.267639696598053,0.0077104386873543,0.1150213703513145,0.0517790913581848,0.0078879594802856,-0.0754936337471008,-0.0734142288565635,0.0441173240542411,-0.1672755517810583,-0.1312101185321808,0.02537061549942,-0.115016664494574,59
1734085051122187300,-0.9424446626164018,-0.922045871579647,0.2257296404458582,-0.3115183107599616,9.735998839193584,-1.1329819205846636,-0.4505370557308197,0.6552882790565491,0.5278261303901672,0.3422105870096223,0.4046027245155962,-0.6277440868740739,-0.5701980542661063,0.0086523285135626,-0.0146719915792346,0.0613699294626712,0.0864412784576416,0.0303541421890258,0.0344231724739074,-0.1087750047445297,0.0849098786711692,-0.1069546463310718,-0.1194315925240516,-0.0151024655937682,0.0226284497849643,60
1734085051162187300,0.814420194119215,0.5090466697245836,0.8137107306756078,-0.1703799475371837,9.756391054359078,-0.9768161571651696,0.0223479606211185,0.4392296969890594,0.0900717079639434,0.3599531895974151,0.4086510651188935,-0.6187148536803543,-0.566241872901867,-0.6437297463417053,-0.0953069627285003,0.1650766730308532,0.0227319002151489,-0.0664466023445129,-0.007324993610382,-0.1132858544588089,0.085025742650032,-0.0054582654058933,-0.0949459448456764,0.0518703217937378,0.0660955433286726,61
1734085051202187300,0.6265617269061505,-0.3247521786034107,-0.4934463650107383,-0.095348379689455,9.746085348922014,-1.0840329615637658,0.1184954866766929,0.333879679441452,0.2143087536096573,0.3609820800032436,0.4094673097691922,-0.6225807741400652,-0.5607332057910891,-0.2442715317010879,-0.0651287212967872,0.1582815498113632,0.0055064558982849,-0.0823684930801391,-0.0009239017963409,-0.0937875360250473,0.0662849172949791,-0.0240180044472217,-0.1183580756187439,-0.0084478848090861,0.0005246083959937,62
1734085051242187300,0.3747498794922605,0.2325947039097547,0.6218541337370872,-0.0030499966898889,9.751226218941808,-1.0411386264067142,-0.0747515261173248,0.4917880892753601,0.1437492221593856,0.370418486729649,0.4122670441219775,-0.6189662211152267,-0.5565131649106051,-0.1649594008922577,-0.0289673078805208,0.1737475991249084,0.007624328136444,-0.0447784662246704,0.0087516009807586,-0.0763372331857681,0.0802735835313797,-0.0419429527163505,-0.1190585941076278,0.0056584184873383,0.066020140004903,63
1734085051282187300,0.6781229873172938,-0.0059860886722803,0.198541043138504,0.026221163347573,9.744850254169108,-1.0989101396348326,0.2153887003660202,0.0144295282661914,-0.0804799124598503,0.3722679055684915,0.414941681610748,-0.6195580893589752,-0.5526190673115735,-0.5796471834182739,-0.0775878429412841,0.3186432719230652,0.0078083276748657,-0.0990225076675415,-0.0074893832206726,-0.0409357063472271,0.0531245991587638,0.0353857861578464,-0.0981668457388877,0.0366952795875258,0.1568121715642511,64
1734085051322187500,0.1730300419208593,0.1657014343321323,0.5258920060634613,-0.0742694015359273,9.729234751886128,-1.2275428762234746,0.501727819442749,-0.0717823877930641,-0.3160696625709533,0.3670934262073007,0.4210690598481307,-0.6207158070477792,-0.5501410577780351,-0.7973898649215698,-0.0575235299766063,0.2338152676820755,0.0236858129501342,-0.0257633328437805,0.0439868867397308,0.0036089532077312,0.0263873115181922,0.0130476976215839,-0.1109992489218711,0.059234105727123,0.0824107183136046,65
1734085051362187300,-0.554976865446195,0.1454711317300796,-0.106999069994688,-0.1490679506456479,9.70606956487596,-1.3929678317017853,0.2716447114944458,0.5448604822158813,-0.0168062914162874,0.3637020758677691,0.4292194074634445,-0.6219262757234736,-0.5447009700951517,-0.0437482967972755,-0.0657397583127021,0.0197685547173023,-0.0091687440872192,0.1384366154670715,-0.0240167081356048,0.02011857368052,0.0392947271466255,-0.0641033465981483,-0.1384212076663971,-0.0141016819202341,-0.0102004914969205,66
1734085051402187300,0.8535976276449858,0.4052595475137233,-0.0595477291204035,-0.0883511777458712,9.69198784803152,-1.4926425501577556,0.1684457510709762,0.169435515999794,0.0502122566103935,0.3686551462918781,0.435459480900858,-0.6216740560532608,-0.5366469367145886,-0.025702716782689,-0.0176013093441724,0.1439748704433441,-0.0194244980812072,-0.0671853423118591,0.025611788034439,-0.00456796400249,0.0521513484418392,-0.0054337154865264,-0.127868577837944,0.0005521905226632,-0.0266702725216746,67
1734085051442187300,0.1114080364102031,0.1266243924409151,-0.1570750602841377,-0.0910572766331024,9.677481768295168,-1.5838085295960307,0.274917870759964,0.0914738774299621,0.0090674795210361,0.3677741616281365,0.4387354993762937,-0.6231074733010354,-0.5329075443384029,-0.1627638936042785,-0.1203961297869682,0.0481829494237899,0.0258288979530334,0.0371398329734802,-0.0419826209545135,-0.0299725960940122,0.0344976596534252,0.0109311438590288,-0.1514153778553009,0.0185522681209258,-0.1073861696161329,68
1734085051482187300,0.1245475496342405,0.1872568480581045,-0.627893413901329,-0.0643930776591878,9.669671386805176,-1.6320831695519389,-0.0020440281368792,0.2640113830566406,0.0438628420233726,0.3697348642366618,0.4415271608508024,-0.6231106239887839,-0.5292287222879105,-0.412654161453247,-0.1141174659132957,0.027624811977148,0.0184912681579589,0.0045650005340576,-0.0110432207584381,-0.0396120026707649,0.0480724796652793,-0.0464846877992153,-0.1646083891391754,-0.0038638723539188,-0.04208835253641,69
1734085051522187300,0.5892349627483636,-0.0095271222800016,0.0770271255791187,-0.0358752752913977,9.670579733821748,-1.6275715373463928,-0.0575266629457473,0.1715458184480667,-0.0110604530200362,0.3732619413746559,0.4436397260179046,-0.6214232409948091,-0.5269653767146001,-0.1574956327676773,-0.0157907865941524,0.053232904523611,-0.0193126797676086,0.091357409954071,0.0453470945358276,-0.0256753265857696,0.0292588155716657,-0.0733849696844816,-0.1663844138383865,-0.0125564435059204,0.0208984111219644,70
1734085051562187500,0.1624586530186235,-0.3400497009783983,0.5122819983839988,-0.0559165695438161,9.667859368947148,-1.6430933699965475,0.1801495850086212,-0.2576884031295776,-0.0875225216150283,0.3715973508203138,0.4436841599171837,-0.6220279867025222,-0.5273907089926588,-0.37664794921875,-0.0137996478006243,0.0253928191959857,-0.020892322063446,0.0158095359802246,0.0185813307762146,0.0176955908536911,0.0432160161435604,-0.0865782132565975,-0.1923270523548126,-0.0272229379683732,-0.0073250821910798,71
1734085051602187500,-0.7305392571225762,0.0759662183493375,-0.5649461054705083,-0.0966575260592624,9.664543376266955,-1.6606138291180133,-0.1375071406364441,-0.0787104591727256,-0.0006197328912094,0.3674796781154268,0.4422637274916764,-0.6237551917800946,-0.529425103054189,-0.1790310144424438,-0.0413123406469821,-0.0541431531310081,0.0333654880523681,0.0349476337432861,-0.0406871885061264,0.0458923652768135,0.035830371081829,-0.0871107126981019,-0.2198008000850677,-0.0234117091171443,-0.0211025553919374,72
1734085051642187300,0.1572194371908903,-0.3220364899039268,0.463423128799349,-0.0800065158492419,9.67229179843664,-1.6157818769618868,-0.0834945738315582,0.0390151999890804,0.0942344442009925,0.3676424091444277,0.4393265360088358,-0.6239985130253282,-0.5314669030466533,-0.2185320854187011,-0.0512623898684978,-0.0242303945124149,-0.0051832199096679,0.0427382588386535,0.0705593824386596,0.0512155890464782,0.0278599243611097,-0.0290489843517541,-0.1949269324541092,-0.0054146271935664,0.0711735772453248,73
1734085051682187300,0.1931448101181536,-0.2200865199923515,-0.5865254845939576,-0.0677484890343155,9.678379593917729,-1.5794786836981771,-0.0104804635047912,-0.2200159877538681,-0.0052067833021283,0.368707521434397,0.4381293991766293,-0.6233567425077683,-0.5324694751485225,-0.3658440411090851,-0.0257335901260375,-0.0971006751060485,0.0561789274215698,-0.0182415843009948,0.0009589791297912,0.0712947994470596,-0.0070991646498441,-0.0213911630749702,-0.2092562317848205,-0.0324081403202377,0.010368395409733,74
1734085051722187300,0.6393610027246177,-0.1319295131117105,-1.7163421460807322,-0.1210162976350169,9.68344739870131,-1.5448597902595995,-0.3264968693256378,-0.0607558414340019,-0.1918680667877197,0.3660618340666521,0.4369026320413742,-0.6228017513176037,-0.5359410724011241,-0.2309834361076355,0.0903758630156517,-0.0472410395741462,0.0107012391090393,0.0303754806518554,0.0238247811794281,0.0719338208436966,0.0027715042233467,-0.0070078329354524,-0.2397607713937759,-0.061951027402468,-0.0193707631632685,75
1734085051762187300,0.1783125123684294,0.1805284165859222,1.0063606699489056,-0.1831010252865962,9.708423434525727,-1.372374833267182,-0.2894797623157501,0.0143908523023128,-0.0821752995252609,0.3676980436401197,0.4350328682658096,-0.6170235394660868,-0.5429794377541811,-0.1207962036132812,0.1708986610174179,-0.0943693369626998,-0.0464632511138916,-0.0035603642463684,0.0576512217521667,0.0587147921323776,-0.0179653912782669,0.0271633167356252,-0.2465397864580154,-0.0046736178342252,-0.0420607338771224,76
1734085051802187500,0.5168002064608037,0.1083475619941949,0.2139011093556881,-0.1850536023927852,9.70683119689822,-1.3833192749992012,0.050969447940588,0.1841297745704651,-0.0263973027467727,0.3692079216258128,0.437360702913155,-0.6158289268552328,-0.5414387356446213,0.1294304132461547,0.0421909727156162,-0.2074409574270248,0.0219624042510986,0.0603905320167541,0.0004277378320693,0.0461613200604915,-0.0489351749420166,-0.0085813658624887,-0.2865452170372009,0.0205505109997466,-0.1832414749369025,77
1734085051842187500,0.3751856770936399,0.0387783512055873,0.7478057414829731,-0.2426068332277238,9.710261171346902,-1.3499478974036871,-0.0206667874008417,-0.2396948784589767,-0.2063627988100052,0.3677869223992281,0.4379104361387904,-0.6140542639002408,-0.5439711288053453,-0.3304889798164367,-0.0461110360920429,-0.1036385297775268,0.0279619693756103,-0.0940021872520446,-0.0648229718208313,0.0232236701995134,-0.052922248840332,-0.1186819090038538,-0.288045585155487,-0.0498222712567076,-0.1012359764233231,78
1734085051882187300,-0.0442941920176148,0.0707476069182157,0.8496620417617261,-0.3254605095358565,9.700439450034498,-1.4021243671037256,0.2528083026409149,-0.0898389443755149,-0.1473364830017089,0.3620428327332946,0.4389864177284255,-0.6154505455393124,-0.545377525339983,-0.3977734744548797,0.0551900193095207,-0.0163761340081691,-0.0110902786254882,-0.0177148580551147,0.0351525098085403,0.0130161922425031,-0.0004792809486389,-0.1006955859363079,-0.2502776086330414,-0.0660407992004416,-0.0449380428791046,79
1734085051922187300,0.2023919098803773,0.1016717374920845,-0.0265514684475958,-0.3716321858631446,9.683281979006528,-1.505438464975357,0.2273115813732147,0.0135924722999334,-0.091480366885662,0.3574885731001676,0.441340674007376,-0.6180407848655135,-0.5435494622192443,-0.8766301274299622,0.0257244873791933,-0.0475314557552337,0.0077574849128723,0.0286895036697387,-0.0537147372961044,0.0186431743204593,-0.0105087514966726,-0.0732359166026115,-0.2245672941207885,-0.0615481274236924,-0.0531210570737719,80
1734085051962187300,-0.4597426136557012,-0.0648673167079687,-0.2835385630749166,-0.3870565494881943,9.67294763199687,-1.566729969023168,0.0987686216831207,0.8451519012451172,-0.0199973005801439,0.3596375360008135,0.4475130611681366,-0.6161274709964951,-0.5392400305479789,-0.7985771298408508,0.0446965806186199,-0.1057640016078949,0.0189036726951599,0.0141159892082214,0.0065641999244689,0.0277721285820007,4.4229440391e-05,-0.0924894831269979,-0.2034597396850586,-0.0470053506724536,-0.0408922746196389,81
1734085052002187300,-1.3243855861239135,0.3060141603857279,-1.0027766739822923,-0.1381725904860533,9.675713005056975,-1.5911911871932447,-0.0808721333742141,3.0558481216430664,0.6907451748847961,0.3895541202803962,0.4674876659449845,-0.60214902860489,-0.5168360457294248,-0.7277229428291321,-0.1951008290052414,0.063186340034008,0.0454371571540832,-0.0686727166175842,-0.1057045608758926,0.0357193239033222,-0.0169304274022579,-0.0467553214341402,-0.1928791552782058,0.0039193471345119,-0.0372697002083063,82
1734085052042187500,1.550532282938063,0.4036164564818144,2.1948047308407723,0.2876159320490434,9.665947982367872,-1.6300725603818893,0.310589849948883,1.9508651494979856,0.4667792916297912,0.4236693496687803,0.4837023225861892,-0.5908829298960822,-0.487230770823254,-0.5743415951728821,-0.1350265741348266,-0.0607200972735881,0.0043929815292358,0.05750572681427,0.0621472001075744,0.0426169373095035,-0.0437234193086624,0.0060287587702274,-0.2059154659509658,0.0027446955982595,-0.0064484454870223,83
1734085052082187500,-0.3944835576837882,-0.4298299251466989,-0.1389734402738511,0.5137446182824671,9.646907181811333,-1.6863056119963526,0.0800439417362213,1.679218888282776,0.2773760259151459,0.4439926647095867,0.4979956931449796,-0.5813587110079034,-0.4657175164839922,-0.1732895076274871,0.047755591571331,-0.2379551827907562,-0.0228115916252136,0.095762014389038,0.121225006878376,0.0510527640581131,0.0058709047734737,-0.1715150890469551,-0.2219989746809005,-0.1026952170546166,-0.054937458845973,84
1734085052122187300,-0.4664051402848214,0.0304454071462154,0.2630221370078623,0.8065312675002961,9.628512277942896,-1.6767980711996555,0.1822627484798431,1.989753246307373,0.5638707876205444,0.4683627971126677,0.5108766044360815,-0.5696472632826843,-0.4417503818191998,0.0563785694539547,0.0986929163336753,-0.155476689338684,0.0041124820709228,-0.0010418891906738,0.0425255298614501,0.0435205288231372,0.0195822045207023,-0.0709738168895244,-0.2493686378002166,-0.0051045200647786,-0.0870394010275602,85
1734085052162187300,-0.8661221781753004,-0.0557177955687046,0.2119463220261037,1.2331833663284777,9.58314519599676,-1.6771975919112565,0.2967306971549988,2.3516314029693604,0.9227078557014464,0.4967533755119603,0.5234572821961262,-0.5581270051709593,-0.4095398506810312,-0.1871139705181121,0.01381450984627,-0.0860616713762283,0.0687399506568908,-0.020115852355957,-0.026110291481018,0.0460238978266716,-0.003863139078021,-0.0464075309097766,-0.2518627941608429,0.0084631645766086,-0.0210413267239928,86
1734085052202012400,-0.5368741494573652,-0.0360468804150819,0.7505607392795384,1.80250944044888,9.496287581276894,-1.655869264939427,0.4273522496223449,2.526487112045288,1.2379190921783447,0.5283686091194219,0.5339153156794737,-0.5471382560781167,-0.3693249977295402,-0.253212571144104,-0.0153793273493647,-0.0119813187047839,0.0247294306755065,0.0022748708724975,0.0629003122448921,0.0645509362220764,-0.0149902775883674,0.0126192921671492,-0.2551560699939728,0.0929316830697003,0.0272550821057287,87
1734085052242012200,-0.2909320343270897,-0.3559931200414896,-0.6923650092899799,2.4903055343881246,9.340983037796615,-1.6476678383052348,0.5088346600532532,2.376031875610352,1.501848578453064,0.5591792472866285,0.5420833949680632,-0.5386587704512937,-0.3214202136135908,-0.3750865459442138,-0.1649597734212875,0.056178692728281,0.0664774775505065,-0.0132120847702026,-0.060612142086029,0.0995486229658126,0.0242300331592559,-0.0640174218803644,-0.2311126291751861,0.012147351248376,0.110721597649157,88
1734085052282012400,-0.0846291250154376,-0.2383247719943523,-0.1389724173605442,3.255449948684871,9.127397570261358,-1.5043478932596743,0.4362391233444214,2.601225137710572,1.6444733142852783,0.5917747218060359,0.5445684496656742,-0.5292878248106812,-0.2703744709340313,-0.1800933480262756,-0.1109251827001571,-0.0370519831776618,0.00147145986557,0.1145030260086059,0.1244845986366272,0.1154406368732452,0.1025129184126854,-0.1283025547862052,-0.2140014022588729,-0.0401065676020458,0.0594613660112023,89
1734085052322012400,0.7261281626820564,0.0571130493193864,-0.4338859225392341,3.935232832038402,8.878346821591258,-1.36356155834496,0.6910548210144043,2.508196353912353,1.310363531112671,0.618373653756494,0.5480393164973829,-0.5188209680286237,-0.219298474955754,-0.0248278677463531,-0.0728194564580917,-0.0522487796843051,0.0070946216583251,0.0608532428741455,-0.0280868373811244,0.1139012724161148,0.1445103585720062,-0.0854927561074495,-0.2438378781080246,-0.0105193116551265,-0.0161459558978676,90
1734085052362012400,-0.7036316687136888,-0.764383951318264,-0.6271615924954413,4.529715559247136,8.624099673321842,-1.1300330807164312,0.6284142136573792,2.9965522289276123,1.402861475944519,0.6442564934341027,0.5540700961992221,-0.5006215958667056,-0.1652814105573377,-0.1082444638013839,-0.06076630204916,0.0272879898548126,0.0685596466064453,-0.0437455773353576,-0.0242677852511405,0.1052416265010833,0.1409933865070343,-0.0145703771442174,-0.2587924301624298,-0.0086065368363633,0.0489089923366904,91
1734085052402012400,-1.2707511727005243,-0.928843861156702,0.2874140893340111,5.194099505677819,8.289667227703333,-0.6878446092560887,0.7497653365135193,3.9302141666412354,1.8443899154663088,0.6745802837258038,0.5566512204756132,-0.474562675105917,-0.0993535048123149,-0.0406568981707096,0.0205052774399518,-0.0311251189559698,0.0511882901191711,0.0477673411369323,0.025456603616476,0.0980165675282478,0.1268350034952163,0.0025672201395034,-0.2781246900558471,-0.0146514795564115,0.0240460614979267,92
1734085052442012400,-0.4034077821671962,-1.2253683086633682,-0.339130832567811,5.899297693055868,7.8323174274683,0.1532811478938907,0.1135441362857818,4.952373027801514,2.100747585296631,0.7123749401347973,0.5493228465472961,-0.436381995841175,-0.0183628487603951,0.074499525129795,0.1053936406970024,-0.0591014251112937,0.0803703665733337,0.0478376150131225,0.0149366930127143,0.0757638663053512,0.1501350551843643,-0.1275964523434639,-0.3320246636867523,-0.1188343230865895,-0.0671311699867248,93
1734085052482012200,-1.728780187371373,-2.2560446508318184,1.4288437394641338,6.4193199303030966,7.276984222865104,1.4171134080514312,0.4455594718456268,5.258546352386475,2.694689512252808,0.752786766370666,0.5307383107464246,-0.3821834224299845,0.0745972364815321,0.0114017752930521,0.2042319029569625,-0.003402744885534,0.0476962924003601,0.0326057076454162,0.0634379908442497,0.0276243686676025,0.1944495141506195,-0.0922854849874973,-0.3847207129001617,-0.0690076313830912,-0.0083303137108683,94
1734085052522012400,-0.5740566097736358,-1.733209694251418,0.0668251727774739,6.908963980421423,6.509941281470656,2.4611519206181165,0.3742504715919494,3.8776564598083496,3.0737361907958984,0.7725056540362555,0.5053719881082408,-0.3451308821217514,0.1694664178109415,-0.000325986649841,0.285641074180603,0.04437842592597,0.0374974012374877,-0.0033133625984191,0.0559532716870307,0.0006590224802494,0.2240527868270874,-0.1323918699264526,-0.4481533765792846,-0.0629289690565317,-0.0250344880133867,95
1734085052562012400,0.5212041405081749,-1.3236679393738509,-1.012815691307187,7.147573999097943,5.714484146496654,3.5252313506945967,-0.0695022791624069,3.57400894165039,2.72656774520874,0.7847705096998815,0.4718733682502007,-0.3124079837143751,0.2527294014818213,0.0614726655185222,0.3021538555622101,0.0520473979413509,-0.0498574376106262,-0.0515642762184143,-0.0073074102401733,0.0020142812281847,0.2294675409793853,-0.091133392342925,-0.5255206227302551,0.0121412503011524,0.0751198306530714,96
1734085052602012400,1.5070803869634866,0.3821674257397651,-1.7650222980976105,7.217689737853408,5.01615818297565,4.3489638552993535,-0.8613165616989136,1.6274020671844482,1.5224021673202517,0.7919145237642794,0.437451984640045,-0.2947885952230517,0.3075820607443659,-0.3995111882686615,0.2984071373939514,0.0846721157431602,-0.0566876530647277,-0.1328411102294922,0.0068753287196159,0.0164074711501598,0.2179094105958938,-0.0363689519762992,-0.5333254337310791,0.0200518772952258,0.0554611904591321,97
1734085052642012400,0.5194119963943958,-0.1922393126457929,0.4282347649097442,7.254261518925428,4.467535289666056,4.856666124677658,-1.418919324874878,0.6860881447792053,0.9545907974243164,0.8005679841255235,0.4055222400598513,-0.2965310222246825,0.3266680808571212,-0.5711788535118103,0.2811129987239837,0.1985673308372497,-0.0555419921875,-0.0758874416351318,-0.0285140872001647,-0.012116715312004,0.1949788331985473,-0.0586865822464227,-0.4889736771583557,0.0210883807361125,-0.0966249754965305,98
1734085052682012400,-1.0383201349198818,0.2685100668996572,3.164506818217039,7.202042671388387,3.91490842141211,5.382793108540773,-0.3561590611934662,1.6419333219528198,1.63076913356781,0.8077895646146374,0.3737585652653077,-0.2930161380804453,0.3491735820069472,-0.5662519931793213,0.2114534974098205,0.2504404485225677,-0.033140480518341,-0.039047360420227,-0.1266406774520874,-0.0663174539804458,0.1780934333801269,-0.1030780971586704,-0.403374433517456,-0.0163387019909918,-0.1967541597217321,99
1734085052722012200,0.2328857958108186,0.9890826412811876,0.9192933580011128,7.113123447963595,3.475504612234235,5.787463457989692,0.7772809267044067,1.5688133239746094,1.7882319688796997,0.8001151991267743,0.3578457547151514,-0.27725062898194,0.3935659647398364,-0.4130421876907348,0.1101098284125328,0.2449964135885238,-0.0642074346542358,-0.002793550491333,-0.1116937398910522,-0.1096435338258743,0.157640740275383,-0.0804068311452865,-0.3257633447647095,0.0284426890216767,-0.2613876676738262,100
1734085052762012400,-1.573973072019219,0.1393070561423897,-0.0377542688548564,7.078242688718437,3.0422873827368018,6.067400927832722,-0.4992709755897522,0.7060607671737671,1.5985726118087769,0.7915059116574864,0.342374915699629,-0.2709761098649421,0.4276328217893864,-0.4271776974201202,0.0992837101221084,0.3581571877002716,-0.0358718633651733,-0.1089816689491272,-0.0575328469276428,-0.1345104724168777,0.1318215131759643,-0.1020078375786542,-0.2546294033527374,0.0336972485490143,-0.2081114200383424,101
1734085052802012400,-3.440373093098402,-1.0711857549503443,2.2920371707111595,7.049781733387708,2.345200313360989,6.400860144504905,-0.4821223616600036,1.4152618646621704,2.68533992767334,0.783217710247241,0.314041121429776,-0.2739071536756867,0.4614360289830649,-0.4272173941135406,0.1459836214780807,0.4125363230705261,-0.02151620388031,-0.0483293533325195,0.0023318510502576,-0.1520769447088241,0.1327016800642013,-0.1509066007822752,-0.2064074873924255,0.0073026511635631,-0.1937690064311027,102
1734085052842012400,-1.511563085335493,-1.1139686656221748,1.6601152319461103,6.629767684334516,1.4570878371737896,7.077673948919773,0.134235218167305,3.041238307952881,3.268605709075928,0.7662452669411062,0.2715609860319932,-0.2557219209653661,0.5231914273825996,-0.354865163564682,0.0974181145429611,0.4122194945812225,0.0163115262985229,-0.035257875919342,-0.0325437784194946,-0.1629747152328491,0.1115799322724342,-0.1464250714540481,-0.179552674293518,0.0666661828234791,-0.1612748500615358,103
1734085052882012400,1.3125006486713886,1.0713080661557617,0.1663251191884279,6.039494099253416,0.7511284561648964,7.689649078199267,0.1318039745092392,1.6596814393997192,2.390177726745605,0.7454853103803871,0.2321872409128671,-0.2324351175516049,0.5799265033295331,-0.3350080847740173,0.1488020420074463,0.406639814376831,0.0059757232666015,-0.0097545385360717,0.0277965664863586,-0.1546503156423568,0.0958969667553901,-0.160067812359333,-0.1595209538936615,0.0235087397508323,-0.1234650516271591,104
1734085052922012400,2.2120225537538527,0.6387718777250498,0.6071294428139925,5.652929899859428,0.3036459151507355,8.007657043239474,-0.2556935548782348,1.5603126287460327,1.5540330410003662,0.7296428373825704,0.2069906400404283,-0.2210836788798935,0.6131054313976277,-0.2780736982822418,0.1114298552274704,0.3229190409183502,-0.0120819211006164,0.0413461327552795,-0.012176513671875,-0.1207223460078239,0.1079772263765335,-0.2025409264296293,-0.1207272782921791,-0.0089887776196002,-0.1050666406273841,105
1734085052962012400,2.376606382232904,1.0152714138962329,0.479808300280571,5.0222249356687065,-0.1883739607208408,8.420935646557808,-0.3661862909793854,2.119223594665528,2.071360349655152,0.7169009225691704,0.1701739597303573,-0.20418764743409,0.6445163031128931,-0.1113614216446876,0.1201009526848793,0.2360752820968628,-0.0267736911773681,0.0312572121620178,-0.0410671234130859,-0.0806640237569809,0.1160010546445846,-0.2253296813428401,-0.1235947161912918,-0.0462228219926357,-0.1854606122910976,106
1734085053002012400,7.315629887601733,0.7046460333880037,0.4870271456182002,4.279488752534985,-0.6482325837053358,8.799781818920373,-0.4159165322780609,1.79169762134552,0.9389156103134156,0.7035825190804478,0.1303988158211197,-0.1852893772027926,0.6735248051160244,-0.0651758164167404,0.1108118966221809,0.2289830893278122,-0.0173276662826538,0.0201066136360168,-0.0145995616912841,-0.0728318393230438,0.1334656178951263,-0.1756102494060993,-0.1038006395101547,-0.061986719770357,-0.1993681416124105,107
1734085053042012400,3.88676603051126,0.2386152793735265,1.151072069352865,3.818672737494111,-0.7557628379672765,9.000941520124673,-0.1530374437570572,0.8730604648590088,-0.5978003740310669,0.708329297952611,0.1088229708470929,-0.1709890919465409,0.6761582153973027,0.1048704758286476,0.0321337543427944,0.2112604230642318,0.0053253173828125,0.0583443045616149,-0.056658387184143,-0.0857715010643005,0.1059255301952362,-0.0765109927505254,-0.0652104765176773,-0.0618256109245121,-0.1945429134130477,108
1734085053082012400,-0.9737728439465164,-0.9200618581555784,1.6948124513179064,3.5177614532053467,-0.6710347826220094,9.12937266972661,0.1675413846969604,0.991555392742157,-0.4460641741752624,0.7194542954584005,0.0988261208419083,-0.1573687435222875,0.6692188431581909,0.0785150378942489,0.0277220159769058,0.2357692867517471,-0.0184745788574218,-0.0268038511276245,0.0254637598991394,-0.0898003578186035,0.0562805347144603,0.0154249481469392,-0.0204802192747592,0.0024735505066812,-0.0813560946941375,109
1734085053122012400,-2.6452304309010506,0.5142706514505669,-1.5505354978084562,3.3853377268359064,-0.5121756884653121,9.1895345852226,0.5036171078681946,-0.7706558704376221,-0.2460750639438629,0.7235110214414702,0.0993835778541107,-0.146925234085597,0.6671339098031378,-0.0886475890874862,-0.1423743963241577,0.1546924114227295,-0.0029621124267578,-0.0187805294990539,-0.025635540485382,-0.0601768791675567,0.0153917595744133,0.0299655146747827,-0.0050857132300734,0.0271872821331024,0.0194721777111291,110
1734085053162012400,-1.4614964473962784,0.261396618165262,-1.3378852652966975,3.582609480690956,-0.4444034440960734,9.11799319757819,-0.1415932923555374,-0.0261492524296045,0.3638441264629364,0.7213209364919357,0.1092873872536961,-0.1522103683728481,0.6667715999172593,0.2333608120679855,-0.2362359017133712,-0.020599840208888,-0.0172502398490905,0.0867473483085632,-0.0255019664764404,-0.0266459509730339,-0.0003769677132368,-0.0657552054584026,-0.043017316609621,-0.0268193256035447,-0.020817162579298,111
1734085053202012400,0.0138002695545554,0.5040110136449337,-1.0341109927922487,3.552063828040659,-0.5916986494481563,9.1215745631963,-0.2609075307846069,-0.0147617673501372,0.4935373663902282,0.7153846020935343,0.1039830541956428,-0.155295391681397,0.6732724621745417,0.1908165365457534,-0.2277941703796386,0.0165288187563419,0.0165150761604309,-0.0432520508766174,0.0105318427085876,-0.0078132022172212,-0.0023445105180144,-0.0946253261119127,-0.0766937732696533,0.0031141134325414,0.0302606982290744,112
1734085053242012200,0.8630348796844481,0.451760309664905,-0.1798895341604948,3.5416976245880125,-0.7621086267974228,9.112955203410982,-0.3429565727710724,0.128652885556221,0.2827825546264648,0.7105828724338707,0.0982991064251047,-0.1603305051025531,0.6780143703619819,0.5672546029090881,0.0324324034154415,0.1412756741046905,-0.0087990760803222,-0.0018755197525024,0.0219513159245252,0.0037915334105491,-0.0040906742215156,-0.1193050093382596,-0.1091780215501785,-0.0318796046677976,-0.0172188458263874,113
1734085053282012400,0.6183797356247902,0.0838149590883404,0.3544149109393358,3.5044355231642723,-0.896796060315147,9.115101567789912,-0.2429143041372299,0.1112061813473701,0.0898213759064674,0.7093033466280448,0.0922181942944923,-0.1635694670736996,0.6794333349752766,0.3071911036968231,0.0684378072619438,0.2722288966178894,-0.0050200819969177,-0.0244343280792236,0.0344850420951843,0.0195981208235025,-0.0186403430998325,-0.0437935490190982,-0.1282194554805755,-0.0046592970479279,0.0093517657130956,114
1734085053322012400,0.182386319412291,-0.4783743219546973,0.1497270356088876,3.43689840272516,-1.0028883176632224,9.129749686345455,-0.2421301305294037,0.1618652045726776,0.1966733038425445,0.7083781817663326,0.0860733534161047,-0.1646320001058654,0.6809463598861405,0.174540102481842,0.0774220898747444,0.4615680873394012,0.0049969553947448,-0.0148152112960815,0.0063382387161254,0.0418338663876056,-0.0513570345938205,-0.0424666843295097,-0.1226404309272766,-0.0050585985638201,0.0099275197744369,115
1734085053362012400,0.4029413336992263,0.3291252791211009,-0.2267845563262701,3.3986016975566744,-1.1048465439464896,9.13231632196307,-0.2076050788164138,-0.0527126230299472,0.1125285476446151,0.7066104301085769,0.0813206512592156,-0.1666385089368043,0.6828764715219876,0.5774579644203186,0.0582190454006195,0.4545681476593017,0.0096395611763,0.0298137068748474,-0.0429291799664497,0.0476239286363124,-0.072667583823204,-0.0857382553011179,-0.1267192363739013,0.0057752224005758,-0.0812625711917877,116
1734085053402012400,0.003088321404159,0.0934476606346666,-0.459061864849925,3.446357720465958,-1.2175252670127898,9.10003493156135,-0.3778175711631775,-0.1429757475852966,0.034993652254343,0.7059796541681165,0.0789129845243767,-0.1726270074136674,0.6823235690365369,0.8246211409568787,0.0728275552392005,0.3910896480083465,-0.0326723754405975,-0.0010345578193664,0.0280705690383911,0.0465078055858612,-0.0848397463560104,-0.1178174011290073,-0.1357531994581222,0.0048787850175052,-0.0968774889528751,117
1734085053442012400,0.0597223550349473,0.0036930092990398,-0.4728980825006961,3.4503266240969297,-1.4037022839449345,9.071672760429978,-0.5572478175163269,0.0066917627118527,0.1813692450523376,0.7050254454698768,0.0722702522275239,-0.179583996477793,0.6822504586994107,0.7775881290435791,-0.0302073825150728,0.3383116424083709,-0.0012155175209045,-0.0037729144096374,0.0075675100088119,0.052023097872734,-0.1027910858392715,-0.1186491757780313,-0.136515587568283,0.037099458207935,-0.0721434451907873,118
1734085053482012200,0.6137193425983191,-0.0110661684155464,-0.1865823097974062,3.465251806028187,-1.6240239278674125,9.029117228773236,-0.5597968101501465,-0.0641919001936912,0.0632115453481674,0.7036948111797124,0.0648023871926622,-0.188265193756513,0.6820340764761432,0.8635051846504211,-0.1535660624504089,0.3477412164211273,0.0493630468845367,-0.0113148093223571,-0.0105329900979995,0.0585074722766876,-0.1144900918006897,-0.124931032526493,-0.1399082243442535,0.0540504468783736,-0.0933089828163385,119
1734085053522012400,0.3495253853321075,0.0166454298526048,-0.2669604993700981,3.473116840314865,-1.828307898572087,8.98694222086668,-0.5870954990386963,-0.0334049351513385,-0.04313176125288,0.7041735944791137,0.0571543533358496,-0.1962825425831562,0.6799603682363624,0.760717511177063,-0.2555212080478668,0.3681673407554626,0.0474012196063995,0.0057543516159057,0.008004605770111,0.044586457312107,-0.1062808409333229,-0.1308089846491813,-0.122614711523056,0.0467567096736282,-0.0431873998194932,120
1734085053562012400,0.3394304000362754,0.2655073779523372,-0.5308469981223345,3.5079014457091686,-2.037665519279241,8.928209461390972,-0.6732290983200073,-0.0874223932623863,-0.107365146279335,0.7055825423051489,0.0498861407052221,-0.2056680958307375,0.6762877705575293,0.915970742702484,-0.2306882292032241,0.4346260726451874,0.0009517669677734,0.0362880825996398,0.014223113656044,0.0536579266190528,-0.1345607340335846,-0.0229915840089321,-0.0190154016017913,0.1238988399345427,0.1329167705833911,121
1734085053602012400,-0.0614709522679448,0.2119127120174467,-0.6191711782634258,3.5371035747960207,-2.3010032981075343,8.85238177472949,-0.8888957500457764,-0.0250403098762035,-0.1106727644801139,0.7076249744964206,0.0399875442052544,-0.2169219291421718,0.6712770136765815,1.3303775787353516,-0.1289420574903488,0.4746047258377075,0.0032759606838226,0.0051465034484863,-0.0004705190658569,0.0347968414425849,-0.1176482811570167,-0.0763818134129047,0.1105802208185195,0.0731758569784462,0.0130278238773345,122
1734085053642012400,-0.4760656066209077,-0.388846172851324,0.3313777342230081,3.560844808128476,-2.5789164225161074,8.765840386351943,-0.6525364518165588,-0.1352957040071487,0.0142547907307744,0.7087106235882428,0.0294399901007708,-0.2284727653328095,0.6668303914528347,1.2100815773010254,-0.0621121563017368,0.7133272886276245,0.0087076723575592,-0.0108066201210021,0.0349516868591308,0.0138135701417922,-0.1260633021593094,-0.0297527487069368,0.2828949987888336,0.0940432153750211,0.01273790102005,123
1734085053682012400,-0.4890417003110051,0.0871583512321114,0.030591537618637,3.631131811797619,-2.7665692841544747,8.67936387990415,-0.4734610021114349,-0.3105565309524536,0.0274300370365381,0.7075765374796457,0.0246751883263005,-0.2384674557156791,0.6647253220674952,0.7334443926811218,-0.1061288267374038,0.766950786113739,0.0317960977554321,-0.0232656598091125,0.0665986835956573,-0.0026016552001237,-0.1510624140501022,-0.0788484957873821,0.4208738207817077,0.0135517746862024,-0.1483919876128435,124
1734085053722012200,-0.2353565698385238,0.2960001313716173,-0.0248480255305767,3.756927936720848,-2.9167531236201523,8.576037945464252,-0.355773389339447,-0.4169819056987762,0.0842190310359001,0.7054078388576076,0.0235868333230704,-0.2493740283136238,0.6630656964198685,-0.1385978311300277,-0.2133944183588028,0.6886312961578369,-0.0149679481983184,-0.0758742094039917,0.0575162768363952,0.003651242237538,-0.1270039528608322,-0.1777840863138437,0.3648027181625366,-0.0373315864633768,-0.2127069311350584,125
1734085053762012400,0.0299427183210849,0.4008504988998174,-0.4360065679550171,3.817389711946249,-3.0736773772567507,8.494141168022155,-0.4890837669372558,-0.0014281210023909,0.2884009182453155,0.7019332364920926,0.0205302148449764,-0.2578717716102689,0.6636041383803526,-0.5685537457466125,-0.4430090188980102,0.4624793827533722,-0.0586866736412048,-0.0037175416946411,0.0018849074840545,0.0268846601247787,-0.0886835604906082,-0.2351040563821792,0.1431670635938644,-0.0117755587939172,-0.0935018750399351,126
1734085053802012400,0.0858501912429928,0.235964180342853,-0.3971621657758951,3.751755794779956,-3.327925694569945,8.427313949418068,-0.7141463160514832,0.1516409963369369,0.2503091096878052,0.698636553388483,0.0092183897664848,-0.2650312885325275,0.6645150922376458,-0.1186369135975837,-0.3770911991596222,0.257850706577301,-0.0872586369514465,0.0647094845771789,-0.0525251626968383,0.071091242134571,-0.0388922207057476,-0.2197662019968032,-0.0644889026880264,-0.0114641547571867,0.0909989523082971,127
1734085053842012400,0.16985533914119,-0.1086377771124243,0.3751093239217996,3.6593706488102673,-3.595491174095869,8.357740646976232,-0.6690338253974915,0.2073434889316558,0.1965231746435165,0.6968346657945237,-0.0042170994843641,-0.2717646445226362,0.6637376100939386,-0.1013231724500656,-0.2710005342960357,0.0295657906681299,-0.1249774098396301,0.0756922960281372,0.0002649724483489,0.0946470126509666,-0.0170160681009292,-0.121223410180211,-0.1881570369005203,0.0401774043485522,0.1257072775959968,128
1734085053882012400,-0.218330616235733,-0.3811415898233652,0.5524252082020044,3.57230786690712,-3.848963538600504,8.282178333252668,-0.6301966905593872,0.1400810778141021,0.3581016957759857,0.6940494252046561,-0.0165980224072819,-0.2783000691727796,0.6637536074744232,-0.258622258901596,-0.1992110460996627,0.0510586351156234,-0.0153566598892211,-0.0693686008453369,0.0200109034776687,0.1026137620210647,-0.0418883301317691,-0.0257891057729721,-0.2060527205467224,0.0806648975595831,0.0875976194322109,129
1734085053922012400,0.6786500799313188,-0.261833657875657,0.4452472745090722,3.461523140893876,-4.071072796592116,8.22281019848287,-0.4098641872406006,0.1491162478923797,0.3301787376403808,0.6897065198544716,-0.0278700889558922,-0.2828013710694199,0.6659966479934366,-0.2301378697156906,-0.2506932616233825,0.1886529773473739,0.0398323833942413,-0.0228403806686401,-0.0520277470350265,0.0929797887802124,-0.0618724003434181,-0.0617611673861741,-0.1998651474714279,0.0793185975171625,-0.0395563498407602,130
1734085053962012400,0.3587754442363977,-0.3813184076949953,-0.1025689785927534,3.407602750135958,-4.24098688018322,8.159206618100404,-0.4405561685562134,-0.0787439197301864,0.1488350182771682,0.6865209324212633,-0.0355761990224968,-0.2876292222154386,0.6668527996387345,-0.0738931447267532,-0.2839917242527008,0.4172891080379486,0.0617934167385101,-0.0031328797340393,-0.0455490350723266,0.0791614428162574,-0.0667773261666297,-0.0906383023023605,-0.1841422617435455,0.0745902538210153,-0.0574111554831266,131
1734085054002012400,0.398247622925043,-0.2806596466377377,0.4049240319490432,3.4158655515685674,-4.393270906798541,8.074739697909354,-0.3740569055080414,0.0172678977251052,0.1294607520103454,0.6840178856707547,-0.0407932889438934,-0.2943446181373713,0.6661957574693793,-0.0769525840878486,-0.4129366874694824,0.5757505893707275,0.0586867332458496,0.0037157535552978,-0.0101454555988311,0.06586953997612,-0.063405342400074,-0.1176893908351659,-0.1663879454135894,0.0740066817793995,-0.0823901139169931,132
1734085054042012400,0.0843412479847669,-0.1093579080805182,0.2019721866309642,3.369593921998143,-4.50112630136162,8.034680074721575,-0.1954053193330764,0.0187314990907907,0.1488702595233917,0.6822012497395538,-0.0462271296529567,-0.2969989310127926,0.6665255189234426,0.5640721321105957,-0.4127841591835022,0.938819706439972,0.0419432520866394,0.021147072315216,-0.0282250344753265,0.054298561066389,-0.053666491061449,-0.1135416235059499,-0.1415360271930694,0.065393532539159,-0.0871656577557325,133
1734085054082012400,0.2982528787344694,0.0036059155374765,0.0835451291710138,3.361882616968453,-4.587454339249432,7.988954096335172,-0.2563782632350921,-0.0732352659106254,0.0756735205650329,0.6802231843734012,-0.049382765085454,-0.3003964608359059,0.6667980516254154,0.9655691981315612,-0.3256131410598755,0.8591755628585815,-0.0329000949859619,0.0494165420532226,0.0670177042484283,0.0483060479164123,-0.0426136888563632,-0.1716682337820529,-0.1292641907930374,0.0284196004070341,-0.0854945096731185,134
1734085054122012400,0.2567483174353838,0.1326812082618474,0.2412462123990058,3.3719635737389324,-4.67044154227674,7.936448833072185,-0.1941008567810058,-0.0635873675346374,0.0685519203543663,0.6787075715200604,-0.0520206014254716,-0.3043806371820046,0.6663350197002194,0.717973530292511,-0.4478421211242676,0.6923157572746277,-0.0658421516418457,0.0074326992034912,0.0456427037715911,0.0502592660486698,-0.0139329731464385,-0.2201724447101354,-0.1285137236118316,-0.0087306381400674,-0.078346976006031,135
1734085054162012400,0.0829810655474662,0.1562716349467635,0.0519078818917274,3.3773885213971138,-4.734733689445257,7.895943804204464,-0.163716048002243,-0.0452946424484252,0.0581530779600143,0.6773107398079204,-0.0540512574664745,-0.3074042410259578,0.6662065933050769,1.07824444770813,-0.0115164658054709,0.8544195890426636,-0.0635858178138732,0.0418959259986877,-0.0680263936519622,0.0574910566210746,-0.000629817135632,-0.1876519848555326,-0.1337655186653137,-0.0059182841330766,-0.0863730460733175,136
1734085054202012400,0.0542485997989773,0.3581047053679824,-0.1915326256811618,3.369908687035739,-4.78393611177057,7.869438074594735,-0.1253854036331176,0.0373459085822105,0.1027705073356628,0.6761107499747163,-0.055935758102526,-0.3092596110687243,0.6664112910392463,-0.3927147984504699,0.149057075381279,0.2694966495037079,-0.0714465528726577,-0.1140742897987365,0.1951513290405273,0.0576411895453929,0.0135378073900938,-0.1413064132660627,-0.1221368312835693,-0.0327007117923349,-0.109179336643219,137
1734085054242012200,0.1821115941241383,-0.1488560979932546,-0.2124240225404501,3.3176120980873702,-4.906350485301018,7.81610863546729,-0.3586378395557403,0.0570226460695266,0.0991776660084724,0.6742423288212336,-0.0622867030478829,-0.3124255660368354,0.6662640903454864,-0.8981170058250427,-0.062783382833004,0.0091327540576457,-0.0463733673095703,0.0810877680778503,-0.0901417434215545,0.0578662678599357,0.0002132365480065,-0.1176812075287103,-0.1139330714941024,-0.0147349200561642,-0.127433955258131,138
1734085054282012400,0.1671963490650057,0.0346253231793642,0.383329455256462,3.291228241291642,-5.00423978164494,7.765036619877815,-0.1995512545108795,-0.0123918736353516,0.1006986200809478,0.6728203121476948,-0.0669160230342226,-0.315619342881703,0.6657473977588506,-1.9035398960113523,-0.3900727033615112,-0.2646923363208771,0.021496757864952,-0.0651673078536987,-0.1878608912229538,0.0774639248847961,-0.0054335612803697,-0.1579483359873294,-0.1700194031000137,-0.0099770580045878,-0.1872755527585744,139
1734085054322012400,0.3142895290389657,-0.0514455250769853,0.2620569452375173,3.2695313732683657,-5.079627323323488,7.725149430647492,-0.1899243593215942,-0.0083122458308935,0.1144336462020874,0.6710593199334852,-0.0702285398048379,-0.3181115428801831,0.6659972536524934,-2.3658950328826904,-0.433697372674942,-0.2005207389593124,-0.0111946463584899,-0.0226066708564758,-0.0752730369567871,0.0806035920977592,0.0036988789215683,-0.1166606323093175,-0.2132788002490997,0.0448315137647092,-0.1448942086249589,140
1734085054362012400,0.5623439601480961,-0.0462695837438106,0.3623965573430061,3.2616450039327143,-5.135830272060632,7.69124833008945,-0.1059093475341796,-0.0356456004083156,0.0376256853342056,0.669516160885025,-0.0723196285604504,-0.3203518861645393,0.6662527158310726,-0.9037581086158752,-0.3015758693218231,0.0174834951758384,0.0309130549430847,0.0591823458671569,-0.0968897938728332,0.0635835081338882,-0.0058961836621165,-0.0757616356879472,-0.2033367753028869,0.0720813397400081,-0.1242103170365095,141
1734085054402012400,0.438166376337409,0.1261877545893192,0.3006535101354122,3.288258577831089,-5.148025152245164,7.671738158455491,0.0162742491811513,-0.1086254939436912,-0.0600135326385498,0.669140188107951,-0.0718117160837472,-0.32201441133111,0.6658836717965797,-0.5458082556724548,-0.2683490514755249,-0.0442664884030818,0.0058566927909851,-0.0067163109779357,0.0601073578000068,0.0499967448413372,0.0103438822552561,-0.1249041445195674,-0.180075392127037,0.0556288021109998,-0.1137374383389949,142
1734085054442012400,0.0829676215440034,0.0997878234416246,-0.17976795360744,3.3352038688793777,-5.128807826077938,7.664341033941507,-0.0063464762642979,-0.0767667740583419,-0.0462277717888355,0.6694481007589516,-0.0695204168129182,-0.3231010070528362,0.6652907427707734,-0.4261529147624969,-0.0945959091186523,-0.0488878712058067,-0.0358563214540481,-0.0148540139198303,0.0746460556983947,0.04879692196846,0.0178604628890752,-0.1201204173743724,-0.1504971832036972,0.0840291863609105,-0.1017038861960172,143
1734085054482012200,0.1594409126326441,-0.0177881701469421,-0.0146866970002651,3.348064519496262,-5.146355173206329,7.6469526767671105,-0.0822056829929351,-0.0176969412714242,0.0075089745223522,0.669199497967006,-0.0697790079991361,-0.3244145817553311,0.6648745788190444,-0.1624664217233657,-0.1081442609429359,-0.0574647821485996,0.0169752687215805,0.053990364074707,-0.0487737655639648,0.0467221997678279,0.0213033463805913,-0.1168266365259885,-0.1169376596808433,0.0701468645460903,-0.1261222881376743,144
1734085054522012400,0.070711658822,0.0648252311319112,0.0001712649136781,3.370354384976625,-5.15429882568717,7.631794855123758,-0.0059433057904243,-0.0913848355412483,-0.037509836256504,0.6690420997554866,-0.0693299075661764,-0.3256994048450696,0.664451598386893,0.3787164092063904,-0.1720648109912872,-0.0986368507146835,0.0138036012649536,0.1123483180999755,-0.0140047669410705,0.0379419773817062,0.0156787484884262,-0.0709767394989728,-0.0811967104673385,0.0700813250292092,-0.1174719486922025,145
1734085054562012400,0.0369409066453576,0.0619616583943367,-0.0285603240519762,3.37719036847651,-5.171487276375293,7.617131538999081,-0.0786520689725875,0.0380016006529331,0.0954547151923179,0.668325999767236,-0.0695443786326297,-0.3267995688042923,0.6646096294073482,0.4558823108673095,-0.0998424887657165,-0.0578331649303436,-0.0225482434034347,-0.0144362449645996,0.0557395815849304,0.0295260120183229,0.0124764814972877,-0.0665472326189279,-0.056360799819231,0.0723939858857542,-0.0910877996355295,146
1734085054602012400,0.3522796524763107,0.0947960065037012,0.0556055673658847,3.3487072013139723,-5.201478510013223,7.609281994542479,-0.0377632156014442,-0.0015775600913912,0.0229337029159069,0.6675905103179058,-0.0715096843866888,-0.3269877187431379,0.6650476262081813,0.0188751388341188,0.0650009959936142,0.1754835695028305,-0.0379055887460708,-0.0595901012420654,0.1060318425297737,0.0291341226547956,0.0056908526457846,-0.0582990442335605,-0.0323500484228134,0.0704763156961649,-0.0452905095785856,147
1734085054642012400,0.1910205845057964,0.0198503633737564,-0.0036509237229824,3.363022142392397,-5.204494058442116,7.600901704210043,-0.0187076721340417,-0.0321128703653812,-0.0201575681567192,0.6675668569206961,-0.0711633029027411,-0.3277158096993512,0.6647500170141183,-0.1102828457951545,-0.1084986701607704,0.1392435431480407,0.0003307163715362,-0.0361804962158203,-0.1274563074111938,0.0341662764549255,0.0025718663819134,-0.039237785410881,-0.0121941976249217,0.0628708091285079,-0.0114700730413198,148
1734085054682012400,0.0819894241616129,0.0502560230314731,-0.1097732108831405,3.3542882163167,-5.218589219290018,7.595095063757896,-0.066758282482624,0.0434143207967281,0.0369395948946476,0.6673505635704232,-0.071997562685967,-0.3279851901372242,0.6647446182783163,0.2228530347347259,0.0309016164392232,0.2333093285560608,-0.0581551492214202,-0.0901967287063598,0.1002442836761474,0.0348522774875164,-0.0074847894720733,-0.0432563734024763,-0.0031451629474759,0.0076340750750154,-0.0269359377205371,149
1734085054722012200,0.0273217221677303,0.1241080257058143,-0.0959971989870071,3.342667044366896,-5.244706826364994,7.5822168774843215,-0.0753386840224266,-0.0132178850471973,0.0311653073877096,0.666989146740991,-0.0734137014206531,-0.3286714895490661,0.6646134318572385,1.1842586994171145,0.546055257320404,0.3202857971191406,-0.0262105166912078,0.1530793309211731,0.045475848019123,0.0295402184128761,-0.0192555971443653,-0.012915011152625,0.0063991351053118,0.02830379200764,0.005889642560482,150
1734085054762012400,0.2252864267230033,0.0608762012451887,-0.0761842450141906,3.348957668943703,-5.266020248028636,7.564647903046011,-0.0397398471832275,-0.0665732845664024,0.0387233681976795,0.6660587485679946,-0.0737336124785265,-0.3299600526818625,0.664872566851046,-0.5213454961776733,0.2691802382469177,0.2144165933132171,0.0093783289194107,-0.130392849445343,0.0189787223935127,0.0375958681106567,-0.0185997691005468,-0.0275239667415618,0.0119218658655881,0.0348902577258646,0.0349310281276702,151
1734085054802012400,0.14062135361135,0.1551566594421863,-0.1840589287996292,3.363891034181416,-5.289522119647264,7.541590268063545,-0.0936329737305641,-0.072877213358879,0.0465335063636302,0.664985000857475,-0.073797248807299,-0.3317226009273115,0.665063216210127,-0.459099680185318,0.1440181136131286,-0.0097320806235075,0.0705921947956085,0.066012442111969,-0.0448215529322624,0.0374720022082328,-0.0233364701271057,-0.0277162744432687,0.0201838798820972,0.0405066363029181,0.0244108031570911,152
1734085054842012400,0.2010024648159742,-0.0366653045743703,0.1621054556667804,3.370547861722112,-5.321258735647797,7.516248321536183,-0.04432338103652,-0.0309375785291194,0.0367469862103462,0.6639149387931873,-0.0745202585347208,-0.333503679859384,0.6651608172581093,-2.157934188842773,-0.4767976105213165,-0.2789802551269531,0.0693254917860031,-0.0407937169075012,-0.1387332081794738,0.0291539020836353,0.0007302295416593,-0.0473772527247667,0.0183512903749942,0.0438397993136197,-0.0126332716017961,153
1734085054882012400,0.3805079680949449,-0.0749935739248991,0.1077875900238752,3.357439373824,-5.331861378204822,7.514602307894825,-0.01687035523355,0.0330309495329856,0.0436051934957504,0.6633576104289504,-0.0751700178806162,-0.3334837200103574,0.665653665013464,-0.097526304423809,-0.5182698965072632,-0.1515233069658279,0.1130428910255432,0.127275288105011,-0.0330574512481689,0.0392977334558963,-0.0120159545913338,-0.0234977799654006,0.0100776487961411,0.0716507663030177,0.0337403570383787,154
1734085054922012400,0.1597057010486721,0.1469166543632745,0.2885831331133842,3.368300082795322,-5.3309617990165945,7.51037913724184,0.0330843850970268,-0.1231245100498199,-0.0578950159251689,0.6635082122464111,-0.0748434281063899,-0.3338797774409288,0.6653418427303724,-0.196333572268486,-0.5700795650482178,0.207172006368637,-0.0251984000205993,-0.1581143140792846,0.0945280790328979,0.029513094574213,-0.0077399406582117,-0.0132066875755786,0.0095068318769335,0.0557739827353507,0.0205985513925552,155
1734085054962012400,0.5187304438710212,0.0676812050849199,0.2511468441665172,3.420329545240104,-5.295569583117961,7.511901816764474,0.1313824504613876,-0.0615104138851165,-0.1151260808110237,0.663787910423607,-0.0716111870548083,-0.3344718626634695,0.6651210309461546,0.0529276467859745,-0.3563568294048309,0.126689076423645,0.0084389299154281,0.0510761141777038,-0.0370553731918334,0.0104646123945713,0.0052302554249763,-0.0192284320831298,0.021588085219264,0.0394639223169535,0.038827451044321,156
1734085055002012400,0.2870326888009906,0.2544821260690689,-0.1812415332913398,3.467823702342808,-5.224096584534645,7.540119610989094,0.1563049554824829,-0.0300860404968261,-0.17815662920475,0.6659327223933807,-0.0677971250080252,-0.3331132572553953,0.6640578312381501,-0.3519263565540313,-0.0782759487628936,-0.0677720159292221,-0.1060195863246917,0.002895712852478,0.0738885402679443,-0.0023344652727246,0.0380646511912345,-0.0869482156127691,0.0270245093852281,-0.0063185354970395,0.0573737460821867,157
1734085055042012400,-0.0070361822471022,0.3157815211623906,-0.4493576324373483,3.502570313814282,-5.179152696436644,7.555048884573578,0.0087583744898438,-0.0057417899370193,-0.0809965506196022,0.6676482817142213,-0.0654298437480071,-0.3324434571096502,0.6629072458736777,0.3397450447082519,0.5061451196670532,-0.0024200382176786,-0.1438119709491729,-0.0178373456001281,0.1358382701873779,0.0003940956667065,0.0426242724061012,-0.0145329677432775,0.0201538316905498,0.0199873606916517,0.0315466463863849,158
1734085055082012400,-0.0254340087249875,0.0526864650487899,-0.1764367633581161,3.5003187354952097,-5.193935255026817,7.545939110922813,-0.1092543080449104,0.0599373467266559,0.0084322439506649,0.6682093031398098,-0.0664716716217091,-0.3329349662216058,0.6619911373113867,0.7457132935523987,0.7457461953163147,0.0570230484008789,-0.0540593862533569,0.0382719635963439,0.0055943722836673,0.0082779712975025,0.0313664563000202,0.0108089787840843,0.0249007958918809,0.0540434326156973,0.0425841732293367,159
1734085055122012400,0.2326233454823494,0.0967372036993503,0.2293774954289197,3.4785388653635976,-5.221525857263803,7.536963777306675,-0.0204778686165809,0.0210024882107973,0.0575713701546192,0.6679773870929908,-0.0683529530924044,-0.3332411489738562,0.6618795823736942,-0.0123419035226106,0.4207671880722046,0.1053505018353462,0.0382508933544158,-0.1091386675834655,-0.1014279723167419,0.0205400008708238,0.0187847148627042,0.0215811326891183,0.0457100942730903,0.0693118019614368,0.100544194766879,160
1734085055162012400,0.5854360819220542,0.1556219388663768,0.0105798462033271,3.4692937748953696,-5.219208812493085,7.542827700904011,0.0566041618585586,-0.0437925085425376,-0.0214108731597661,0.6675515700243422,-0.0683342636595755,-0.3327961210411623,0.6625345669383035,-0.849902868270874,-0.2099264413118362,-0.1873203814029693,0.0666895657777786,0.1000308394432067,-0.1476433873176574,0.0260536167770624,0.0281575769186019,0.0552864184141159,0.0621970482170581,0.0749445471514016,0.1373234811097383,161
1734085055202012400,0.2897223662763833,0.2460556585073471,0.2337742690831422,3.4741119888320564,-5.194420992717147,7.557706121084093,0.0494746416807174,0.1457678526639938,-0.0494535565376281,0.6687665601321414,-0.0676331042487247,-0.3317981383177756,0.6618813458679119,0.3140093088150024,-0.3331916034221649,-0.0850371494889259,0.062300905585289,0.1636810898780822,-0.1371314525604248,0.0292760357260704,0.0220509208738803,0.0651958180099725,0.0445387102663517,0.096620299321413,0.1060895539343357,162
1734085055242012200,0.1601855935201048,0.122965285411477,0.2695885097861289,3.4236353087872264,-5.174281875529885,7.594466118204593,0.0901501476764679,0.1223244965076446,0.0009088688530027,0.6699257104932459,-0.0689329416652209,-0.3286917275659191,0.6621249972984747,-0.9270445704460144,-0.3917025923728943,-0.3771924972534179,0.064316913485527,-0.1458287239074707,-0.1005065441131591,0.0267241336405277,0.0231536272913217,0.0523836827099323,0.0548937544226646,0.0453542955297976,0.1501134045779704,163
1734085055282012400,-0.0352478389918804,0.1213169336825609,0.1131055701762437,3.426933765810728,-5.132381008389592,7.621362892958522,0.149344652891159,-0.0941797196865081,-0.0379270352423191,0.670724056973078,-0.0672809781254937,-0.3269432625094087,0.662352365853953,0.5325347185134888,-0.1891298145055771,-0.0072576701641082,-0.0907627195119857,0.2217312455177307,-0.0156897343695163,0.018375638872385,0.0302592013031244,0.0875830063849687,0.0833495780825614,0.0461673654783517,0.1711450866907835,164
1734085055322012400,0.3779287652567029,0.438882415652275,-0.4205798662424087,3.466111637727916,-5.091115516543388,7.631316716217994,0.0960988998413086,-0.126899167895317,0.0654160156846046,0.6697617485030752,-0.0636168955788149,-0.3269006342309996,0.6637077876868077,0.3326567709445953,-0.0693951100111007,-0.0994744151830673,-0.0764995217323303,0.0008706450462341,0.0276941061019897,0.0130211152136325,0.0278464052826166,0.1456751298695802,0.098177783191204,0.0456019136153161,0.1512824483573436,165
1734085055362012400,0.8942401652872561,0.1452244634926319,-0.386587580269575,3.4605133793294427,-5.103466464072466,7.625605352833866,-0.0322774015367031,-0.0396157354116439,0.0993910059332847,0.6680438205525079,-0.0635226416344407,-0.3273640025333177,0.6652181266879239,2.6225461959838867,0.1803254634141922,0.1023727506399154,-0.0903532952070236,0.0968037247657775,0.2392829060554504,-0.0011147698387503,0.0176373273134231,0.1396387723147869,0.1016138345003128,0.0643167701531201,0.1319265905022621,166
1734085055402012400,0.8206596730306744,-0.0419920525550842,0.1187257481455802,3.4669065874978897,-5.11362194738388,7.615892352592945,-0.0645826756954193,0.1073271781206131,-0.0730317756533622,0.6679319653448456,-0.0637222399644581,-0.3280808207834241,0.66495819238318,-0.2001632004976272,-0.146824449300766,0.020449724048376,-0.0937357395887374,-0.3197013139724731,-0.0942687392234802,-0.0087799774482846,-0.0186813808977603,0.1151765312314033,0.1215864568948745,0.0727403151053935,0.2133949133992195,167
1734085055442012400,0.0073784198135137,0.3104962742358446,0.4937777889221906,3.4814223118454217,-5.104286548283696,7.615532871630787,0.0757096856832504,-0.1157529801130294,-0.0932893231511116,0.6691469016661225,-0.0634146788611818,-0.3281683509574715,0.6637216681561636,0.0120646366849541,-0.0218107029795646,-0.155174896121025,-0.0488070994615554,0.1157914400100708,-0.0423946902155876,-0.006408654153347,-0.0036211926490068,-0.0575590395212173,0.1148507371544838,-0.0358175286386162,0.1876730276435613,168
1734085055482012200,-0.0677197835296392,0.3918003464818,-0.0172317053079605,3.535570666140318,-5.063785026547312,7.617624290952086,0.092303343117237,-0.1438826769590377,-0.0239182878285646,0.6691964400016928,-0.0597973179870647,-0.3286845459524506,0.6637520409168268,0.2535931169986725,0.2198061197996139,-0.2659568786621094,-0.0759088397026062,0.0469974279403686,0.1348106861114502,0.0119075272232294,-0.0202083624899387,-0.0380342548400163,0.0754947215318679,-0.0096092476055026,0.1665560053348541,169
1734085055522012400,-0.1018058852657675,0.5188742362558841,0.0475140308469533,3.573398000231385,-5.039126970630884,7.616325483313203,0.0907908305525779,-0.1270735114812851,0.042343758046627,0.6683761744208113,-0.0570171411100057,-0.3292787926814277,0.664528274704761,1.0851916074752808,0.5159653425216675,-0.1808006316423416,0.0142902582883834,0.0771608352661132,-0.0156321376562118,0.0402855202555656,-0.0449580028653144,-0.0302647898823022,0.059814017266035,-0.0827232913941145,0.2174228537410497,170
1734085055562012400,0.1524178821280598,0.7483142755270004,0.1366904439032077,3.6106685772225258,-5.011339969038963,7.617081270116567,0.1440356522798538,-0.1881703734397888,0.0346531309187412,0.6668271288174579,-0.0537536695153519,-0.3297688392140671,0.6661115573767719,1.229996919631958,0.4174650609493255,0.0322953984141349,0.0774266123771667,-0.0665898919105529,-0.0204084515571594,0.0681960061192512,-0.0488735809922218,0.1710118156999349,0.0803220570087432,-0.1910269411813467,0.3519757010936737,171
1734085055602012400,0.1064262385427951,0.8943471327930689,-0.1586357337296009,3.6747663708627214,-4.968978498649597,7.614179118934273,0.0846942514181137,-0.2475330084562301,-0.0065110060386359,0.6653501391526517,-0.0489811534850749,-0.3307351560477905,0.6674759934191162,0.1076761186122894,-0.1524520218372345,0.050099030137062,0.1589436680078506,-0.1560522317886352,-0.1076128333806991,0.1154476851224899,-0.0632309243083,0.2857464483827352,0.1036656126379966,-0.2007826115202158,0.4354442578971386,172
1734085055642012400,0.845513543780148,0.9031389265358448,0.2355453704088926,3.7649706656619903,-4.955474873954057,7.5788295731335875,0.0248234327882528,-0.2794296741485595,-0.2165911942720413,0.6647028844531669,-0.0450690231100324,-0.3340000271374492,0.6667705565741625,0.2378730028867721,-0.2855008244514465,0.1962160915136337,0.09636752307415,-0.0076126456260681,-0.0654610246419906,0.1595087796449661,-0.0953454077243805,0.4210135814845562,0.126898854970932,-0.2364516715988516,0.5237883117824793,173
1734085055682012400,0.7612099974572658,0.7719377276986837,0.7110586038440465,3.928282574509084,-4.8559965548530215,7.560308997058868,0.2810962796211242,-0.3682312369346618,-0.4189827740192413,0.6673384593552341,-0.0365341361384389,-0.3364472681488876,0.6634213145201181,0.222155824303627,-0.2628574967384338,0.2389767467975616,0.02548348903656,-0.0164574980735778,-0.0636929124593734,0.1750962883234024,-0.1622607707977295,0.5701210238903761,0.2061274051666259,-0.1793804155945778,0.7551730553805828,174
1734085055722012200,1.002013726785779,0.8058405818223953,0.6249363176614046,4.122924856643379,-4.661702355504036,7.578945308467746,0.4945591688156128,-0.3364254534244537,-0.5809642672538757,0.6716223643651282,-0.0236160329197204,-0.3361898659586391,0.6598045734680009,0.154256671667099,-0.3002249896526336,0.1263289451599121,-0.033978596329689,-0.0631378293037414,-0.0218255519866943,0.1590350717306137,-0.2336111068725586,0.4543149625837802,0.2358582466840744,-0.2423382454194128,0.6679992143183946,175
1734085055762012400,0.6188283561751247,0.9670753921344876,0.4160393002033233,4.419619400019943,-4.364297910292446,7.588824312925338,0.6133270859718323,-0.6774564981460571,-0.8341134786605835,0.677481321596169,-0.0037675142400162,-0.3362490882893013,0.6541722990594355,0.5015421509742737,-0.3215100169181824,0.0672164931893348,-0.0708307772874832,-0.0047304630279541,0.0319101214408874,0.1437309980392456,-0.285302072763443,0.4612111518383026,0.1861927807331085,-0.1622421607237309,0.610821283069253,176
1734085055802012400,-0.0165437230437993,0.7457683904364705,0.2915425674408674,4.725190492813289,-4.028368504114448,7.590468573001027,0.563551664352417,-0.4759869873523712,-0.8274456262588501,0.6849972822418104,0.016943402002404,-0.3357182299989911,0.646362936009754,1.3360437154769895,-0.2830680310726166,0.2695959508419037,-0.0631999373435974,-0.0719183087348938,0.0095591247081756,0.1719145327806472,-0.354002445936203,0.3791150524318218,0.1473106145858764,-0.0965595090448856,0.6931640507131814,177
1734085055842012400,-0.0422603481024503,1.1794453464001415,0.4903706108272075,5.008582779285312,-3.7044302722424254,7.573749493390321,0.6617187261581421,-0.509742259979248,-0.7195307612419128,0.6905461463588708,0.0371820250805431,-0.3353561306729264,0.6397655097659231,1.4735342264175415,-0.5221980810165405,0.3194988071918487,0.008169949054718,-0.0410681962966918,-0.06879723072052,0.2225390672683715,-0.3854992687702179,0.2630617383658886,0.1758290529251098,-0.1069527466349303,0.8337327973544597,178
1734085055882012400,-0.0102758948206901,1.6108160712480544,0.2009182936638593,5.27707063435316,-3.328057211995125,7.566171167090535,0.802769660949707,-0.6531050801277161,-0.7590783834457397,0.6955722741908064,0.0593294125794092,-0.3327351041955108,0.6339926012293403,2.2442197799682617,-0.4726108014583587,0.5839603543281555,-0.0256069600582122,0.0292896032333374,-0.0751524567604065,0.2808784246444702,-0.3818274736404419,0.122357382646203,0.2121050655841827,-0.0748168291185051,0.8102081293821335,179
1734085055922012400,-0.3101046445697545,1.5417477957189083,-0.4471826264858246,5.5821372847557065,-2.92948664072603,7.511873175191879,0.8248487114906311,-0.7250078916549683,-0.5889593362808228,0.6984373236382625,0.084480305757103,-0.3314575855592946,0.6286368634626586,3.4523820877075195,-0.2764547169208526,0.8628512024879456,-0.0713888257741928,0.0408830642700195,-0.06060791015625,0.3204871416091919,-0.3489717543125152,0.1267079790711403,0.2586981058120727,-0.1459747704032808,0.790076026457548,180
1734085055962012400,0.5312433039635419,1.4625436183616518,-0.4890969376295804,5.740816857627034,-2.58093506886214,7.520119025489688,0.8776604533195496,0.2571488618850708,-0.3535872399806976,0.7001073198496063,0.1034931685841051,-0.3253764100539785,0.627111825401743,2.53875732421875,-0.9971683621406556,1.3276206254959106,-0.0548444092273712,-0.2559969425201416,-0.0724848508834838,0.3425897359848022,-0.3223862051963806,0.2519178285390138,0.3255328238010406,-0.1259249389346688,0.7779507043778896,181
1734085056002012400,1.412753167015314,0.9783899823531508,-0.5681406637281179,5.318245525306463,-2.181027403770387,7.945424166688323,1.1851531267166138,2.979402780532837,-0.509675145149231,0.7121279125523262,0.1015019248821156,-0.2908495592789056,0.6308546764466196,0.5251505374908447,-0.3960398137569427,0.5539140105247498,-0.1053045615553855,-0.2782730460166931,-0.068919837474823,0.3268582820892334,-0.2715517282485962,0.5065209506392478,0.389415979385376,-0.2197542923633009,0.626369857595861,182
1734085056042012400,0.8014031838968396,2.6794810755491256,-6.373478801104426,4.227617111000418,-1.804549714104831,8.66263427889943,-0.8988825082778931,0.9284492135047911,-0.845183253288269,0.7372483961250267,0.0723981424532828,-0.2304063151154214,0.6309802921064326,0.576004147529602,-0.2895023822784424,0.3313625156879425,-0.1422853022813797,-0.0404659509658813,-0.1275445222854614,0.24692103266716,-0.2189375907182693,0.6974106022417544,0.3934316337108612,-0.3220373666867613,0.2867456885531544,183
1734085056082012400,-0.6079392978921532,1.6716057632535697,-1.0790531273245811,4.296505938309431,-1.9393074363797904,8.599389594957232,-4.55661211162e-05,-0.6916479468345642,-0.3273821771144867,0.7444993643930488,0.0662399303469864,-0.2390928956066023,0.6198124225499585,1.304185390472412,-0.1824876815080642,0.4431793987751007,-0.1563797295093536,0.0275022387504577,-0.1101378202438354,0.1435007154941558,-0.1525922566652298,0.932294293871522,0.4433967471122741,-0.2797249230708927,0.1811003712549805,184
1734085056122012400,1.706791935186088,1.2166747145980596,-3.3334821596533057,4.703383734674752,-1.7706332698471845,8.421011049881576,0.3379808962345123,-1.5394178628921509,-0.8571639657020569,0.7446375421946753,0.0856517837885688,-0.2516181817873208,0.6122637984387359,0.5018721222877502,-0.1159064695239067,0.2248360812664032,-0.1634116470813751,-0.1680988669395446,-0.0398409962654113,0.022656962275505,-0.145636186003685,1.427369136866927,0.5304319262504578,-0.2335365878697484,0.1245569385170936,185
1734085056162012400,0.098860187202692,0.9121293115906416,-5.04594132682085,5.393438421195746,-1.4488792501464485,8.061139042580127,0.1340268850326538,-2.234254837036133,-1.2847923040390017,0.7483141509529105,0.1181609362817825,-0.2739238809161282,0.5924776782112905,-0.9301074743270874,-0.0499701686203479,0.0197312030941247,-0.1919045150279998,-0.2219058871269226,-0.0285121202468872,-0.0763569548726081,-0.1205168664455413,1.1198235291302203,0.6344070434570312,-0.0877922652214765,0.0959764484599232,186
1734085056202012400,-1.0162655395001172,-0.5499149789467453,-6.552691458916664,6.26899434427917,-1.2455866285666823,7.437648247551918,-0.6500369310379028,-2.69809889793396,-0.8840164542198181,0.7466955749145247,0.1522470029837638,-0.3124200996223235,0.5671511080920122,-2.0655596256256104,0.0985765308141708,0.0434905253350734,-0.2027559280395507,-0.2365522980690002,0.0404112935066223,-0.1314646750688552,-0.1946865618228912,0.6231628782480955,0.633716344833374,0.1721020586220547,0.1904141430452466,187
1734085056242012200,-1.1066039820730686,-2.502239717809856,-7.431323136183619,6.950251684099436,-1.547402752740681,6.743139796492457,-2.866783618927002,-1.6981513500213623,-0.4426932632923126,0.743800890590536,0.1568302690930874,-0.3627668795175482,0.5390405930895918,-2.376885414123535,0.6762372255325317,-0.0199228655546903,-0.1459212303161621,-0.2836202383041382,0.0060511827468872,-0.1392183601856231,-0.1969960778951645,-0.1571276672542095,0.5836929082870483,0.2717058489999733,0.0985153192877769,188
1734085056282012400,-1.933055974769592,-4.783524316099286,-5.755491864189505,7.253719667133688,-2.4514538256853817,6.127340725010633,-4.326945781707764,-0.6391968727111816,0.1624395996332168,0.7470318359284672,0.1146586336256542,-0.4176672908901674,0.5043320740378864,-1.8506481647491453,0.5673061609268188,0.5895223021507263,0.0692765787243843,-0.088771104812622,0.0309243202209472,-0.1864597350358963,-0.1777679622173309,-0.8935726412892341,0.5802327394485474,0.4671881073560565,0.1363677878201007,189
1734085056322012400,-1.635613827896118,-6.562248391813039,-4.241577831813693,7.29730161922872,-3.632561552339792,5.451995824104547,-4.548024654388428,-0.5387474298477173,0.7393954992294312,0.7459924951256797,0.0474672754719748,-0.4687989285442271,0.4706054541102278,-2.2996838092803955,0.6787712574005127,0.8897182941436768,-0.0132075250148773,-0.2139635682106018,-0.0126454830169677,-0.2782503068447113,-0.1146689057350158,-0.8672323313742876,0.5179060101509094,0.5693349150139838,-0.0898942059367895,190
1734085056362012400,0.2526794605612755,-7.824228813558816,-4.027766738829016,7.372254276621342,-4.781542202371359,4.35397700728625,-4.768345355987549,-1.6129801273345947,0.7744355201721191,0.7289355313006969,-0.0188199165314887,-0.5269295569535509,0.4366281802927004,-1.2956222295761108,0.4820685684680938,1.4228065013885498,-0.0777506828308105,-0.1782363653182983,-0.0523576140403747,-0.3025599122047424,-0.0400529727339744,-0.4737538225471973,0.4159428179264068,0.6354501859564334,-0.0328632819429039,191
1734085056402012400,0.6447089396238327,-8.714649712818861,-2.3310402705833315,7.47477590894103,-5.702334859019517,2.7895301807641983,-4.899898052215576,-1.9614511728286743,0.8237935304641724,0.6970025566468526,-0.0808442678745824,-0.5926531454551223,0.3954918564520857,-0.4468749761581421,0.4795917570590973,2.039386987686157,-0.1548821628093719,-0.2133659720420837,-0.0011554360389709,-0.2810665369033813,0.060002863407135,-0.4804126959145068,0.2999699115753174,0.5385252776652574,-0.0584568651437759,192
1734085056442012400,0.41099136916399,-8.398769991979002,-0.0180948980085551,7.383034029310941,-6.364326357355713,1.0754339139141142,-4.655571937561035,-1.65782368183136,1.1659386157989502,0.6562717696641769,-0.1447730258761942,-0.6513132118240547,0.3523341747194097,-1.192477464675903,0.245971217751503,2.0393483638763428,-0.1257524490356445,-0.0252708792686462,0.1361240446567535,-0.2742622494697571,0.0902419090270996,-0.4293073625773191,0.3195628821849823,0.6179993580050767,0.1870204089537263,193
1734085056482012200,0.9573445639759302,-6.729158617413043,1.2374293333351611,7.036296228870749,-6.811099233996868,-0.5194685123546049,-3.888451337814331,-1.7338944673538208,1.5326493978500366,0.6101842672441482,-0.2064950913484035,-0.6955898935685001,0.318103191140214,-1.5752350091934204,0.0483273714780807,1.736340880393982,-0.069360002875328,0.0793074965476989,-0.0406996309757232,-0.286697506904602,0.0865600258111953,-0.4205354425787925,0.4437538385391235,0.6922618411764502,0.4458133839592337,194
1734085056522012400,2.599794375371933,-5.638372382196784,2.093899009285122,6.48979222741127,-7.066907055711746,-2.0277597729451955,-3.2391140460968018,-2.107069730758667,1.6380518674850464,0.5561734634102682,-0.2587887991977214,-0.7324038030683637,0.2954388096401515,0.6382787227630615,0.0202825833112001,2.2537996768951416,-0.0193519592285156,0.0979166626930236,-0.2010907530784607,-0.3011476099491119,0.0485971309244632,-0.4431108470022678,0.5384615063667297,0.8212416376370936,0.511069407723844,195
1734085056562012400,4.599219303584099,-5.080424026659131,3.423302715831994,5.8251347247362135,-7.13224900419414,-3.371827380138636,-2.865630865097046,-1.6794310808181765,1.5118709802627563,0.500724207014872,-0.3032106572193827,-0.7615632918485978,0.2781365407322982,1.012945532798767,0.4631942808628082,2.7415647506713867,-0.0348915159702301,-0.1114000082015991,-0.1019492894411087,-0.28550985455513,0.0080279894173145,-0.3416290791243314,0.6056052446365356,0.9549693592771888,0.5173733301736414,196
1734085056602012400,4.924620301485061,-3.787746853354573,4.727869064372777,5.237119732236862,-7.007708432289958,-4.431137111595273,-2.643628597259521,-0.8439326286315918,1.302215576171875,0.4560720881323367,-0.3441225404406084,-0.7794259434579658,0.2570468760948261,-0.3528968095779419,0.6360445022583008,2.652632474899292,0.0105904936790466,-0.1040605306625366,0.2415915876626968,-0.2446618676185608,-0.0274071432650089,-0.1921194856584072,0.6842549443244934,0.8873379846833646,0.5751166402205824,197
1734085056642012400,4.689083114382624,-2.4102730895131823,5.969344458228349,4.809464228519797,-6.779722098958492,-5.203350733625888,-2.3535916805267334,0.0341432280838489,1.2462009191513062,0.425247923227966,-0.3838153219354144,-0.7861188635369992,0.232093334341631,-0.7887758612632751,0.4719242453575134,2.6585676670074463,0.0960711240768432,-0.091244637966156,0.1973871141672134,-0.2204521149396896,-0.0303621850907802,0.4866431147366762,0.6385979056358337,0.8114768341436982,0.1432416191123426,198
1734085056682012400,4.278642072577775,-1.95642983609438,6.983895010504126,4.57720971634984,-6.552263004371524,-5.682197495397925,-1.843832731246948,0.7946330308914185,1.3044811487197876,0.4099531670051579,-0.4232178801643229,-0.7814077489139414,0.2054918530027654,-0.6238902807235718,0.4897489845752716,2.885786533355713,0.1733171939849853,0.0042720437049865,0.0757773518562316,-0.1990414261817932,-0.0805798918008804,0.9073100747406482,0.4810633063316345,0.751435037896037,-0.0922179727092385,199
1734085056722012200,4.574570600017905,-1.0818237610816954,7.274443890732527,4.431967132678627,-6.456469803524017,-5.902715977066755,-1.0440343618392944,0.7884571552276611,1.3099225759506226,0.405371067952858,-0.4588831021914061,-0.7683625843622248,0.1863318278723281,-0.9022185802459716,0.7552506327629089,3.2533628940582275,0.2735865116119385,-0.0288636684417724,0.0963268354535102,-0.098885178565979,-0.0651718750596046,1.094189906179905,0.3279876112937927,0.4867249112686142,-0.1040340827092528,200
1734085056762012400,5.559722039330006,-0.7952052060395479,6.964875837257504,4.264884765382111,-6.500676024997234,-5.976819324153661,-0.3327715694904327,0.3459566235542297,0.9937421679496764,0.4034960693504798,-0.4842592322814312,-0.755133092628764,0.180160999677761,-1.4172117710113523,0.8852407336235046,3.250531911849976,0.4151788353919983,-0.0073854327201843,0.0987635254859924,-0.0468153282999992,-0.2841581702232361,1.3716612781703472,0.2665826082229614,0.2320119721183553,0.0982455624356865,201
1734085056802012400,6.7209039992868895,-1.6204764645189045,6.170128311857581,4.096698820757866,-6.611088702827692,-5.973355447435378,0.1231513991951942,-0.0572626814246177,0.484186977148056,0.4019924227961458,-0.4966817640267508,-0.7469026665171106,0.1839723300345785,-1.553989052772522,0.8388348817825317,2.6726741790771484,0.5024088025093079,0.0891730189323425,0.1770083904266357,-0.0925134420394897,-0.3574665784835815,0.2362543954610824,0.3461397290229797,-0.3141059526329859,0.1398619135461747,202
1734085056842012400,6.771617702957988,-1.387063429963589,6.600501257839799,4.108082969081401,-6.666282182261347,-5.90378799021244,0.3431907892227173,0.2464759200811386,-0.5093491077423096,0.4050482338711444,-0.4951293751712773,-0.7455577247180462,0.1868863138831034,-1.3587160110473633,0.4333087205886841,1.7364073991775513,0.3238833546638489,0.1340838968753814,0.1614241600036621,-0.1018997132778167,0.0261017978191375,-0.6654243953943252,0.3977359235286712,-1.0814147418893874,0.0711713852882385,203
1734085056882012400,4.2434789892598985,-1.4550000711143016,7.196202713188528,4.4251776186689735,-6.686782533976436,-5.645808085155487,1.3445814847946167,0.2623430490493774,-1.2226048707962036,0.420674092871389,-0.4765830747065809,-0.748815518504187,0.1875560229875361,-1.3385465145111084,0.36190265417099,1.2223153114318848,0.027903139591217,-0.0764203369617462,0.0872687026858329,0.0565032958984375,0.2408891767263412,-0.6526502540171146,0.3276959657669067,-0.9252003900878132,0.1227481355294585,204
1734085056922012400,2.601120363278687,-2.7376632154047487,5.539259681537747,4.796513561531901,-6.854555513885617,-5.116532866394519,2.6756837368011475,-0.5078834295272827,-1.6628049612045288,0.4433282941273485,-0.4368658515900955,-0.7549958981593212,0.2063720764717806,-2.279756546020508,-0.129535511136055,0.9644485712051392,0.018921673297882,-0.2011853158473968,0.1115089580416679,0.2754074335098266,0.0546184629201889,-0.0592307721257209,0.0762879252433776,-0.3827878226604312,-0.1001585564501583,205
1734085056962012400,1.9320663792103527,-3.7915561825096606,3.360160323220492,5.134868733552098,-7.090090362900495,-4.419743610921502,3.465960741043091,-1.2064987421035769,-1.9533166885375977,0.463537012833181,-0.3770158396484407,-0.7636774622941634,0.2445184101150949,-3.8328118324279785,-0.9008492827415466,0.8279910683631897,0.1123666167259216,-0.2177809625864029,0.3093099594116211,0.4380316734313965,-0.141009509563446,-0.4057388554632663,-0.1715796142816543,-0.2598031201624311,-0.2490937110289931,206
1734085057002012400,1.853620034483075,-4.027203259727359,1.8836849178791044,5.544762370607256,-7.204895138210058,-3.676343118660152,3.533757448196411,-1.235777735710144,-2.3708128929138184,0.4796493713151194,-0.3039419855026098,-0.771401713031656,0.2872197695178167,-3.724257230758667,-1.090581297874451,1.055039405822754,0.0660609006881713,-0.0730905979871749,0.1986147165298462,0.4978283047676086,-0.285634696483612,-0.468030768725276,-0.3076234757900238,-0.2208575043648481,-0.1235870705716311,207
1734085057042012400,0.3946387847781181,-4.421066968479752,0.6962354209825397,6.136444068920612,-7.069605208754539,-2.921496811015904,3.409444808959961,-0.9010874032974244,-2.6344008445739746,0.4975305926435912,-0.2241173081520532,-0.7737740712642925,0.3217274326355899,-2.6011106967926025,-0.655302882194519,1.597548007965088,0.0391339659690856,0.0773627012968063,0.0335220173001289,0.5010552406311035,-0.3525999784469604,-0.7786164748102427,-0.2042900621891021,-0.2694201309492811,0.2612356919825077,208
1734085057082012400,-1.487670753094554,-4.27854650324881,-0.5648997821107506,6.942860404804349,-6.623900253605842,-2.0226342466250062,3.058485269546509,-0.4706953167915344,-2.5092649459838867,0.5208825090886605,-0.1272029291566458,-0.7661233962585036,0.354338656052573,-1.7016032934188845,-0.1652575582265854,1.976442575454712,0.0393131375312805,0.2591138482093811,-0.0565075911581516,0.4352856278419494,-0.3809619843959808,-0.9156652306318284,-0.0129997581243515,-0.3056938241238706,0.3794565593458712,209
1734085057122012400,-2.3319646919518706,-4.097223721414804,-1.6916941731669008,7.536810632571577,-6.120780635842681,-1.3794688831813633,2.646810293197632,-0.220884084701538,-2.34561538696289,0.539051484481412,-0.0579762885562123,-0.752975489384528,0.3729480577491219,-1.1253005266189575,-0.0654541105031967,1.921451449394226,0.0261859893798828,0.381356418132782,-0.0298635996878147,0.3053768277168274,-0.3606931567192077,-1.0244225424706934,0.1885143667459488,-0.3636402007285505,0.3832144505746662,210
1734085057162012400,-3.3837311684221025,-4.068769780346751,-2.811155152595043,8.042247879627347,-5.535270319640636,-0.9237999487053602,1.944650411605835,-0.2117192447185516,-2.0290770530700684,0.5532188810533736,0.0022104561012782,-0.7396592491249904,0.3832076852334504,-0.8489729166030884,-0.1333482563495636,1.4914541244506836,-0.0285302400588989,0.5876991748809814,-0.025140406563878,0.1511824429035186,-0.184773102402687,-0.7816361148923635,0.3529099225997925,-0.4691979128085076,0.2849929996669292,211
1734085057202012400,-4.40855703099668,-4.471454508936405,-3.219173643428087,8.433359074801206,-4.9754661071032285,-0.5418176337415352,1.348320245742798,0.3725949823856354,-1.7232216596603394,0.5686445995402905,0.0460070823669503,-0.7249195539131911,0.3860288350078343,-0.8880007266998291,-0.1379292011260986,0.965449333190918,-0.0447801351547241,0.6558274030685425,-0.0633875131607055,0.0323383137583732,-0.0336413532495498,0.4134066136121749,0.4376647174358368,-0.4208719079915434,0.1360122523806989,212
1734085057242012200,-6.308409824344516,-4.335215315932035,-4.523298093420267,8.695278657394647,-4.524377997611463,-0.3041608058703132,1.6815563440322876,-0.7960529923439026,-0.9408749938011168,0.5755575763216132,0.0841509231114017,-0.7130403263969126,0.3914403866356907,-0.6181186437606812,-0.1109978333115577,0.4092288911342621,0.0011330842971801,0.7426365613937378,-0.0326104164123535,-0.0881804227828979,0.1034253984689712,0.7841466364085674,0.4376906156539917,-0.5401880963109433,-0.0934806861214339,213
1734085057282012400,-6.416892995417117,-5.126680166399479,-5.710137057203054,8.780567999884486,-4.344182466241717,-0.4473006999075412,0.9271997213363647,-1.2341405153274536,-0.1695078462362289,0.5614041806930029,0.117046505991748,-0.7135167167996638,0.4025162403594106,-0.1083555147051811,-0.0068802218884229,-0.2186425477266311,0.0100191831588745,0.8151717185974121,-0.0196760892868042,-0.1628928184509277,0.3948260545730591,1.746035273554921,0.4646874368190765,-0.4058445808600634,-0.2074689574163407,214
1734085057322012400,-6.022623043951392,-5.854307043206691,-4.17537546710968,8.722834772840141,-4.441209300537407,-0.5985132978990674,0.4394824802875519,0.0803247168660163,0.5689792633056641,0.5475748978537898,0.1260707550396785,-0.717371486424771,0.4118812018763547,0.6921653747558594,0.2277072519063949,-0.8204889893531799,0.0998317003250122,0.8659330010414124,-0.0346702337265014,-0.251509428024292,0.2322085499763488,1.336215870779753,0.5165084600448608,-0.1056809366008266,0.0136550158649683,215
1734085057362012400,-7.325323014098405,-3.788211840517819,-4.760999765080213,8.561179983550309,-4.7692634432956575,-0.3615449454823509,0.3619424998760223,0.4016459882259369,1.378455400466919,0.5456860394263789,0.1130481236998534,-0.7110933716730444,0.4287109856121299,1.265183687210083,0.1382890045642852,-1.7634408473968506,0.2187119126319885,0.7863197326660156,0.0140993613749742,-0.2754358947277069,0.1304214596748352,0.3155751849353313,0.5666230320930481,0.6645247431408614,-0.1024370227761566,216
1734085057402012400,-5.322561634939909,-2.1035820527791977,-5.541093326705694,8.195453405001759,-5.370815670499205,-0.3990704105500132,0.0623206086456775,-0.8951302170753479,2.076122999191284,0.5254966900645125,0.0929846039659498,-0.7153326437079769,0.4511166760793288,1.785441279411316,0.1749307960271835,-2.553661584854126,0.1141049861907959,0.5791246891021729,0.0118721723556518,-0.2910197675228119,-0.1344384253025055,0.0836462514579296,0.4190924167633056,0.839465203526616,-0.4370576479105278,217
1734085057442012400,-2.8700124152332545,-2.695665902152657,-5.1715480666518205,7.672332032695412,-6.051699500831961,-0.8262259288556874,-0.8878433704376221,-1.0041075944900513,2.275479793548584,0.4905460488511207,0.0676305916961822,-0.7331793119270824,0.4660888628632497,2.75139594078064,0.1915926039218902,-2.874418258666992,0.2898991107940674,0.4422905147075653,0.0935723781585693,-0.3269590139389038,-0.061609648168087,-0.3785270234107971,0.1817204058170318,0.2977915083004162,-0.7280071082964539,218
1734085057482012200,-1.61765030118227,-3.6877848423898216,-3.974447236573696,7.050991693699359,-6.676414869219064,-1.3709075371935964,-2.1022682189941406,-0.0269991401582956,2.446443796157837,0.4617949251218974,0.023744379299133,-0.7545416056069337,0.4656700883030313,3.5050950050354004,0.1017897427082061,-2.8971636295318604,0.4580489993095398,0.2291882485151291,0.1835497617721557,-0.4084662199020386,0.0568495318293571,-0.5955956568866968,-0.0536407828330993,0.3284610065260901,-0.730206810297817,219
1734085057522012400,-1.2568781301707028,-3.29591318423748,-1.767039921530336,6.352037953668832,-7.20685036393106,-1.9706077067896723,-2.846637964248657,0.7154709696769714,2.828847169876098,0.4435462534345623,-0.042889315559193,-0.7737141181963821,0.450326163062585,3.8805088996887207,-0.0847362950444221,-2.730901002883911,0.411170482635498,0.0398652553558349,0.2288297414779663,-0.4667075872421264,0.1179152280092239,-0.9149871852397918,-0.2572396993637085,0.441510097274743,-0.5113791677927598,220
1734085057562012400,0.2142985842406749,-2.4277374345332383,-0.0732721569597721,5.524303519946336,-7.653497568365931,-2.6601573663979767,-2.8229010105133057,0.5525929927825928,3.0966241359710693,0.4232170965599199,-0.1205273583299696,-0.7881011579673056,0.4304149782140972,3.247144937515259,-0.3053003251552582,-2.5603716373443604,0.2715654969215393,-0.1492495834827423,0.319750428199768,-0.5263587236404419,0.1972607672214508,-1.083378004786372,-0.3063746988773346,0.4858701210701838,-0.1021353364158421,221
1734085057602012400,2.202083051280677,-1.9727444265574217,0.8732304027453064,4.629920731317997,-7.934311821043491,-3.4323321177229285,-2.583102464675904,0.1136366352438926,2.8336050510406494,0.3949104535116556,-0.1929217716819689,-0.7986121906631126,0.4111513521389596,2.429052829742432,-0.4848176538944244,-2.1990771293640137,0.1831471920013427,-0.2853409945964813,0.3740333318710327,-0.5199655890464783,0.2068045884370803,-1.0722902090609072,-0.1771925538778305,0.7402313607059419,0.3641440220648422,222
1734085057642012400,3.520276650896668,-1.8367542398780583,1.7059212898313998,3.797899998578429,-7.993837776723503,-4.22432186884731,-2.383392572402954,-0.0960699245333671,2.3677423000335693,0.3626595569713117,-0.2531222305723129,-0.8070375567591258,0.3912768419618755,1.6827329397201538,-0.5960564613342285,-1.71844482421875,0.1160585880279541,-0.3733062148094177,0.4133915901184082,-0.4589275121688843,0.194154754281044,-0.9820844529569148,-0.0171833783388137,0.7932475691657513,0.5107519758051261,223
1734085057682012400,4.11397904138267,-1.983034934425354,2.650014742568135,3.0738629629567265,-7.882122199600935,-4.959221659266948,-2.1074047088623047,-0.1643264591693878,2.098759889602661,0.3311855442320324,-0.303411776491327,-0.8128906686132834,0.3707642640758179,1.271848201751709,-0.5926128625869751,-1.248630166053772,0.0452977418899536,-0.4157283902168274,0.4275076389312744,-0.4019525051116943,0.1430975198745727,-0.6920674876481294,0.0882394984364509,0.901399608587846,0.3391531174648552,224
1734085057722012200,4.932501410123706,-1.6406465613663197,3.5927953591406343,2.4129098677575587,-7.696891304412484,-5.577291598290205,-1.7711738348007202,-0.0631118863821029,1.9599268436431885,0.3017010642306056,-0.3476613832120843,-0.8145515833403473,0.3530070360350352,0.8146441578865051,-0.4414728581905365,-0.7782543301582336,0.0200997591018676,-0.4934406876564026,0.4781137704849243,-0.348581314086914,0.1185644268989563,0.4823486324131488,0.1506847143173217,1.0108479714307934,0.1287737524945288,225
1734085057762012400,6.044850657850503,-1.927925626143813,4.198280541878939,1.860204527439922,-7.486224354672432,-6.05528262001574,-1.3737581968307495,0.1542545109987259,1.7598392963409424,0.2779971399381724,-0.3873564017641364,-0.811596269761908,0.3376151940108232,0.5115751028060913,-0.0818494856357574,-0.0450505204498767,0.0367354154586792,-0.5285449028015137,0.4731100797653198,-0.3011811375617981,0.0107592418789863,1.2145990773677826,0.1404497921466827,1.0919349668599665,-0.0663341013249009,226
1734085057802012400,7.082852812862396,-1.6089987926930187,4.719537289357185,1.4599581319130956,-7.32331868853867,-6.356721727570891,-0.7871488332748413,0.442432701587677,1.419090986251831,0.2634021666005501,-0.4210212200169882,-0.8042659717587627,0.3263689394484989,-0.0563714131712913,0.3805271685123443,0.4970943033695221,0.1329514980316162,-0.5028337240219116,0.4578650891780853,-0.2173800766468048,-0.0125745590776205,1.3497113121688364,0.1700233221054077,0.9209781692828982,-0.0701237759314477,227
1734085057842012400,8.011872615107894,-2.142762555044889,4.266809303703904,1.2756846835799514,-7.255377371212839,-6.473216940185427,-0.2650061845779419,0.6617300510406494,0.845757782459259,0.2608511030996372,-0.4455832966624912,-0.7946683200635845,0.3192406196123812,-0.5988594889640808,0.9605244398117064,1.0602099895477295,0.1503486037254333,-0.5123376250267029,0.3931686282157898,-0.1855214387178421,-0.1354625970125198,2.308202708092332,0.1867149174213409,0.4483748319450765,-0.1504744199100881,228
1734085057882012400,8.322164891204238,-2.405210545426607,3.881252820047736,1.3176391806036234,-7.2724524246543645,-6.445593020200729,0.1803958415985107,0.7013227343559265,0.0823528245091438,0.2685508065676792,-0.457570488529275,-0.7869326796737675,0.3150345296275995,-0.7448680996894836,1.321358561515808,1.6124368906021118,0.3687676191329956,-0.4058451056480407,0.351259171962738,-0.1931757926940918,-0.004626527428627,0.2488403207898139,0.2879425287246704,-0.4507495251871645,-0.0975230203147977,229
1734085057922012400,7.272927640950679,-0.3364519687473774,4.63759725729525,1.6462215850196775,-7.316913497671485,-6.318477044850588,0.3614931106567383,0.9070922136306764,-0.9535002112388612,0.2861838041279369,-0.4541233313322568,-0.7848086844758023,0.3097519586611227,-0.9447383284568788,1.271409511566162,1.6362676620483398,0.2590014338493347,-0.335737019777298,0.1879166513681411,-0.1968225985765457,0.3003345727920532,-0.6164233408600092,0.24934983253479,-0.9963496366094796,-0.407094179062359,230
1734085057962012400,5.933903142490983,-1.2332324661672114,4.904729606100917,2.3163661408036944,-7.3604562867999075,-6.052151920774579,1.0662721395492554,0.8570333123207092,-2.002470016479492,0.3159712766886434,-0.4327281244437772,-0.7882386885449502,0.3026356933504501,-1.576115369796753,1.1907753944396973,1.4684985876083374,0.0797926187515258,-0.3519824147224426,0.1390405893325805,-0.1066327393054962,0.2714446485042572,-0.3267939135640859,0.0922564715147018,-0.7061465741440653,-0.2715363193856552,231
1734085058002012400,4.599942064900696,-3.127109692236781,3.7702000907480713,3.2099428737461566,-7.467231484910846,-5.486991734161973,2.32281231880188,0.238860011100769,-3.0333642959594727,0.3546926650177916,-0.3847878966567905,-0.7947936816586372,0.3073016422441219,-2.5762288570404053,0.8104512095451355,1.2445777654647827,0.2386106252670288,-0.384604811668396,0.2113544940948486,0.0432100743055343,0.0034484565258026,0.1632557947456836,-0.062329426407814,-0.2884029907735064,-0.304544745420292,232
1734085058042012400,2.1134256936624647,-4.429894418057799,1.919897217988968,4.19798915771693,-7.549343950930237,-4.642703348262608,3.3027384281158447,-0.4780072569847107,-3.551930904388428,0.3940759755115023,-0.3089622437408301,-0.8007835703972251,0.3286216465030653,-2.927278518676758,0.4315794706344604,1.3206071853637695,0.3233027458190918,-0.2252228260040283,0.099284291267395,0.1683407127857208,-0.1559545695781707,-0.4938035078853368,-0.2340443134307861,-0.256826734700147,-0.3657937985658645,233
1734085058082012400,-0.3872060044288635,-4.040827880454064,0.2084364142090082,5.144934200492501,-7.463461903244257,-3.741231770417094,3.436983585357666,-0.763137936592102,-3.4279918670654297,0.4253566068568459,-0.2195412011229144,-0.8015930324579371,0.3582208823706146,-2.54510760307312,0.145753413438797,1.5637820959091189,0.1955353617668151,-0.0430860519409179,-0.1259007453918457,0.234541967511177,-0.2633668482303619,-0.788224261111021,-0.2996546328067779,-0.2034528901753947,-0.1552269664657302,234
1734085058122012400,-2.0955062983512875,-3.586941956937313,-0.9118822049617766,5.994014204582571,-7.185319500124454,-2.934852259412408,2.9594688415527344,-0.403689444065094,-2.884059429168701,0.450587899558634,-0.1363345161225677,-0.7943857554219333,0.383842057428269,-3.07729721069336,-0.3692730069160461,1.6569108963012695,0.1328435540199279,-0.0194343775510787,-0.1222066730260849,0.1658839881420135,-0.2312659174203872,-1.1045195770144465,-0.1915262639522552,-0.3177142427906393,-0.0677728654237464,235
1734085058162012400,-2.806742012327909,-3.126735013705492,-2.350687220339477,6.688341453856229,-6.8117451306849714,-2.244234386050701,2.224219560623169,-0.0457598529756069,-2.2588095664978027,0.4731477216846201,-0.0705318830264653,-0.7806723763700092,0.4021281611337418,-3.026295185089112,-0.6255826950073242,1.983622908592224,0.0751698613166809,0.214076280593872,0.0764253139495849,0.0120460391044616,-0.1132762357592582,-1.3787807547867297,-0.0326564759016037,-0.4994798730213194,-0.0066140843775123,236
