time_imu,phone_acc_x,phone_acc_y,phone_acc_z,phone_gravity_x,phone_gravity_y,phone_gravity_z,phone_gyro_x,phone_gyro_y,phone_gyro_z,phone_ori_w,phone_ori_x,phone_ori_y,phone_ori_z,watch_gyro_x,watch_gyro_y,watch_gyro_z,watch_acc_x,watch_acc_y,watch_acc_z,headphone_gyro_x,headphone_gyro_y,headphone_gyro_z,headphone_acc_x,headphone_acc_y,headphone_acc_z,frame_imu
1734064785157910300,0.1474821701583918,13.202736207604408,-5.6109892852306364,-0.015501772817882,9.66039502441585,-1.6872857090748845,-1.3351929187774658,-0.7510406374931335,0.4255366027355194,-0.2330217385236966,-0.278393520284651,0.7131091631730624,0.5997277064145599,-0.0115145249292254,0.1704575270414352,0.1910741478204727,-0.2163536548614502,0.1336277723312378,-0.1505079269409179,0.1547413766384124,0.0753581523895263,0.5776081647753715,-0.1880664229393005,0.1625813295502215,-0.1458811738356948,0
1734064785197910300,0.7912289958849549,6.04224544378817,-5.952267066699266,0.1103376398328691,9.769810507902502,-0.8420279666867106,-2.8219568729400635,-0.5690597891807556,0.4236047267913818,-0.2395199651448319,-0.2532518745594094,0.6919501191157376,0.6322172922047511,0.3524051010608673,1.056151032447815,-0.1582299917936325,-0.6016955971717834,0.3752422332763672,-0.4693515300750732,0.1102800071239471,0.0348543412983417,0.4634580539822578,-0.1737881302833557,0.1811846885375678,0.2045512433387339,1
1734064785237910300,0.9403411144658924,-4.116692976516485,-3.590944178315997,0.2628948756326921,9.797386497092246,0.3354282517228275,-2.945927858352661,0.2747591137886047,0.3294986486434936,-0.2576210998895016,-0.2314628198746776,0.6552273512654005,0.6713669293809672,1.2695956230163574,1.646942973136902,-0.7741233110427856,-1.16820228099823,0.6828219294548035,-0.9012205600738524,0.0640747547149658,-0.0088509805500507,0.0952355669647455,0.0226536691188812,0.2019928640928119,0.4762624443672597,2
1734064785277910300,0.636364305126667,-11.484628805416822,-1.5777004219792783,0.3072502415193244,9.713519296360015,1.3128415710635482,-1.9975095987319944,0.3552152812480926,-0.0364068038761615,-0.2752782867537067,-0.2211064160693918,0.6198190537477768,0.700826903704224,2.360290288925171,1.134562373161316,-1.2279777526855469,-0.6633856892585754,0.6553374528884888,-0.2946484684944153,0.0327719934284687,0.0042989235371351,-0.5406996990948915,0.2213363498449325,0.0104258977506309,0.2709691504895687,3
1734064785317910300,0.4682087556406855,-14.778719450402258,-0.6846401141263544,0.2449640638783574,9.60694342021346,1.9537164854824545,-1.3122026920318604,0.1639553904533386,-0.1898401975631714,-0.283359262987526,-0.2164631592720257,0.5945854675112163,0.7206381390704638,2.8102827072143555,0.3796217441558838,-1.5009745359420776,0.1075559258460998,0.502048134803772,0.4597721695899963,0.0145421549677848,0.0596525073051452,-0.7986533006668091,0.331102192401886,-0.1317760030504316,0.0207610484778881,4
1734064785357910300,0.3880752615440637,-14.584535433429478,1.048434993959963,0.1503208185172639,9.542796818995477,2.254515687698871,-0.172111302614212,0.0076267793774604,-0.2884014248847961,-0.2841690724105382,-0.2157253680033987,0.5818197817481069,0.730887426263395,1.7502962350845337,0.1956211030483245,-1.3187106847763062,0.793690025806427,-0.1056809723377227,0.9579586386680604,0.008256334811449,0.1176590472459793,-0.6925602396011352,0.3923428058624267,-0.1615465796750038,0.028792817633599,5
1734064785397910000,-0.6442720095112919,-11.48315931738615,1.1824322532564402,0.0325532775621046,9.570191606399415,2.140270884359628,0.7315806150436401,0.2541690170764923,-0.2235235273838043,-0.2802050920806046,-0.2224760335927374,0.5842781596082897,0.7284288455798724,0.8110043406486511,0.1399328559637069,-0.8179287910461426,1.10827374458313,-0.3942608833312988,0.9282028079032898,-0.0169391948729753,0.0863899365067482,-0.4333972622394561,0.460211843252182,-0.1917900710409507,0.2842928885735571,6
1734064785437910300,-1.36311922140494,-5.268944611042738,1.013666170656681,-0.0259667136624688,9.661257194203138,1.6822050448097288,1.588320255279541,0.6126721501350403,0.0399903990328311,-0.27865161003767,-0.2359360203950628,0.5988034773661156,0.7128266668911655,-0.5574817061424255,0.246732011437416,-0.2491286695003509,1.1093814373016355,-0.4834383726119995,0.9251025915145874,-0.0514940917491912,0.1348060965538025,-0.042613399323821,0.6753716468811035,-0.1556797334682196,0.7304513596434146,7
1734064785477910300,0.6351091174338013,2.4659622435092925,0.9525685817457736,-0.0712748091300949,9.760478615933655,0.947829059068486,2.16456151008606,0.1148447021842002,-0.2304813712835312,-0.2737592940660716,-0.2530164562367037,0.6226209453076895,0.68802747825755,-1.2462180852890017,0.1777409613132476,0.4353109300136566,0.8829658627510071,-0.4289366006851196,0.7864927649497986,-0.0690827518701553,-0.0507681816816329,0.2835463079899549,0.8155637979507446,0.17939714753367,0.617238748896122,8
1734064785517910300,-0.7081015806693584,6.444809760868549,0.2252425875812768,-0.1354053359961137,9.805383925586938,0.0804668999026063,2.056154727935791,0.1591750979423523,-0.0577337257564067,-0.26008787452933,-0.2669855550084719,0.6516256925658794,0.660648820481885,-1.6624088287353516,-0.2434765845537185,0.9191468358039856,0.4663269519805908,-0.1881430447101593,0.5625987648963928,-0.033682107925415,-0.0557688139379024,0.3468091121107339,0.8153412938117981,0.066773588720709,0.2709930428218096,9
1734064785557910300,0.1601696652986109,6.479050468644499,0.011098974706605,-0.136826034715306,9.786406837916374,-0.6147367029473185,1.6365084648132324,0.3617087006568908,0.053960733115673,-0.2549341223682398,-0.2808796240173153,0.6726436538892406,0.6353469268613972,-2.402132749557495,-0.9398958683013916,1.143357515335083,-0.1416326165199279,-0.0064473748207092,0.0353341102600097,0.008306436240673,-0.0535091757774353,0.4127221384793519,0.621181845664978,0.0404779216650873,-0.0843175017829984,10
1734064785597910300,-0.2125426439514383,5.590083859845995,-1.8334968455173075,-0.0792508843095041,9.739092713555692,-1.146387053341791,0.9598816633224488,0.0046876287087798,0.2197242975234985,-0.2512708416959124,-0.2882014942818846,0.6894848611222977,0.6151533411944001,-1.8867807388305664,-1.3145815134048462,0.936453640460968,-0.4858888983726501,0.320417582988739,-0.3838893175125122,0.0378141887485981,-0.0349404737353324,0.2499398064643144,0.353259265422821,0.0362422568567097,-0.2135044381882995,11
1734064785637910000,0.2818660632854327,3.3793659589499234,-1.087353484288603,0.0241426012245588,9.711381699809433,-1.3634114823497832,0.2788279950618744,-0.0053805503994226,0.2922786176204681,-0.2507610975052087,-0.2866907447372732,0.6980852803760904,0.606303845566198,-1.327323317527771,-1.2288649082183838,0.6745813488960266,-0.6095209121704102,0.3862355351448059,-0.4788238406181335,0.0399718135595321,-0.0309275891631841,0.0348585474133491,0.1391793340444564,0.0458996544528752,-0.0906393252156674,12
1734064785677910300,0.5685918415617197,1.5706044723689556,-0.755281630321592,0.1035803749918471,9.705635849633811,-1.4000976835817098,-0.0522846765816211,0.0699524283409118,0.0656158626079559,-0.2530720930719894,-0.2847403398608872,0.7002200054464431,0.6037957711722604,-0.660697877407074,-0.7888441681861877,0.4288598597049713,-0.520473301410675,0.2788876295089721,-0.4843563139438629,0.0391431860625743,-0.0290282312780618,-0.0135877958476543,0.0355784371495246,0.1351210026293993,0.0484019195973873,13
1734064785717910300,0.4225559155557304,0.186176067084074,0.1274095514692366,0.0983325648657046,9.70741279617846,-1.3881066554062067,0.0319717451930046,0.1409706175327301,-0.1048989966511726,-0.2543783788469369,-0.2862713246607352,0.6991584004069445,0.6037531539054908,-0.3151247501373291,-0.4066313803195953,0.3625171482563019,-0.3181720972061157,0.1974570155143737,-0.3558844923973083,0.0433634035289287,-0.020305985584855,-0.0755231507569551,0.0022726021707057,0.0835508282594382,0.1343536349860951,14
1734064785757910300,0.3419340899528935,-0.61810033416152,-0.0945088601253926,0.0550545230541145,9.704693600347635,-1.4093486192688345,0.0677539855241775,0.0877059549093246,-0.1361970603466034,-0.2541420477490539,-0.2897568514582117,0.698496776351331,0.6029552047687979,0.1082712635397911,-0.0466773398220539,0.2587540447711944,-0.172058880329132,0.0699344277381897,-0.0917327105998992,0.058155994862318,0.0018987730145454,-0.092873514008522,-0.0054052309133112,0.0297949804134666,0.0890792362920939,15
1734064785797910300,0.3678451416051015,-0.4246078065842389,0.1183108837343752,0.0126834811188047,9.698546768155694,-1.4520302615232763,0.1488913893699646,0.0453491657972335,-0.0844622030854225,-0.253041118481195,-0.292832141937173,0.6987719760664072,0.6016121169676857,0.0381089523434639,-0.0632728785276413,0.067240685224533,-0.0423916578292846,0.0117257833480834,0.0521764457225799,0.0623292252421379,0.0293746087700128,-0.0746545512288808,-0.0257006678730249,-0.0392431191731244,-0.0332055925745517,16
1734064785837910300,0.1975719241117127,1.193855564546585,0.1094118302248418,0.0042889864477911,9.68794178751111,-1.521242475567758,0.2101329565048217,0.0532753318548202,0.0001713212404865,-0.2522753851921638,-0.2946698096878122,0.7005222955240235,0.5989953795245478,-0.1169770359992981,-0.1903878450393676,0.0055674663744866,0.046608567237854,-0.0449779033660888,0.0526588857173919,0.081531636416912,0.0482937023043632,0.059116790357232,-0.0998121351003646,-0.1166563945256173,-0.1780720364097505,17
1734064785877910000,-0.5832575688391923,5.505096130651236,-0.5258988741956651,0.0146346814019489,9.676984924688934,-1.5893778541609644,0.0942096412181854,-0.0772130414843559,0.1101194098591804,-0.2517178729497598,-0.2953709281475806,0.7027031597518688,0.5963240346138066,-0.1474971175193786,-0.2487085163593292,0.0554360225796699,0.0665134191513061,0.002729594707489,0.0133468806743621,0.1166855692863464,0.0103646852076053,-0.0108528179258108,-0.26563161611557,-0.1639405256068334,-0.2901854537434876,18
1734064785917910300,0.6223591606497765,13.23490361623764,-1.978719993835688,0.0715101933551253,9.682993225193025,-1.5507827505677938,-0.3902750015258789,-0.3664352595806122,0.1014444231986999,-0.2514657528546025,-0.2897541856502746,0.7036408361331172,0.5980778739839651,0.0641197860240936,-0.1006063446402549,0.083439290523529,-0.0153236389160156,0.074007511138916,-0.0490534603595733,0.0952477157115936,0.1154515892267227,0.3835381295710802,-0.3836007416248321,-0.2403061916025355,-0.1323985188629478,19
1734064785957910300,-0.1467315801199525,13.055467086541652,-6.057184069722891,0.0473721290250774,9.744666714295745,-1.0998323690462857,-2.1901588439941406,-0.6984419822692871,0.1560965031385421,-0.2494269365993406,-0.2757969861873173,0.6928288884845307,0.6178272038318985,0.5728549361228943,0.3964872658252716,-0.0194782316684722,-0.2637187242507934,0.1993463635444641,-0.231825977563858,0.014625571668148,0.1121112257242202,0.7020780095309018,-0.4104745090007782,-0.0727413014860823,0.0766521547868847,20
1734064785997910300,0.3912699293995276,3.196953043791652,-5.231879493495821,0.1680752873240038,9.805058346894382,0.0545683515389449,-3.433648109436035,-0.1390478312969207,0.4105062782764435,-0.2639180667411978,-0.251197874655949,0.6588758731078006,0.6581257604835135,1.1426366567611694,1.353819489479065,-0.4045613408088684,-0.7477802634239197,0.4557526111602783,-0.571906328201294,-0.0678592026233673,-0.0057037845253944,0.664881959080696,-0.2806288003921509,0.0821465144194662,0.5552428229060024,21
1734064786037910300,0.8385651859469712,-7.299211252242326,-2.6429917120635507,0.2756363568493165,9.714362176924944,1.3136108018703758,-2.7575788497924805,0.0951999500393867,0.0849222838878631,-0.2835026547455531,-0.2303698053522057,0.6164042822204452,0.6975684478928182,2.2992730140686035,1.6939454078674316,-0.923186719417572,-1.2056323289871216,0.7060509324073792,-0.9192857146263124,-0.0267824381589889,-0.1563348174095153,0.0156511581182479,-0.0332861095666885,0.1146909396715462,0.6389266298953443,22
1734064786077910300,0.989448113592714,-14.63962545248866,-2.026774707430601,0.2191746658444404,9.558830254429578,2.1797047768644986,-1.7893999814987185,0.3234682083129883,-0.2893409430980682,-0.2947693644973054,-0.2218320222754862,0.5828006014710794,0.7240476970327216,3.296489715576172,0.7446614503860474,-1.5029205083847046,-0.5856980085372925,0.7257052659988403,-0.2820770740509033,0.0834757089614868,-0.1709920912981033,-0.881957606819272,0.0691485181450843,-0.1515997706782072,0.1639505720768123,23
1734064786117910300,0.4116234199898317,-16.519622037243842,-0.3205494662165641,0.0497093443675665,9.438919680413605,2.659834418053925,-0.7406575083732605,0.2284798622131347,-0.4021105170249939,-0.2981332417663782,-0.2227813138041337,0.5610300147142094,0.7394122196942764,2.51066517829895,0.1037636697292327,-1.507292628288269,0.2969868779182434,0.3085194230079651,0.7035466432571411,0.1647642850875854,-0.0699817761778831,-0.9884253464162348,0.0190136767923831,-0.2914819963600486,-0.2340539628073573,24
1734064786157910300,-0.2559732779422775,-15.12909473056197,0.4608694987937807,-0.089390302402107,9.411291668775675,2.7549916590854524,0.2188980728387832,0.0365456938743591,-0.2619291543960571,-0.295550779400215,-0.2267216196224721,0.5550962242295614,0.7437171583598463,1.417571783065796,0.0699369385838508,-1.1534135341644287,1.0093823671340942,-0.141922116279602,1.1154143810272217,0.1546067297458648,0.0352933332324028,-0.6787374659538269,-0.0082091372460126,-0.3087834059033543,-0.2254217435404658,25
1734064786197910300,-1.3436241012096404,-10.400276402640342,1.6716460952639578,-0.1537994361469522,9.48838426080644,2.4733155288815496,1.3849974870681765,0.3022305965423584,0.0747880041599273,-0.291994903569206,-0.2348269815208483,0.5645815204574924,0.7354202432444579,0.4627289474010467,0.1438169181346893,-0.5389909148216248,1.2741469144821167,-0.3806425929069519,1.0207961797714231,0.0707252994179725,0.0730436891317367,-0.3333054874151945,0.0220813918858766,-0.2452339668609201,0.0366921925812959,26
1734064786237910300,-1.1891009904306382,-2.6039579247921703,-0.2304348955273628,-0.0874575259749311,9.656827102801204,1.7054126096569,2.560471296310425,0.4600820243358612,0.4185336232185364,-0.2907095674194946,-0.2492450267373769,0.5923892935239307,0.7088299026618219,-0.9390461444854736,0.1971875727176666,0.2265291512012481,1.1670395135879517,-0.4895694553852081,0.9330042004585266,-0.0922759547829628,0.1474093794822693,0.0862765999615192,0.2931537330150604,-0.2065039117764681,0.7172583352670073,27
1734064786277910300,2.3497193982206284,5.519843617928028,-2.032972393026948,0.0383472023798618,9.783592949539422,0.6709710697360336,2.498331546783448,0.38955819606781,0.1981764733791351,-0.2886349347500778,-0.2670584805343799,0.6280682807338374,0.671490692098812,-1.718229055404663,0.0416602455079555,0.937550723552704,0.8225270509719849,-0.3368983864784241,0.8262446522712708,-0.1471056640148162,-0.2159354984760284,0.4707826977819204,0.4384227395057678,0.3495938474584371,0.3261858646683395,28
1734064786317910300,-0.938037002241984,7.964446262544393,-1.4925392359137537,0.0665475340130273,9.804420048990846,-0.1982160489678383,1.874814510345459,-0.0010142794344574,0.0713632255792617,-0.2772081657272826,-0.278411262027402,0.6577183097937206,0.6426891820375304,-2.381842613220215,-0.1837659478187561,1.0675143003463743,0.3563051223754883,0.0434496104717254,0.5319083333015442,-0.0877706110477447,-0.0660379976034164,-0.2234516125112771,0.3495608866214752,-0.2262241094319149,-0.0068329878251999,29
1734064786357910300,1.160643980622664,7.193871639892459,-0.2335445519804954,0.0636907837418839,9.773536250427364,-0.8026956348601728,1.34228777885437,0.4761967062950134,-0.0801511034369468,-0.2733451303767583,-0.2923229416278352,0.6748876845286504,0.6199648059677442,-2.5411407947540283,-0.9892869591712952,0.7175518870353699,-0.3981115221977234,0.3733344376087188,-0.1076792478561401,0.010375402867794,-0.0270649194717407,0.032624504750967,0.1895549893379211,0.0257422709565609,-0.0966808704022318,30
1734064786397910000,0.7021965213440359,5.048514392179251,-1.7473007634460924,0.0614042482738615,9.739570852461457,-1.1433983198545872,0.3146131634712219,-0.4484706223011017,0.0435169860720634,-0.2671410814914206,-0.2960172609282303,0.6860545697852369,0.6085544258698926,-2.0475950241088867,-1.0982621908187866,0.4266687631607055,-0.4893685579299927,0.2834677100181579,-0.4284029006958008,0.0315061882138252,0.0664818659424781,-0.0557166265249252,0.1011921614408493,-0.2221940867308527,-0.1566213251672685,31
1734064786437910300,0.5889329475944861,2.296546757090092,0.4543465267658233,0.0190446136485552,9.73701006206274,-1.1664721753194929,-0.0147025659680366,0.0926312580704689,-0.2133292406797409,-0.2632174322335749,-0.2952886997095079,0.6872249353825721,0.6092971995276522,-1.1293468475341797,-0.6539720892906189,0.1957362741231918,-0.6795447468757629,0.3453114032745361,-0.5011548399925232,-0.0013564974069595,0.1388716995716095,-0.0062386021286249,0.0116835311055183,-0.1499586524076759,-0.2610856159873306,32
1734064786477910300,0.0198349420423386,0.2241302424252033,0.0371684317909181,-0.0545511446758173,9.736049108076095,-1.173366684073582,0.0093800900503993,0.0622237063944339,-0.1801721304655075,-0.262495778691424,-0.2998754903102001,0.6854923363401881,0.609320150875817,-0.4962697625160217,-0.4507258832454681,0.1867445856332779,-0.3019458055496216,0.161139965057373,-0.6724369525909424,-0.0439889952540397,0.0860656797885894,0.0509615409523248,-0.0815621092915535,-0.0869070798847824,-0.2152491629637777,33
1734064786517910300,0.1533722967760637,-0.7079214748620987,0.285448999806121,-0.1104264140948653,9.732415135487914,-1.1992861382279545,0.156329721212387,0.0275797825306653,-0.11665029078722,-0.2606704242906597,-0.3025554110319786,0.6852786287404096,0.6090191896143371,0.0203659106045961,-0.1179717555642128,0.0760715305805206,-0.220305323600769,0.1174154281616211,-0.1106391847133636,-0.0501114800572395,0.0188210755586624,0.0375777432441711,-0.1160125732421875,-0.0194681591231375,-0.0290221694100648,34
1734064786557910300,0.0396174689108505,-0.5597007521629334,-0.0922723332449793,-0.1392760216833092,9.725451141694188,-1.2516228399910032,0.0945473238825798,0.0727923959493637,-0.0368843413889408,-0.2596318035277972,-0.3050388021740764,0.6861241393962056,0.607269460463882,-0.0374691560864448,-0.1914258897304535,-0.0650385916233062,-0.0513206720352172,-0.0231146216392517,-0.0366719365119934,-0.0126310363411903,-0.0341670215129852,-0.0054191024392843,-0.0863933563232421,0.0141210259415209,0.1072683153901249,35
1734064786597910300,-0.2659493130335584,0.1174409690320491,0.7025194696880876,-0.13223621357386,9.718537416782974,-1.3049601701639593,0.2292318642139434,0.0054614851251244,0.0807795822620391,-0.259552467130164,-0.3061134341928168,0.6876256378475234,0.6050603491668518,-0.110829658806324,-0.1983941048383712,-0.0588344261050224,0.0407150387763977,0.0007711052894592,0.042785108089447,0.0341425538063049,-0.005959378555417,-0.0530061985224485,-0.0563315078616142,-0.0565437249988317,0.0081966043286025,36
1734064786637910000,-0.1667573731258511,1.58782857889235,-0.1002653778254985,-0.0680239130087895,9.69978478551805,-1.4421997723825275,0.2655491828918457,-0.1377408355474472,0.1863662451505661,-0.2582022662901248,-0.3043008393319835,0.6934931329998087,0.5998332219882008,-0.0700547993183136,-0.1950188726186752,0.0388238914310932,0.0604444742202758,0.0016703605651855,0.0073565244674682,0.052152581512928,0.04610575735569,0.0373731605827808,-0.091762401163578,-0.0760793964002281,-0.2488789722997695,37
1734064786677910300,-0.105024819912808,3.114274176061153,-0.9348514310084284,0.0242205070326686,9.691561147052049,-1.4978060704007743,0.036814272403717,-0.2886337637901306,0.3702688813209533,-0.2576266178101113,-0.2987572892103166,0.6979333320946634,0.5977136225044929,-0.1025666669011116,-0.1167725324630737,0.1138567179441452,-0.0127939581871032,0.0198645591735839,-0.0416734218597412,0.020124863833189,0.0539282523095607,0.0497118331521749,-0.2096419036388397,-0.0782306561499834,-0.3826354816429316,38
1734064786717910300,-0.2033331179869361,7.1024348806887865,-2.3577029443204403,0.1654747311704792,9.691692664477229,-1.4879834723055363,-0.2543113827705383,-0.3319146633148193,0.4882349669933319,-0.2581069188772075,-0.2888144835229155,0.7017494138539372,0.5979253990860233,-0.003305863123387,0.0624420084059238,0.1128167584538459,-0.0877696275711059,0.0423401594161987,-0.0848007798194885,-0.0321126356720924,0.0093234702944755,0.0775181239664554,-0.2865899205207824,-0.1550662777449935,-0.1201840571951121,39
1734064786757910300,-0.5519030109588057,11.567365540814398,-3.979294092082977,0.3898455591522157,9.733097857055068,-1.133672752393037,-1.6516287326812744,-0.5510963797569275,0.719546377658844,-0.2652803934391271,-0.2702972597308237,0.6962331620707944,0.6097746454145494,0.395504891872406,0.4228273928165436,0.0929512381553649,-0.1909716129302978,0.1457487344741821,-0.2018013000488281,-0.0114146415144205,0.1524929106235504,0.0905196443587541,-0.2720524072647095,-0.1193608677113428,0.261658958895877,40
1734064786797910300,1.2491175791718063,9.154524646639825,-3.4642250933289525,0.5900780259763821,9.785256498837471,-0.2663899146742187,-2.8220667839050293,-0.1162882298231124,0.3184597492218017,-0.2780797245678917,-0.2456606452648345,0.6732257819889649,0.6396011586920752,0.8649687767028809,1.2701181173324585,0.0779708921909332,-0.4165183305740356,0.3297127485275268,-0.2578275501728058,0.0342704057693481,0.0998193472623825,0.5547492672353983,-0.317216008901596,0.2777938454104587,0.3817432820435613,41
1734064786837910300,2.187603275029361,-0.4998720141440629,-1.5869377675324678,0.6160068690136075,9.744483174422385,0.9143168116975576,-2.883773803710937,0.3431294560432434,-0.1987205743789672,-0.2956438240342205,-0.2297794499381115,0.6329172292240106,0.6776518106852102,1.6315897703170776,1.8476835489273071,-0.1629973202943802,-0.7308434844017029,0.4963884353637695,-0.719606339931488,0.0468989834189415,0.0401340760290622,0.3131488345712423,-0.3004376888275146,0.3061370561130345,0.2656238439388573,42
1734064786877910000,1.710070810726285,-10.859631112957,-1.436729670408368,0.4055054485661908,9.62167921705246,1.851824090977013,-2.033442735671997,0.2313966602087021,-0.7199485898017883,-0.3023605878814301,-0.2248684589779969,0.595833387123712,0.7092213338825594,2.567906618118286,1.5481804609298706,-0.6324832439422607,-0.9888703227043152,0.4739688038825989,-0.5126214027404785,0.0446130074560642,-0.041363600641489,-0.2766816829174757,-0.2267494797706604,0.2011002991672605,-0.1118416877202689,43
1734064786917910300,-0.707265202910453,-17.65322976157665,-0.890417392128706,0.1965519516805186,9.486158985972404,2.4788202637776733,-1.0231471061706543,0.008411256596446,-0.3031434416770935,-0.3057361725082313,-0.2243933045439684,0.5685622060180192,0.7300069519717771,2.9927525520324707,0.4070824086666107,-1.2075960636138916,-0.3349561095237732,0.3987104892730713,0.1143586635589599,-0.0363035537302494,0.0997654795646667,-1.1485767454057931,-0.2314564287662506,-0.3726638669984415,-0.6192063957072794,44
1734064786957910300,-0.4203769640814512,-16.547684933167695,-1.1977835516452788,0.0684291054093511,9.473267940217257,2.5343466284275054,0.4470264911651611,-0.1458432823419571,-0.5186075568199158,-0.2987612727109615,-0.2252623644702495,0.5657217959132887,0.7348180450812583,1.888959288597107,-0.3523241281509399,-1.1563347578048706,0.6197237968444824,-0.0386161506175994,0.806686282157898,-0.1401768773794174,0.1911776661872863,-0.8577432030171156,-0.1827222108840942,-0.166616978274472,-0.2264075397074222,45
1734064786997910300,-0.045604480031738,-11.814435929322242,0.0723643944650888,-0.0990951193365734,9.533509935212134,2.2962490893177687,0.8881645202636719,0.2346889227628708,-0.2623015642166137,-0.2908067868737463,-0.2350446701147826,0.5724315491776243,0.7297311809225107,1.213661551475525,-0.2631026804447174,-0.4116307497024536,1.0940601825714111,-0.3249392807483673,1.0487895011901855,-0.1468353420495987,0.0682356879115104,-0.3834726631194353,-0.1245569437742233,0.1184833542244508,0.0019385668471455,46
1734064787037910300,-0.755887779521197,-2.367552722683549,1.5955400300525129,-0.1375983525283634,9.647271923470496,1.7554444685436783,1.9050647020339968,0.0767044574022293,0.0932892933487892,-0.2852271608181629,-0.2464735563653618,0.5913949846929615,0.7128451362513283,-0.775315523147583,0.3335454761981964,0.2373756617307663,1.2966160774230957,-0.3759782910346985,1.1969871520996094,-0.1257653683423996,0.1047553196549415,-0.0780523769736289,-0.0317837372422218,0.0199738070903345,0.5666572933025658,47
1734064787077910300,-0.5152701108166947,5.448066083440184,0.3378548212826252,-0.1536102337177843,9.761099962702392,0.931521117541939,2.1890532970428467,-0.0283829048275947,-0.143548309803009,-0.2739890018424783,-0.2588908877098172,0.6208712830893947,0.6873314366020318,-1.5232096910476685,0.5865548253059387,0.8276098370552063,0.9564384818077089,-0.3692429363727569,0.8655617833137512,-0.0487296283245086,0.1463002264499664,0.1250181262880563,-0.0186666287481784,-0.0761570282137021,0.2663537656486034,48
1734064787117910300,0.1328049077067524,7.334953012230992,-1.9208114102244376,-0.2121128559657372,9.802592833563684,0.1859129226358607,1.435211181640625,0.1144537329673767,-0.1286836117506027,-0.2619134348571731,-0.271028698788427,0.645805329122027,0.663988126356748,-2.204172372817993,0.0546648353338241,0.9106941223144532,0.4151234626770019,-0.1586905717849731,0.4850482940673828,-0.0738821998238563,0.2052329629659652,0.1173661502301692,-0.1292596906423568,0.0026041363500989,0.1076814993008971,49
1734064787157910300,0.5219360349792986,5.763472341549396,-1.8553566490173337,-0.2153286579407751,9.803326993057132,-0.1370683738375082,0.398783415555954,0.2169553190469741,0.0048318700864911,-0.2602270449785793,-0.2783488128233697,0.6553704912045923,0.6521451657654982,-2.44329571723938,-0.5649080872535706,0.6152440309524536,-0.3525528311729431,0.0787393152713775,-0.073614478111267,-0.0765630304813385,0.1390018910169601,0.4053022176116704,-0.1112449616193771,0.2695506071948446,0.2442639527849852,50
1734064787197910300,0.5027079682223499,3.942760889455676,-0.8890963726580142,-0.2529625518189743,9.79980583319366,-0.264908425678499,0.2233406007289886,0.0869345441460609,-0.149515226483345,-0.2587025561237558,-0.2828717654451546,0.6583996776009604,0.6477393727552713,-1.6637282371520996,-0.8702587485313416,0.3092221021652221,-0.602154016494751,0.3342540860176086,-0.4882640838623047,-0.0451852045953273,0.0529119446873664,0.2915080806493759,-0.1502940058708191,0.1558076341642066,0.0721333621881902,51
1734064787237910300,-0.0707520638976246,1.7869897997558115,-0.3063326517503708,-0.2925676727049052,9.798250420445203,-0.2811446902083233,-0.0647403299808502,0.1677144169807434,-0.0865619629621505,-0.2586849815979063,-0.2859673751602965,0.6576906946951531,0.6471070524966785,-0.8261552453041077,-0.7906736135482788,0.1221773698925972,-0.4084992408752441,0.3513725399971008,-0.519400954246521,-0.0026376768946647,0.0360101237893104,0.0359381593436002,-0.1728349328041076,0.0519006119007244,0.1275590429425239,52
1734064787277910300,-0.1357687624810263,0.3042021425276994,0.0613444032788276,-0.3484585598181933,9.796635386464,-0.2736801995465532,-0.016353216022253,0.1605714410543441,-0.1583587229251861,-0.2593122440540823,-0.2901396395442015,0.65557058870109,0.6471501893637315,-0.412673681974411,-0.362597793340683,0.0864540636539459,-0.2853038907051086,0.261837899684906,-0.2745563387870788,0.0232082549482584,0.0528381690382957,-0.126729021859169,-0.145645186305046,-0.0114341980103403,0.0968180138505995,53
1734064787317910300,-0.1758203850254416,-0.3001958294957876,0.836587602263689,-0.3764919739192351,9.796047941964863,-0.2570406514454633,0.0047487490810453,0.1161301806569099,-0.0093689039349555,-0.2600105466732451,-0.2922490478953098,0.6539846484436563,0.6475253087921075,-0.1120224893093109,-0.2025036960840225,0.0173662677407264,-0.1545294523239135,0.1647921800613403,-0.1788620352745056,0.0145460283383727,0.0884417742490768,-0.1121568911492824,-0.1464759409427642,0.0337466223823837,-0.0079167644739151,54
1734064787357910300,0.2813583329590037,-0.5621282715708017,0.5366284676006063,-0.3786228484680876,9.79461995498836,-0.3040917226894759,0.1745833605527877,0.2698245048522949,-0.0405273102223873,-0.2618647171518976,-0.2956094835279763,0.6543083339401268,0.6449206486389111,0.0198018532246351,0.0011705030919983,-0.0006704559782519,-0.077692687511444,-0.0154721736907958,0.0018014907836914,0.004621640779078,0.087917573750019,-0.0230079506218433,-0.1814947426319122,0.1012029235370922,-0.0433108800686895,55
1734064787397910000,-0.0435617860898375,-0.2878793687582016,0.236434464735724,-0.3829051654297858,9.792858790534734,-0.3516552004350349,0.0425372049212455,0.4037721157073974,0.0506643094122409,-0.2654510560971594,-0.3009186251876298,0.6537410846206235,0.6415654451309186,-0.031278908252716,-0.1217986196279525,-0.0403946340084075,-0.0019685626029968,-0.0233505368232727,-0.0226145386695861,0.0048165898770093,0.0772227868437767,0.0075584525555372,-0.2187516987323761,0.0928780166537035,-0.0209521871358156,56
1734064787437910300,0.1786714636076241,0.0047942485392093,0.126277807492949,-0.3105021925199777,9.794522339832785,-0.3758728921728208,0.042535338550806,0.5037479400634766,0.1674489825963974,-0.2732030956059341,-0.3047244490849527,0.6529220432456739,0.6373349117558648,-0.0168557595461606,-0.1395560353994369,0.0433153100311756,0.0260915160179138,-0.0450694561004638,0.0463102459907531,0.0102632846683263,0.0812260955572128,-0.0179062435686588,-0.2333959490060806,0.0671374444638844,0.0202513453900814,57
1734064787477910300,0.7593919151846319,0.8728016559392213,0.5864192842731252,-0.2905771016758866,9.793365571013092,-0.4194234627489,0.179181158542633,0.4429967105388641,-0.1274771839380264,-0.2789058834957097,-0.310570427690241,0.6518670533040959,0.6331087837821466,-0.0417840108275413,-0.2101316750049591,0.0890989154577255,0.0524020195007324,-0.0247454643249511,-0.0124585628509521,0.0227629579603672,0.0795027166604995,0.0287456174910068,-0.2244239449501037,0.0963310431844089,0.083347999163717,58
1734064787517910300,-0.0739819857295602,0.5722790787070989,0.4125813417691737,-0.3179187158541753,9.786982007455824,-0.5331889581386,0.3046429753303528,0.3559266328811645,-0.0347866006195545,-0.280074631382509,-0.3171130815208054,0.653164882720797,0.6279913055500075,0.0374724566936492,-0.2158029228448867,0.1380024850368499,0.0078937411308288,0.0011269450187683,0.0005012154579162,0.0294304154813289,0.0632509142160415,0.0436152698427438,-0.1906729042530059,0.1251572790304198,0.0905868643760681,59
1734064787557910300,0.3024100349465385,0.4613941071897744,-0.3626116613984108,-0.3250054592447355,9.781449507769942,-0.6229014508329331,0.2584161758422851,0.1058765649795532,-0.0602732561528682,-0.2816064761442257,-0.32200455057074,0.6542722708414477,0.623649497992871,-0.1004185602068901,-0.1193450987339019,0.1737692505121231,-0.0131281018257141,-0.0150017738342285,0.0025954842567443,0.0170454140752553,0.0362054891884326,-0.036410453030467,-0.1664221435785293,0.1133672259202692,-0.0305514978691935,60
1734064787597910300,-0.2893993083344772,-0.0100847561627626,-0.0707669692058116,-0.346410943106003,9.77304174490869,-0.733535297133401,0.3020561635494232,0.1278091222047805,-0.0307166446000337,-0.2799696139183038,-0.3252331192435143,0.6569804484689804,0.6198526354824454,-0.1105678677558898,-0.1582281589508056,0.0974792838096618,-0.0450887084007263,0.0002857446670532,-0.0376114249229431,-0.0163845587521791,0.0347604341804981,-0.0806967540025711,-0.1792984306812286,0.0533080036137718,-0.140085200908035,61
1734064787637910000,-1.104327561573684,-0.8749579571902751,-1.2000631870150564,-0.3265072055771946,9.763580673602222,-0.8580522689662873,0.3447649478912353,-0.3024469912052154,0.241895854473114,-0.2774968287440543,-0.3252393491469749,0.6617913995187062,0.6158303076316293,-0.0688704922795295,-0.2094528377056121,0.0501816719770431,-0.0322885513305664,0.0159254074096679,-0.0511574149131774,-0.0504941865801811,0.0480138063430786,-0.1153928043305873,-0.1880910247564315,-0.006342784022307,-0.1289864453971385,62
1734064787677910300,-0.9824505097903312,-0.5120768312007189,0.6593512129604816,-0.097932943689404,9.753096688988805,-1.0187808102566749,0.1755567342042923,0.6643388271331787,0.4619977474212646,-0.2818466324274669,-0.3195696237974022,0.6706851884788787,0.6071401600419257,-0.0581169128417968,-0.1222786232829094,0.0046507394872605,-0.0228474736213684,0.0536402463912963,0.0307909250259399,-0.0779723525047302,0.0871611386537551,-0.0796440300792455,-0.1868624836206436,-0.0147053788678487,-0.0770066673129797,63
1734064787717910300,1.177139992067218,0.0324660993188619,-0.9525321952581404,0.0620089544350514,9.760566878739,-0.9475658780876548,-0.3677174746990204,0.8635907769203186,0.233584463596344,-0.2992256154725435,-0.325461979829906,0.6651217292195277,0.6017903598815345,-0.1199320778250694,-0.1335697323083877,-0.0091718649491667,0.0119584798812866,0.0178881883621215,-0.0050845146179199,-0.0787476301193237,0.0957121700048446,-0.074893036159873,-0.1668024808168411,-0.0354291138429194,0.0463610614195466,64
1734064787757910300,1.320228612574935,0.0001999064862728,-0.1666938794355839,0.1598368714139796,9.770087571278214,-0.8307903872270137,-0.2308152616024017,0.7947983145713806,0.133425772190094,-0.313981325331226,-0.3310935228685828,0.6578264206995462,0.5992137722411072,-0.2375870645046234,-0.0497225075960159,-0.0171927064657211,0.0570128560066223,0.0561665892601013,0.0777028799057006,-0.0653341636061668,0.0865460336208343,-0.0377495926797389,-0.1326247453689575,-0.0339592604860663,0.0494680875241756,65
1734064787797910300,0.7463011821389198,0.3359054407805204,0.8667430865526199,0.2146713448095135,9.77001976673901,-0.8191589130789041,0.3248178660869598,0.4761146306991577,0.0080491574481129,-0.3241242753203096,-0.3381504099341251,0.6537734954256735,0.5942878131180993,-0.3008355498313904,-0.1642280519008636,0.0648728683590889,0.0481495857238769,-0.0311236381530761,-0.0678741931915283,-0.0570902079343795,0.0741217657923698,-0.0469593195736408,-0.1308411657810211,-0.0667432301150634,-0.0458037197977304,66
1734064787837910300,0.8573244661483913,0.3210919025301933,0.1545871889911592,0.2024088792814873,9.749519999545813,-1.037450001021847,0.5663512349128723,0.4135092794895172,-0.1924721598625183,-0.3246130838345454,-0.347408774457674,0.6574210007900371,0.5845778590897122,-0.2207116782665252,-0.0500335618853569,0.1704374402761459,-0.0050987601280212,-0.040087878704071,0.0377799868583679,-0.0492526032030582,0.0583855807781219,-0.0518757331877946,-0.1511128395795822,-0.0665358253089245,-0.02539192314893,67
1734064787877910000,-0.2184971684416756,0.1829711335629224,-0.518853047337383,0.1513098660872317,9.725132577264308,-1.2527063974440098,0.4487745463848114,0.0562777519226074,-0.075773499906063,-0.322694545809875,-0.3566850838852136,0.6607919532820088,0.5761925918140158,-0.5438796281814575,0.0250151697546243,0.1907688826322555,-0.021497368812561,-0.0591775774955749,0.0585775971412658,-0.0310028027743101,0.0344941765069961,-0.0144639941602945,-0.1555223762989044,-0.0348565015867352,-0.0035866263151168,68
1734064787917910300,0.3383951387044042,-0.0949123263597488,-0.4208372020043432,0.1084227643885649,9.717060329967737,-1.318101391287893,0.0299207549542188,0.0705490857362747,-0.1252621859312057,-0.3207308370392039,-0.3598121421097172,0.6616189898967935,0.5743930392518651,-0.5151923298835754,0.0518025197088718,0.1351393759250641,-0.0415801405906677,-0.0523653626441955,0.0429933071136474,-0.0148689746856689,0.0077400114387273,-0.0436310519337654,-0.1537846177816391,-0.0619726729786954,-0.0048018473237752,69
1734064787957910300,0.0823902600474655,-0.3816571381300687,0.1862168374858796,0.0234034047963912,9.712011814406514,-1.358926884281635,0.2213384807109832,0.0510488003492355,-0.3490426540374756,-0.3177445589394955,-0.3637073700854923,0.6610619773202905,0.5742407827298815,-0.2710840702056885,-0.0890109464526176,-0.0271795615553855,0.0132723450660705,0.0587971806526184,-0.0651317834854126,-0.0032204901799559,0.0182929560542106,-0.0412590621054172,-0.1391534060239792,-0.0886177745264954,-0.0131949971377849,70
1734064787997910300,-0.7804457360640168,-0.1307967096894979,-1.7087758024796842,-0.1220184969475027,9.703860656654834,-1.4108680839210748,-0.1041047796607017,-0.2131230235099792,-0.2763413190841675,-0.3114900723931875,-0.3683828390128054,0.6604758428529865,0.5753603527433343,-0.0574591159820556,-0.1427758038043975,0.0380155518651008,0.0400338768959045,-0.0090828537940979,-0.0458367764949798,-0.0100821331143379,0.0179608575999736,-0.0515349569261074,-0.1261358559131622,-0.1038204216922633,0.0022483634486794,71
1734064788037910300,0.4692015660703182,0.2398965513557195,-0.8041068168323486,-0.1622947128948755,9.73285060429573,-1.189814910853654,-0.9192773103713988,0.3080042004585266,-0.110512375831604,-0.3146580821958756,-0.3663989157432316,0.6530049870865442,0.5833751557841618,-0.1103593409061431,-0.0765774473547935,0.0433387458324432,0.0072974562644958,0.0307947993278503,0.0197086632251739,-0.0109578864648938,0.0023293327540159,0.0032435119658708,-0.0988342016935348,-0.038463202575501,0.0401630835622549,72
1734064788077910300,0.297318410895951,0.1705681635856628,1.3217571373164654,-0.1716228054714389,9.76102923555374,-0.9291087226379662,-0.2911201119422912,0.1979288756847381,0.0431705005466938,-0.322205669311619,-0.3656890651561159,0.6431507346068963,0.5906032232651038,-0.1507456451654434,-0.0329647250473499,0.0208536777645349,-0.0091094374656677,0.0049710869789123,0.0322306752204895,0.0081070931628346,-0.0274665914475917,0.0033422961652278,-0.1012981757521629,0.0030996465157717,-0.0366506915271282,73
1734064788117910300,0.2864760047663003,0.0124468091189861,1.0772820259988307,-0.1395319966052193,9.766071321374175,-0.8802098863691091,-0.0498031750321388,-0.0246753953397274,0.086379662156105,-0.3258339374122139,-0.3657160234544178,0.6411942021589266,0.5907233194503766,-0.0244961027055978,-0.0820308029651641,-0.0315293706953525,-0.0015910267829895,0.030812382698059,-0.0225729942321777,0.0377594418823719,-0.0448366925120353,-0.0777665457695722,-0.1551223993301391,-0.0284137917207553,-0.1190890285000205,74
1734064788157910300,-0.0084354454526212,-0.0287374341845512,0.8369768938422203,-0.1117234773012343,9.764309572398664,-0.903415989911556,0.1732233166694641,0.0656078532338142,0.0706149041652679,-0.3263883450695742,-0.365351325256575,0.6423237548552946,0.5894143103854312,-0.2897200584411621,-0.038911934942007,-0.0373244732618331,-0.0104719996452331,0.0056785345077514,0.007538616657257,0.0518694818019866,-0.0308021642267704,-0.148456285020709,-0.1905353963375091,-0.0583576973519288,-0.1644645860135555,75
1734064788197910300,0.2103213877053931,-0.2862356932044029,-0.3632407530821859,-0.0988416925647761,9.757997905033829,-0.9706292121585458,0.1500014364719391,-0.2583809196949005,-0.0052749668247997,-0.3244536772450342,-0.3648807573498342,0.6452521607649874,0.5875726683803555,-0.185048758983612,-0.0179911535233259,-0.1125053092837333,-0.0321196913719177,-0.0065619349479675,0.0307794511318206,0.0523470789194107,-0.040878839790821,-0.1097311253070831,-0.1908201277256012,-0.0233629380719736,-0.1325996674582362,76
1734064788237910300,0.3475891200399026,-0.4017430638253688,0.331726693791151,-0.1051762019490823,9.750801271528005,-1.039811834782362,0.3412486612796783,-0.1906666755676269,0.0606885217130184,-0.3198348581616329,-0.3627756116496215,0.6491606146165152,0.5871031026620218,-0.0235536098480224,0.0091901328414678,-0.1233698725700378,-0.0347592234611511,0.0138921737670898,0.0284512042999267,0.042295753955841,-0.0405862182378768,-0.1019049617260694,-0.1529496610164642,0.0019777663463726,-0.0732838473975658,77
1734064788277910300,-0.1723466810328885,0.4055383644551038,-0.1758430352486669,0.0038546746964886,9.74378291719854,-1.1086465938165784,0.1872527748346328,2.347191572189331,0.3219498097896576,-0.3390518205354769,-0.3795625981772706,0.642228525346913,0.5731655807261956,-0.1104528233408927,-0.1419305801391601,-0.0334404520690441,0.0461216568946838,-0.0334686636924743,-0.0524350702762603,0.0460427589714527,-0.0436530485749244,-0.0938034883350133,-0.1256293654441833,0.0618259853838477,-0.0721817313745617,78
1734064788317910300,0.212708209776692,0.1338011522024869,1.476611014419794,0.2519163672342896,9.72507237150967,-1.236892449979484,0.4951392114162445,1.144551157951355,0.4012892842292785,-0.3627356843461334,-0.3953931122182477,0.6377524977156069,0.552592905049696,0.0668820142745971,-0.1682245433330536,0.0400924868881702,0.0155621767044067,-0.0157971978187561,-0.0027564764022827,0.0400310717523098,-0.0271111577749252,-0.1537251653343439,-0.1040882617235183,-0.0185678310162387,-0.0516489386945962,79
1734064788357910300,0.3636737376719713,-0.1558171691775322,-1.311297848752886,0.3882550750903785,9.698956518000363,-1.3963951758019626,0.2295670509338379,0.7763141393661499,0.0735347121953964,-0.3738294436564092,-0.4062912913266029,0.6372783772214409,0.5376387008205487,-0.3173074722290039,-0.3689569234848022,0.1390265226364135,0.0354734063148498,-0.066699743270874,-0.0032719075679779,0.024527370929718,0.0279483646154403,-0.1458575006991624,-0.1022358313202858,-0.0514025627180933,-0.106083416454494,80
1734064788397910000,-0.880169992750138,0.3932628202497958,-0.632892391232401,0.4951524748088792,9.693359720906615,-1.4014303934901953,0.0544549971818923,1.7041856050491333,0.260405421257019,-0.3898215409767424,-0.4185817542627449,0.6294778602434045,0.5259146574648563,-0.1443798989057541,-0.1506146043539047,0.135254219174385,0.0293888449668884,0.0277266502380371,0.0819554328918457,0.018776973709464,0.0357611738145351,-0.0697843148440122,-0.1103104799985885,-0.0112019784233532,-0.0664341276332736,81
1734064788437910300,-1.0238385320376604,0.0837415285259485,0.5883820722460746,0.8264662404175848,9.669188571724296,-1.4121373732045293,0.3409705460071563,2.6789040565490723,0.780441403388977,-0.4214196167855553,-0.4361440331662383,0.6178813381173186,0.5004063965384237,-0.0673447623848915,0.0508181117475032,-0.0469282977283,-0.0669577717781066,0.0575640797615051,0.1403124332427978,0.0157523173838853,0.0265838336199522,-0.0403185663849115,-0.1267944574356079,-0.0211083458119072,-0.0648942047148943,82
1734064788477910300,-0.0404226112812757,-0.1495505099982023,0.3538064236521721,1.3365835350483657,9.60500163849592,-1.458731074336171,0.4954693913459778,2.980490207672119,0.9045292735099792,-0.4613668291945684,-0.4569891008520061,0.6045953560083889,0.4612658134688072,-0.0572031810879707,0.0199548956006765,-0.039241686463356,-0.0082915425300598,-0.072833240032196,0.0306589603424072,0.0169796328991651,0.005319133400917,-0.0088958386391401,-0.1401970088481903,-0.0208291635443456,-0.0338476168051362,83
1734064788517910300,-0.5430053456887602,-0.2843079400122165,-0.1146738424062728,1.865053574906289,9.516349541574716,-1.4598124398320913,0.5553390383720398,3.4213244915008545,0.9685496091842652,-0.5020133651775427,-0.4792664721304501,0.5871399921357856,0.416596748909539,-0.0942490845918655,-0.1313456743955612,-0.0797187983989715,0.0367999672889709,0.0044176578521728,-0.0529812276363372,0.0239975005388259,0.0114393420517444,-0.0325216288983821,-0.1630034148693084,-0.0381663567870855,-0.0244201555073261,84
1734064788557910300,-1.128056227685511,-0.276349089962244,-0.7841793696343898,2.495594288446009,9.391523722988367,-1.319725485358387,0.3754965662956238,3.9558968544006334,1.3228436708450315,-0.5483624922124123,-0.4999721845382076,0.5633072797412865,0.3633335914729722,-4.162639379501343e-05,-0.1065988317131996,-0.1793538480997085,-0.0053030848503112,0.0947974324226379,0.0146653950214385,0.0247527342289686,0.0084415692836046,-0.0652969402968883,-0.1861285120248794,-0.0216984754584729,0.0026490532040596,85
1734064788597910300,-0.827143189831078,-0.5572977826744318,-1.156494094401598,3.2246368772700427,9.213533884969353,-0.939629166804254,0.1056727990508079,4.409984588623047,1.5630446672439575,-0.6008722844826696,-0.5146223015190806,0.532044773071123,0.3017362930215972,-0.0886103734374046,-0.0898318365216255,-0.1277200728654861,0.0134304165840148,-0.0068966746330261,0.0215093195438385,0.0132886776700615,0.0260875727981328,-0.0960591583073139,-0.2065141052007675,-0.0390230466816574,-0.053066696538031,86
1734064788637910000,-0.6465589514046907,-0.4576046517789363,-1.0441863966047764,3.893994228199124,8.998021248763798,-0.2069331700392067,-0.5329399704933167,4.633895397186279,1.5275086164474487,-0.6583514492262452,-0.5210763139354307,0.4889070779612631,0.2366912938207527,-0.146737053990364,-0.0784505531191825,-0.0826756432652473,0.0265536308288574,-0.0034934878349304,0.0304265618324279,0.0036505907773971,0.04142876714468,-0.0430664037883281,-0.2114070951938629,-0.0265409653198905,-0.0095306294113397,87
1734064788677910300,-1.128311956012249,-0.3311778277367353,-0.0874410406310111,4.423182060937584,8.720459275880456,0.747941204430908,-0.8039894104003906,3.674813270568848,1.6921186447143557,-0.7116522075392239,-0.5133870739474825,0.4453081210662609,0.1780040517921076,-0.264401912689209,-0.0411209762096405,-0.0423610433936119,0.0270968079566955,-0.0164244771003723,0.0454272925853729,0.0018659031484276,0.0370991379022598,-0.0147141695290803,-0.2090326845645904,-0.0037596995933912,-0.0071536711469292,88
1734064788717910300,-1.138164656984806,-0.2906026562422514,0.4394295281410217,4.875662793831527,8.358762391239404,1.590404274599254,-0.4452262222766876,2.7983031272888184,1.893900752067566,-0.7522243199183789,-0.4988684597189406,0.4123617412480141,0.123477267592119,-0.2312261164188385,-0.003158678067848,-0.026176881045103,0.0349098443984985,0.012485921382904,0.0316590666770935,0.0148861268535256,0.0259295515716075,-0.0333317762374877,-0.2170660644769668,0.0053932556119747,-0.0350894335597753,89
1734064788757910300,-0.2267658516258001,-1.2786270206421613,0.2736284328266978,5.307112721395492,7.977454797199368,2.089298968143761,-0.2579506635665893,1.5769184827804563,1.5802528858184814,-0.7747778951415057,-0.4843156944255291,0.3986398188357506,0.0790184612494562,-0.140822172164917,0.1207138374447822,-0.0655909329652786,0.0119051337242126,0.0687585473060607,0.0653937458992004,0.0207518488168716,0.0258854459971189,-0.0899690247386693,-0.248348519206047,-0.019764274259191,-0.0561371900245547,90
1734064788797910300,1.0400327840566634,-1.2616215253055094,0.6304357918605208,5.557338943585753,7.670899369543791,2.538439450699091,-0.2087919563055038,1.95002019405365,0.9669262170791626,-0.7920379066011835,-0.4715197085034088,0.3850256752355912,0.04582950093401,-0.1103649362921714,0.2271572947502136,-0.0354794338345527,0.007930040359497,0.0429961681365966,0.0436439216136932,0.0244908947497606,0.0398862287402153,-0.1190665244072675,-0.274802416563034,-0.0635513752711936,-0.0494473369970917,91
1734064788837910300,1.0004852020442483,-1.752292580384016,-0.3910886910811066,5.53179475248456,7.504363237953186,3.042069063811004,-0.2852955162525177,2.261425971984864,0.3999568521976471,-0.8091988410041376,-0.4651630999548755,0.3584981661115392,0.0173127721399151,-0.1202106401324272,0.2568119764328003,-0.0049860421568155,0.0195121765136718,0.0269235968589782,-0.0036793649196624,0.032351329922676,0.0322086736559867,-0.0514116228073835,-0.2891104519367218,-0.0179086181888356,-0.0195873285233974,92
1734064788877910000,2.4761703337907788,-2.0260574990719555,-0.8351116844922304,5.144423328360915,7.424532160869241,3.818585935993492,-0.6304500102996826,3.1741209030151367,-0.478292852640152,-0.8334672797584426,-0.4560843215000596,0.3119188934985063,-0.0050832819719479,-0.0839330628514289,0.1997765898704528,-0.0137867908924818,-0.022073209285736,-0.0011537671089172,-0.0011231303215026,0.0315830521285533,0.0550451055169105,-0.1198953764468431,-0.3098329603672027,-0.0921021643098443,-0.0904065393730998,93
1734064788917910300,0.0884700183525681,0.299544087588787,-0.4565741396874189,4.308481915046275,7.466798354190588,4.6748587741971015,-1.032289743423462,2.8623056411743164,-0.8605239987373352,-0.8590035584243754,-0.4493218682420724,0.2444553084246163,-0.0215512733744862,-0.0277606043964624,0.1476160287857055,-0.0533501133322715,-0.0064054727554321,0.0056796669960021,-1.093745231628418e-05,0.0039990879595279,0.0555694550275802,-0.0432610495775938,-0.3229746222496032,-0.0358024041347205,-0.0742310651198029,94
1734064788957910300,-3.1707930588796733,0.4346002082884311,2.1919167543143034,4.041684497283399,7.274879359540343,5.187611897224188,-0.65428626537323,0.5322791337966919,0.8412988185882568,-0.8739996305569742,-0.4307533182993853,0.2235105933202844,-0.0248875252111458,-0.1101108714938163,0.1726076602935791,-0.0444244630634784,-0.0216885209083557,-0.056121826171875,0.016905277967453,-0.013349262997508,0.0260763745754957,0.0083142393589019,-0.3143928050994873,-0.0005241700045764,-0.0286512172058224,95
1734064788997910300,-4.68480266058445,-0.6129243928283452,2.8967320798546075,4.478003784449398,6.886032602167129,5.357278143534064,0.4713394939899444,0.9477464556694032,3.242437601089477,-0.8767949052278674,-0.4176927360766795,0.2288833653436556,-0.0661512203990042,-0.125740960240364,0.1649281680583953,-0.0356963500380516,0.0086424946784973,-0.0128412246704101,-0.0205005407333374,-0.0285843573510646,-0.0326016321778297,-0.0161374803304672,-0.3066249191761017,0.0355214683014899,-0.0862280846446752,96
1734064789037910300,-1.3040502157121896,-2.0117735376536845,-0.5077379252135753,5.135072731691599,6.336001011103392,5.4457788492858406,0.6726042032241821,1.8296250104904173,3.899180173873901,-0.8694691829938826,-0.4107585461290066,0.2315598839810151,-0.1472437996886447,-0.1900046318769455,0.1217656284570694,0.0214881766587495,-0.0129617452621459,-0.025795042514801,-0.0161104202270507,-0.050415001809597,-0.0158386975526809,-0.1864806029886007,-0.2951931655406952,-0.0432249188182875,-0.1602294326618313,97
1734064789077910300,0.3090525051683187,-1.5712439393162727,-2.3375474605202675,5.632308552113175,5.581232444870472,5.770383728373051,-0.5197917819023132,1.5492637157440186,3.2335915565490723,-0.8626151992227921,-0.3900082533658638,0.2317020863282566,-0.2238364851364696,-0.2256883382797241,0.1082260608673095,0.1451019942760467,0.000140368938446,-0.046499490737915,-0.0158174037933349,-0.0269314665347337,-0.0039054173976182,-0.1771621550232172,-0.2937071323394775,-0.028021358337067,-0.0761626177042722,98
1734064789117910300,-2.0892986758828163,-1.1689677915275096,-0.0547977581143379,5.802855088388919,4.641607369719446,6.39943274205029,-1.079849362373352,2.55842661857605,3.486901998519897,-0.8618773442882401,-0.3502873172226723,0.2258728346544141,-0.288873106394786,-0.1451839059591293,0.1020669713616371,0.2660880088806152,-0.0154141187667846,-0.0720130205154419,-0.061362475156784,0.006256004795432,0.0393509268760681,-0.2149924117237329,-0.2783266901969909,-0.0465051460653543,-0.0788578481376171,99
1734064789157910300,-1.0985843417465686,-0.7891817079663276,-0.0596978051155805,5.657593215495347,3.4075404985547064,7.249186115357279,-1.3823796510696411,2.961684465408325,4.127320289611816,-0.856312782358455,-0.2935592611926683,0.2102791876877558,-0.3692345341521346,-0.1844649910926818,0.0657065138220787,0.3069003522396087,-0.0269632339477539,-0.054489254951477,-0.0536124110221862,0.0143700940534472,0.0504875555634498,-0.179836927190423,-0.2471878677606582,0.0049388446416705,-0.1315273620516061,100
1734064789197910300,1.292786478897929,-0.5284557190716266,0.7624994527459145,5.25146448393166,2.073164702683687,8.018384773480891,-1.7041810750961304,2.4498515129089355,3.463908433914185,-0.8441536881995889,-0.228686577991187,0.1971765873929971,-0.4429767005991163,-0.2099919319152832,-0.0135061247274279,0.2910025119781494,-0.0228119492530822,-0.0264757871627807,-0.056673526763916,-0.0383724644780159,0.0482956282794475,-0.1879793171137571,-0.2025473713874817,-0.0554398188775405,-0.2342401330292224,101
1734064789237910300,1.5967112657889724,0.4194030775479972,2.614218037521839,4.752112986530364,1.015022992093116,8.518070909664035,-1.0605531930923462,1.723396897315979,2.49277400970459,-0.8303649229090224,-0.1743017306399791,0.1879312248451148,-0.4947675479223518,-0.252292275428772,-0.0467856228351593,0.296406626701355,-0.017238974571228,-0.0583811998367309,-0.0178858041763305,-0.1237527504563331,0.0423590466380119,-0.1557043564528226,-0.1563960909843444,-0.0063969710281118,-0.3083908263891935,102
1734064789277910300,1.6020152174159883,-0.1010482535651885,2.5011323410898445,4.198836129935086,0.2448499907783232,8.858905623540283,-1.064550280570984,1.880321383476257,2.1557271480560303,-0.8163883773120615,-0.1308398755919365,0.176642142174296,-0.5340304279700233,-0.2986994385719299,-0.0592169910669326,0.3339521288871765,-0.0227598547935485,-0.0630601644515991,-0.0029717981815338,-0.1959215551614761,0.0622783824801445,-0.2007031896084546,-0.1495127081871032,-0.0640740474384278,-0.2271025362342596,103
1734064789317910300,2.9511861390978096,0.6316789237894117,3.935897433426976,3.489066396857798,-0.3128012267099693,9.159637459608913,-0.302990585565567,2.0163910388946533,1.5605489015579224,-0.8040391585898626,-0.0908902989280305,0.1572495447592043,-0.566156068178948,-0.3218607008457184,-0.0333517342805862,0.3499512672424316,-0.0058453679084777,-0.0533643960952758,-0.0113820284605026,-0.1955489367246627,0.0946680158376693,-0.1174222643315792,-0.1533937603235244,-0.0367828665394336,-0.0760895524680614,104
1734064789357910300,2.527234458334744,0.7032317096106707,1.228984745594859,2.841912109908461,-0.4880528354041278,9.373138171470163,0.0087960176169872,1.2024182081222534,0.7640029191970825,-0.7958877681353523,-0.0667109800077215,0.1328630262955194,-0.5869068597353793,-0.3002363443374634,0.0089183310046792,0.2937236428260803,-0.0358990430831909,-0.0232003331184387,-0.038002997636795,-0.1594825088977813,0.0922219678759574,-0.1034077675044536,-0.1776569485664367,-0.0489597726758569,-0.0564011016577482,105
1734064789397910000,2.303562773332,0.4148984230725094,1.405215172725916,2.49755974330008,-0.5129110535351559,9.469398405307532,0.2029345333576202,0.7078576683998108,0.3299217224121094,-0.7915966384594544,-0.0562638583265083,0.1184459278276721,-0.5968079104914313,-0.2315720617771148,0.0126759447157382,0.1244263499975204,-0.0634546279907226,-0.0083550810813903,-0.0469205975532531,-0.1281886994838714,0.1035705059766769,-0.0944061304032802,-0.1644317805767059,-0.0519702430708333,0.0411883349567651,106
1734064789437910300,1.506158303682506,-0.0793668936382979,0.7065759054720402,2.307804794815928,-0.4044114427844062,9.522650687545536,0.4085132777690887,0.3284953236579895,-0.1516138166189193,-0.7915753160689417,-0.0549683010170115,0.1070440525513369,-0.5991065704678908,-0.1491789072751999,0.0625298395752906,0.0079519273713231,-0.0344051718711853,0.019703209400177,0.0131248235702514,-0.1021624729037284,0.0926176905632019,-0.0396907898753881,-0.1485214978456497,-0.0117025666229426,-0.0275450095295906,107
1734064789477910300,-0.2758991542376577,-0.6791846251994371,0.198472069555521,2.226425026985258,-0.2002355720967054,9.548471942022442,0.5557529926300049,0.2493498027324676,-0.137230098247528,-0.7937792677665827,-0.060494092588319,0.0974877989951449,-0.5972863296108786,-0.0844795405864715,0.117473304271698,0.0352033227682113,-0.0025095343589782,-0.0301007032394409,-0.0012525171041488,-0.1062924936413765,0.0907409116625785,-0.0198544550269842,-0.1133935302495956,-0.0569058728421106,0.0045335517764091,108
1734064789517910300,-0.674013067780435,-0.0085991001652902,-0.8867501017928123,2.171586060077697,0.0069530705409124,9.563187280595304,0.4332557022571563,0.0371054857969284,0.0372428297996521,-0.7939424174309314,-0.0672939040438816,0.0887957032195415,-0.5976975799685126,-0.2078811079263687,0.124813936650753,0.0917513594031333,0.0142311453819274,-0.0341744422912597,0.0146476626396179,-0.1048003137111663,0.0666572973132133,0.0163525843858718,-0.092013843357563,0.0116014443360269,0.0241997907549142,109
1734064789557910300,0.2592616154305637,0.5484538203530013,-1.5858973185688257,2.1642690150626,0.0723926387454615,9.564574351039528,-0.0653609707951545,0.0421082489192485,0.1867657154798507,-0.7921533040478251,-0.0700099919297968,0.0862613600185232,-0.6001255832718858,-0.2450202256441116,0.0404670946300029,0.1975495517253875,0.0288513302803039,-0.0421802401542663,-0.0243508219718933,-0.1008862555027008,0.031775914132595,-0.0118564420104026,-0.1117321401834487,-0.0049146600484848,-0.0168915135681629,110
1734064789597910300,0.9093357353493572,0.2563346768668852,-0.8557312786728143,2.1093036452963947,-0.0339732273626257,9.577059738603234,-0.3638925850391388,0.2326190620660781,0.0590589120984077,-0.7911528470390988,-0.0641190746034629,0.0871470207605232,-0.6019728554479908,-0.1755932122468948,-0.0126603050157427,0.2317496091127395,0.0376887321472168,0.0147146582603454,-0.0098944306373596,-0.079976662993431,0.0226992852985858,-0.0546563038170337,-0.1008007228374481,-0.0224084503587335,0.0616547844022512,111
1734064789637910000,0.4887701898932456,0.3299588804010301,-0.8280828087687492,2.0742228334344923,-0.2029165730752982,9.582630816733836,-0.5490813255310059,0.066529743373394,-0.0681292116641998,-0.7920383982117197,-0.0560093256504842,0.0910206985476128,-0.601043537659399,-0.0503998696804046,-0.1297800540924072,0.2816858887672424,0.0424719452857971,-0.0078538060188293,-0.0426873564720153,-0.0523267239332199,-0.0039119068533182,-0.0604576835721731,-0.1078167259693145,-0.0107806294724345,0.0244797767400741,112
1734064789677910300,-0.1458786896176636,-0.2799970910757779,0.5090379018962383,2.016947287029773,-0.399956180408597,9.588657237416506,-0.4347041547298431,0.1633706539869308,-0.0812708511948585,-0.7939475967953853,-0.0458953986476821,0.0949113382647308,-0.5987759995953843,0.0191419217735528,-0.2226193398237228,0.2950087189674377,0.0219477415084838,0.0015550255775451,-0.0271970629692077,-0.0120315551757812,-0.0356273278594017,-0.0404991836488246,-0.1123410761356353,0.0010819134851917,0.0345884983003139,113
1734064789717910300,-0.2296051667049527,0.1285358520854264,0.4382283356577158,1.9890441117122768,-0.49529765543323,9.590034955510497,-0.1144415289163589,-0.0653872340917587,0.0025243514683097,-0.794535587245139,-0.0410392115269314,0.0967475259601531,-0.5980542247026368,0.2782911956310272,-0.2165805250406265,0.3106560707092285,0.0284820199012756,-0.0101021528244018,-0.0485829710960388,0.0127671901136636,-0.0453454628586769,-0.062539166021347,-0.109557993710041,0.0333664091594517,0.0063280339777469,114
1734064789757910300,-0.0529544683352112,0.0662513184122741,-0.2213911728501319,1.995400348871201,-0.5581101219706237,9.585263503324985,-0.2190950661897659,0.0513656176626682,0.084274061024189,-0.7942465669674011,-0.0386986427187239,0.0989443743997585,-0.5982347359529512,0.3492415249347687,-0.0368331782519817,0.3840206265449524,-0.042707622051239,-0.092793583869934,0.0410614013671875,0.007157836575061,-0.0695835053920745,-0.0761053345590829,-0.1358990669250488,0.0671688716486096,-0.1386211197048425,115
1734064789797910300,0.5115113062724471,0.1570956646807491,-0.2527630471915006,1.972173787062615,-0.6733453976519406,9.582667641612886,-0.3190204501152038,-0.003544473554939,0.0497663468122482,-0.7934974921891012,-0.0333826017006144,0.1015161068086758,-0.5991174555703286,0.4146458208560943,0.0510932691395282,0.2890063822269439,-0.0742027163505554,0.0435773134231567,0.0117146670818328,-0.0052424347959458,-0.0733266249299049,-0.0985802012175321,-0.1377797722816467,0.0701599797559902,-0.1008908162474632,116
1734064789837910300,0.6797388980813324,0.1053429733507335,-0.2702431743025779,2.03842817421481,-0.7676389345262199,9.561690320035815,-0.2028084099292755,-0.3374024629592895,-0.1467411667108535,-0.7938612684224466,-0.0314458566584109,0.1072409286575772,-0.5977413890901154,0.5312778949737549,-0.0059989392757415,0.1818436980247497,-0.0293521285057067,0.0718414783477783,-0.0584864914417266,-0.0055019464343786,-0.0672314539551734,-0.1258797115534544,-0.1287632584571838,0.0545164934875443,-0.0780477007985115,117
1734064789877910000,0.2614091488532722,-0.0662079907272011,-0.4757154780089855,2.238885718499124,-0.8171027112014592,9.51262964426875,-0.1426477283239364,-0.7085788249969482,-0.304432213306427,-0.7947430225728425,-0.0352787598753355,0.1172445513541785,-0.5944685036203838,0.2749574482440948,-0.1074444949626922,0.1510974317789077,0.0029385089874267,0.0036232471466064,0.005598098039627,0.0045280121266841,-0.0595606081187725,-0.0949766237676143,-0.10513836145401,0.0554564229524694,-0.0028647417813539,118
1734064789917910300,-0.4300450292021036,-0.0267162305552512,-0.5862199257761239,2.5622309529140592,-0.8356452068470418,9.429053535437584,-0.1864354908466339,-0.7716549038887024,-0.3102312088012695,-0.7952854285764853,-0.0440590574755906,0.1315707005421819,-0.5901433438988646,0.4758492708206177,-0.1213672906160354,0.2751798331737518,0.0421562790870666,-0.0035136938095092,-0.0217834413051605,0.0129350824281573,-0.052602544426918,-0.0793278037369251,-0.0892127901315689,0.0391202873778995,0.0280079508662223,119
1734064789957910300,-0.6311942090123891,-0.0185445414721965,-0.34909167008996,2.811114820584655,-0.9139970051586628,9.35054172425866,-0.2561643421649933,-0.6115763187408447,-0.0259186681360006,-0.7940582593693934,-0.0484568640072819,0.1445925083486614,-0.5884015297075936,0.5381895899772644,-0.1814644485712051,0.3772522211074829,0.0530145764350891,0.0048403143882751,-0.0098634958267211,0.021519549190998,-0.0599080398678779,-0.0614373422592878,-0.1291003078222274,0.061235371680092,-0.041772272324562,120
1734064789997910300,-0.1712538077622652,0.1014143286649137,-0.4066343429982662,3.070632018211484,-1.0058239327237009,9.25904534382224,-0.2617223560810089,-0.8348878026008606,-0.0497129335999488,-0.7909642752061383,-0.05307005317788,0.1584412603029315,-0.5886046641968289,0.7221991419792175,-0.2092420607805252,0.4467867314815521,0.0397496223449707,0.0181224346160888,-0.0190732777118682,0.0462113097310066,-0.0631570145487785,-0.1261982759833335,-0.1487157940864563,0.0211980151230469,0.0421884519100189,121
1734064790037910300,0.1553618266254663,0.0517049066655337,0.3547515955477953,3.4244185681194064,-1.0846532123539596,9.125089877840876,-0.2173463404178619,-0.994361400604248,-0.0928326696157455,-0.7874941523364584,-0.0611424455393473,0.176100778200067,-0.5874547766344913,0.479748398065567,-0.2938920855522156,0.4627346098423004,0.0068403482437133,-0.0261438488960266,-0.0007953643798828,0.0758239328861236,-0.0389961674809455,-0.0773281543523073,-0.1425376087427139,-0.0010970745217055,0.0141308166831731,122
1734064790077910300,-0.2889908371314406,-0.1893668990146368,0.6064946520417929,3.719882108396292,-1.1479443657863884,9.0008380597502,-0.1891090720891952,-0.6101478934288025,0.0217546839267015,-0.7844883433734109,-0.0680372523197813,0.1909343075154608,-0.5860827624144472,0.4502554833889007,-0.2897410690784454,0.5214791893959045,0.0048277378082275,-0.0354472994804382,-0.0011474192142486,0.0684996172785759,-0.0757522955536842,-0.0313783040821552,-0.1273744255304336,0.0279673996601253,-0.0618979455083608,123
1734064790117910300,0.1994073045790195,-0.0418343777753412,0.4228782063126564,3.8577170461595056,-1.2288881533525884,8.93186623033285,-0.1631247550249099,-0.179984450340271,0.2047127038240432,-0.7801632526893649,-0.0700632495619523,0.1992302552770993,-0.5888494709983964,0.6724147796630859,-0.1890751719474792,0.6230975985527039,-0.0326709747314453,-0.0110503435134887,0.0244125425815582,0.0375038683414459,-0.0495555698871612,-0.1264782619684934,-0.1196928992867469,-0.0788896132490597,-0.0082429276883602,124
1734064790157910300,0.2256333404645323,0.2118224033854901,-0.183524091270566,3.9148394478291273,-1.310910456870496,8.89527574456036,-0.1298659592866897,-0.3438558578491211,0.1512741148471832,-0.7760234411543732,-0.0696782817777535,0.2039904048884136,-0.5927230511950231,-0.2613278329372406,-0.3719778656959533,0.4567303359508514,-0.0162339508533477,-0.1244892477989196,0.109649658203125,0.0263832136988639,-0.0091229677200317,-0.1313151806056499,-0.1056245639920234,-0.0714487226585857,0.0487263292461633,125
1734064790197910300,0.2469654668286442,0.2174469652689993,-0.2443500236332416,4.066189116203785,-1.3805800592936577,8.816489792615174,-0.1687367558479309,-0.6324678659439087,-0.0314508415758609,-0.7721471775719283,-0.0725392516813894,0.2126550870643857,-0.5943942990470301,-0.2427589297294616,-0.4214483797550201,0.2884816527366638,-0.0461147725582122,0.0268046855926513,-0.0045453608036041,0.039996113628149,0.0020989589393138,-0.0973369231581687,-0.102051168680191,-0.0554731183589436,0.065396309018135,126
1734064790237910300,-0.8997732494950293,-0.1407012869797647,-0.2188549323707818,4.31809437752217,-1.4327381165541708,8.687445479550957,-0.1661462783813476,-0.7263578772544861,0.1221117153763771,-0.7677556250988188,-0.0793400793402099,0.2253191399426679,-0.5945482740472599,-0.1494897007942199,-0.4538666307926178,0.1113207936286926,-0.0430445075035095,0.0384129881858825,-0.039232313632965,0.0694783851504325,-0.0238894000649452,-0.0158861359179019,-0.1313549727201461,0.0387907905620522,0.0678419486045837,127
1734064790277910300,-0.4779840074628591,-0.1536662747539579,-0.0310901347905397,4.508472864732146,-1.544720527919382,8.570758543756604,-0.2442747801542282,-0.437486320734024,0.27993905544281,-0.7616665856302949,-0.0825288007970606,0.2370694701780493,-0.5973702766979816,-0.0624219104647636,-0.4319889545440674,0.0377351231873035,-0.0134782791137695,0.0198727250099182,-0.0376972258090972,0.0846074447035789,-0.0585039854049682,0.0002308861464262,-0.1473195403814315,0.0946630734395701,-0.0285445419609546,128
1734064790317910300,-0.0876423353567719,-0.0788458654388785,0.1714449464201927,4.580960301055014,-1.682239093209803,8.506189333212376,-0.2105048447847366,-0.022184133529663,0.468080073595047,-0.7551713475190629,-0.0814286027633568,0.2442834839014822,-0.6028359702205595,-0.0562971755862236,-0.3688808977603912,0.1113181263208389,0.0016802251338958,-0.0366547107696533,-0.024173229932785,0.0678859949111938,-0.073878102004528,-0.1232400106996297,-0.1299648582935333,0.0905172058064956,-0.0204436530917882,129
1734064790357910300,0.5875879992589355,0.3843751649171114,-0.0196259069681167,4.488568433083594,-1.8475316544801,8.52113672697544,-0.2532711029052734,0.3025356531143188,0.4540260732173919,-0.7490219095335329,-0.0741523963463407,0.2450395253515946,-0.6110837310686142,-0.0578748360276222,-0.2570299506187439,0.2371707409620285,0.0096026062965393,-0.0104053020477294,-0.0036640465259552,0.0740266367793083,-0.0206043049693107,-0.2230512150168418,-0.103350356221199,0.0171132848263718,-0.1281044018656015,130
1734064790397910000,0.6419546724796295,0.3483503502033651,-0.5703098244607449,4.383923524999618,-2.0157623150289057,8.537464761441946,-0.4329685866832733,0.1259689927101135,0.1994887739419937,-0.7454192194657653,-0.0653377185530496,0.2458483956577464,-0.6161490833464776,-0.3066439032554626,-0.2215939611196518,0.2847431898117065,0.021607369184494,-0.0658656954765319,0.0138847529888153,0.0702849477529525,0.0034353844821453,-0.2125999636292457,-0.0872188210487365,0.0418145953626371,-0.1119289276123046,131
1734064790437910300,0.6573074321731924,0.0234799520477652,0.2031026519656181,4.545741688157618,-2.204747448184341,8.405099779522418,-0.4986287355422973,-0.5866621136665344,-0.2446426004171371,-0.7433215640838172,-0.0630697802677121,0.2597717696608124,-0.6131996567539172,-0.3323761820793152,-0.2241574227809906,0.2227745503187179,-0.0060576498508453,0.0353787541389465,-0.0337066501379013,0.0855152383446693,0.0142804030328989,-0.1572147610157728,-0.0601461753249168,0.0187223639908246,-0.1121767648935317,132
1734064790477910300,-0.2293488538563251,-1.1023412100620569,2.0240303771585224,4.613880281621218,-2.3406704148463904,8.330891803017257,-0.3360407054424286,0.4405257999897003,0.1184057742357254,-0.743578095374523,-0.0591615936577633,0.2678481630974431,-0.6097941394184823,-0.2295123636722564,-0.2142287790775299,0.1939531564712524,-0.0055446624755859,0.0128828883171081,6.003677845001221e-05,0.1067240014672279,-0.0293876882642507,-0.1449111597597599,-0.06919626891613,0.0341539610742591,-0.1104647002786397,133
1734064790517910300,0.161227796049416,-0.4563496832817793,1.0240157152354716,4.369050657777488,-2.422079262641072,8.438916708928346,0.1408578902482986,0.4330978095531463,0.3569232821464538,-0.7419991230044887,-0.0490545391540386,0.2594776437820701,-0.6161998998673309,-0.3158464729785919,-0.2225645333528518,0.2093054205179214,0.0130659937858581,-0.0223963856697082,-0.0048061609268188,0.1188982501626014,-0.0366650931537151,-0.1203325988203287,-0.1013844609260559,0.0698065449421294,-0.2068172885745763,134
1734064790557910300,0.6760822752699256,0.2668566006042063,-0.4904904378145933,4.359522366453707,-2.379290652880817,8.455999361154436,0.2214172780513763,-0.2872448861598968,-0.0220828466117382,-0.7387968951635584,-0.0519260205656442,0.2572308541076958,-0.6207375300120173,-0.1738304644823074,-0.2363271117210388,0.3221376836299896,0.02706179022789,-0.0179609060287475,-0.0020879507064819,0.10024394094944,-0.0625152662396431,-0.1998281603395938,-0.1189810186624527,0.0908785225327126,-0.2803781993478536,135
1734064790597910300,0.4253662237361073,0.3843658125668764,-1.0639724625706672,4.370668614368141,-2.363323122289777,8.454723349869251,-0.135585218667984,0.1607486307621002,0.0240293629467487,-0.7376191382146835,-0.0534292825954585,0.2570494069904081,-0.6220843176239765,-0.0233810376375913,-0.5031826496124268,0.4547775387763977,0.0783978104591369,0.0016432404518127,-0.0730111747980117,0.0673847645521164,-0.0462665297091007,-0.3478255956768989,-0.1239057704806327,-0.0007983107708394,-0.3168880210995674,136
1734064790637910000,0.0925648864507675,0.2821479854993522,-0.4223270021706819,4.343591514611244,-2.42840013622567,8.450234806278347,-0.2351136803627014,0.067933902144432,-0.0077391858212649,-0.7376200529686353,-0.0498463903326959,0.2582116620235134,-0.6218992890867646,0.972104549407959,-0.5306539535522461,0.897161602973938,0.0697292685508728,0.0042464733123779,-0.0674042701721191,0.036681018769741,0.0018660835921764,-0.2937807017564773,-0.133932814002037,-0.0313017682472243,-0.3332119639128446,137
1734064790677910300,0.0112044078424572,0.0388090386047959,0.0799731159031391,4.286687139606475,-2.52638456350714,8.450566814711689,-0.290553331375122,0.1947023719549179,0.0564634837210178,-0.7376085065208875,-0.0439564451893129,0.2592466442054127,-0.6219266848724513,2.6661970615386963,-0.4734591245651245,1.1584795713424685,-0.0287215709686279,0.189267098903656,-0.0757355988025665,0.0224840901792049,-0.0384820736944675,-0.0735790309518575,-0.0819382965564727,0.097447927518282,-0.1697866578191518,138
1734064790717910300,0.04038666318506,-0.0870765181675553,0.4558627765476703,4.243737640196085,-2.607597158077359,8.447574062636495,-0.1395837962627411,0.0434977300465106,0.0230273474007844,-0.7372839315696602,-0.039326027357439,0.2602826260947515,-0.6221886755247162,2.6923816204071045,-0.0042230901308357,0.9442450404167176,-0.0944742262363433,-0.0341137647628784,0.1122224926948547,0.0148352850228548,-0.0093209333717823,-0.16956629306674,-0.0096137449145317,-0.0488082719085738,-0.1091658926397561,139
1734064790757910300,0.0411889194786548,-0.1156385957852006,0.3655640814632177,4.224529958640039,-2.644127730356157,8.445846215930581,-0.0592212490737438,0.0841196849942207,0.0452962815761566,-0.7366463513672945,-0.0374500770854987,0.2607281782415341,-0.622872672061514,0.1897938251495361,0.4849064946174621,0.4523098766803741,-0.0933648645877838,-0.2046471238136291,0.2219004333019256,0.0304262042045593,0.0010672286152839,-0.1506301219284534,0.0029343049973249,0.029075269570481,-0.1311971071839332,140
1734064790797910300,0.2203454631894826,-0.0748684862405061,0.3150309950560331,4.187080517950654,-2.651678291866183,8.462112291076778,0.0611656159162521,0.0702067986130714,0.0238136239349842,-0.7361178300403763,-0.0362076389633067,0.2593093782013855,-0.6241620030831243,-0.8060627579689026,0.4188081920146942,0.0087518747895956,-0.1220928430557251,0.1207897067070007,0.09281587600708,0.053262360394001,-0.0214338097721338,-0.1327431675821542,-0.0131140667945146,0.0333577326626516,-0.0845996066600084,141
1734064790837910300,0.4218246056064963,-0.0553317188605666,-0.0956926630824804,4.174743014425039,-2.621834357744455,8.477492815560103,0.1260259002447128,-0.0475105568766593,0.0221117082983255,-0.7352638857014784,-0.0374527265238841,0.2576149212188734,-0.6257944723004081,-1.1768759489059448,-0.1381935626268386,-0.1828242838382721,-0.0248752534389495,0.0041179060935974,-0.1699308454990387,0.0483003258705139,0.0067156553268432,-0.1717564965873956,-0.0037132641300559,-0.0244913941126316,-0.0400344887465238,142
1734064790877910000,0.4639508059352636,0.0024932781204581,-0.4550251566797494,4.211326193673909,-2.5826944797500966,8.471410865297914,0.0205654948949813,-0.0913097560405731,-0.1328391879796981,-0.7349197701548541,-0.0403768432893789,0.2577750234234549,-0.6259509181465177,-0.9478444457054138,-0.4481599628925323,-0.063420258462429,0.0152830481529235,-0.0608311295509338,-0.1184598803520202,0.0367705672979354,0.000986733008176,-0.0476373649656772,0.016157329082489,0.055176601364091,-0.02092529912889,143
1734064790917910300,-0.1741793398201465,-0.3157031952291727,-0.1947474960744381,4.230255935071408,-2.5749960342019795,8.464320030254125,-0.0866155177354812,0.1069108247756958,-0.0248105563223361,-0.7357435593869006,-0.0409433763129309,0.2583862068326004,-0.6246931432777557,-0.4436470568180084,-0.4525553286075592,0.1366638988256454,0.095995545387268,-0.0351682901382446,0.0376988053321838,0.0169015936553478,0.0172157827764749,-0.0819452927589416,0.0056472057476639,0.0156157945439219,-0.0768003310859203,144
1734064790957910300,0.0497448586389422,0.231439688655734,-0.1255342591166496,4.193379033572971,-2.5985569425314665,8.475462186515331,-0.0612776763737201,0.0445535890758037,0.0099541116505861,-0.735859981766518,-0.0387664567956211,0.257621548343535,-0.6250106564392197,-1.2297046184539795,-0.2712371051311493,0.0634440183639526,0.1033139824867248,-0.1157619357109069,-0.0076990127563476,0.0021246476098895,0.0021569831296801,-0.0664502019852399,-0.0002445885911583,-0.0388673446632921,0.024084639942646,145
1734064790997910300,0.3840276666536927,0.3014376462504267,-0.1042237600624561,4.18590475216955,-2.6253096326395866,8.470911099082231,-0.1100248396396637,0.0267956592142581,-0.0723522901535034,-0.7359263808046771,-0.037373511956821,0.2582768711508378,-0.6247469444627275,-0.5009124875068665,-0.2899474501609802,0.4921169877052307,0.0048132538795471,-0.1630386710166931,0.0302405059337615,-0.0091925421729683,0.0559075623750686,-0.1371814422905445,0.0259342901408672,-0.1341323569182306,-0.0437058707356452,146
1734064791037910300,0.0218169872716069,0.0965858125299215,0.1044242510706186,4.175068885378539,-2.6546403565421697,8.467116967496276,-0.1252358853816986,0.0928404852747917,-0.0527272596955299,-0.7367667429676206,-0.0354456030765001,0.2589223441963034,-0.6236006329452969,-0.2843628525733948,-0.3811664879322052,0.1198705360293388,-0.0726634263992309,0.1782120466232299,-0.0852227807044982,0.0111575284972786,0.0091048255562782,0.0659469286382198,-0.0078709051012992,0.0521650532568804,-0.1287806936919689,147
1734064791077910300,0.0088964231610298,-0.1750920707508921,0.0536725534766912,4.149831568269431,-2.6796941337779163,8.471630645528435,-0.0473449639976024,0.0423029847443103,-0.0190654546022415,-0.737153423255082,-0.0334473858554794,0.2587437485650602,-0.6233280074695908,0.1179041862487793,0.2162432968616485,-0.1047108396887779,-0.2095243632793426,0.0191085934638977,0.1323878318071365,0.0007597580552101,-0.0565411522984504,0.014088146585226,0.0291440971195697,0.077706522678025,0.0297153393059968,148
1734064791117910300,0.017961773148179,-0.1770522649079561,0.0553062921583652,4.143609625014663,-2.685964007827639,8.472690383714436,0.0070775812491774,0.0194353852421045,0.0152789382264018,-0.7369608739272694,-0.0330701312124438,0.2586878091367378,-0.6235989668967336,0.4678765535354614,0.6602473855018616,-0.074551336467266,-0.1305261254310608,0.0041224956512451,0.1397193819284439,-0.018864132463932,-0.048092283308506,-0.0657844315528869,0.0439707078039646,0.1235924773991107,0.0226946468889713,149
1734064791157910300,0.2387389057531952,-0.0652697600290179,-0.1243657998591661,4.133372600899636,-2.685817585094273,8.477735392144321,-0.0046623544767498,0.0327283591032028,0.0050524757243692,-0.7363719251168795,-0.0330080525598451,0.2581980839520983,-0.6245003318897056,0.6068394780158997,0.8546623587608337,0.0287446901202201,-0.0070569515228271,-0.0625763535499572,0.0771386325359344,-0.0275971181690692,0.0048627406358718,-0.1467699393689632,0.0312613658607006,0.0518537770843133,0.0001730184793472,150
1734064791197910300,0.1106719132885336,-0.042454993891716,-0.224729377362132,4.134546613115072,-2.686036780802905,8.477093587109445,-0.0048156538978219,-0.0426099486649036,-0.0066627506166696,-0.7361217739391527,-0.0331379774120322,0.2582448198289225,-0.6247689933634017,-0.1095260381698608,0.425247311592102,-0.0386428050696849,0.071086972951889,-0.0592892169952392,-0.0372503995895385,-0.0449288263916969,0.0206334758549928,-0.1141506953150034,0.0053715799003839,0.0633272476591169,-0.0289934547722339,151
1734064791237910300,0.2777767846778035,0.0017950667232275,-0.2593932789862155,4.135036150197685,-2.703801277813316,8.471205698114632,-0.0848142206668853,0.04664933308959,-0.005832833237946,-0.7357593214366764,-0.0325457926711436,0.2589005496673897,-0.6249556696299052,0.0061211944557726,-0.0748038366436958,-0.1005093678832054,0.1082490086555481,0.0522874593734741,-0.0989435166120529,-0.0317722335457801,-0.0061534997075796,-0.041438510325551,-0.0207670759409666,0.112213936832454,0.0032119477838277,152
1734064791277910300,0.3102241792961955,-0.0789271139815449,-0.0761550189197063,4.136705836975574,-2.716004049043357,8.466485099333525,-0.0130986263975501,-0.0260925460606813,-0.0659799799323082,-0.7358218010675827,-0.0320504256400302,0.2594265864761579,-0.6246895230277103,-0.1623695492744445,-0.3658784031867981,-0.1807052046060562,0.0563877820968627,0.0700024962425232,-0.0645426362752914,-0.0182139631360769,-0.0249313656240701,-0.080245503103733,-3.39802354574e-05,0.0957990825990214,-0.0060544777333736,153
1734064791317910300,0.0864890736684203,0.0559782000705599,-0.2015694510489702,4.148105767390132,-2.7111475489228964,8.46246300421059,-0.0424482226371765,0.0159711875021457,-0.0627435371279716,-0.7362920580523319,-0.0324099158764699,0.2597769297786195,-0.623970826351698,-0.143805980682373,-0.2545212507247925,0.0581219568848609,0.0562283992767334,-0.0310601592063903,0.0140609890222549,-0.0303587652742862,0.0006161984056234,-0.2018354085087776,0.0119290743023157,-0.0335768553060479,-0.0257692320287227,154
1734064791357825500,-0.0418736868724226,0.0946197731539607,-0.1069838724255561,4.143440405927598,-2.7239021088168025,8.460652739918231,-0.0828997418284416,0.0476365499198436,-0.0610377267003059,-0.737015676155219,-0.031421067143529,0.2600759191345029,-0.6230418052970197,-0.1672700345516204,-0.1496609300374984,0.4112440049648285,-0.0264324843883514,-0.1309284567832946,0.1314925104379654,-0.054827481508255,0.0488809496164321,-0.0864476456794887,0.0414149202406406,0.022935241578659,-0.0314462958510266,155
1734064791397825800,-0.1605035734280943,0.1519248379141092,0.0059562780559062,4.131137389193475,-2.7437977726370093,8.460240067464113,-0.0625985637307167,0.0469397418200969,-0.024277601391077,-0.737529190270586,-0.0299809770608437,0.260286269008997,-0.6224170019652587,-0.0175100993365049,-0.245055079460144,0.2038326263427734,-0.0245338082313537,0.0889782309532165,-0.0974702090024948,-0.0279978569597005,0.0112991370260715,-0.03011982845366,0.0188348274677991,0.0844317758124321,-0.060778586089611,156
1734064791437825800,0.0339639366611838,0.0225002933606505,-0.199509011387825,4.124914276894927,-2.7664050335034727,8.455913436436653,-0.0988402217626571,0.0159915685653686,-0.0009726021671667,-0.7375343025826099,-0.0288208194650698,0.2608404939281071,-0.6222337093208323,-0.004793238826096,-0.0198115836828947,-0.1839498728513717,-0.1250012814998626,0.1031796932220459,0.1193764209747314,-0.0182211194187402,-0.0179548654705286,-0.0106558340489864,0.0186615008860826,0.1100601015331223,-0.0406646033436059,157
1734064791477825500,0.1731587646007537,-0.0767962394326925,-0.0862479583889246,4.113060465233028,-2.804775096169114,8.449044719710946,-0.1140554323792457,0.0280304849147796,0.0070473356172442,-0.7374940796936486,-0.0268309897110618,0.2617225819837302,-0.6219999257003795,0.1336573213338852,0.4176498353481293,-0.2547795176506042,-0.1272773146629333,-0.0162298679351806,0.157821238040924,-0.018478350713849,-0.0138727240264415,-0.0625695611596107,0.0231731738895177,0.1026061779311392,-0.0354074134677648,158
1734064791517825500,0.3199552997156977,-0.2331345098748803,0.0097322894632816,4.119942333701252,-2.8405715089544654,8.433719140285254,-0.097560815513134,-0.0460280701518058,-0.0174831971526145,-0.7372508789973938,-0.0256019854537733,0.2633335137984172,-0.6216600737797165,0.0391680970788002,0.5508058071136475,-0.2216700166463852,-0.0256146192550659,-0.0372665524482727,0.0480707436800003,-0.0306286253035068,0.0036671627312898,-0.0683808777868747,0.02371889911592,0.0932182357929646,-0.019213234513998,159
1734064791557825500,0.3741925013378262,-0.2742652694255113,0.0629085838556289,4.131246110264957,-2.861091442152857,8.421243689593672,-0.0527223981916904,-0.0066386722028255,-0.0400778502225875,-0.7372885052122585,-0.0250430626666076,0.2645919462599544,-0.6211036532508808,-0.0013819956220686,0.3760869801044464,-0.0145662976428866,0.0734868049621582,-0.084439218044281,-0.0565170049667358,-0.0302698630839586,0.0106034902855753,-0.0645072512239217,0.0107225030660629,0.1180709557649679,-0.0052671267479658,160
1734064791597825500,0.4442436504244804,-0.0857207196444272,0.0312871186673641,4.1493315097928045,-2.858548771932721,8.41321177430749,-0.0016002519987523,-0.0392030887305736,-0.1050684303045272,-0.7376712726489224,-0.0255347598174258,0.2653178279757776,-0.6203189662619174,-0.1556684970855713,0.090768776834011,-0.0267005935311317,0.1002400517463684,0.0239205956459045,-0.0671684145927429,-0.0102199669927358,0.0127084953710436,-0.0820364781737327,0.0129000302404165,0.0914348869069945,0.0400794969320297,161
1734064791637825800,0.2520885089308023,0.0906707432672381,-0.0526280128598213,4.169852319774032,-2.832181281749904,8.411983109295369,0.0046312091872096,-0.0143472887575626,-0.1447305828332901,-0.7390558616180775,-0.0266982456453165,0.2653213378517388,-0.6186179780278281,0.1091959178447723,-0.3832103312015533,-0.0798714011907577,0.1445526182651519,0.132497489452362,-0.2398077696561813,-0.0078417398035526,0.0072073894552886,-0.0447714541405439,0.0123649071902036,0.094092059485428,-0.0194411980509758,162
1734064791677825800,0.1557645622074604,0.043536651648581,-0.0213812262028455,4.191357756878436,-2.813179059638083,8.40767109131515,-0.0103855729103088,0.0020180488936603,-0.1574210375547409,-0.7406104154903883,-0.0274964117507617,0.2656539638713029,-0.6165778063802885,-0.3440788984298706,-0.2415913790464401,0.124771162867546,0.0664009749889373,-0.159770667552948,0.0509261786937713,-0.0081482725217938,0.01962511241436,-0.0460042108058929,0.0130389276891946,0.0517947951723821,-0.0118611181855201,163
1734064791717825500,-0.0517915620356798,0.1504933438062667,-0.0012777648508548,4.2057314424067735,-2.7823195187330243,8.410760874024033,0.0091216564178466,0.0102156465873122,-0.1462835818529129,-0.7424425088160066,-0.0284729718025228,0.265254245784165,-0.614498611688154,0.0107428440824151,-0.1367362290620803,0.2769171595573425,0.0477296113967895,-0.1709765195846557,0.098523199558258,0.0027011800557374,0.0199034716933965,-0.037398879545927,0.0183379668742418,0.0465433591838926,0.0182978732347488,164
1734064791757825500,-0.2394569908946752,0.0641793344438075,-0.0672106649637222,4.215178192926943,-2.765886270326376,8.411452363419532,-0.0232249796390533,0.0081048002466559,-0.0854293033480644,-0.7438885157320027,-0.0288421597893875,0.2651479273424533,-0.6127760852684333,0.2178664654493332,-0.0875901505351066,0.3039060831069946,-0.0191185176372528,-0.0070924162864685,-0.0215942859649658,0.0155716855078935,0.0099335443228483,-0.0206400524467229,0.0078767519444227,0.0460348434061743,-0.0076356094449758,165
1734064791797825500,-0.1060816628888249,0.0258741537079215,0.0073141224056482,4.215429537339508,-2.7600524496063588,8.413242753967642,-0.0098389778286218,0.0435086786746978,-0.0471049435436725,-0.7446305751129961,-0.0287821709638556,0.2649822404536421,-0.6119489020999334,-0.0578551217913627,0.0363498479127883,0.0058478973805904,-0.0972934961318969,0.0448384881019592,0.0713593661785125,0.0215721800923347,-0.004924438893795,-0.0428892936557531,-0.0038168225437402,0.0469254538366571,0.0248456874430179,166
1734064791837825500,-0.1040735379368066,0.0331114114850759,-0.1025368298888206,4.210728227780759,-2.7557676118940115,8.417000645196437,-0.0095890304073691,-0.009292715229094,-0.0342495217919349,-0.7450567453345742,-0.0286452799385671,0.2646353000627588,-0.6115866034173876,0.2068124860525131,0.4674713909626007,-0.1343226581811905,-0.1308709681034088,0.0629329681396484,0.174868106842041,0.019253771752119,0.0068857828155159,-0.0749205086886882,0.0019853883422911,0.0144540207555517,0.0401829573065042,167
1734064791877825500,-0.0974813000649213,-0.044590252354741,-0.2266109533250331,4.220146921250224,-2.7636586574047803,8.409692952531575,-0.0501705221831798,-0.0051386104896664,0.0131583781912922,-0.7449702994292526,-0.0286171880029009,0.2653413538780504,-0.6113872956239355,-0.0235709212720394,0.4929052889347076,-0.1781746000051498,-0.0326350629329681,-0.0037245750427246,-0.0050813555717468,0.012364225462079,0.0268662013113498,-0.0435240844279527,0.0038913663011044,-0.0033477029927074,0.0297357975721359,168
1734064791917825800,0.2406950082570314,-0.0456792166352272,-0.1282096158057451,4.216111382123827,-2.7827707696318624,8.40541366777718,-0.0457095168530941,0.0153030585497617,-0.0005397076602093,-0.7447042427817775,-0.0277810126932563,0.2658409087836266,-0.6115328896934457,-0.0600751340389251,0.2469592839479446,-0.0999327227473259,0.072990208864212,-0.0679250359535217,-0.0044797360897064,0.0113746421411633,0.0187978968024253,-0.0106944124937057,0.000413455069065,-0.0271401367894373,0.0227379015088081,169
1734064791957825500,0.2490945878118276,-0.0439519544512033,-0.1835550709307193,4.213547961376607,-2.79482302647531,8.402699732643365,-0.0623722895979881,0.0061573567800223,-0.0626762956380844,-0.7451939478039256,-0.0269666808596105,0.2661847833631317,-0.6108227741854872,0.1301952004432678,-0.1603406816720962,-0.1082123667001724,0.1097583770751953,0.0854561924934387,-0.1972468346357345,0.0152096897363662,0.0163315329700708,-0.0317225874751806,0.0049302168190479,-0.0545035244081169,0.0414653983324766,170
1734064791997825500,0.366404623940587,0.0213999309033155,-0.0835024590730667,4.216845541617274,-2.8040608104199167,8.397966858902572,-0.0726697295904159,0.0407784394919872,-0.1032786592841148,-0.7462624034126514,-0.0261932955472277,0.2667147862556413,-0.6093190088419741,0.1613323539495468,-0.3309555053710937,0.0682194605469703,0.0631071329116821,-0.0051161050796508,-0.0550269186496734,0.0116557348519563,0.0069101136177778,-0.0139472768098115,0.0106577174738049,-0.0430497814470902,-0.0035696751803159,171
1734064792037825500,0.2493745737969875,0.0047951253220438,-0.0195499191224575,4.211771307092905,-2.8122958470627664,8.397759353631734,-0.10648163408041,0.0727422013878822,-0.1441170871257782,-0.7481599556222654,-0.0248516364362813,0.2668629357242448,-0.606978916510498,0.223180279135704,-0.1720546036958694,0.1268931627273559,-0.0078539550304412,0.0592962503433227,0.0216309428215026,0.0163230150938034,-0.0232124049216508,-0.0137099609225988,0.0034761088900268,0.0010581490171141,-0.0003501286119222,172
1734064792077825500,0.0391828403532505,-0.0412815661981701,0.1999427266299724,4.203043226236105,-2.814103188745677,8.401525428166986,-0.0347576439380645,0.0813924148678779,-0.1442775726318359,-0.7505655180270857,-0.0234589199104287,0.2666291153435837,-0.6041605157848273,-0.2009486258029937,-0.1310396790504455,0.0447770506143569,0.0014801025390625,-0.0375196933746337,0.0356418639421463,0.0187584534287452,-0.0124497395008802,-0.0582078588187694,0.0059035490266978,-0.0398979298200458,0.0262251591026782,173
1734064792117825500,0.1471867034763097,0.2696919701606035,-0.0880664059877395,4.20352691809982,-2.796921460059285,8.407019349408149,-0.0210112109780311,0.0125254066661,-0.1037251949310302,-0.752129905161991,-0.0235396328817587,0.2660961863306217,-0.6024444399921486,0.2469732165336609,0.2196391969919204,0.4123753905296325,-0.1076138317584991,-0.0598439574241638,0.3381646573543548,0.0299452133476734,-0.0028355699032545,-0.0191010063111782,0.0052130841650068,-0.0099858075666241,-0.0069978960633277,174
1734064792157825800,0.0830786807030439,0.1614344245374202,0.0381599270462989,4.203140549130738,-2.79819864038825,8.406787294217944,-0.0868093967437744,0.0572681687772274,-0.1276799440383911,-0.7538874087417469,-0.0226942500553922,0.2661918415256617,-0.6002337876692729,-0.1528000086545944,-0.2399087995290756,0.1043018326163292,0.0180378854274749,-0.0699734091758728,-0.1693537086248397,0.0446942709386348,-0.0256007406860589,0.017844284248352,0.0058185122907161,0.0299699716541916,-0.02987725186944,175
1734064792197825800,0.0146770523890852,-0.1392944889217615,0.2057271552503108,4.20226025916487,-2.798989498504996,8.406964404350518,-0.0235290098935365,0.0155745670199394,-0.1094686910510063,-0.7557239778412871,-0.0218179048995547,0.2662481724688346,-0.5979273251371299,0.2320211678743362,-0.0976024121046066,-0.189667746424675,-0.0677783489227294,0.1579720377922058,0.0024375021457672,0.0507877543568611,-0.0474135167896747,-0.0215028067559003,0.0247406810522079,0.0438674727718345,0.00576280131042,176
1734064792237825500,0.2678206233307719,-0.0246191852107644,0.1789455313086509,4.216968291214108,-2.7722572666630145,8.408457273256777,0.0688699856400489,-0.0014684792840853,-0.1245926469564437,-0.7569868113592823,-0.0228602855489483,0.2660176562394233,-0.5963916954307628,-0.0954645499587059,0.2563413381576538,-0.3720629811286926,-0.0658035278320312,0.0433518886566162,0.1592275649309158,0.0531453117728233,-0.0321993976831436,-0.0827706376671791,0.0451733991503715,0.0394730737377889,0.007357377025485,177
1734064792277825500,0.0601750672385096,0.0335413273349404,-0.1509048472166061,4.232478871817887,-2.720284502841532,8.417634266924857,0.0649551674723625,-0.007949436083436,-0.1609953194856643,-0.7587644540061345,-0.0248156284175182,0.2649609223232868,-0.5945220939671347,0.1749501675367355,0.3509648740291595,-0.1942494362592697,0.0066933929920196,-0.0368196368217468,0.0074916630983352,0.0476468615233898,-0.0138586331158876,-0.1240273616850376,0.0369322039186954,0.0258306250934489,-0.029642274069786,178
1734064792317825500,0.1518240078881383,0.0150371178731322,-0.1532376740783453,4.251112845139205,-2.68517051936239,8.419518180975318,-0.0004280139692127,-0.0201509017497301,-0.1371037811040878,-0.7605547534890794,-0.0261032456281972,0.2646557584774165,-0.5923111196863529,0.5078194737434387,0.0964957997202873,-0.1730634570121765,0.0762479603290557,-0.0099225640296936,-0.0833487808704376,0.0494867600500583,0.0119478683918714,-0.1272363868594169,0.0439256280660629,0.000108830669336,-0.0026104747593402,179
1734064792357825500,0.4308095838338136,0.0538990557089447,0.0744224960386753,4.267362261411548,-2.6580422739401457,8.41990571898818,0.0133235277608037,0.0288871172815561,-0.1851092129945755,-0.7624752481406012,-0.0269072785969231,0.2645378555223187,-0.5898534788622977,0.8796728849411011,-0.0974224880337715,-0.0979545935988426,0.0777414739131927,0.0657175779342651,-0.1088427901268005,0.0595987290143966,0.0195225030183792,-0.0873807618111372,0.0619791150093078,-0.0187190577888861,-0.0110714291125535,180
1734064792397825800,0.3334133317038417,0.0969879635900259,0.1234299803137779,4.276173344376683,-2.6119471699804064,8.429854866072535,0.0516969114542007,0.0118158096447587,-0.2032477259635925,-0.7651565248106353,-0.0280056674703855,0.2634628707032251,-0.5868035903949979,1.4260318279266355,-0.1157308742403984,0.0824628472328186,0.0790641903877258,0.0075096487998962,0.0124764144420623,0.0567270293831825,0.0084747159853577,-0.0489379261702299,0.0661996155977249,-0.0454881510425358,-0.0501513936132192,181
1734064792437825800,1.1109048941373825,-0.1138581421092152,0.3304395765900612,4.318097300131619,-2.5649542403981087,8.422911330544949,0.0092472229152917,-0.1289089322090149,-0.2716728448867798,-0.7675435382432292,-0.0301902217357489,0.2638931412663022,-0.5833746740561251,1.1627826690673828,-0.0325337722897529,0.2148098349571228,-0.0096822082996368,-0.056368350982666,0.0407261252403259,0.0529712662100791,-0.0069267032667994,-0.0483691863715648,0.0785045325756073,-0.0393772304141894,-0.0204155960410833,182
1734064792477825500,2.135535526400804,-0.0696992669090628,1.2600666970789431,4.426821586483717,-2.475935940513015,8.393055121463536,0.1665524095296859,-0.2877601683139801,-0.5329892039299011,-0.7709253325741916,-0.0356099145001486,0.2660925000476976,-0.5775817866478349,1.5544723272323608,0.1075776368379592,0.1844209134578704,-0.0245671272277832,-0.0415207743644714,0.1217751502990722,0.0486633330583572,-0.0215835850685834,-0.066246788367629,0.0933071002364158,0.013922142368555,-0.0824579184561967,183
1734064792517825500,1.8662644120007752,0.0261931565292179,1.987342860752344,4.598379345628619,-2.236939114475996,8.367878594630955,0.4974697530269623,-0.2896866500377655,-0.8573546409606934,-0.7773402182959934,-0.0479819945404674,0.2665607781924741,-0.5677897910560917,2.450077533721924,0.3021903038024902,0.2134211957454681,-0.0555092394351959,0.1095790266990661,0.0402258038520813,0.0149471201002597,0.0033463798463344,-0.1810644231587648,0.1263829320669174,0.0336653555734083,-0.1305617318898439,184
1734064792557825500,1.0536886767044662,-0.0496142179965972,2.0398890405476093,4.794298515830934,-1.8504842206753789,8.352292902964352,0.7782692313194275,-0.5324711799621582,-0.9569529294967652,-0.7852090128085069,-0.066815526202776,0.2639834635400763,-0.5561431227986016,3.0666544437408447,0.1392574310302734,0.2267950475215912,-0.0074985027313232,0.0868083834648132,0.0213480591773986,-0.0185536257922649,0.0324240811169147,-0.1278653324127197,0.1777864247560501,0.0446658383416011,-0.1010550668984651,185
1734064792597825500,0.9344155238091943,0.001454582722485,2.1786545371592045,5.114684023657441,-1.3199113633193076,8.262458318260311,1.1381255388259888,-0.9688584804534912,-1.1604444980621338,-0.7915559048445099,-0.0958443861190248,0.263715208004972,-0.5428695018551546,2.3135578632354736,-0.0206667799502611,0.3049448728561401,-0.0109797418117523,-0.081269085407257,0.0856791734695434,-0.0395006164908409,0.0412383191287517,-0.0045873277902603,0.2181751132011413,0.0879416470969095,-0.0530675733208656,186
1734064792637825800,0.9114163410156964,-0.3197022017374634,2.488267014297843,5.473170714080333,-0.6602744652852416,8.110414237880706,1.3270477056503296,-0.7636137008666992,-1.2324090003967283,-0.7968962810799111,-0.131832330395928,0.2628767393164805,-0.5277048165752048,1.1868053674697876,-0.1109226867556572,0.2878626585006714,0.0164648294448852,-0.0754886269569397,0.0343598127365112,-0.0492217689752578,0.0064017884433269,0.0708393768548965,0.248928964138031,0.135667092204839,0.0233306067049503,187
1734064792677825800,0.1785141541540622,-0.5701426877329125,2.3957594109922646,5.602136116689444,0.0577835507257841,8.048795693835615,1.538392186164856,0.0483596995472908,-1.0070898532867432,-0.8029456007610368,-0.1643096885890169,0.2502557551017982,-0.5154151212747698,0.6549044847488403,-0.0255623087286949,0.1212406679987907,-0.0283322930335998,-0.0564284920692443,0.0442054271697998,-0.0483701564371585,-0.0353317335247993,0.1060720182776451,0.2732412219047546,0.1548138738865032,0.1020300494104623,188
1734064792717825500,0.4773083001583814,-0.6589196166101843,1.753774927896261,5.5339329335570335,0.7781807868067174,8.05856071652472,1.678841471672058,0.1729270219802856,-0.9270503520965576,-0.8077145309749456,-0.1926645952722866,0.2280528340114767,-0.5083989290472405,0.1739498823881149,-0.0495937131345272,0.0647792518138885,-0.0220535099506378,-0.0239601135253906,-0.0226784944534301,-0.0478447191417217,-0.0703678503632545,0.1412514682084321,0.3021105825901031,0.1936001161376014,0.2013274589866399,189
1734064792757825500,0.8333265546411276,-0.9395131392091512,1.3761884002059697,5.45025570243895,1.567242886981368,8.000552764192223,1.7634587287902832,0.077084794640541,-1.244801044464111,-0.8121526844177093,-0.2239998742684491,0.2047178305712395,-0.4983197981331648,-0.0027162390761077,-0.0492643862962722,0.0987654477357864,-0.0303136706352233,-0.0399979948997497,-0.0115029215812683,-0.0486562401056289,-0.1094427555799484,0.171876908096671,0.3325487077236175,0.2334502430268563,0.2481254505187272,190
1734064792797825500,0.4348761026203632,-1.439716431134194,1.2670768681019544,5.263921814444661,2.418196575988829,7.912890847352147,1.8479220867156985,0.4816354513168335,-1.2924376726150513,-0.817450843445702,-0.2556345967695179,0.176651671261681,-0.4849940222449889,-0.2901951670646667,0.0315430052578449,0.1323849260807037,-0.0294881761074066,-0.0697304606437683,0.0377888083457946,-0.0619119480252265,-0.1292600035667419,0.1848737523138523,0.3780689835548401,0.225344878911972,0.2740834831178188,191
1734064792837825500,0.3071361501529813,-1.4206044650375842,0.6802221515536307,4.898756084649264,3.2476793146833773,7.850168725979327,1.7835443019866943,0.9914571642875672,-1.216845154762268,-0.8220795328486858,-0.2826444812334752,0.1409428323908732,-0.4737429513797839,-0.5491012930870056,0.0420467220246791,0.2295419126749038,-0.0412820577621459,-0.1349397301673889,0.052903413772583,-0.0750571936368942,-0.1434976458549499,0.2178098072320222,0.4401302933692932,0.2830746353575959,0.4271680124610662,192
1734064792877825500,-0.958942939083278,-1.7778458315744996,-1.2819184634029863,4.1878231530115,4.113838756129145,7.85549839656949,1.3651844263076782,1.6115392446517944,-0.6616683602333069,-0.8260985122231816,-0.3031403578512303,0.0871032257317444,-0.4669906646336535,-0.6962004899978638,-0.0121558485552668,0.3685706853866577,-0.0321092903614044,-0.12557053565979,0.0300336480140686,-0.0580795519053936,-0.1521620005369186,0.2420166122496128,0.4688646495342254,0.2943566750135272,0.4468950417160988,193
1734064792917825800,-0.9693523971557616,-0.9568366144537924,-1.212774200028181,3.564517359161377,4.524944983844459,7.936590287369489,1.0121814012527466,2.083855390548706,-0.0388319082558155,-0.8247506908048039,-0.3055047763639644,0.0448702008733972,-0.4737506285555429,-0.5956118106842041,-0.1368870139122009,0.6575460433959961,-0.0150394588708877,-0.1277012825012207,-0.0325608849525451,-0.0318167321383953,-0.1607454866170883,0.2165267816841602,0.44154953956604,0.2576061946400441,0.4811889409840106,194
1734064792957825500,-0.9069976477906108,-1.3112301903441548,-1.436233411324024,2.88071764138192,4.853002633734048,8.019988701546191,1.1936217546463013,2.043540477752685,0.1688953191041946,-0.8190814807711853,-0.3018181153411641,-0.0004522673364881,-0.4878639182700014,-0.7683053016662598,-0.1674855202436447,0.8972146511077881,-0.0258111506700515,-0.2209463715553283,0.0645647048950195,-0.0038647651672363,-0.1413339972496032,0.2463888359844684,0.3504501581192016,0.2453642787097021,0.529230795097351,195
1734064792997825500,-0.3788920573309063,-0.9152040428608657,-2.27547649653256,2.410970570258051,5.276391419917345,7.906787854301929,1.5613421201705933,1.190178632736206,0.1201624795794487,-0.8087506833135657,-0.3088329492114727,-0.0385773564552057,-0.4990554062158718,-0.9094868898391724,-0.2047037780284881,1.3180735111236572,0.0055192410945892,-0.2132521271705627,0.068715214729309,0.0483768060803413,-0.1381924450397491,0.2677262230455875,0.242146760225296,0.1640527903422713,0.6135796418666839,196
1734064793037825500,-0.7842097647726536,-1.5682184540152548,-2.954620789721608,2.148755073457956,5.7624108497977256,7.638577062609792,1.5712223052978516,0.5757603645324707,0.0741523206233978,-0.7976896767669711,-0.3254610017888556,-0.0679418798369063,-0.5031403237112058,-1.2581123113632202,-0.287175178527832,1.9166009426116943,0.0221662819385528,-0.3135650753974914,0.089045763015747,0.0907169058918953,-0.1397937983274459,0.2624018131524324,0.168949693441391,0.0327800697720143,0.7037430201336741,197
1734064793077825500,0.3157914580345153,-0.3061298957198858,-3.526120116227865,2.087238820743561,6.194968154081701,7.310005617979169,1.375645399093628,0.2495567351579666,0.18781678378582,-0.7860041656678656,-0.3460416845000535,-0.0868825427573525,-0.5048802248459172,-1.3177740573883057,-0.3268310725688934,2.704345226287842,0.0490778908133506,-0.3745383620262146,0.1455710530281067,0.1249164566397667,-0.1282684653997421,0.1316793377429246,0.1298854053020477,-0.0991920769050251,0.8935378622367978,198
1734064793117825500,0.0309574483215808,-0.3535977493375539,-3.894421513700485,2.015336783093214,6.486345301827788,7.073621458658575,0.742672324180603,0.6223523616790771,0.3347088396549225,-0.7758139780099809,-0.358843885526045,-0.1028432433225019,-0.5086914127466782,-1.4234395027160645,-0.3105951249599457,3.5106441974639893,0.1194656491279602,-0.3569089770317077,0.1901201605796814,0.2082266062498092,-0.1604603230953216,0.3969634283334016,0.1038441956043243,-0.1513596417794004,0.9508671846553682,199
1734064793157825800,0.4782694002754986,0.674302113854885,-3.118616004657745,1.986112296044081,6.585216594946384,6.990040089130401,0.3116521537303924,0.4538258910179138,0.553019106388092,-0.7664223533203866,-0.3618057240054799,-0.1127108876233181,-0.5186421227652142,-1.911823987960816,-0.2617900669574737,4.188072204589844,0.2257496565580368,-0.2926885485649109,0.2299056649208068,0.2846634685993194,-0.1335548758506775,0.2580821963876485,0.0692347586154937,-0.3102047074107453,1.0682298277541995,200
1734064793197825800,1.34767673760131,1.070920089751482,-1.7356109101742505,1.9319304778710007,6.613868104413151,6.97816377337575,0.0920774564146995,0.6550372242927551,0.1474871337413787,-0.760422286718201,-0.3602734926195902,-0.1200652360518173,-0.5268256674039253,-2.0123000144958496,-0.1909578740596771,4.619564533233643,0.3058582842350006,-0.2393668889999389,0.1938137412071228,0.3601922988891601,-0.1375271379947662,0.5338023407965898,0.0287294127047061,-0.2590577816878445,0.960688905967772,201
1734064793237825500,0.6101932142987847,1.015478773036599,-1.0849334175348282,1.764555703499168,6.621275750321149,7.015371514263749,0.0417675636708736,0.6093747615814209,-0.0010364020708948,-0.758204827993093,-0.354218529335094,-0.1297876829637413,-0.5317986855077912,-2.236201047897339,-0.0407918058335781,4.994673728942871,0.416227638721466,-0.0771045684814453,0.1763674616813659,0.3582823276519775,-0.1254684925079345,0.5176099154084921,-0.0186940170824527,-0.3551110765099525,0.955155529499054,202
1734064793277825500,0.4635759812735021,0.9911801980823278,-0.7559604063659906,1.5878057825386522,6.635100277534127,7.044480704370141,0.0188735574483871,0.5697546601295471,-0.0855622813105583,-0.7572796323030397,-0.3485413913779066,-0.1391055099117047,-0.5345056235318645,-2.0573630332946777,0.243848979473114,5.352936267852783,0.5445734262466431,-0.0086718201637268,0.0600488930940628,0.2640707790851593,-0.1176775246858596,0.2744447176456451,0.0220987610518932,-0.4620001833241433,0.92796152536422,203
1734064793317825500,0.1165247309699654,0.8739555021494626,-0.982160440802574,1.4649949570365248,6.656856182268261,7.05056323915422,0.1484148949384689,0.1570077836513519,-0.123466819524765,-0.7572867515991348,-0.3455260540800919,-0.145372128264439,-0.5347855624564796,-1.8919272422790527,0.4185059368610382,5.310575008392334,0.6577240824699402,0.1103994846343994,-0.0278106927871704,0.2007580250501632,-0.1087859794497489,0.2651689397782087,0.0049449745565652,-0.3638081411739811,0.985144717310369,204
1734064793357825500,-0.0318739786446094,0.9692664724379776,-1.2532570170640944,1.3880394353888927,6.727343676945567,6.999041726231575,0.2380343973636627,0.1755945384502411,-0.1589329987764358,-0.7571523620122231,-0.3470714083205174,-0.1506307408933239,-0.5325150200718085,-1.385553002357483,0.090853251516819,4.793028354644775,0.6802046895027161,0.3079119026660919,-0.1436567157506942,0.1695294976234436,-0.1100326180458068,0.1442728618562221,-0.0565764084458351,-0.3165453816743567,0.9620043724805116,205
1734064793397825800,-0.3730268185593187,0.6767074214309453,-1.0981073718845844,1.293447573155165,6.787964442124962,6.958514485532045,0.1588604897260666,0.3576852679252624,-0.0630014240741729,-0.7569044310474918,-0.3474205665873799,-0.156567701834829,-0.5309249786353555,-1.5453957319259644,-0.1393339335918426,3.7948601245880127,0.4208104610443115,0.4314138293266296,-0.04319678992033,0.1717051565647125,-0.1199573874473571,0.0633773704111576,-0.0889411270618438,-0.2308732686783187,1.0939987675219771,206
1734064793437825800,-0.458991868353635,0.5018202256023884,-0.8704419410705566,1.1649820828922093,6.837754601210356,6.932410322460532,0.2456065118312835,0.4956132769584656,0.0834899246692657,-0.7543936166120508,-0.3452746402201887,-0.1653204608447447,-0.5332400240726052,-2.1693427562713623,-0.4246182441711426,2.648588895797729,0.2394712567329406,0.4414848983287811,0.0096659064292907,0.0967386737465858,-0.1982605904340744,0.2507902858138084,0.00523342192173,-0.1456547172692138,1.2261261412933468,207
1734064793477825500,-0.7229241790089755,-0.0912123027980327,-0.6529547899216414,1.071579649638757,6.935785351851582,6.849597599217296,0.4980457425117492,0.4958668351173401,0.2315878719091415,-0.7488989716037834,-0.3463957948454639,-0.1754356719873442,-0.5370127307863495,-2.1130950450897217,-0.5013471841812134,2.2252657413482666,0.1046560406684875,0.4168566167354584,0.0048370510339736,-0.0334576293826103,-0.3596833348274231,0.4210620968014001,0.1846085339784622,-0.24381573409345,1.1642182589128611,208
1734064793517825500,-0.7729509233292192,-0.1394610776603221,-0.773470344093442,1.044842376295477,7.078007126396894,6.706750970771909,0.6703748106956482,0.4193957149982452,0.4668009579181671,-0.7396684629179884,-0.3513945186401217,-0.1859375057882673,-0.5429915206919615,-1.723698377609253,-0.5633723735809326,2.1808745861053467,0.0265008211135864,0.4100487530231476,-0.0073165744543075,-0.0862881615757942,-0.4444594979286194,0.6163672267585992,0.294230580329895,-0.3625925548391416,0.704233726260066,209
1734064793557825500,0.9958746395088732,1.0109253475159403,-1.433158241662383,1.0870808048270642,7.262237904632091,6.499887504968047,0.824590802192688,0.106917567551136,0.2736571133136749,-0.7288944069894591,-0.3611396842130862,-0.1953870608294871,-0.5478274452570562,-1.6893672943115234,-0.5075660347938538,1.861225128173828,-0.0640861988067627,0.4591931700706482,0.0740277916193008,-0.1035414040088653,-0.395652711391449,0.8926754001885652,0.3707587420940399,-0.541127167259343,0.3679702658221125,210
1734064793597825500,1.7984664486683903,1.680451333010197,-2.129927038869261,1.142511015626043,7.453876913297176,6.269352071675658,0.6742801666259766,-0.411118596792221,-0.1695814877748489,-0.7235208213917985,-0.3741478731679988,-0.2009113489040095,-0.5442110212396708,-1.674704670906067,-0.4024922847747803,1.3386849164962769,-0.0524498224258422,0.4996609091758728,0.0801252871751785,-0.1064329594373703,-0.250035285949707,0.8333078499406575,0.5085094571113586,-0.7267682872164994,0.2260901443213224,211
1734064793637825800,2.54715058042109,2.023342394894361,-2.3512346250891683,1.1688000337451696,7.624990435805916,6.055064008828997,0.4940494894981384,-1.0335016250610352,-0.8345814943313599,-0.7271551367155576,-0.3885448273037188,-0.2007749128593484,-0.5291197055818677,-1.1721794605255127,-0.1220091134309768,0.8620485663414001,-0.0603605508804321,0.5674793720245361,0.0722778141498565,-0.0973591655492782,-0.0181329697370529,0.8496680331110954,0.7145710587501526,-0.6972886563625186,0.0215229727610945,212
1734064793677825800,2.165242390139401,0.9738824418008328,-2.404706687557697,1.16284748201631,7.740262828627229,5.9081713198632,-0.0329992286860942,-1.9859793186187744,-1.5502469539642334,-0.743966950437411,-0.4032688099129721,-0.1901087864944136,-0.4977408900648501,-0.900983989238739,0.116604745388031,0.4633134603500366,-0.0341903567314147,0.5603958964347839,0.0799504518508911,-0.0879471078515052,0.1776656210422516,1.0048936661362649,0.8286374807357788,-0.5932968053597957,-0.1766194264486432,213
1734064793717825500,0.9460472171530128,-0.6182230837583541,-2.028583218157291,1.1387038053628056,7.751896567797661,5.897613100969791,-0.4779592156410217,-2.1098217964172363,-1.6714739799499512,-0.7700714735357842,-0.4131648250282136,-0.1691160660107627,-0.4557241635731666,-0.4318428337574005,0.3108185827732086,0.1191130056977272,-0.0052606463432312,0.672895073890686,0.0195123702287673,-0.1384284198284149,0.2321205139160156,0.924379282963276,0.8484779000282288,-0.1737790519235655,-0.1839724195599555,214
1734064793757825500,-0.3691442049723118,-1.4832511830866335,-2.3379572103649378,1.1685082111917435,7.673908488231897,5.9930053198009725,-0.7419012784957886,-2.0149037837982178,-1.2200441360473633,-0.7945425842036875,-0.4167833976406763,-0.14399084610616,-0.4174451209187035,0.1476807296276092,0.5173075795173645,-0.2371100187301635,-0.070951223373413,0.7298858165740967,-0.1030069589614868,-0.1803133189678192,0.0665005445480346,0.2294353630959987,0.7962398529052734,0.3230804825315251,0.0022203063979744,215
1734064793797825500,-0.7031666815504432,-2.164044412526488,-2.485957568311691,1.4081094328626989,7.509398894032835,6.147888422998785,-1.0102345943450928,-2.4159188270568848,-0.6871522068977356,-0.815154587039819,-0.4177381137370131,-0.1097259252905197,-0.385976726447919,0.8471056222915649,0.5739338994026184,-0.774836540222168,-0.039448082447052,0.8058907985687256,-0.2048137187957763,-0.149289920926094,-0.0585186183452606,-0.717204851514101,0.7249017357826233,0.2860124789077788,0.1261480071008205,216
1734064793837825500,0.5509291244253516,-2.793018022879958,-2.0189245784521104,1.900883013178408,7.238601592978835,6.337166547751426,-1.479772448539734,-2.651840209960937,-0.4724739789962768,-0.8340419083477856,-0.4160102923138528,-0.0618859682904187,-0.3570429757111648,1.2856433391571045,0.408214807510376,-1.7571263313293457,0.0410102009773254,0.7956616282463074,-0.085832878947258,-0.1736975312232971,-0.0105490982532501,-0.6760013189882039,0.6296635270118713,0.2834094202699139,0.0922416458457708,217
1734064793877825500,0.7696138147957623,-2.719389892089367,-1.6225380732238293,2.4359229329459366,6.842055513274669,6.589608692425489,-1.8921600580215447,-2.43886137008667,-0.4267627298831939,-0.8530463761961438,-0.4048597275049871,-0.0105862127769018,-0.3290720788830717,1.6819453239440918,0.359756737947464,-2.766931295394897,0.1005852818489074,0.6265162825584412,-0.0176907181739807,-0.212772935628891,0.0319737382233142,-0.2517009709179401,0.5223467350006104,0.4936357501029968,0.1124050206914544,218
1734064793917825800,1.5557088087931277,-2.7591081544935703,-1.4299158987402916,2.89571062785238,6.3472676705271,6.891838073575496,-2.104639768600464,-1.8319159746170044,-0.6049844026565552,-0.8715276739257302,-0.3838251054152725,0.035949275759489,-0.3030269909991028,2.3681561946868896,0.3885548710823059,-3.2930924892425537,0.1688311696052551,0.4379136562347412,-0.0392405539751052,-0.2193017452955246,0.0368562079966068,-0.1089659861534833,0.3701059818267822,0.5631570300966501,0.0586392359733581,219
1734064793957825500,2.2876076638311145,-1.5621780048072338,-1.3951543819606302,3.1192478728204964,5.844058036392926,7.2310215131133795,-2.232954978942871,-1.4560174942016602,-1.1007801294326782,-0.8907528159826713,-0.3557535266634426,0.0689923652250469,-0.2742973352645063,3.2849907875061035,0.4314405024051666,-3.3319969177246094,0.2755532264709472,0.3350021243095398,0.0280236676335334,-0.2268537431955337,-0.0239526703953742,-0.2211146939963102,0.2030511796474456,0.6303390534877776,0.2031283709287643,220
1734064793997825500,1.817111089514196,-1.00290687623322,-1.2774866184353828,3.360798913384974,5.327732900097966,7.516027956783771,-2.35588812828064,-2.132354974746704,-1.3656853437423706,-0.9097193485350636,-0.3255477905611799,0.1039609073878385,-0.2358419089233545,3.739762544631958,0.2334721833467483,-3.058738946914673,0.4551622271537781,0.2197678983211517,0.1428741365671157,-0.2149637341499328,-0.0613991171121597,-0.5983095920205116,0.2068084925413131,0.5311155859306455,0.613817103884369,221
1734064794037825500,-0.3179229171052575,-0.8382236790329217,-0.7638520363986492,3.87974679939896,4.804816987235844,7.617852839010953,-2.135679244995117,-2.8788444995880127,-1.0469814538955688,-0.9230212938657564,-0.2970244536936156,0.1528858325486737,-0.1908770838355484,2.970963716506958,-0.2426506280899047,-2.8224027156829834,0.487060546875,0.0205520987510681,0.2579967379570007,-0.1990001648664474,-0.0546991974115371,-0.8636614871501922,0.3004099428653717,0.454034172881022,0.7506848040506243,222
1734064794077825500,-0.9444210772559046,0.1215451894804835,-1.3598568586081266,4.699726381210983,4.350673874087631,7.426614227840304,-1.7522848844528198,-3.24454402923584,-0.1191173195838928,-0.9242872151155588,-0.2758947583338442,0.2126737922545579,-0.1560294181692155,2.063429594039917,-0.4813547134399414,-2.594725608825684,0.3602401614189148,-0.0865727961063385,0.3131758570671081,-0.1794339418411255,-0.0059038624167442,-0.9612555999398232,0.3997167348861694,0.4832836482409388,0.8332858573045581,223
1734064794117825500,-0.4028010484457016,-0.7395686590135097,-1.407111361736059,5.558265410780907,3.763445355790853,7.149304183891415,-2.220868825912476,-2.664284467697144,0.0630237236618995,-0.9205144925151096,-0.2472612141314533,0.2726697884291573,-0.1310200667797548,1.6231377124786377,-0.529118001461029,-2.330915927886963,0.2275751829147339,-0.2019342184066772,0.3426419496536255,-0.1498303562402725,0.0371193550527095,-0.8633359084576367,0.4492654502391815,0.4959485570900142,0.5552408501446247,224
1734064794157825800,-0.591501665571332,0.6260808115214109,-0.7681541175067425,6.407615463984012,3.150622377510369,6.722084733504056,-1.8629820346832275,-3.356919288635254,0.2511538863182068,-0.9115783498877752,-0.2157926703596471,0.3327199848924487,-0.1084241831307164,1.6462774276733398,-0.4715553522109985,-1.945720195770264,0.1444405317306518,-0.2555904984474182,0.329367995262146,-0.0959057137370109,0.126000091433525,0.1880804394006729,0.3606861233711242,0.7074012503802776,0.1759573092781007,225
1734064794197825800,-1.3993483265191315,-0.0124538233816623,0.4543628933787346,7.286390933635831,2.6379955112114546,6.00998158904314,-1.7582041025161743,-3.392972707748413,0.1251076161861419,-0.8940701240358835,-0.1878333104289301,0.3978628778812406,-0.0840385258718723,1.4488497972488403,-0.3388197720050812,-1.5565212965011597,0.1247859001159668,-0.3353930711746216,0.3998341560363769,-0.0261078253388404,0.1001588329672813,1.0506535467922686,0.2372213304042816,0.905850304386392,0.1275005907535553,226
1734064794237825500,-1.5865443843007088,0.7919970576480031,1.965284173679352,8.181372272679209,2.1603527184017,4.956652101039886,-0.884652853012085,-4.220614910125732,1.1063201427459717,-0.864754411102526,-0.1654075601482799,0.4689577942664156,-0.0701333521735977,1.010132908821106,-0.0624778196215629,-0.8877198100090027,0.0778834819793701,-0.4748836159706116,0.4448431134223938,0.0832309871912002,0.0552064590156078,1.1426818421483038,0.2252168208360672,0.8474194504667073,0.2321465217508375,227
1734064794277825500,0.6042454118102789,-0.8223932188250124,4.902891284757852,8.925574436712264,1.6400129396378993,3.716833534480631,-0.6347653269767761,-3.188211441040039,1.0936216115951538,-0.8274314247607324,-0.1463692523376291,0.5376525570848956,-0.0697348726604929,0.5309239625930786,0.229054644703865,0.0660290122032165,0.1166468858718872,-0.5266770720481873,0.4481965601444244,0.1487037390470504,-0.0904700011014938,1.7190496514737603,0.2937411069869995,0.9141386786516756,0.2295726526748389,228
1734064794317825500,-1.05135964923501,0.0648594987276941,5.122281054657697,9.359688322788475,1.076127376070991,2.7218720642939207,-0.00583375710994,-2.6026875972747803,2.0482265949249268,-0.7949685385437768,-0.1298973359493464,0.5868132836433441,-0.0824743932187949,-0.2874718308448791,0.44759202003479,0.6217147707939148,0.2693068981170654,-0.4418374300003052,0.431458830833435,0.2089393436908722,-0.1870280802249908,0.6622802521497011,0.4426406919956207,0.5496468295298517,0.3587647036466747,229
1734064794357825500,2.762691273677349,-0.9404903136782348,6.227511994811892,9.607849429142474,0.2374928512148559,1.9501829045288264,0.4214013218879699,-1.5449268817901611,2.1793675422668457,-0.7658991649646345,-0.1080375077902231,0.6236154571337758,-0.1132702382313866,-1.0939089059829712,0.8151775002479553,1.1036194562911987,0.2343597412109375,-0.547453761100769,0.3739870190620422,0.2951538562774658,-0.0908653140068054,-0.4458791426718235,0.5038347244262695,-0.3754716544281691,0.0419690370056778,230
1734064794397825800,3.191411191755533,0.081090429495275,4.001474359709024,9.693284317582846,-0.407898919573985,1.4297721063554285,1.5933929681777954,-1.3490259647369385,1.5220342874526978,-0.7415237272005964,-0.1040271034412614,0.6451978523250466,-0.151791613069935,-1.2847527265548706,0.9934012293815612,1.7123161554336548,0.3906493186950683,-0.3745355606079101,0.2889332473278045,0.3564297556877136,0.1780867874622345,-0.6049135203301906,0.3958868384361267,-0.671256754809618,-0.037963454626128,231
1734064794437825800,2.7059318601012228,0.4417278682112693,0.8018645908635109,9.739127784869074,-0.7748210280500352,0.8481894119258969,1.3704652786254885,-1.894404888153076,0.7801649570465088,-0.713593172657005,-0.1167265004252667,0.6656795773431274,-0.1844733077223737,-1.933966398239136,0.976722240447998,1.9785635471344,0.424921452999115,-0.3829980492591858,0.3219378888607025,0.3700644075870514,0.1749548912048339,-0.3448860350936651,0.3930176198482513,-0.3710048112124204,0.0402134985752403,232
1734064794477825500,3.2558944775819776,0.3485885428734123,1.0357686968713995,9.757938283801078,-0.9601573563743382,0.1764460609094239,0.8033536672592163,-1.409954309463501,0.3301471173763275,-0.6843959724878812,-0.1311221160682884,0.6883391205195577,-0.2014905803202908,-1.8613933324813845,1.0826739072799685,2.116907835006714,0.2721022367477417,-0.2694517374038696,0.0630856156349182,0.3063316345214844,0.1241943091154098,-0.6369271997064352,0.3615053296089172,-0.4121322097621858,-0.1820939123369753,233
1734064794517825500,1.272778879135847,-0.7707479333922267,0.1976853030920028,9.743840784865617,-1.0982256645020096,-0.1478559171079192,0.3992586135864258,-0.57264244556427,0.5785607099533081,-0.6691188253532213,-0.1373040845627083,0.6990609003054993,-0.2115218783026949,-1.6612634658813477,0.864346444606781,2.055349349975586,0.3195422291755676,-0.1913066506385803,-0.030339241027832,0.1722731739282608,-0.0097821950912475,-0.7508464243531227,0.2802436351776123,-0.3256738965582102,-0.2886450559010729,234
1734064794557825500,0.7310755559563636,0.6250356863826513,-0.940434930229187,9.722158529889583,-1.2403455130428076,-0.3340287601884454,0.4467940032482147,-0.5452526807785034,0.1765944212675094,-0.6588205300340181,-0.1407503856755706,0.7051383237703789,-0.2211895977612052,-2.584235668182373,0.3231568932533264,2.010775566101074,0.3356049060821533,-0.2803309559822082,0.145736888051033,0.0822825953364372,-0.1749082803726196,-0.6808510971069336,0.1959966272115707,-0.2806300917496904,-0.1241537645436823,235
