time_imu,phone_acc_x,phone_acc_y,phone_acc_z,phone_gravity_x,phone_gravity_y,phone_gravity_z,phone_gyro_x,phone_gyro_y,phone_gyro_z,phone_ori_w,phone_ori_x,phone_ori_y,phone_ori_z,watch_gyro_x,watch_gyro_y,watch_gyro_z,watch_acc_x,watch_acc_y,watch_acc_z,headphone_gyro_x,headphone_gyro_y,headphone_gyro_z,headphone_acc_x,headphone_acc_y,headphone_acc_z,frame_imu
1721468919380494000,-1.937429659809172,21.507277179312705,-0.9743383688747882,-0.4205597367698326,9.674356914272904,-1.549300549186021,0.7573559284210205,-0.5464906096458435,-0.1067806705832481,-0.0535504429549743,-0.0298057399877229,-0.7603314801171236,-0.6466374788325276,-0.8060230016708374,0.1325955688953399,0.0766518637537956,15.140613318920137,-13.272600601947309,8.261040268155933,-0.0254112761467695,-0.1165689677000045,20.65540199154616,0.1048634797334671,3.4677468377143144,1.0910806881181896,0
1721468919420271000,-1.929965169147402,13.065773376500603,-4.66493943772912,-0.3844795020744204,9.653553780218958,-1.68268727536872,-0.1061779558658599,-0.284587413072586,0.4914675056934356,-0.0579083762803862,-0.0384761263942869,-0.7644035353592974,-0.6409784419467942,-0.1604844182729721,0.5783494710922241,-0.4071598649024963,13.1584785482049,-9.66951356589496,10.33817796612382,-0.3465691208839416,-1.4506595134735107,10.060042577266692,0.3763028681278229,1.508279679750651,0.052267385686771,1
1721468919460047000,0.6001600056601688,-2.2642671202540394,-6.300636267733574,-0.141670406006556,9.722803257533908,-1.271775255051255,-2.119502305984497,0.6017144918441772,0.6068801879882812,-0.0486958200222185,-0.0445536571456541,-0.7502382727199015,-0.6578649038362538,1.6565581560134888,1.8485867977142327,-1.609088897705078,4.136816311612725,-2.1097703860253096,3.383553766028583,-0.4565714001655578,-1.501488447189331,-8.480258188620208,-0.0370573103427886,-2.6459970313593746,-0.4243045858539641,2
1721468919499822800,2.286218985951692,-12.99038291221261,-0.9515291556954384,0.1189060183496214,9.80399977775216,-0.1945452515006065,-3.144551992416382,-0.335666298866272,0.6881738901138306,-0.0390585395642543,-0.0484848304264401,-0.712438256059128,-0.698967434399601,3.428899049758911,2.4561383724212646,-2.3213844299316406,-6.154973997345566,3.5595991919815537,-4.836364510405064,-0.4572630226612091,1.3019051551818848,-11.271830104345083,-0.0037319334223866,-4.526322409677506,-0.1034010546358767,3
1721468919539599600,-0.1407067668724805,-15.119084208679196,5.754213514816761,0.3430168071556836,9.76759400089681,0.8042528011742979,-1.4816279411315918,-0.3772247433662414,0.3887946605682373,-0.0403134690616292,-0.060851165523433,-0.6747530324128065,-0.7344251289759333,1.1378328800201416,0.3357763290405273,-1.4298155307769775,-12.530272999614477,4.241381724719703,-12.749652248120308,-0.1587419211864471,-0.4096300303936004,-6.5567404420465225,-0.2310664653778076,-1.209376374283433,0.2879593021266162,4
1721468919579375600,-0.3166346673930064,-16.007915208399297,0.6059217475246638,0.4004317985637113,9.743335757952927,1.0379970404453576,-0.1266435086727142,0.2242569029331207,-0.0997641459107399,-0.0397698670709197,-0.0631483272210571,-0.665649434325694,-0.7425236871543427,0.1197956949472427,-0.1067766472697258,-0.3333933353424072,-12.10787994647026,2.4765964502483606,-12.548003886616227,-0.0508128479123115,0.0898884609341621,-10.10465913310647,0.1600734889507293,-2.794234120671451,0.1736952460976317,5
1721468919619141000,0.67214815069139,-14.862479099106787,-1.2838858179531991,0.2960070725690573,9.748316468974949,1.0262097181484102,0.0992442667484283,0.1454179286956787,-0.3035070896148681,-0.0410619076826289,-0.0572273620889578,-0.6666355036495021,-0.7420486348242622,-0.0963736176490783,-0.0241509526968002,0.3221055865287781,-11.63980183147192,3.625890988534689,-9.808743757408855,0.0295496918261051,-0.0396791435778141,-9.25505364383757,-0.0245792418718338,-1.925867670700699,-0.5894449157046153,6
1721468919698693000,-0.0052730450320988,-8.732914852827786,-1.6276088006168603,0.1180996978022623,9.791750537031888,0.5273235732365399,0.8886964321136475,0.114196240901947,-0.4036363363265991,-0.0437171979290903,-0.0497037414735661,-0.6860346333472211,-0.7245515030862352,-1.296807885169983,-0.627012312412262,0.7048991322517395,-7.4348676769226785,2.875898550662398,-7.675923919707536,-0.0764480233192443,-0.2416034787893295,-9.88167806071639,-0.0371102727949619,-2.0716187884159383,-0.1455827023457735,7
1721468919738468400,-1.6423995425134896,-1.4212901092141863,-1.5410200659662483,-0.0182785006723541,9.803389536899328,0.2521912203866057,0.4589841067790985,0.5116946697235107,-0.2746501863002777,-0.0443431493119124,-0.0419181800353157,-0.696695552334775,-0.7147669749189616,-0.8934167623519897,-1.2773830890655518,0.1134792491793632,-3.2787019371956583,1.4957032529026268,-2.782086879020929,-0.0021483311429619,0.5249947905540466,-9.943190806299448,-0.0989327654242515,-2.4328604766353963,0.0983740293872542,8
1721468919778244000,0.301674103621114,8.41128869729042,1.7997873220086096,-0.2267055728059261,9.80304934515953,0.1386181057638488,0.6503060460090637,-0.1718896776437759,-0.4713208973407745,-0.0455901833186664,-0.0287392932512791,-0.7015030267870702,-0.7106258342379214,-0.8294521570205688,-0.2200846076011657,0.1296042799949646,9.815240133690834,-2.883951216475665,2.970911414787173,0.1538371294736862,-1.08104407787323,6.311480317831039,-0.3885731995105743,3.743129712992906,1.7121930635772644,9
1721468919818020400,0.1788543824264779,10.183023644769191,-3.669733637392521,-0.3395651688644662,9.800478617888688,0.0754383174511371,-0.9566906690597534,-0.0713292062282562,-0.3537003993988037,-0.0542956664778445,-0.029528083644772,-0.7037626080205373,-0.7077416560940829,-0.2774211466312408,-0.773955762386322,-0.0895102173089981,5.8781602124810215,-2.0365815234348177,5.889944173777103,0.4379768669605255,2.662739515304565,13.234577453023194,-0.8263147473335266,2.377702068515122,0.5107742972347885,10
1721468919857795800,-4.82499380608499,10.163857172006368,12.378814025646449,-0.369675571902655,9.799594820791482,-0.0408948912684107,2.854524612426758,-0.5003613829612732,0.5857784748077393,-0.059234972731974,-0.0328233653421739,-0.7078189639868229,-0.7031402473112606,-0.9004866480827332,0.1961322575807571,1.4685708284378052,10.509285058891772,-8.90536400785446,6.70624360577166,0.1038690507411956,-1.7090553045272827,7.798350860458612,0.456535130739212,2.61652865255177,1.971174254631251,11
1721468919897571300,0.1020219391692429,5.110867095717787,-7.366278124821186,-0.0596743968405295,9.780766201680898,-0.7095136394243687,-0.3108959496021271,0.445274293422699,0.6798620223999023,-0.0470628129776269,-0.0461427159268895,-0.7307844955410272,-0.6794187541547958,0.286556988954544,0.387842983007431,0.6408070921897888,4.685971119841933,1.2841124663159251,5.71973198402226,0.365260899066925,0.3789238631725311,6.813194744971394,-0.5854177474975586,1.4891722436986865,-0.5059924332531168,12
1721468919937347600,1.3216459320269525,3.251184400194884,2.881926724910736,0.1624599133939482,9.776563489294052,-0.7501897140100597,0.8994210958480835,-0.6854983568191528,0.3154018819332123,-0.0427795998422603,-0.0583466068774169,-0.7313307750490115,-0.6781746274133961,0.1249595656991005,1.0574500560760498,0.6557865142822266,3.4298324098616835,-1.518340324385464,-0.530512067079544,0.0590068027377128,-0.2642341256141662,1.1974009090032427,-0.294018030166626,0.0607504377073608,0.1941334740956314,13
1721468919977123300,0.324084106616117,-1.931424574175477,-1.9125977086305617,0.0872696113205514,9.755376324358584,-0.9977049967411904,0.107645608484745,-0.063393697142601,-0.4102899730205536,-0.0495710183598405,-0.0615180765207212,-0.739651487673709,-0.6683367211499919,-0.8008665442466736,0.4372706115245819,0.0999137088656425,-1.334768010058999,2.6137095034778115,-2.578599611651897,-0.0412029214203357,0.086898997426033,-2.9254215832442045,-0.1805072128772735,-0.93098291901201,-0.0274389758888282,14
1721468920016898600,0.0536780425025615,-4.923005267503857,1.0529378583371638,-0.0147722472587134,9.756150231340529,-0.9938304203301668,0.0419313758611679,-0.0195975508540868,-0.119306705892086,-0.0530832757107948,-0.0576452729526776,-0.7398298931375108,-0.6682147072780376,0.0883570834994316,0.0805369988083839,0.0802953988313674,-2.920066193690896,0.7606535326182842,-2.5694237870275973,-0.1644860506057739,-0.169560819864273,-3.6310964482232926,-0.0450765825808048,-0.9440722638182342,0.1150999679970089,15
1721468920056675000,0.9759690388165414,-6.3164107599705455,0.763684936203435,-0.0748513067768421,9.749994631320238,-1.0499418913915752,0.1712172925472259,-0.0242744125425815,-0.2435527145862579,-0.0554931257116138,-0.0560959846199833,-0.7418796244215584,-0.6658741266077409,-0.2257079035043716,-0.0920106470584869,0.232341781258583,-4.54045088827312,3.674764032775164,-3.709184188771248,-0.3284807801246643,-0.3138628005981445,-5.239841266155243,0.2855972647666931,-1.1077254603836684,0.5363210456192493,16
1721468920096450300,0.1613954990328289,-5.716603038346767,0.6684310298644006,-0.1613956086306832,9.743950674980878,-1.0953469672605394,0.0607740245759487,0.0315202586352825,-0.1062798649072647,-0.0579496939822895,-0.0525184883717664,-0.74369950937111,-0.6639237763508417,-0.1379615366458892,-0.4358353316783905,-0.048384353518486,-4.81775859413445,3.6575112846791744,-2.125732509788871,-0.3556081056594848,-0.113381877541542,-6.98392540564239,0.4973725974559784,-1.6930515791252254,0.1091650432563852,17
1721468920136226000,0.6706579851988702,3.473184060332179,1.5545662146292627,-0.1491710274276323,9.739817520698905,-1.1331875992245972,0.1492683738470077,-0.3262343406677246,-0.0476245805621147,-0.0588981445191223,-0.0547472610029391,-0.7448350315856289,-0.6623855667677175,-0.7997051477432251,-1.4489184617996216,-0.4663707613945007,-0.0744797791838645,2.201867070442438,-0.0408019659876823,-0.2240983843803405,0.568562388420105,-1.8875211350411176,0.2219492495059967,-0.6765707163739949,-0.8168620343133807,18
1721468920176002300,-2.64514772105366,16.148186433398724,0.3087957539282739,-0.229540467438288,9.728945413550736,-1.210513050163165,0.3097919225692749,-0.1676717847585678,-0.3453752100467682,-0.0655953605333529,-0.0566485969327725,-0.7473352151334246,-0.6587703579437166,0.506794810295105,0.5934668183326721,-0.2172454744577407,19.81458361984492,-8.602309281796217,7.883363724094629,-0.0523668229579925,1.297468900680542,7.827585138249397,0.1829085499048233,0.6249461084030569,-0.6671234543971717,19
1721468920215777800,-0.5024534820046276,21.558079145789144,-11.27653199842572,-0.266234742378816,9.736231478905678,-1.14249121494703,-1.0869194269180298,-0.1635355502367019,0.0327809676527977,-0.0662311162031256,-0.054104672395621,-0.7452003244538797,-0.6613339177880094,0.31353560090065,-0.2725904583930969,-1.210299730300903,13.317211312568189,-12.90897537959218,11.702208895546198,0.0241578128188848,1.1560192108154297,20.993166796457768,0.2301035970449447,3.837014742131531,-0.0551930410422384,20
1721468920255553300,0.0153931099702604,19.89744310483932,-2.5091654254198072,-0.2923722049317322,9.783475460639597,-0.6070376363446935,-1.0998128652572632,-0.920851469039917,-0.0486114919185638,-0.0766986439226422,-0.0599374680744891,-0.7261940555878235,-0.6805637053610677,0.3123190701007843,0.3234958052635193,-0.9694615006446838,14.189895479607582,-12.483485529476404,10.678661966866256,-0.0940796732902526,-0.9918983578681946,20.87917801370621,0.1937845647335052,4.222090456533432,-0.3126207190439105,21
1721468920295329500,-1.7843167811542748,5.132876682952047,-2.325470069235563,-0.2295060902446508,9.80305051420331,-0.1338242225508205,-1.4299317598342896,0.3570548892021179,0.5232424736022949,-0.0801163896118331,-0.0646412016283069,-0.7089743659260425,-0.6976805984718537,1.1712881326675415,1.042958378791809,-1.2729591131210327,6.275221255970001,-6.474997978383303,6.403910764247179,-0.3728979527950287,-1.6119730472564695,2.2752415187329054,0.0991121754050254,0.8997676234718411,-0.2582925329363905,22
1721468920335105300,0.3606367811288684,-9.538074466648697,-1.6352888337254523,0.0100155759421584,9.795750420323014,0.4621298010531812,-1.6405359506607056,-0.0696759670972824,0.5263529419898987,-0.0691798095358474,-0.0666955512728941,-0.687015021828312,-0.7202612420136548,1.9959865808486936,2.0839200019836426,-1.4613181352615356,-2.9775626893699165,1.7447060707777735,-5.794129930141568,-0.159517303109169,-1.1357702016830444,-11.658232975697516,0.0214514769613742,-3.2361841072008013,-0.5209505676059052,23
1721468920374880500,0.4574155954802408,-15.618496204096076,0.0254145733721554,0.1321564080696087,9.725768537080288,1.2499465773418543,-2.1028482913970947,0.0528377518057823,0.0986824929714202,-0.0704755966631292,-0.0709274928526151,-0.6566884723826891,-0.7475044072426619,1.9151921272277832,1.0340015888214111,-1.3056033849716189,-11.505878514194489,5.242850384843349,-12.495085950899124,-0.2276272922754287,0.6704550385475159,-6.931808849436044,-0.3130542039871216,-1.1627994050908832,-0.0673524800206301,24
1721468920414656800,0.4284244057303294,-14.997788902306556,2.5880267806887627,0.1454358138215262,9.67562883390486,1.591052655505389,0.2542799711227417,-0.0059295506216585,-0.1495659947395324,-0.0711474665741414,-0.0700825536983879,-0.6434029271573283,-0.7589856280578142,-0.5598486065864563,-0.6350690722465515,0.0154525488615036,-14.049811301612854,1.2228934429824352,-13.297440444171428,-0.0701091885566711,-0.3013544380664825,-9.382675230622292,0.0793845206499099,-2.113981427849084,0.4408333305243402,25
1721468920454432500,1.5697990012049674,-13.95277716079354,-2.056931945285201,-0.0530723316943738,9.706959791713953,1.393738377682865,0.5706688165664673,0.2853375375270843,-0.6686186790466309,-0.0752495648921407,-0.0616530196739655,-0.6520260896114876,-0.7519298162128225,-0.6036227345466614,-0.6334528923034668,0.5502495765686035,-10.938424663686751,2.343543193803728,-9.16266236038804,-0.0659727379679679,0.1532606482505798,-10.274489630067349,-0.0287440512329339,-2.5035712586745618,-0.4628101845327764,26
1721468920494207700,-0.37288101688046,-11.63949904913306,-1.8233219268530607,-0.2177384955614805,9.734761406353115,1.1650664001747966,0.5596081018447876,0.1883444339036941,-0.0502141825854778,-0.0775295657846014,-0.0540257949052808,-0.6615733960883946,-0.7439025047570195,-0.4919294714927673,-0.7890815138816833,0.8041948676109314,-9.24272666170597,2.47424725677371,-5.323673980095983,0.0139292534440755,0.0002732569118961,-9.255680835825205,-0.2692630589008331,-2.079008606406301,-0.4573373791448771,27
1721468920533984500,-0.0025337197287008,-9.646158993792532,-1.1821757212121038,-0.1964840740760788,9.762875155681373,0.9044481094382704,0.7796862721443176,0.181958332657814,0.0684131905436515,-0.0736813496065766,-0.0536700037216944,-0.6715694391223448,-0.7353128360499706,-0.5989257097244263,-0.1475481539964676,0.6831446290016174,-6.291862594169378,2.298667694766819,-5.8628153438329695,0.0100248325616121,-0.0608437247574329,-9.562416296222803,-0.2870377004146576,-2.447006490887701,-0.3258202462263405,28
1721468920573759700,-0.0206487106772139,-8.105822233915328,-1.7767238418072462,-0.2234101662560366,9.78311013445854,0.6412737044781446,0.5631827712059021,0.2736048698425293,-0.1069990918040275,-0.0701628845110202,-0.0501638641973933,-0.6817534213694275,-0.7264798838599276,-0.211167573928833,0.1064492389559745,0.4580408930778503,-5.524024118483066,2.386795183292031,-5.194976873034238,0.0785203501582145,-0.0861562192440033,-9.920023865723609,-0.4028359949588775,-2.639572551269829,-0.378571374009177,29
1721468920613535200,0.0056606743765063,-4.587375136533379,-1.6048557015389202,-0.2374493591330014,9.791920632901787,0.4819749037299305,0.0982404202222824,0.5230689644813538,0.0349994748830795,-0.0658013876797487,-0.0459784051157109,-0.6879768195861213,-0.7212795033583217,-0.2328880429267883,-0.7443114519119263,-0.0355451181530952,-4.387468650260567,2.20722509034425,-3.293572758591175,0.0874366387724876,2.9537670612335205,-7.228111763146519,-0.4852702617645263,-3.945970206891,-0.2327307513795793,30
1721468920653310500,1.4218921667605635,7.888959936666488,8.193591118261217,-0.4408680365115404,9.79012439713478,0.3598441329138353,1.6541831493377686,-0.1406009793281555,-0.6850217580795288,-0.067660466017939,-0.0340727453376715,-0.6931753774867877,-0.7167768165546042,-2.504837989807129,-1.3401527404785156,1.1145027875900269,4.559710300016403,-2.4978742160767315,2.732973011761904,-0.1339347213506698,0.3041451871395111,4.098559938454628,0.3754121959209442,1.3841867054834962,0.46950928031262,31
1721468920693091300,-2.367437279610336,12.0595049148798,-3.3883681805729866,-0.5199701052011921,9.786539524385333,-0.3516744896573945,1.0303919315338137,0.263809323310852,0.0974814221262931,-0.0705002782556939,-0.0349866554077445,-0.718822887595353,-0.6907238103502644,-0.3240081071853637,-1.0175647735595703,0.7021607160568237,9.805931038075684,-6.126559803766011,10.02738884642124,-0.0438842326402664,1.2977244853973389,7.449340438911318,0.5186138153076172,1.28032198799178,0.4365349757432937,32
1721468920732867000,-1.7129178707204755,15.091709879541396,2.556231127977372,-0.576088627057895,9.774618200445175,-0.5434567427180708,0.995078980922699,-0.6751131415367126,-0.0241033341735601,-0.0727705959373887,-0.0342886674262796,-0.7256258466217816,-0.683370950058176,-0.7357882261276245,0.3883572816848755,1.2518210411071775,13.345375915300846,-6.130347505611181,8.945385052597523,-0.0650903061032295,-0.8938530087471008,12.047598203986883,0.3559261858463287,3.004470570039749,-1.2988336501076816,33
1721468920772642600,-1.2737203977696596,9.138564860963822,-5.197675026077032,-0.4635721088159829,9.750638774442672,-0.9383652843482791,0.1771176904439926,-0.1362215876579284,0.5373101830482483,-0.0746395176794356,-0.04713328179401,-0.7386621476604516,-0.6682706193607082,0.4404200613498688,0.7482965588569641,0.2982317209243774,7.235336453703045,-4.342523008596896,7.698229275017976,0.3161972761154175,-0.0398230403661727,8.123772316625713,-0.2353489398956298,1.6052240964598954,-0.6672339290343224,34
1721468920812419000,0.2987764459508471,1.6937766785293815,-1.6158908902943134,-0.2350305710208602,9.761130357840656,-0.9140319303415716,-0.0758582651615142,-0.2300837486982345,0.5951271057128906,-0.0699359004962575,-0.0590660913521466,-0.7369625872460872,-0.6697060379794277,0.1462659239768982,1.2328367233276367,-0.2604006826877594,2.014264185425639,-1.3253966628625988,-0.5924333934634923,-0.0836969017982482,-0.3706384003162384,-1.996714207948744,-0.0268633365631103,-0.9535787086363882,-0.2929004300569184,35
1721468920891970600,0.3221253372311592,-6.409909712401032,2.086971109718084,-0.1876010583858937,9.794263396635651,-0.45562213619221,-0.5623470544815063,-0.3052538335323334,-0.1278770267963409,-0.0703872008418707,-0.0599431284177963,-0.7208585752509369,-0.6868881689510425,0.2611403167247772,0.3044314682483673,-0.439322680234909,-4.476636295488476,3.915708339618146,-4.128073033186793,-0.4228365123271942,0.0051779765635728,-4.765466389100253,0.1227217018604278,-1.3359776781097057,-0.0155189191738609,36
1721468920931747000,0.9376973219588398,-7.68240626746416,1.8921710066735744,-0.2341011994825676,9.798730897438526,-0.3169363172207027,-0.1307936310768127,-0.4239494502544403,-0.1614993810653686,-0.0780096078436244,-0.0634987360408136,-0.7156306069388996,-0.6911983854870427,-0.2269183099269867,-0.0197907201945781,0.0060383421368896,-5.710492446511983,3.3902278369650243,-5.074048646408319,-0.4955050349235534,-0.036481786519289,-4.616238535185158,0.3943867981433868,-1.0648927922859788,0.2765252502467483,37
1721468920971522800,0.1964448015116155,-7.844791124594211,1.9150842647492885,-0.3234872001688927,9.7936712759614,-0.3869852012850344,0.5396327972412109,-0.3428836464881897,-0.1869017779827118,-0.0864507053683223,-0.0662698171228072,-0.7178712045701565,-0.6876013390533003,-0.755776047706604,-0.3573768138885498,0.4458967447280884,-6.150755502867698,2.465543141314387,-4.772501402303576,-0.5232044458389282,-0.0958923250436782,-5.717614261215925,0.6277145743370056,-1.4739695600003002,0.1622585456029512,38
1721468921011298300,-0.0912216186156496,-6.662370561775565,0.0308779533445835,-0.3933049423584714,9.77528163278997,-0.6779110250670463,0.7821598052978516,-0.3720757961273193,-0.1290915161371231,-0.0928852973204166,-0.0703442771602917,-0.7277468824159562,-0.6758760796952761,-0.6920061111450195,-0.4193610250949859,0.6508974432945251,-4.78847755459249,2.7976439291149378,-2.792135979348421,-0.4616091847419739,0.1150045990943908,-5.850450952300429,0.4109712243080139,-1.659349508270621,-0.9814745043650268,39
1721468921051075000,0.0364106356935575,1.7952262977033853,0.1340121646046638,-0.438486986593902,9.756347799739242,-0.8898311166733502,0.4516565799713135,-0.142617717385292,-0.1481011062860489,-0.0961474313665433,-0.0723815634307632,-0.7349351478417971,-0.6673731633780139,-0.7580490708351135,-0.7432973384857178,0.1057789847254753,1.0054016156584025,0.4027086939871311,1.6680068619787691,-0.3615434467792511,0.8829385042190552,-0.494843628055416,-0.037966851145029,-0.5497585828086361,-0.8576319977276027,40
1721468921090850600,0.5392967004291713,16.426662013995646,0.5949895076870918,-0.5361543107502162,9.722509243023396,-1.164359859340638,1.0800143480300903,-0.2019898146390915,-0.4250140190124511,-0.1012843575126425,-0.0732450156064411,-0.7443124344189335,-0.6560302241275366,-0.6239554286003113,-0.0253051668405532,0.1867138445377349,12.13501579067707,-7.102044420066475,5.105119491976499,-0.1231434792280197,0.4244958758354187,11.303027206641437,-0.150444746017456,3.0311314902111888,-0.1162396395514253,41
1721468921130628400,-0.5854412695538252,22.116430821430683,-8.76629105272889,-0.8064876475542784,9.668689974552391,-1.4270223692558706,-0.5553236603736877,-0.1984051465988159,-0.7136039733886719,-0.1128341598735753,-0.0682275741195588,-0.7537260071651581,-0.643824948024534,-0.6576425433158875,-0.1101539060473442,-0.4755009412765503,15.04080503721237,-8.064301306003332,11.699883667469024,0.0350338332355022,0.3503378927707672,16.719619708931447,-0.2471886128187179,3.65969242811054,1.3032187333241103,42
1721468921210180600,-2.151362625607848,10.331730689680576,-2.7629496323525906,-0.8392944500695914,9.764898185941576,-0.335746231630817,-1.3552250862121582,-0.0248630605638027,0.26336869597435,-0.1240374801024663,-0.0672962890376276,-0.7159535621571351,-0.6837370835432905,0.9743484258651732,0.4611705541610718,-1.0455783605575562,9.052007105973365,-8.08071584970951,7.174483633333444,-0.2325070053339004,-0.7391803860664368,9.162312231776118,0.237088531255722,2.0037074278369547,0.1516103925369214,43
1721468921249956000,-1.242099955494702,-5.354565377444029,-3.767006847664714,-0.6162492264021188,9.782491125777364,0.3057398369563743,-2.042249917984009,0.4412151575088501,0.9095395803451538,-0.1144997354306115,-0.067566637582034,-0.6927094310743982,-0.7088569166817695,2.1801910400390625,1.1575863361358645,-1.3765183687210083,0.2281950076460838,-2.5311346806436776,-0.705485187625885,-0.2774738669395447,-1.4632163047790527,-4.358261844998598,0.231321632862091,-0.9508229071222244,0.5488316406894475,44
1721468921289732600,2.8953686825469136,-14.198265833067891,-0.9656948975615204,-0.3235474059235304,9.744752639013528,1.05143717145063,-1.8341127634048464,0.2177127748727798,0.391794353723526,-0.1021862410671401,-0.0697476055435899,-0.6644749017104168,-0.7369982836549493,2.902557611465454,2.788752317428589,-1.0571959018707275,-8.089392492640018,2.731939284799993,-10.927913791066407,-0.3155775964260101,0.6287697553634644,-13.1394126132071,-0.0566160157322883,-5.370747865960001,-0.6600166911318898,45
1721468921329508400,1.1016576117120682,-15.717241825008392,3.340980406454205,-0.2785012812937609,9.669938513308765,1.6078345712192357,-0.6026570796966553,-0.0481714718043804,0.0851485878229141,-0.1006213047193647,-0.0667920179105126,-0.6430879256209809,-0.7562091057166829,0.3758767545223236,-0.7495032548904419,-0.1625314950942993,-16.467116773980855,4.832128480270504,-13.6760539768219,0.1039036437869072,-0.2159189283847808,-5.608444276922941,-0.2249190360307693,-0.6848961347140371,0.4901497711507603,46
1721468921409060400,-0.1611297607687301,-11.611616185951233,-2.026440653170645,-0.2292744917121715,9.702836574304104,1.4045464796841145,0.5112621784210205,0.2663053274154663,0.1292498111724853,-0.0901915936329928,-0.0627060036430386,-0.6515028921023721,-0.7506512238350941,0.2188559770584106,-0.2446511089801788,0.8210155963897705,-7.902669897589087,1.5535095451831815,-7.193845336407422,0.1987804919481277,-0.0766497552394867,-9.619889995548128,-0.3108512461185455,-2.3495725370958445,-1.32463459244892,47
1721468921448836000,-0.2156940571870654,-9.062378277862072,-2.064068373036384,-0.1690241855466738,9.73440075634718,1.1761183208692818,0.5984156727790833,0.2796273231506347,0.1795076429843902,-0.0837776365544444,-0.0628109467723818,-0.6603706820964902,-0.7436038157005511,-0.3997430801391601,-0.1139657422900199,0.572957456111908,-6.481130782049894,2.590958450226485,-6.354754811412096,0.1940701454877853,-0.1192313730716705,-9.66966671063006,-0.3005410730838775,-2.3339837766893208,-0.6076946389487012,48
1721468921488611600,-0.2644900541359558,-7.776891892844438,-2.2102052751988173,-0.1161879276304971,9.76168448459208,0.9308037630528212,0.5154198408126831,0.1320412904024124,0.1120669618248939,-0.0779666810271116,-0.062919655889577,-0.66976363865611,-0.7357845725517692,-0.3381691873073578,-0.320257157087326,0.4774301648139953,-5.17009552975595,1.6159069646462798,-6.123007664242387,0.208242580294609,-0.0805256590247154,-9.89775475077033,-0.398754745721817,-2.689654386778176,-0.6892270035251975,49
1721468921607939800,-0.8133164706610143,7.227261868318915,3.356872972112894,-0.6021056598352268,9.774113758054376,0.5239786467228085,2.047490119934082,-0.049577921628952,-0.5821635723114014,-0.088704307085204,-0.0419435307316456,-0.6866769722865593,-0.7203103687796518,-1.904964089393616,-0.699325680732727,0.2858111262321472,9.366091175568105,-2.7921929702326653,4.995593533852696,0.6592799425125122,-0.3933946788311004,5.129409299102425,-0.1895120739936828,0.677602835900709,1.2034939651813357,50
1721468921647715300,-0.3402433238543569,10.520016880786418,-3.465061544153094,-0.7217348230939358,9.77787457189262,0.2065529568162746,-0.5874723196029663,1.1802010536193848,-0.3673743307590484,-0.0802934466936024,-0.0272315925931962,-0.6990902449841283,-0.7099889259147408,0.6796624660491943,-0.5003946423530579,0.3584119081497192,8.216165938162803,-2.9111756157487627,6.880301365038752,1.1629213094711304,-0.1538446396589279,19.059382507413623,-0.1973296403884887,4.146576658126712,1.3393088683590293,51
1721468921687491800,0.0575073823992162,12.964205683904886,4.216843788051605,-0.9218141817156223,9.762603353002667,0.1105262303406838,1.266916275024414,-0.2990305423736572,-0.5592741966247559,-0.0869109304793466,-0.0199560295248299,-0.7028274948133888,-0.7057490757846021,-1.3754116296768188,-0.3265530467033386,0.8090264201164246,9.499224803772568,-3.770178755699098,7.195282091212272,0.7917197346687317,0.2559438943862915,9.583810381907224,-0.324268639087677,2.3800236433304844,-0.3709928650462999,52
1721468921727280400,-1.544485988511145,9.596460020121931,-0.9029881198883056,-1.0958696028951556,9.742404614582655,-0.2345564324367791,0.4575691521167755,0.801007866859436,-0.2782869040966034,-0.0859007798704843,-0.0080563337986432,-0.7154677805311728,-0.6932979459399438,0.4359853565692901,-0.0729658976197242,0.4303848147392273,8.107429669111967,-5.469044574061035,7.648771708887815,0.4841265678405761,-0.6251742839813232,6.496347640404105,-0.5256590843200684,2.077944630436599,-1.5592112639561295,53
1721468921767056400,-0.4160089050650596,3.917963132807612,-1.6982886029958724,-1.0969769796151667,9.740658063176271,-0.2942863497236743,-0.2890863418579101,0.3980046808719635,0.1599548906087875,-0.0776063432284408,0.0003424445247659,-0.717638008299927,-0.6920786334712977,0.3434610068798065,-0.0637949779629707,0.0844546556472778,3.91229736213088,-0.5852455277860165,2.551546477292478,0.4046719372272491,-0.1283633112907409,2.1970051634944974,-0.3119690120220184,0.7801873773887753,-0.0633509299288038,54
1721468921806833700,-0.8644155203878879,0.346516266644001,0.043366848039627,-0.9388671694558112,9.760606041705609,-0.1395831879363395,-0.4879814088344574,0.4080078601837158,0.2847826480865478,-0.0673863628810739,-0.0001693722688858,-0.7121212909954789,-0.6988149576161423,1.3414441347122192,0.1758822649717331,-0.0076752728782594,1.7754460769563911,0.5458709642529487,0.8345949671417474,0.2390578687191009,-0.1887162625789642,-0.4688769006932154,-0.0101239504292607,0.0639236700491514,0.0260533051005331,55
1721468921846610000,-0.7610130866456777,-2.338637593844533,-0.3081061642289161,-0.876321646758914,9.76619933166802,0.1542783057050779,-0.9887977838516236,0.182676300406456,0.1730984598398208,-0.061589671195528,0.0020755645469304,-0.7015195558664034,-0.7099808164026192,0.949209213256836,0.2363422662019729,-0.1786491423845291,-1.1879559851139785,1.913388566747308,-1.951488288038969,0.159513458609581,-0.0241109076887369,-2.338879585906863,0.1375736445188522,-0.4063492789791896,0.4897869291877373,56
1721468921886386000,-0.1592426866468042,-3.196249279436469,2.413015666219592,-0.825372892222926,9.761898419603703,0.4410223502904176,-0.3434340953826904,0.5611468553543091,0.1090144515037536,-0.0534900866142036,0.0071045665850965,-0.6909874411989022,-0.7208500516027866,0.7050601840019226,0.1434565931558609,-0.2206973284482956,-2.200759401461482,0.8535121413186192,-3.128628864628076,0.1372470706701278,-0.0645822435617446,-2.4005323244825005,0.2599468529224396,-0.3189367703229189,0.6442807773396373,57
1721468921926163200,-0.6365822587262838,-3.475592875039577,1.2841466608464718,-0.7920075790420175,9.76875018519461,0.3385233681939542,0.6443460583686829,-0.0318908058106899,0.0930468589067459,-0.047571621223381,0.0102172003567883,-0.6947198863928102,-0.7176326991225409,-0.2131827920675277,0.1192653328180313,0.0158170685172081,-1.3258540512412786,2.1638088502049446,-2.8905566060900685,0.0902769714593887,0.0616110451519489,-1.8278135391838848,0.1580640077590942,-0.3524421860942617,0.1770348936480469,58
1721468922005715500,-1.4561717452421783,-1.7429606884151696,-1.4595616799414155,-0.6984600382294506,9.779247613811492,0.22101134321969,-0.1424327045679092,0.2587378919124603,0.3645409345626831,-0.0401183255070012,0.0106013126495159,-0.699012996730615,-0.7139040019803946,0.0910319611430168,0.042349349707365,0.0210065059363842,-0.5735194341570139,-1.0103568999782204,-0.7252291680157185,-0.1290424019098281,0.2505577504634857,-0.7296989338409156,-0.3361339271068573,-0.1849442967994138,-0.2025833590655587,59
1721468922045492700,0.929476021580398,-0.0945125133872032,-0.730185329118371,-0.5890504730269313,9.78758698761165,0.1629095933902077,0.3590055406093597,-0.1831392794847488,0.1105826124548912,-0.0351606132269724,0.0075548374410861,-0.7011682014431203,-0.7120883150872499,-0.4757803082466125,0.2205558866262436,-0.0190114174038171,-0.755552994608879,-0.4311988754123449,-1.0622679967403412,-0.1594122499227523,0.3177001476287842,-0.5218428768031299,-0.484139621257782,0.0203107474271208,-0.1372229159452486,60
1721468922085268700,-0.0802474393324926,0.2070388223707676,-0.0244902981340885,-0.6071877854051068,9.787705645555258,0.0503779186783591,0.2093967497348785,0.1259928345680236,0.0006210551364347,-0.0388510907059536,0.00502566032159,-0.7052702911780349,-0.7078553510186535,-0.256075918674469,0.2761103808879852,-0.1244995594024658,-0.3145195384025573,-0.3493994208648801,1.0694792432934046,-0.1259329915046692,0.2243649065494537,-0.234180383932311,-0.5446396470069885,0.1967928112316876,0.0902458597855176,61
1721468922125042000,0.6601453590128571,-0.0760784465521574,-0.2661217104583978,-0.542829550730437,9.79159914586246,0.0175740033815207,-0.0331237874925136,-0.0084778303280472,0.2317903190851211,-0.0320778822931327,0.0070940610938202,-0.7064372933743593,-0.7070127793218592,-0.0168127473443746,0.255755066871643,-0.1218086332082748,0.5360170942366123,0.2552881817549467,0.3688648765742778,-0.1244749650359153,0.2007191330194473,-0.4050181399732828,-0.4891946017742157,0.0449333621374098,0.2362210959796793,62
1721468922164819000,0.3839609215604141,-0.1796235767006874,0.5951145953714847,-0.4800282266415655,9.794886496970056,-0.0122755944376578,0.2649767994880676,-0.5904796123504639,0.0758397057652473,-0.0359208736957429,-0.0013334923520691,-0.707547950986711,-0.7057505212212398,-0.6084100604057312,0.2107307463884353,-0.0575747862458229,-0.2443950318187475,1.2080693833380938,-0.3484948732405901,-0.126527652144432,0.2210648506879806,-0.265380792430602,-0.4127632081508636,0.0511042830244172,0.1572571571190841,63
1721468922204595200,-0.5942816516786813,-0.4020487687736749,0.0178431152045726,-0.4356740845976397,9.79644717041552,-0.1010414584982208,0.190116599202156,0.0596883259713649,0.1973043084144592,-0.0371492425868378,-0.0059636949311817,-0.7107152136534103,-0.7024730181308754,-0.2639389038085937,0.1869641691446304,-0.0787104368209838,-0.2478770287156105,-0.7343097155719995,0.2193494378894567,-0.1180677339434623,0.1638030856847763,-0.1898496044976636,-0.4063767790794372,0.2384042852376587,0.0220596894367015,64
1721468922244371500,1.2765396929740904,0.3058797203510999,-0.2192740528319962,-0.3634510713646188,9.797502816948294,-0.217367853884492,0.3273458778858185,0.2592602074146271,0.0162428151816129,-0.0320532883944768,-0.0062752112878684,-0.7148729242993606,-0.6984912363747399,-0.794632077217102,0.1206630617380142,-0.0946437269449234,-0.238149999949336,0.2802119028702378,-0.490893757918477,-0.1344643384218216,0.1868351101875305,0.0820764631242491,-0.4105025827884674,0.1583922986288554,0.0007194870806997,65
1721468922284148500,-0.5552886348091065,0.2650888602793216,1.009715971726179,-0.4430935670739039,9.791008194231988,-0.3320073008308187,0.4489097893238067,0.0948218703269958,-0.1332864314317703,-0.0339385314769508,-0.0026063939877979,-0.7189720910695332,-0.6942049990028443,-0.9568750858306884,0.0600082911550998,0.033146858215332,-1.0991536660671233,-0.0552720976278185,0.4035527435958385,-0.1792614907026291,0.2304226905107498,0.2595112428100779,-0.35158771276474,0.1742155801773071,0.113628297142405,66
1721468922323924500,0.2038326832732185,0.5328904866486788,-0.4188565861137583,-0.3845946163540706,9.780430686116215,-0.6046636372223496,0.7192555665969849,-0.0401650927960872,0.3346907198429107,-0.0299050808476757,-0.0031845007406897,-0.7285733494484873,-0.6843071535583066,-1.078648328781128,-0.0987720862030983,-0.0065830438397824,0.5601116710513829,-0.530594192405045,2.185108243343234,-0.1322287172079086,0.1264086812734604,0.2519674946333282,-0.2916423082351684,0.4495088044110685,0.1543234417547471,67
1721468922363700700,-0.0781048378132283,0.1488549289494752,-0.4558896645545959,-0.263068807427492,9.774213126775622,-0.7522838367450982,0.230863556265831,-0.4140532612800598,0.292632520198822,-0.0299905704604797,-0.012653333289699,-0.7336182217003279,-0.6787817919968986,-0.8174769878387451,-0.0198615062981843,-0.0421769917011261,0.3462766126692295,-0.1906903296381235,0.2884048539370298,-0.0710504651069641,0.0863168984651565,-0.1630172732820734,-0.3582348525524139,0.1023840048141311,-0.1188274914870038,68
1721468922403478000,-0.0032706283016595,0.1206599310785531,0.4482161342520266,-0.1100049738124012,9.763801038354634,-0.9090998807668684,0.5026146173477173,0.2101212292909622,0.3934005796909332,-0.0267817039908833,-0.0210684615748356,-0.7388554080511699,-0.6730018650763596,-1.0920350551605225,-0.1416879743337631,-0.1090528219938278,-0.0077460840821266,0.2635012988269329,0.3852922797620296,-0.0464930422604084,0.120452344417572,-0.219415744591318,-0.3558814525604248,0.0631055996984941,-0.0799294776908122,69
1721468922443254000,0.2496713099875487,-0.0673269848197698,-1.3008162022270262,-0.0409269303744891,9.753070970025655,-1.0229065849497914,0.0229216869920492,0.0277542192488908,-0.0748753547668457,-0.0229614524814348,-0.0223790593607482,-0.7427333959665062,-0.6688192103750448,-0.6713069677352905,0.0722997933626174,-0.0262313149869442,0.7533873410075902,0.2668383342951536,-0.9456675701856612,-0.0497966930270195,0.1093858033418655,-0.2409456950824707,-0.295428067445755,0.0898076784308068,-0.1879275686602108,70
1721468922483030000,-0.0060855487250722,-0.2385726092755794,-0.335534123250097,-0.0911788115203846,9.756869777786733,-0.9826228706825524,-0.1373253315687179,0.2220280915498733,-0.1089178621768951,-0.0228254687446396,-0.0183116797832757,-0.7414610609468606,-0.6703574422120645,-0.5804020762443542,0.0484161376953125,0.047766413539648,-0.5950467908322811,0.2694371186167001,-0.4158849864244461,-0.0393059626221656,0.0664504617452621,0.0546525911897188,-0.2911038398742676,0.2195110764582641,-0.2555510156759061,71
1721468922522807300,0.2324659994961693,-0.0690039781212806,0.3634755847513675,-0.0823795651235152,9.757589908754824,-0.9762415721476078,0.043172612786293,0.297842413187027,0.1184804067015647,-0.0195310710817568,-0.0153247554601833,-0.7413093954915071,-0.6707041974554345,-0.5618390440940857,0.0548622123897075,-0.0151524301618337,0.1813864947199821,-0.5175660762667655,-0.5733575215935707,-0.0302665159106254,0.0851113051176071,-0.1305185412020888,-0.2265532910823822,0.070954966058582,-0.0940124001116491,72
1721468922562583600,-0.6753647746503353,-0.5540449183583259,-0.7181390636242926,0.0034917802178271,9.75765654425025,-0.9790507112842052,-0.1333397328853607,0.549853503704071,0.3050242364406585,-0.0107200885494292,-0.0121148655912447,-0.7414653903196408,-0.6707962068083495,0.0142732672393321,0.0124835968017578,-0.0714008510112762,-0.1515332082480192,-0.1898269908070564,0.5217725880458951,-0.0116645349189639,0.1069702953100204,-0.1106827086771838,-0.1525653451681137,0.1173570901408791,-0.0797001989795826,73
1721468922602499800,0.4888242947006598,0.1337333476632833,0.4774151215337217,0.1420476600874215,9.762251470825076,-0.921241131068021,0.02434260584414,-0.1225414648652076,0.2360385656356811,-0.0013480197751052,-0.0122412154820349,-0.7394730420958419,-0.6730736305996574,-0.22444449365139,-0.0189392529428005,0.040922824293375,-0.0182686471402645,0.1263333005398511,0.5756590765342116,0.0050686821341514,0.1064613685011863,-0.1525639486683998,-0.1285227239131927,0.1065302469065412,-0.0570432628856506,74
1721468922642136800,0.3174088666358962,-0.2781833196520805,-0.4432264362059533,0.1795377067818306,9.747698629337547,-1.058536408996582,0.4283253252506256,-0.401290088891983,-0.0252875443547964,-0.0039568075252869,-0.0181150773251127,-0.7440713558704192,-0.66784273991992,-0.7655474543571472,0.1379976421594619,0.0980535522103309,0.1392109022915363,0.6170014330089092,-1.271081719829142,0.0203227624297142,0.079441599547863,-0.1051802296702284,-0.1162289604544639,0.1670625848838128,-0.0498246184774208,75
1721468922681912800,-0.4633302628841251,-0.1379331374406814,-0.24057182026878,0.1522335842028725,9.743621004635097,-1.0995820475470277,-0.0828055068850517,-0.2221110612154007,0.0860006511211395,-0.0082657091135486,-0.0208981016108137,-0.7454034812294185,-0.6662347216229313,-0.4349111914634704,-0.0107100857421755,0.0538741052150726,-0.3682943832099437,-1.0140332504034042,1.199206277924776,0.0425299108028411,0.0786944925785064,-0.1410198422764893,-0.1069489642977714,0.0494360073189018,-0.0225071500764111,76
1721468922721689000,0.171956585736759,-0.0694715956330299,0.7679097873568534,0.2200938813148997,9.7293271063447,-1.2091918114967644,0.5489704608917236,-0.2184467166662216,0.240326777100563,-0.0080787384103549,-0.02609019148937,-0.7489799228986744,-0.662029552889358,-0.4989103972911834,0.0622783675789833,0.0284376572817564,0.4507224910497665,-0.2936526914626359,0.1299132048532366,0.0572339594364166,0.092353954911232,0.0101697378823417,-0.0678663998842239,0.0621470796975307,0.0727843003775924,77
1721468922761465600,0.0726382795030251,0.1519131474763154,-0.2122610870636999,0.3227041965650394,9.700826403525472,-1.4000838011868295,0.3334515392780304,-0.1551098674535751,0.3660107254981994,-0.007039679559143,-0.0332536280309384,-0.7551679289832757,-0.6546496200504687,-0.4791305661201477,0.0271339118480682,0.0440220087766647,-0.1725052691280841,-0.08914718696177,0.568116113808751,0.0576528087258338,0.0826893374323844,-0.005134729685841,-0.0828009098768234,0.0138043338083196,-0.0312309589001815,78
1721468922801242600,0.1849923006596043,0.1277788231730461,-0.4325635878942906,0.4324124524531886,9.685005149537323,-1.4778592609152197,0.0837544649839401,-0.4389435648918152,0.2536306977272033,-0.006517758140222,-0.0414097107506629,-0.7573870128508782,-0.6516192400218535,-0.4413368701934814,0.0608600229024887,0.0437884517014026,0.2812403691351413,0.4413210409760474,0.1107891099274158,0.052098162472248,0.0825482904911041,0.0320312721151509,-0.08925112336874,-0.0051831165676994,0.0364928546338924,79
1721468922841019000,0.3792664801338687,0.0039864392876625,0.4242167614400386,0.4956645525168627,9.67217957023382,-1.5406632153525948,0.2649219930171966,-0.270811915397644,0.1274212747812271,-0.0100232324838391,-0.0506520005374806,-0.758937637637489,-0.6491129260796528,-0.5551947355270386,0.024052795022726,0.0452512577176094,-0.0142506436705589,0.3994850557655096,0.0701771135538816,0.0490853525698185,0.0887595936655998,0.0482426282492931,-0.0749643146991729,-0.0498357700590975,0.1139376918851397,80
1721468922880795000,-0.3918440760256722,-0.1501753638982772,0.2087666690766811,0.5175396997164935,9.655006317114829,-1.6381047679290175,0.2718358933925628,0.1433926224708557,0.044699415564537,-0.0097566773388397,-0.0524154740856984,-0.762084456598049,-0.6452787796439899,-0.3924401700496673,0.062439814209938,0.0534019283950328,-0.1959849289149045,-0.3858803087830543,-0.3155196553558111,0.0596934221684932,0.0698322728276252,0.0039878634889464,-0.081320010125637,-0.0335709575715125,0.0520492722569499,81
1721468922920572200,0.2399785670833662,-0.1504454130113124,-0.59890931147933,0.5055159017825499,9.631483987230062,-1.7746427977494894,0.1859480589628219,0.7865602374076843,-0.2858069241046905,-0.0022337084154805,-0.0429543806331114,-0.7672265130679643,-0.6399323724909017,-0.4484938383102417,0.3077886402606964,0.0270564761012792,-0.1352338153541088,0.4631967726975679,-1.297635672494769,0.0474318116903305,0.0927459150552749,-0.0488983293787809,-0.0895955041050911,-0.1438087880084291,0.0149550541964243,82
1721468923000124400,0.4841287207629531,0.0425391650438308,0.5016134509839117,0.3758385880444199,9.65412661167085,-1.6813564651563762,0.1334389299154281,-0.0503204353153705,-0.1705062240362167,-0.0026528430477122,-0.0329236406624732,-0.7646184372785546,-0.6436362286067134,-1.0475341081619265,0.0801701247692108,-0.0902438536286354,0.6288134513556957,1.5527064121067522,0.8939593025192618,0.0359696336090564,0.0442067421972751,-0.0663126521114958,-0.1088250428438186,-0.1999298488820902,-0.0481012698501115,83
1721468923039901700,-0.1815379589546471,0.1496697524636983,0.1786392418384552,0.3443435987800359,9.648750179329516,-1.7185587992168962,0.0382640175521373,0.3291472196578979,-0.0650207847356796,-0.0016678955783948,-0.0293293288063278,-0.7660038559317106,-0.6421644245264138,-0.0168010294437408,0.0943357944488525,-0.0181587394326925,-0.2379483398973941,-1.902848468032479,0.4501438143789767,0.0680081620812416,0.0375459976494312,0.0453455277014523,-0.1309469491243362,-0.0775052918843459,0.0346402969862101,84
1721468923119454000,0.3011085604265332,0.5730588309079409,0.6918460999824106,0.5904322462415322,9.662003044134378,-1.570818115119636,-0.0844327509403228,0.8811662793159485,0.3712077438831329,0.0239051289741417,-0.0183795911813774,-0.7614142257247258,-0.6475639774673445,-1.7310945987701416,0.0717609822750091,0.2947805821895599,-0.6549778201818466,1.515994345781207,-1.314673024274409,0.0678402259945869,-0.0161299295723438,-0.0180656696307822,-0.1562418490648269,-0.0616300655195256,-0.0507008670224109,85
1721468923159231200,0.7925891052570193,-0.4589771091759204,0.3697100952267647,0.7245865592632442,9.647474168044328,-1.6036223603516817,0.0229261815547943,-0.1895264238119125,-0.0073076300323009,0.0358289333695207,-0.0148995348693017,-0.7625876940061246,-0.6457200004025064,-1.4683798551559448,0.0665899738669395,-0.1926799565553665,0.747824446183443,-2.080456613257528,0.4800570143446326,0.0532601214945316,-0.0288927070796489,-0.0439711660417495,-0.1593749672174453,-0.0417360228342469,-0.072888491404429,86
1721468923199007200,0.477680713667348,-0.4195224661439657,0.1328163789488375,0.6526816720686852,9.664431732586026,-1.5307317500554023,-0.2543901801109314,0.1958573162555694,-0.135932371020317,0.0325909467176002,-0.0131057534284037,-0.7601801343262354,-0.648762051319882,-0.1375708431005478,-0.1093691736459732,-0.1491146236658096,0.0824450589746236,-0.4342465725451707,0.8312607081525027,0.0581888519227504,0.0359709858894348,-0.1893030034655705,-0.1774573326110839,-0.1930017301193438,-0.1628417340520769,87
1721468923238783200,-0.1270269088272005,-0.0889969648361206,-0.5150492711402476,0.6184366534437984,9.68480875018239,-1.4115354617886244,-0.3485516011714935,0.216862753033638,-0.0993358790874481,0.0340327758059536,-0.0088692237491157,-0.756233839088728,-0.6533556916226513,-0.7743843793869019,-0.0596965923905372,-0.2317355424165725,-0.528164042648673,0.4890244569152593,0.3884703252762556,0.0640987902879715,0.0280351601541042,-0.0829073244578205,-0.1823731958866119,-0.0075206350167543,-0.1042236321982927,88
1721468923278560500,-1.7034169057950377,0.0583750320792198,0.4101614942111075,0.8361173544034362,9.687820791479943,-1.2717742321379482,0.0698070600628852,2.676876306533813,0.9343645572662354,0.0620590900877811,0.0061051219772065,-0.7515352079581652,-0.6567390310320921,-0.9003718495368958,-0.1167011260986328,0.1025748699903488,0.1361369016736745,-0.2186398283153772,0.0518617046624422,0.0587977468967437,0.0303431320935487,-0.0512157531754113,-0.1086640655994415,-0.0357100222766865,-0.0631605036569293,89
1721468923318336800,0.4144609449706971,-0.0510322681009769,0.8510755618214607,1.3921138452209532,9.6121269603312,-1.3562525505058467,0.5655165314674377,1.7806777954101562,1.0238087177276611,0.112387225747302,0.0213009852520144,-0.7541192911355609,-0.6466989135032879,-1.071507692337036,-0.3146910071372986,0.0077948961406946,-1.2442735001415013,-0.3813327284812927,0.186022191696614,0.0373827926814556,-0.0084512727335095,-0.0076921316842286,-0.081094391644001,0.0091410826753039,-0.1150986254232935,90
1721468923358112800,0.8869954548560083,-0.1842079818814992,-0.5938260168656706,1.7012861773766577,9.560797755110263,-1.3664258617348968,0.0492911301553249,1.303007960319519,0.3034741878509521,0.1420931407542554,0.0318690421574379,-0.7540906394391709,-0.6404225532513816,-0.8955110311508179,-0.0237701199948787,-0.081241175532341,0.6345137088239192,-0.6719499977707862,-0.7404489489793777,0.0268325619399547,0.008232656866312,-0.114031708577834,-0.08656757324934,-0.0953329081256873,-0.1672869134252891,91
1721468923397890000,-0.5453942866519094,-0.5892471646428108,-0.1598220209047198,1.894975688830763,9.539818679967524,-1.2535045620843768,-0.0666201785206794,1.48910391330719,0.4524482786655426,0.1672264633456601,0.0449790889108448,-0.749591773837026,-0.6388460005816787,-0.384286880493164,0.0079401899129152,0.0283655524253845,0.1025572881549596,0.4282248280376196,0.4053752828478812,0.0467871949076652,0.0509779937565326,-0.1543185281176119,-0.0881270170211792,-0.0895082205601967,-0.0406216775173321,92
1721468923437666300,-0.5757745196074247,-0.1340858143627643,0.2265525742013007,2.22582837626636,9.481497423902152,-1.147721370685473,0.1744749993085861,1.6849857568740845,0.8357433080673218,0.1987026909344422,0.0545965062970829,-0.7453433611637408,-0.6340344381048221,-0.5594571232795715,-0.1077427342534065,-0.0703763365745544,-0.0609229629963636,-0.0986930139422416,-0.1062578962385654,0.0747380033135414,0.0171139277517795,-0.0660165780746378,-0.0960799604654312,-0.0061607414154655,-0.0359193518951418,93
1721468923477442600,-0.2125911958009004,-0.271994401884079,-0.1567103186249732,2.605895030334592,9.395698378324507,-1.0490690540798009,0.132157102227211,1.5348410606384275,0.7716900110244751,0.2336242577617025,0.0643620789963385,-0.7411782227263805,-0.6260447805917552,-0.7589236497879028,-0.0517111532390117,0.0042053549550473,0.2839315079152584,0.339054260200262,-0.2265553506802767,0.0750932916998863,0.0090370504185557,-0.0776167803016491,-0.1074460297822952,-0.0300736101251794,-0.0768852694230154,94
1721468923517219600,0.0113300800487399,0.135494512116909,-0.8453249624054878,2.923063329680264,9.31501740641296,-0.9254863674223422,-0.1364755630493164,1.250940442085266,0.6530659198760986,0.262061884139212,0.0708727378711894,-0.7363176820370096,-0.6197877242292789,-0.6167963147163391,-0.0806092172861099,0.0358156785368919,-0.258506559279561,0.94009356944561,1.0362304691642523,0.094253309071064,0.0105673009529709,-0.0634111996155232,-0.1334417760372162,0.0158752240815316,-0.0853411640086211,95
1721468923556995600,-0.3827852653771638,-0.0644523061662912,-0.6217839911103248,3.192081638363004,9.250255888167024,-0.6432515804223716,-0.4215844273567199,1.3906885385513306,0.618270754814148,0.2897138997476849,0.0768001333425505,-0.7258777044751578,-0.6190873955706154,-0.3904789984226227,-0.237588882446289,0.0856460854411125,-0.3119996645361185,0.0692804569751024,0.0179260990465991,0.1232195347547531,-0.0161335449665784,-0.0600185752022778,-0.1424257904291153,0.0578023832904174,-0.014506636858778,96
1721468923596771800,-0.1946788147523999,-0.1310392862737178,-0.650918900179863,3.449446334131062,9.175136057513951,-0.2976338883196003,-0.5310611128807068,1.1598373651504517,0.5957642793655396,0.3167919282667873,0.0807406139801269,-0.7132012747530986,-0.6200546634232201,-0.4917369186878204,-0.2244515568017959,-0.0932568237185478,-0.1257084466397762,-0.3094371205717325,0.2784486925899982,0.1234453022480011,0.0352989882230758,-0.1401410136153455,-0.1289597749710083,-0.0840629425000399,-0.0522924790288321,97
1721468923636549000,-0.3757905841842293,0.3538210366994142,-0.843956085205078,3.664525547355413,9.096241969019172,-0.0017961868190068,-0.3236329555511474,1.0200964212417605,0.5609188079833984,0.3385458055319579,0.0820864047740989,-0.7023912030990354,-0.6207214348031262,-0.2954382300376892,-0.2016682177782058,-0.1299255490303039,-0.0431757093816995,-0.3035685207992792,0.1435059508706443,0.1043488457798957,0.0321809984743595,-0.0123512660478416,-0.1065324768424034,0.0603338927957229,-0.0182880722182977,98
1721468923676325000,-1.0066142063185572,0.1723807659655809,-1.5388772087186573,3.8961163349196313,8.992474136030673,0.3550939427120611,-0.7646837830543518,1.2093852758407593,0.8142422437667847,0.3632697391437584,0.0832180644403104,-0.6891806738376854,-0.6214015896499705,0.2716129422187805,-0.1903217583894729,-0.1782481968402862,0.0736748925417661,-0.7709796963214873,0.0970353463957086,0.0889138802886009,0.0367804802954196,-0.0365427056745858,-0.1045778393745422,-0.0160071113994694,-0.0832941683509387,99
1721468923716101400,-1.4180378294199705,0.2475759999424219,-1.371785196810961,4.207731384052336,8.813280182918906,0.889653202823177,-1.1818181276321411,0.9783291220664978,1.1460239887237549,0.3931207477422723,0.0779903851999336,-0.6697445869331863,-0.6251526415194486,0.2567996382713318,-0.1669092178344726,-0.1479757875204086,0.06124678812325,-0.1515542510360479,-0.0716927788138389,0.0961570218205452,0.0280691925436258,-0.0838422672203741,-0.1283670216798782,0.0449712053631898,-0.0808681102477945,100
1721468923755878400,-0.4291419428825378,-0.3132709996461868,0.5093475523672998,4.597297103349864,8.524334646233916,1.5397895012579856,-1.2987890243530271,1.012773513793945,1.401424765586853,0.424848618662255,0.0635621266975051,-0.6461055925037882,-0.6308811380995143,-0.030507517978549,-0.20974200963974,-0.1167156025767326,0.0115308633178472,-0.1081312888950109,-0.1199918225586414,0.1168987527489662,0.0218173898756504,-0.1155899434710387,-0.1957703530788421,-0.0078465082535432,-0.1283610343746375,101
1721468923795626500,-0.0048410102903842,-0.3957482073247432,1.1541722273252903,4.988969731798767,8.19336315472424,2.0369991643249987,-0.3936995267868042,1.2294191122055054,1.4197685718536377,0.4585369298670291,0.0529393179375844,-0.6271677395808481,-0.6273770215756718,0.1833222210407257,-0.1096376776695251,-0.1959957182407379,0.1051718545675277,-0.3462403723120689,0.2648702490925789,0.1367188990116119,0.0385877341032028,-0.1416992485085502,-0.2114311158657074,0.0034234630803257,-0.0133665976948919,102
1721468923835401500,0.331512174257636,-0.4219125761508941,0.4708440725803375,5.356063507047296,7.858602207803726,2.3927708967007697,-0.3772106766700744,1.1322956085205078,1.5184860229492188,0.4913605489743983,0.0456796965135966,-0.6131198912409882,-0.6168972914975278,0.0322330929338932,-0.1201450750231742,-0.1983448266983032,-0.1472656139314174,-0.1575572908431291,-0.1035013275394216,0.1571697890758514,0.0150580946356058,-0.0825676350415218,-0.2326678484678268,0.0154856391004112,-0.1087939083890523,103
1721468923875177500,-0.422407081669569,-0.6513613832503556,0.2514750532075762,5.82297842348516,7.433537305101752,2.6468559862762686,-0.1239353641867637,0.6350624561309814,1.97551691532135,0.5225196300949579,0.030597932696868,-0.6034166601608637,-0.6016023826998992,0.0210736487060785,-0.0401723720133304,-0.192027747631073,-0.0864630624443292,-0.2895791584134101,-0.3470949433147907,0.1473896354436874,0.0418396703898906,-0.1773070068540051,-0.2597242295742035,-0.0650754886990878,-0.1200162902796175,104
1721468923914952200,1.754983134642243,-0.9089934977829456,1.3941726774469017,5.925765428742766,7.22699181920588,2.970905861829221,1.0202065706253052,2.67442274093628,0.2915204167366028,0.5565458096788247,0.0436768321087797,-0.5887429691471441,-0.5845774843664087,-0.2182390689849853,-0.0272662658244371,-0.1527501791715622,-0.1388356392383575,0.2032540431350469,-0.2298994734764099,0.129328042268753,0.0675467029213905,-0.1257316265859641,-0.2950020730495453,-0.0294900380835635,-0.1979304369594901,105
1721468923954727400,-0.3157733378559351,0.3010428017139435,-1.3007029511108994,5.898901387214661,7.19804512618482,3.0921640510618684,0.4913741946220398,0.3828680217266083,0.9420158863067628,0.5832164109467821,0.0677641556935596,-0.5811639409676957,-0.5634847277697019,-0.1418766528367996,-0.0191324930638074,-0.1109458655118942,-0.1774748742341995,-0.006301730492711,-0.1456371359467506,0.0897879302501678,0.0560470633208751,-0.1119137300431728,-0.2991417646408081,-0.0239201860789558,-0.0685265881341882,106
1721468923994503200,-1.179905365127325,-0.774607823690772,0.6024255029067397,6.193214003890753,6.939976958322525,3.1066417814865708,-0.029650192707777,0.3964784741401672,1.5028454065322876,0.595646118798296,0.0558580992880443,-0.5817948240468489,-0.5509995646750321,-0.0696826204657554,0.0272930637001991,-0.1209422498941421,0.0821381849825382,0.0620399843275547,-0.109376905041933,0.1151896640658378,0.0477419383823871,-0.0720862442439887,-0.2800279855728149,0.0601354339144425,-0.0437947819949593,107
1721468924034278100,-0.3130003660112619,-0.5813052657276392,1.4970152122840283,6.585510024935007,6.494684675627947,3.2589167480126022,0.8218887448310852,1.3087178468704224,2.240885019302368,0.6285033423301228,0.0499609901466585,-0.5756260823332836,-0.5207132326819218,-0.1461640745401382,0.1186318695545196,-0.0931839123368263,0.0136439099490642,0.32915479747653,0.0451905563354492,0.1186791583895683,0.0296226274222135,-0.1469698732546996,-0.3210781514644623,0.0028455992602888,-0.1772093551658093,108
1721468924074053400,1.3161211772561072,-0.6389490609228611,-0.7629416435554623,6.815186211049556,6.118080144712328,3.506098780201375,0.6719684600830078,2.0089757442474365,1.4112780094146729,0.6652837365205091,0.0569633053254141,-0.5639094763278093,-0.4859619031987162,-0.0362714007496833,0.0620333589613437,-0.0840479359030723,-0.0219926360994577,-0.066472413817048,0.1667114881575107,0.1054095104336738,0.0745235309004783,-0.1509059888609219,-0.3070843517780304,-0.0707119054171722,-0.1062915336466859,109
1721468924113828000,2.1402064408212897,-0.7544435720622539,-1.1611793296083808,6.755898155778646,5.907513148215413,3.953416431243717,0.2941438257694244,2.136713743209839,0.3923380076885223,0.6963102452778241,0.0703757183746788,-0.5417371244507557,-0.4655320692537152,-0.039088487625122,0.1485335230827331,-0.0654124021530151,0.0145779759287834,0.056073184877634,-0.1283831822743639,0.088082268834114,0.0629324316978454,-0.0846295086079277,-0.293683648109436,0.0250800190719892,-0.2011244472278281,110
1721468924153599200,3.179049722832441,0.1298188045680522,0.1933560417160391,6.285977627784013,6.009661855569481,4.5321989004954695,0.4578813314437866,3.0199785232543945,-0.5438348650932312,0.7214539700007628,0.1012012396073074,-0.508606401645754,-0.4588920811613399,-0.0812117084860801,0.1320014297962188,-0.0809893682599067,-0.036518589580059,-0.1022971759140491,-0.0952373570630326,0.0578463971614837,0.0888210162520408,-0.1841838520872406,-0.2693947255611419,0.0044603375556151,-0.1116436809301376,111
1721468924233149000,2.1855670930266378,-0.758876586073637,2.7896599446237085,5.377566313803196,6.48999681007266,5.01319231890738,1.2911748886108398,1.0546475648880005,-1.3327165842056274,0.7311262395208302,0.1495737083603011,-0.4711963717174723,-0.470165909939042,-0.1901871860027313,0.1125668957829475,-0.0260903667658567,0.1953103906542062,0.1336889239996671,-0.1520201515147462,0.0577617362141609,0.0402521342039108,-0.1574992405129596,-0.2221300303936004,-0.059176913913479,-0.1089189960734453,112
1721468924272925200,1.6147814677476882,-1.3255033381074666,1.3553835125863551,4.846420624995232,7.132040329879522,4.670821773765981,1.6941179037094116,-0.112480990588665,-2.2065467834472656,0.7125200559436881,0.1903049255995146,-0.4750140980824486,-0.4800632103559667,-0.206083595752716,0.1261966377496719,-0.0350836589932441,0.1524754575341939,0.0173415954232215,0.4423813636839389,0.0814782828092575,0.0977889597415924,-0.1518409316234756,-0.1468212604522705,-0.0182200633247615,-0.0829360025630332,113
1721468924312700200,1.4353481529220935,-0.7245598904520273,0.0386339742988348,4.309089525550603,7.717274751749635,4.248034460607171,1.8617775440216064,-0.2421988695859909,-2.6705410480499268,0.6875408391929894,0.2261128419287234,-0.4819579816858218,-0.4938391241711768,-0.0343477949500083,0.0662703365087509,-0.0707794725894928,0.343974180945754,-0.0809305627584457,0.2947801976552233,0.0824415832757949,0.1078512147068977,-0.2209384789128787,-0.1277630180120468,-0.0838052322787698,-0.1974750578748062,114
1721468924352475100,-1.828532062716782,-0.7138561256080865,-0.4207932167321443,3.667877780392766,8.355100361600519,3.59296048657447,1.4848697185516355,-0.9958709478378296,-1.9622060060501096,0.64885496609605,0.2644237365056573,-0.4968803471918,-0.5120325701741171,-0.140425756573677,0.051930021494627,-0.0846494138240814,0.1201414601624012,0.0190460612535476,0.1074152861127629,0.0467097871005535,0.1075883582234382,-0.1007610706542618,-0.0833842307329177,0.0031077647485013,-0.1523872860603965,115
1721468924392251100,-1.6220152183935046,0.1402197870731353,-0.9417933591008186,3.209071351608634,8.747056190904974,3.0596140728518364,0.9687753915786744,-0.3158916234970093,-1.2663874626159668,0.6174460477268108,0.2890293204069273,-0.5103578602947921,-0.5241728875821081,0.2891652882099151,-0.0150869376957416,-0.1075788959860801,0.1630985583573579,-0.1777858398795127,0.3662252122530713,0.0124252177774906,0.0735684558749198,-0.1038420490021817,-0.0945143327116966,-0.0563166702107293,-0.2310069963268935,116
1721468924432025900,-1.094688211090863,-0.0564770895034074,-1.3378648070305583,2.8236007926702498,8.958717412379384,2.8176310706108807,0.4837144911289215,0.0735588446259498,-1.004111886024475,0.6021358395186616,0.3087182577897255,-0.5109147002618752,-0.5301807542133133,-0.199917584657669,0.082675039768219,-0.0348192751407623,0.2252139460086822,0.4904623807638883,-0.3717313353886827,0.0015987594379112,0.0702137053012847,-0.0441269913577008,-0.0803864449262619,-0.032987383246608,-0.0689959044126793,117
1721468924471801000,-1.2129127317160366,-0.2758037310391664,-0.2831397730156779,2.4840841756552456,9.10232859545648,2.673451147735119,0.3520511090755462,0.0195990875363349,-0.8483856916427612,0.5894011759312258,0.3228906651616512,-0.509346196324762,-0.5375076408885823,-0.0699164494872093,0.0636762604117393,0.0095184277743101,-0.0328302564561367,-0.0735994892179966,-0.0406709965517744,0.0510428212583065,-0.0052333096973598,0.008135907666909,-0.0822828784584999,0.1122450169573072,-0.0163313292520004,118
1721468924511576800,-0.5718542774237692,-0.1475830093175172,-0.1006602223619818,2.224601903211325,9.21128347569406,2.5246403501883146,0.5208160877227783,0.0564147382974624,-0.5529285073280334,0.5787402671913789,0.3345287533486523,-0.5092834946920246,-0.5420153916001741,-0.060149572789669,0.0613341741263866,0.0019422670593485,-0.0129974287390708,0.061845338538289,0.0807575442790985,0.0831506252288818,-0.0128261353820562,-0.0656768795251846,-0.0997127965092659,0.0168455304184113,-0.0404896303691901,119
1721468924551352000,-0.101292090524733,0.1165308684498071,-0.5246816073603928,2.085935629190504,9.297619112366435,2.318088288421184,0.5388858914375305,0.112140268087387,-0.244394913315773,0.5720598030243654,0.3458771499813413,-0.5120345580432762,-0.5393859337432944,-0.0511805713176727,0.0462824143469333,0.0512247271835804,0.0139455232441425,-0.0944505540668964,0.0954477484107017,0.0857445821166038,-0.0093728266656398,-0.0859521263806614,-0.0990650951862335,0.0371928721124306,-0.0399091590335359,120
1721468924591127000,0.1517589798279106,0.0817366184443235,-0.5056526433721185,1.991500418823212,9.353810955187678,2.1703708390690384,0.3421366810798645,0.0529070422053337,-0.2083386480808258,0.5674247517442446,0.3538074492317418,-0.5139670891382646,-0.5372961559875533,-0.0870504230260849,0.1103455498814582,0.0642190277576446,0.1005915410399437,-0.0904231982469558,-0.3051964507946744,0.1009513735771179,-0.0090708956122398,-0.0933525388302747,-0.0967905670404434,0.05196751225763,-0.0262885842942865,121
1721468924670678000,0.2625980663768947,0.1527531054317951,-0.5334843608886003,1.8848510390490287,9.43258287860751,1.9089535069093104,0.4077675640583038,-0.0041709044016897,-0.1448470056056976,0.5603285273221726,0.3654960596479924,-0.5187321959802146,-0.5323170726589012,-0.2789223790168762,-0.0143444491550326,0.0227794386446476,-0.0059527709245681,0.0151788644313812,0.2013888703176751,0.1180161163210868,0.0034876624122262,-0.0870989948608446,-0.1555247008800506,0.0174262506325263,-0.019090843393479,122
1721468924710452700,-0.2520972767591476,-0.068867199999094,-0.6834330764241516,1.8650410076856607,9.45653132494986,1.807211480659992,0.1701846867799759,0.1740773022174835,0.0784523040056228,0.5590560030726743,0.3702947476066136,-0.5203264887247527,-0.5287707174798872,-0.3643941283226013,-0.032405849546194,0.0061993300914764,0.0879208600372076,-0.013560323318839,0.2056862387180328,0.1189980953931808,-0.0170500613749027,-0.0258493982925778,-0.1677493453025818,0.100901154978387,-0.0157578253716055,123
1721468924750229000,0.1126006893940269,-0.081828972902894,-0.2532144442208111,1.877729224345088,9.459018465590477,1.7808647410042584,0.0836779773235321,0.2146479487419128,0.0422890819609165,0.560790631373459,0.3725986561674081,-0.5199725076549172,-0.5256545035173452,-0.4848891198635101,-0.0133624346926808,0.0380276329815387,-0.1114028579115867,0.3069306907087564,0.0566659266063943,0.1184944584965705,0.0200744643807411,-0.1073742417163215,-0.1693102866411209,0.0377735946098342,-0.0185103777660464,124
1721468924790003700,0.0030558804392814,0.0970072528123855,-0.3537072010613977,1.867114891350269,9.468426345404982,1.7415955375418066,0.2005165666341781,0.1237451061606407,-0.0192651823163032,0.5616965208652955,0.3760140027307652,-0.5194389338519617,-0.5227748881685088,-0.6446271538734436,-0.0399124473333358,0.0597291365265846,0.04942249481678,0.0619756869196891,0.0698351682484149,0.1183037832379341,0.0248376652598381,-0.1091724502447061,-0.1586049348115921,0.01249797761722,0.0146633937564911,125
1721468924829734700,0.0597580108702182,-0.1003361049741506,-0.2316302427917718,1.8599426616333423,9.47902255822122,1.6908963007874789,0.1158822253346443,0.3675818741321563,0.0747604370117187,0.5627670612998596,0.3799865953345531,-0.5190360969308739,-0.5191386612494358,-0.5983989238739014,-0.0982184112071991,0.0174808800220489,0.0290612593114376,-0.0954664531111717,0.2911761452812701,0.0942165777087211,0.0629673078656196,-0.0896563968592323,-0.1653091460466385,0.0127629977870441,-0.1029585076333023,126
1721468924869508600,0.0467293102100491,-0.0702834965378046,-0.3189570824585855,1.8740192639112472,9.47111689966321,1.7194157083071768,-0.0608746260404586,0.5661337971687317,0.1622359752655029,0.5694314782602714,0.384461881473942,-0.5143182478040377,-0.5132384245054722,-0.6376067996025085,-0.0350723639130592,0.081419251859188,-0.1048082819521427,0.5107850378245115,0.2841302453577518,0.0818433612585067,0.0625285878777504,-0.0727656413428951,-0.1546442657709121,0.0141228902466886,-0.0346542296134401,127
1721468924909281800,0.3153196027390658,-0.5664560716420411,0.3568501752622425,1.880612670826912,9.46046749535501,1.7700991629704832,0.0913426354527473,0.5155317783355713,0.0814720913767814,0.5759912766748242,0.3881070137171741,-0.5090412639348618,-0.5084133051609726,-0.8221529722213745,-0.1984845697879791,0.0630940422415733,-0.1598772582232952,-0.2533972534418106,0.2606955937564373,0.0866539850831031,0.0511224679648876,-0.054104729782301,-0.1366555094718933,0.0002548446940374,-0.0027386174839222,128
1721468924949054700,-0.1619286377951502,-0.3942179290175437,0.1974690299928188,1.8950312184102835,9.470935697877406,1.6972423088133337,0.4306520819664001,0.4974313378334045,0.1996891349554062,0.5803054563928853,0.3954256808626908,-0.507053503149667,-0.4997809174923995,-0.3735221326351166,-0.1000058203935623,0.0622386969625949,0.2987479687750339,-0.2620738963723182,0.0613012947894632,0.0971944332122802,0.0616220235824584,-0.0678147866030223,-0.1347253769636154,-0.0314363566956133,-0.0027455837975372,129
1721468924988829000,0.3982522991001606,0.1111509289771318,-0.3577009468726813,1.9265176590420303,9.48271556752026,1.592809874436259,0.2782748341560364,0.300123006105423,0.0657288432121276,0.5830436454063246,0.4019965222238883,-0.5071371532566602,-0.4911933860895331,-0.2051275223493576,-0.0951107144355773,0.0821088030934333,-0.2656716286033392,-0.1268202072739601,0.1327332307100296,0.0981967449188232,0.0389791205525398,-0.0147808940727612,-0.1652550995349884,0.0064184425035811,-0.1092632246675435,130
1721468925028601900,0.0796408152088522,-0.0077414079070091,-0.0720405693382024,1.936725749323517,9.49416693586111,1.5100577953390777,0.3084948062896728,0.471808910369873,0.1499754637479782,0.5849503944742459,0.4078133231346685,-0.5066525171313243,-0.4845870465183409,-0.355036050081253,-0.1051289439201355,0.0811929479241371,-0.0316881006836891,-0.2362918048620224,0.0197815359212458,0.0729058608412742,0.0183748099952936,-0.0518671023567672,-0.1779180914163589,-0.0412190177893964,-0.0508050534826703,131
1721468925068375000,0.3203070357628166,-0.0008119009047746,-0.339198052585125,1.965706783005595,9.495467497065665,1.463724790970236,0.1483831703662872,0.5593367218971252,0.1259205490350723,0.5900304468067877,0.414104136497837,-0.5038735677396932,-0.4759131289022422,-0.1863724738359451,0.0142844263464212,0.103479079902172,0.0858259335845708,-0.1504775617152452,-0.1056055698096752,0.0757989287376403,0.0444894284009933,-0.0396716559166554,-0.1638297438621521,-0.0928042664309032,-0.0286243885644013,132
1721468925108149000,0.0623597178012132,0.0148819273114204,-0.0728457482412457,1.9677735062770545,9.496531326904892,1.45400068481341,0.2004202902317047,0.6456219553947449,0.1409327089786529,0.5957953680730186,0.4206492629788281,-0.4989196303901894,-0.4681464914109631,-0.0568096935749053,-0.0447736717760562,0.1246230527758598,-0.0107306528508663,-0.0453004464507103,-0.1902247579529881,0.085561916232109,0.0157408751547336,-0.0559309907948132,-0.1615546345710754,-0.0655243238785537,0.0272202528209425,133
1721468925147920100,-0.2104227657206356,0.0177530988335609,-0.6050323244042695,2.019241827707737,9.490518934747575,1.4223527700096368,0.1476997882127761,0.6027207970619202,0.2797208428382873,0.6023108260672421,0.4267057219367251,-0.4953810844030272,-0.4579753678112223,-0.2239374369382858,0.0937372744083404,0.1008383557200431,0.5852589717894793,0.2709235577821731,-0.5107010128028691,0.1072972044348716,0.0513244196772575,-0.1300834742530714,-0.1556198000907898,-0.1839300782555714,0.0076322273236903,134
1721468925227466200,-0.0117132341474294,0.2562047120779752,0.023478490743041,2.1567681379131973,9.448691717365383,1.4969889087989925,-0.0414799600839614,0.7123735547065735,0.3781380653381347,0.6186670581130715,0.4331944447795282,-0.4858162031548129,-0.4399731150127152,-0.5703055262565613,-0.0696998983621597,0.2489521205425262,0.1057727430701255,-0.1363157653719186,0.1793406681060791,0.108935996890068,-0.0109628243371844,-0.0505644085606327,-0.1834650635719299,-0.0302010313305538,-0.0755159538311883,135
1721468925307013600,0.1646896269410848,-0.1490069046407938,0.4729319847702979,2.320192567224056,9.391523138466477,1.6082279544509943,0.1311260163784027,0.189557671546936,0.1260479241609573,0.6343021485547539,0.4357142330044173,-0.4776570970979045,-0.4238604406043906,-0.0890826806426048,0.1316735297441482,-0.03074830211699,0.0370388140618801,0.0322206001251935,0.3199877406805753,0.0383303239941597,0.0431058444082737,-0.0167068777162581,-0.206641748547554,0.0303950195326935,-0.0689819717854494,136
1721468925346786800,0.2351931959703564,0.0118067576497793,-0.1868289780348539,2.360869445527345,9.3861829464823,1.5799550690382718,0.094973899424076,0.2709440886974334,0.1827884912490844,0.6364824259519507,0.4378180572220587,-0.477242137456828,-0.4188620985270306,0.1090301349759101,0.0829716101288795,0.0330606363713741,0.0103489600569009,-0.0930325039625167,0.0715498632118105,0.042040754109621,0.0519964173436164,-0.1359692717554979,-0.2041173577308654,-0.0858789789460599,-0.000920891975137,137
1721468925386561000,-0.0324069164775311,0.2437240006893873,-0.481699228593707,2.425561259537935,9.370641678479313,1.5742032275132831,0.0664957165718078,0.4115091860294342,0.2911482453346252,0.6405039712374849,0.4394924540550649,-0.47600877609069,-0.4123308709386108,-0.2399752587080001,0.05453672260046,0.0574134513735771,-0.1971598179131746,0.127609311825037,0.1280341131083667,0.0787155106663703,0.0644267126917839,-0.1249163372808601,-0.2111328393220901,0.0309047089207684,-0.0744592067532939,138
1721468925426334000,-0.0078410688892006,0.3261930250614881,-0.4425150730662047,2.535070851048827,9.32842633856237,1.6505394482187925,-0.1686534434556961,0.7094340920448303,0.4449184834957123,0.649739132952821,0.4399610879716739,-0.4714659578731935,-0.4024838576464401,-0.2399110645055771,0.0605762898921966,0.0797733515501022,0.1462374399274587,-0.1467611715406179,0.2149871510267257,0.0969611629843711,0.0570678152143955,-0.1712809514975175,-0.2331897765398025,0.0393911858743056,-0.0953886751672253,139
1721468925466107000,-0.1081745435148477,-0.0065460606426,-0.0353374169714748,2.6371996846586465,9.273602276962997,1.793279547549784,-0.1347631514072418,0.6581456065177917,0.3584980070590973,0.6610501534447056,0.4391330748021111,-0.4644677947974276,-0.3929941677620608,-0.1964397579431533,0.0712484791874885,0.0650252997875213,0.1369651691913604,0.0583434678971767,0.3008756284534931,0.0984778106212616,0.0834404453635215,-0.2125669564087875,-0.2149647325277328,-0.0469337741404306,-0.0915169848330318,140
1721468925505881000,-0.1203890051826834,-0.2444464697450399,0.0537871197670698,2.7106156340032816,9.237067905291914,1.8707018099263308,0.0283847674727439,0.4121488630771637,0.2692975401878357,0.6691327800797242,0.4401080837453537,-0.4592663989294436,-0.3842402989871489,-0.1407693028450012,-0.0240428820252418,0.1394176483154297,-0.3926531639188528,0.2549672792375088,0.289765913157165,0.0866994932293891,0.0713347494602203,-0.1624220290689729,-0.2033742219209671,0.0268858880337327,-0.1376127463798969,141
1721468925545654300,0.1036366078242659,-0.3015320465356111,-0.0494797779619693,2.778084073120356,9.220082868221402,1.855455871608108,0.1586461067199707,0.0398389883339405,0.1727080047130584,0.6717887130237523,0.4409406513918955,-0.4593140733297583,-0.3785524020996969,-0.171194851398468,0.0333230458199977,0.2045996338129043,0.461674677696824,0.3297521788477897,-0.905924757862091,0.0601479969918727,0.1075634285807609,-0.2267725370949134,-0.1665162742137909,-0.0928826106304302,-0.0830610902474261,142
1721468925585427200,-0.178078100824356,-0.1356891579061746,-0.4275578885614872,2.845368387842178,9.215250625759362,1.7757928445674478,0.1907151341438293,-0.1034226268529892,0.211322009563446,0.6706468103740143,0.4414096541844676,-0.4632680426507888,-0.3751975451827865,0.1089686155319213,-0.1273675709962844,0.1878930926322937,-0.3114613198757171,0.0041489363729953,1.0552024422682822,0.032625813037157,0.1045793890953064,-0.1131684428120032,-0.1699547916650772,-0.0175654604571056,-0.1771051641389727,143
1721468925625626400,0.0997600586518645,-0.0615717822939157,-0.3956880015701055,2.951799594821036,9.18886706122458,1.7383863662369547,-0.0028643077239394,0.040514949709177,0.3120826482772827,0.6717016658200758,0.4398270880490998,-0.466818053747325,-0.370742434602306,0.0402587950229644,-0.225642055273056,0.326809823513031,-0.1354880823761224,0.6890764891386032,0.2618178757846355,0.0245994981378316,0.0733869150280952,-0.1057879589055664,-0.1540810763835907,-0.0092092582489101,-0.0542213555990252,144
1721468925664974300,-0.3219292301371693,0.0178472068578004,-0.1741213260225951,3.077056790561974,9.14326675504446,1.7614770267061888,-0.0740544199943542,0.0663389563560485,0.4218073487281799,0.6750592884759797,0.4361479643377615,-0.4690038612135609,-0.3662041218151824,0.1260496079921722,-0.318954199552536,0.2064720392227172,-0.0609551117002964,-0.4613140276908874,0.1186474222123622,0.0270288381725549,0.0801539048552513,-0.2048268454097211,-0.1527726501226425,-0.0387021487307967,-0.1097078357630409,145
1721468925704747500,-0.0629506694316864,-0.0870265415459871,-0.0724910895846784,3.231227946098149,9.084287911853194,1.7903306346163153,-0.0558513104915618,-0.0296780262142419,0.4084205329418182,0.6790998156994625,0.4314597789009197,-0.4717637088450801,-0.3607007579026061,0.2775847911834717,-0.2743100523948669,0.1227941885590553,0.3026987522274255,-0.070950436013937,-0.0745092975392937,-0.0039837225340306,0.1190561652183532,-0.1358932473772205,-0.1535299569368362,-0.0280027175686787,-0.1309954653983004,146
1721468925744521700,0.1864034460991621,-0.0655365942716598,-0.3243161252737045,3.374372680707276,9.02314341506064,1.8349077352285383,-0.1665226966142654,0.1918449103832245,0.420535683631897,0.6837394362749626,0.4270420760400684,-0.4733717448129593,-0.3550418202052852,-0.1767720431089401,-0.1567264050245285,0.1886901706457138,0.0983364555895328,0.4380921420574188,-0.9846049113452434,-0.0183763317763805,0.1056023389101028,-0.0270523648911505,-0.124282069504261,0.0001274223470187,-0.0013693087419611,147
1721468925784295000,-0.0395014047831296,0.0869517227441072,-0.0936813232600689,3.5058564958781,8.955948532187938,1.9158184242427347,-0.1093967482447624,0.1964408010244369,0.4248210787773132,0.6897473632670874,0.4225354342345052,-0.4730584028550863,-0.3491822120095103,-0.0093612214550375,-0.2695732116699219,0.1018892973661422,-0.134623574501276,-0.607135872554779,0.5996005086138844,0.00183582957834,0.0618957951664924,-0.0270523648911505,-0.1194415241479873,0.0001274223470187,-0.0013693087419611,148
1721468925824067800,0.2082137113690376,0.1988976014912128,0.0018438743010163,3.637921910329162,8.89113908314705,1.9706793107211589,-0.0432889461517334,0.1703469455242157,0.372157484292984,0.6951538805101576,0.4190324424102309,-0.4732178467943465,-0.3424002703068597,0.2765142023563385,-0.2372885197401046,0.1417812556028366,0.1445943488955497,-0.1088636948227882,-0.1354965579435229,0.023446412757039,0.0443208627402782,-0.0473556665140436,-0.1240649670362472,-0.0200287863972946,-0.0040037403364462,149
1721468925863842000,0.1665118739321827,0.2655892110168933,0.1024805696569383,3.746660517467558,8.841055494073032,1.9921466077722607,0.0535327978432178,0.1650903224945068,0.3297545313835144,0.6990783380655489,0.4171535692975815,-0.4737211077084436,-0.3359473449992716,0.5735825896263123,-0.1515061408281326,0.0857908278703689,0.2686281403213739,-0.6085013156890868,-0.18553075491786,0.0259768106043338,0.0493619069457054,-0.07409638305658,-0.119848795235157,-0.0373986443671979,-0.0131582247743732,150
1721468925903685600,0.5536377988621592,0.2891834370940923,0.2086889276653528,3.824608557283878,8.808184321084617,1.9896372552998365,0.1084106564521789,0.1325193345546722,0.1817574650049209,0.7014989047696961,0.4165927224654429,-0.4743492719957426,-0.3306700115149548,0.4917594194412231,-0.1006473824381828,0.035724002867937,0.3909592194825411,-0.1351245097607374,0.1062369995810091,0.021443298086524,0.0570397228002548,-0.0869992699465714,-0.1190696731209755,-0.0723294921150663,-0.0294132328205741,151
1721468925943461400,0.2615288297101855,0.331120544591546,0.0258607097044587,3.863830268342793,8.80096255313754,1.945315152361989,0.2221464812755584,0.1162091419100761,0.104344256222248,0.7022176954237017,0.4188051021574265,-0.4747829177820287,-0.3256895687349021,-0.0811432674527168,-0.1052135303616523,0.0967631861567497,0.1660609152942895,0.3458966734409332,-0.0652488633714616,0.0377551279962062,0.0614676065742969,-0.031563800733874,-0.1314393281936645,-0.0210628033368615,-0.0481706178924301,152
1721468925983238400,0.0439113301798701,-0.0258487270057201,-0.2157623731829226,3.887367503535747,8.806283455899358,1.8729991270832715,0.2206611037254333,-0.0706090405583381,0.0702431872487068,0.7009520540721937,0.4210884281528261,-0.4766425919924917,-0.3227422233829652,0.3725773692131042,-0.0495966039597988,-0.0058693834580481,0.2957493714809417,-0.5396721096128225,0.3482631103113293,0.0436561666429042,0.0569482706487178,-0.0277317597067682,-0.1015292406082153,-0.0458851236040238,0.007771243639558,153
1721468926023014700,-0.1431982183620333,-0.2780769366681576,-0.0723151484958827,3.928580972933769,8.809067533659935,1.7711508639805018,0.2554542422294616,-0.0458033755421638,0.1602363735437393,0.698596708570446,0.4230216385934295,-0.4803635386088907,-0.319790967174524,0.3720263540744781,-0.1194813102483749,0.1173923015594482,-0.33654023155272,0.6536667375832795,0.029986411332339,0.0327718704938888,0.055836908519268,-0.0204871725731063,-0.0755724683403968,-0.0519111241615843,-0.0019567423954751,154
1721468926062790700,-0.0197264447331428,-0.2959749969303608,-0.2344021917231381,3.990659243445098,8.796737044396997,1.6918727446042,0.1496138572692871,-0.0436834245920181,0.18290676176548,0.6974433760817859,0.4239080048119017,-0.4837773235120111,-0.3159654817851058,-0.1068824529647827,-0.0555728450417518,0.1595488041639328,0.186616212067008,0.4700187276721,-0.0126926005735993,0.0409880988299846,0.0300043895840644,0.0115721486012393,-0.0767603740096092,-0.0165906857243739,0.0377510128852678,155
1721468926102567400,0.0434133175298571,-0.287451498734951,-0.1374802791066467,4.062343254430592,8.774447471177577,1.6361010268911718,0.1010359153151512,-0.0503911487758159,0.2175703346729278,0.6969248948008396,0.4234362619708334,-0.4871178464380317,-0.3125917740026007,0.0664642974734306,-0.1344426274299621,0.1630094498395919,-0.1608382122099399,-0.2094967369168996,0.3310381270051002,0.0405724234879016,0.0355968512594699,0.0,-0.1049122139811515,0.0,0.0,156
1721468926142344400,0.1255506257295608,-0.0460235000282526,-0.4927841017097234,4.138073618197441,8.741763929715752,1.6212011255316436,-0.0918330550193786,0.0183394514024257,0.2248992025852203,0.6977068117574337,0.4215985333866506,-0.4894858736583946,-0.3096182164663042,0.8336338996887207,-0.0813042521476745,0.0533794909715652,0.3141232325613498,-0.7276642862081527,0.1974605544254183,0.035703957080841,0.0492463633418083,-0.1042496434223838,-0.1110720932483673,-0.0735648197634145,0.0433571394963655,157
1721468926182120400,0.183852300311625,0.0099549923032522,-0.1033003616072237,4.21818672709316,8.695361659502982,1.6637211474835871,-0.1328291445970535,-0.0198834612965583,0.2401240617036819,0.7003114242732159,0.4179035869568081,-0.4904390081124627,-0.3072296514285622,0.9900394678115844,-0.0502002388238906,0.1130889654159545,0.0110065471827983,0.295512055593729,0.1443929811045527,0.0342410914599895,0.0484694875776767,-0.0824398622096981,-0.1364086270332336,-0.0337665532088489,-0.1159014023066963,158
1721468926221897700,0.1245458326011896,-0.0647433980673551,0.3425263202250003,4.2966471003457904,8.656036780330538,1.6680045238912105,-0.1018805056810379,0.0525651313364505,0.2409916073083877,0.7014696817453074,0.4149800310154571,-0.4926936311413938,-0.3049342276892468,0.4817022383213043,-0.2004981189966201,0.2152163982391357,0.0086959321528673,0.8801818293184042,-0.2601310917414725,0.0190555229783058,0.022295381873846,-0.1293479813190642,-0.1186192631721496,-0.056910425719642,0.0049214728109393,159
1721468926261673500,0.1645034567192196,0.072929042610526,-0.1115121635049581,4.386724553894997,8.61922008458674,1.623600295627862,0.0824376791715622,-0.2672326564788818,0.2184468060731887,0.7006779890404172,0.412061089638974,-0.497418413626174,-0.3030362073758471,-0.1388989686965942,-0.0594206899404525,0.1287769675254821,0.0338595995038747,-0.5558405696034431,-0.4559938555814325,0.0257266424596309,0.0278736967593431,-0.1463945484516211,-0.1102923676371574,-0.0495216808749362,-0.0594902222129283,160
1721468926341226500,0.3520513966783881,-0.1248176352798938,0.2800543742209673,4.560850409962237,8.535947927138208,1.5832329216651615,0.0434982106089592,0.1359186470508575,0.2593571543693542,0.7019302627499625,0.4072515517043027,-0.5034121154699407,-0.2966754699190707,0.0597603246569633,0.1735287755727768,0.2054549753665924,-0.1937415339022874,-0.3050672349244356,-0.2339068094216287,-0.0053577441722154,0.0629802271723747,-0.2030566756657324,-0.1670884191989898,-0.053930085601448,-0.1460965062199626,161
1721468926381002500,-0.3218596720322966,-0.1028103861331939,-0.642777971561253,4.660751338389516,8.492091249755024,1.527135917520523,0.1459399461746215,-0.2067676335573196,0.3268181085586548,0.7017257504400186,0.4055796029154697,-0.507585388500298,-0.2923065103689175,0.2222243398427963,-0.1415620595216751,0.111771635711193,-0.2198679088056087,-0.3369306921750307,0.5495093207553029,-0.0346589162945747,0.0956527814269065,-0.1719086184091866,-0.1650434136390686,-0.1137498137633781,0.0367189709903672,162
1721468926420778500,-0.3065577657431363,0.2277723983198404,0.1679442448228597,4.804065584346652,8.419186172541975,1.4861502655290066,-0.0303900837898254,0.0297835990786552,0.4105243682861328,0.7024485091088495,0.4016303988231761,-0.5127576864286355,-0.2869471505594202,0.43427774310112,0.4660604596138,0.0949686765670776,1.6407622967004776,1.5215625013023617,-0.4601838546171784,0.015111967921257,0.069912351667881,-0.0205868952040909,-0.1505660861730575,0.0378446231525856,0.0083656441775092,163
1721468926460555500,-0.5689134016662836,-0.1183469779610633,1.667667108630389,4.967809454870224,8.319534542700648,1.508839359460026,0.2800972759723663,0.2817755937576294,0.6702555418014526,0.7070523721808344,0.3980189254773317,-0.5144429376127772,-0.2775001392576693,0.3940941095352173,0.2416339069604873,0.0990752130746841,-0.450745871925354,0.5609054517775773,-0.1397193632703274,-0.0154100563377141,0.0418839789927005,-0.1163971134017687,-0.179261103272438,-0.0046068636077921,-0.1121129972086288,164
1721468926500331500,0.942249286174774,-0.7544201911866665,1.0833046472892165,5.177328988140821,8.221035590025782,1.334240479053557,0.9285320043563844,0.2827670872211456,0.6002445220947266,0.7075842484785501,0.4015338661480632,-0.5203299152979077,-0.2595221319185464,0.7880027890205383,0.295266181230545,0.0165883880108594,0.5351888267189264,-2.1571768648445606,-0.0600594780348241,-0.0586744397878646,0.0765164047479629,-0.0785797709817532,-0.1847508549690246,-0.018085317329457,-0.0567446361321024,165
1721468926540107500,-0.147301854288578,-0.8840992950230836,-1.348684891730547,5.320273231741786,8.15768335405588,1.1477221013378351,0.5812381505966187,0.4112963676452636,0.5013149380683899,0.7071443629528257,0.4091745691851856,-0.5235060949128135,-0.2417939398622581,0.122544877231121,0.1011553555727005,0.1663928031921386,-0.4509931246846914,1.4809446597099305,-0.0609831687510013,-0.0512324757874012,0.1444541662931442,-0.1114661780719179,-0.2233983427286148,-0.0270352676258771,0.056300025036605,166
1721468926579884500,-1.0491080709159373,-0.2585825471252203,-1.4408265843331811,5.466409549382329,8.075351692327857,1.0380023011423647,0.3808017373085022,-0.4628641605377197,0.4817430078983307,0.707041622350627,0.4104292617638607,-0.5278488714722519,-0.2302510975801958,-0.3486713767051697,0.2345960736274719,0.0938101336359977,-0.04742693708539,0.0244265852481126,-0.7207458851218224,-0.0017224330222234,0.1481760144233703,0.0204672485965071,-0.2412765920162201,0.0750419568110024,0.1384611251038499,167
1721468926619660300,0.590789133387804,0.3272697143822908,-2.223631012352556,5.616628167900442,7.980311940196156,0.9687701402883976,-0.4113807678222656,0.057817880064249,0.4093352556228637,0.7057910226669347,0.4047062195091885,-0.5355551756105875,-0.2263906036135088,0.2656024396419525,-0.0513083264231681,-0.0128824850544333,-0.5241068762123584,-0.368528776487708,0.9092707072891294,-0.0103281512856483,0.1021226793527603,0.0257496756615932,-0.2145250141620636,-0.0111454053809284,0.0260802136570564,168
1721468926659436500,0.7225994040340185,-0.3900146321088075,0.3928472251862287,5.716755014038085,7.879675975492596,1.1831359445463865,-0.5180860757827759,0.0545484684407711,0.2175799757242202,0.7135138398231767,0.3938598276044332,-0.5334334923810296,-0.2263210697427438,0.0057218573056161,-0.0701170563697815,0.0892755091190338,0.0264835177779197,0.2366927868783473,0.2612497935730963,-0.0394851937890052,0.0725249797105789,0.0266527939471998,-0.2638776004314422,0.0203603724222397,-0.2567467830654233,169
1721468926699212500,0.4589192415088415,-0.1072223573565483,-0.0984926690645515,5.786954339423775,7.817299306556582,1.2535453324861825,-0.2623064517974853,-0.3729589879512787,0.1641402393579483,0.715201057649014,0.3857292034493156,-0.5360036902649332,-0.2289115179092853,0.0053303726017475,-0.165025994181633,0.0200170092284679,0.1904799017578363,0.2595487618088722,0.2771547072567045,-0.040164764970541,0.0356230735778808,-0.0141775270603538,-0.2175385504961013,-0.0054452803434454,0.011670798086567,170
1721468926778765300,0.7540612947463989,0.0880009395360946,-0.9213258867420256,5.830291961368918,7.788921937856077,1.2291299992844462,-0.6619190573692322,-0.8198680877685547,-0.170107901096344,0.7074500218249581,0.3675686755802048,-0.5497500120150716,-0.2493643024443232,-0.08217204362154,-0.1834069192409515,-0.0430012382566928,0.0874532425254583,0.3147621149867773,0.4255717562455683,0.0644394606351852,0.0227191150188446,-0.3499386423081159,-0.1671737283468246,-0.0540750013643177,-0.0574045887450221,171
1721468926818541600,-0.054810617595911,-0.6448731902748346,0.4824456630468368,5.836358714061976,7.765079289975762,1.3456770882166922,-0.8103913068771362,-0.2273752689361572,0.0962680354714393,0.7067942358491466,0.3546027521509184,-0.5528530073291154,-0.262778134169914,-0.1169143170118331,-0.1969748735427856,-0.0142777822911739,0.0575040944635868,-0.0511427427381277,-0.0225263045847415,0.0166472867131233,0.0656850114464759,-0.3474691469220444,-0.1636239141225814,-0.0464212352081434,-0.2394381765963509,172
1721468926858318600,-0.5517559306383133,-0.2889519664257765,1.2054248601786792,5.915066340073943,7.673117630115151,1.5184285871908068,-0.4784491062164306,-0.3430380821228027,0.2577457726001739,0.7110293599901576,0.3417395520550434,-0.5529880361658377,-0.2680587093753319,-0.1972192674875259,-0.1805164366960525,0.0213878694921731,0.122279056712985,0.1422989314347505,-0.3013759061258286,-0.0245609786361455,0.0609325282275676,-0.2870828298193402,-0.1558292955160141,-0.0407137853807304,-0.2262869272687472,173
1721468926898094300,0.0216956989794969,-0.1709831741273403,1.0783692367136477,6.011392624884843,7.597796723932027,1.5188903594836591,-0.0030307550914585,-0.2575369775295257,0.2893493771553039,0.7108651403264714,0.3343523818426389,-0.5574644666896932,-0.2685379864781342,-0.1132226437330246,-0.0805432870984077,0.0280658137053251,-0.2292775421857833,-0.1940606828540563,-0.0967233213044703,-0.0359986126422882,0.0435107909142971,-0.2150963104896247,-0.1290393471717834,-0.0110934742642915,-0.172169753563404,174
1721468926937870600,0.172443894329667,-0.2102706438988447,0.482218722423166,6.119966396850347,7.533084890046715,1.4032153772108256,0.1167707592248916,-0.3026893138885498,0.2648645639419555,0.7076208357635582,0.3302411053563239,-0.5651519598846338,-0.2661141935211749,0.1569297611713409,0.0215928852558136,-0.0012392782373353,0.3493763322502374,-0.2489011110663413,-0.4065269371010362,-0.0306248571723699,0.0212315525859594,-0.331669154917635,-0.1083407253026962,0.0161791446397721,-0.1438857896342407,175
1721468926977616400,0.7716799535453319,0.0818751501321792,0.1997029265247285,6.200234696307778,7.482604410609603,1.3183702713571488,0.2016623467206955,-0.2401111871004104,0.1660804599523544,0.7060213934122954,0.3287311709886318,-0.5698400139686706,-0.262205902926298,-0.1476120352745056,-0.0783002600073814,0.0077014197595417,-0.1283013857424259,0.0155851071447134,0.3438040850758552,-0.0177993513643741,0.0397065952420234,-0.2782157788832671,-0.122746542096138,0.010415305574669,-0.1287917174094822,176
1721468927017391000,1.205929448699951,0.2920867573201656,-0.440076009351015,6.238990251159668,7.483980959659815,1.1114997182253747,0.2841930389404297,-0.5563908219337463,-0.1135916858911514,0.698855989279121,0.3297311803848133,-0.5784519306804362,-0.2612874553522967,-0.1735205948352813,-0.0387415587902069,0.0498707741498947,-0.1643915207773447,0.2023690769940614,-0.1520657076895236,0.0089861853048205,0.0602939203381538,-0.2541084887173958,-0.08653125166893,-0.0347543518199352,-0.0734303203632822,177
1721468927057165800,0.0800567025333642,-0.1682984650880098,-0.3476829723358154,6.226719383129477,7.512960970428585,0.9766101131990552,0.0128072658553719,-0.0476359240710735,-0.0103092417120933,0.6930674619667132,0.3307005487921369,-0.5838183708920425,-0.2635350730120006,0.0772825926542282,-0.0563304051756858,0.0086530996486544,-0.0100946930348873,-0.3251011381715536,0.136330451484397,0.0041936063207685,0.0499000214040279,-0.1688874987560324,-0.041369754821062,-0.0108313127718342,-0.1473476935911458,178
1721468927096941800,-0.3534387593835592,-0.2595429165899753,0.473371106839925,6.21998159930706,7.510234175813197,1.0385670954182744,-0.0688974186778068,0.277607649564743,0.0211028773337602,0.6954190725327221,0.3305446384015178,-0.5811953684163882,-0.2633336971280235,-0.0493384674191474,-0.0655241161584854,0.0552978999912738,0.0082616323888301,0.3294453048557043,-0.1671801285825669,-0.0317142456769943,0.0516395270824432,-0.169071385689266,-0.0128511087968945,-0.0425862327556824,-0.1466700043921358,179
1721468927136711400,-0.9966624288856982,-0.3419926517397165,1.07339254427962,6.280365633121132,7.453070273089408,1.085877785712853,0.3648692071437835,0.2462829053401947,0.365097165107727,0.7000457376833408,0.3316594851179789,-0.5784787171635201,-0.2555392761662904,-0.0496029183268547,0.0095425080507993,0.067421942949295,0.1640109970271587,0.1034369935989379,0.2712600962601602,-0.0199897065758705,0.0381494723260402,-0.1607279019695706,-0.0173301268368959,-0.0462183193474542,-0.0439268337096786,180
1721468927176486000,0.2899725416451692,-0.1644955656737089,1.1745618121422827,6.354685837829113,7.402766903784871,0.9936875777933746,0.6097811460494995,0.2567825317382812,0.2542332112789154,0.7003293750911728,0.3356535782221301,-0.5802350451746238,-0.2453626438637496,-0.1616988182067871,-0.0046117133460938,0.0821113437414169,0.1220423253476619,0.0664133771061897,-0.0298681917801499,0.0155840795487165,0.0186146702617406,-0.1152982213823124,-0.0144188115373253,-0.0022129496420035,0.0003581657879054,181
1721468927216262000,1.1482833154171703,0.3368132032752037,-0.6664953125614672,6.39105771241486,7.397953950545191,0.7713910536013543,0.6547748446464539,0.0253804009407758,0.0072323731146752,0.6955660348975035,0.344098675962914,-0.5850351311342075,-0.2356222901770721,-0.1053814962506294,0.0016768088098615,0.0419423468410968,0.0205985513925552,-0.4145376634687185,0.2951825313784182,0.0201983116567134,0.0113160926848649,-0.0188447859357402,0.0060148751363158,-0.0178868675813311,-0.0312379252137965,182
1721468927256036600,0.4366477884680032,0.1725058536499738,-0.1822615239888429,6.380542748141289,7.415467395403981,0.6854923470415174,0.3975432217121124,0.3165538012981415,-0.0210057310760021,0.6946062172602914,0.3516198787991338,-0.5843056368992685,-0.2290689389361856,-0.0251886546611785,-0.0973488390445709,0.0644559115171432,0.0318032514959573,0.0965267758190631,-0.4611867480494082,0.0022183279506862,0.0136353699490427,0.0291622217681491,0.0303188487887382,0.0076509120453847,-0.0395896356224315,183
1721468927335587000,-0.4298462917596101,-0.3979758202463388,-0.0767308095136657,6.330206061089038,7.470446939826012,0.5397095920789986,0.3261758685111999,0.0525666177272796,0.0440042912960052,0.6914187145477784,0.3631642973814544,-0.5836044569936871,-0.2223907127292159,0.21901336312294,0.0426964126527309,0.0693520680069923,0.2307587206542491,0.3585866436660289,-0.5353389027141034,0.0005705062067136,0.0182773489505052,-0.0233480966958682,0.0239480901509523,0.0245572989556938,0.0616800421410938,184
1721468927375361800,0.0253518833994865,-0.2640799754977226,0.1169610765606164,6.3533998896718025,7.457010535147786,0.4446285946214571,0.4104361534118652,0.0921661704778671,0.1096937283873558,0.6896923408700726,0.367343731428992,-0.5851400117457082,-0.2167815461133499,0.2778495252132416,-0.0330211967229843,0.1572803258895874,-0.271722014683485,-0.1098205571562051,0.2030054752014577,-0.0026240793522447,0.0258353613317012,-0.0043474871566431,0.0141143193468451,0.0336955246660974,0.089025378079852,185
1721468927415136500,0.0050087680727243,0.1268441726714372,-0.6667781480908394,6.386910529607534,7.433146259957551,0.3550830559918657,0.2793644368648529,0.0185441710054874,0.1217089593410492,0.6883505989024549,0.3712616275269897,-0.5865667959935611,-0.2104224605478797,0.4014681279659271,-0.0066173933446407,0.1674482673406601,-0.1294862116128206,-0.169135500434041,0.0909318053562194,-0.0032622083090245,0.0369848944246768,0.0146531235242262,-0.0015479405410587,0.0428337549430783,0.116370709452033,186
1721468927454912500,-0.3071574852019548,-0.004610124143958,-0.4832955944070592,6.428831855013966,7.398951144888997,0.3098651367254555,0.184292271733284,0.2180652618408203,0.1887171566486358,0.6883560824331258,0.373266027862105,-0.5872595227426346,-0.2048524759414337,0.3344456851482391,0.0771038681268692,0.2516269385814667,0.1038800611913204,0.7499860081315041,-0.1153657701931893,0.0043118270114064,0.0501410514116287,-0.0303290119416429,-0.0136807290837168,-0.0042866985925822,0.1969123276918195,187
1721468927494687000,-0.2100426803618669,-0.0661380672961473,-0.4509580899039283,6.501255870711803,7.3329884341597555,0.3623727380760014,0.0155287366360425,0.3290222287178039,0.2857275605201721,0.6923931264013959,0.3729273079115468,-0.5851917257674799,-0.1976549849410813,0.4156561195850372,-0.051628116518259,0.2899193465709686,-0.0399374581128358,-0.1904758101046085,0.2380582300126552,-0.0114621594548225,0.0885513797402381,0.0080318285212153,-0.0139477336779236,0.0138651903002173,0.1105283492325339,188
1721468927534461700,0.1693377450078725,0.2491004330307245,-0.2913631557533517,6.600566724291443,7.240261050623655,0.4260374009959399,0.0521173104643821,0.2396756261587143,0.3188991844654083,0.6970962242320012,0.3712267001527682,-0.5834971084798691,-0.1891523276815231,0.9836212396621704,-0.0044190068729221,0.2326509207487106,0.190208099079132,-0.1046358479946851,-0.1389022016685455,-0.0465698130428791,0.0710998624563217,0.0311243818367249,-0.0217743143439292,0.0878122759630437,0.0630632857935735,189
1721468927574237700,0.0846428612798452,0.0040086511194705,-0.2421644962877035,6.689002548113465,7.154803950351476,0.486223026161082,-0.0376155972480773,0.2581130266189575,0.3371825516223907,0.7009214234902703,0.3682813228084327,-0.582733551505344,-0.1830291417912727,0.6005886793136597,-0.112822875380516,0.1678141951560974,-0.0343862537264823,-0.0824105721831321,-0.1061269268026575,-0.0607750415802001,0.132983773946762,-0.0729974956037011,-0.0239055827260017,-0.0350047349679865,0.0993129359388723,190
1721468927614012200,0.133968909984827,-0.0142144033133983,0.462715090127848,6.786620626300573,7.056758002141118,0.5606560801263898,0.0709287673234939,0.2750253677368164,0.3947089910507202,0.7054154166088693,0.3649479928493728,-0.581573261435059,-0.1759960300714004,0.402556836605072,-0.1028285101056099,0.2051592320203781,-0.0499210919886827,0.2597662039518356,-0.4570201298892498,-0.0624514669179916,0.1343474686145782,-0.031215975960181,-0.0715784654021263,0.0655778578638099,0.0869783824221696,191
1721468927653787100,-0.08194821536839,-0.1795791530370712,0.0623772534579038,6.888513897588848,6.956815864920616,0.5669984714230523,0.1845399439334869,0.0532433167099952,0.3720622062683105,0.7075471110681686,0.3628167865003094,-0.5826277570371923,-0.1681844261679999,0.6533027291297913,-0.0881152898073196,0.1174092069268226,0.1851467240363359,-0.5425391894817352,0.1619242538809776,-0.039787970483303,0.1237975358963012,-0.0431758007132448,-0.0707567855715751,0.0417895568195031,0.1870871175143867,192
1721468927693562600,0.065952189335227,0.025365911924839,-0.5480722736895084,6.988712055397033,6.856168794301152,0.5667770472247153,0.0212945267558097,0.1838050633668899,0.389291912317276,0.7092594314312215,0.3604586150388389,-0.5840993059212694,-0.16077512558845,0.3279342651367187,-0.1668429225683212,0.2090092301368713,-0.13066226965487,0.7341665077090263,-0.2544528999745846,-0.0572847798466682,0.167126253247261,-0.1132924436510074,-0.090346947312355,-0.0928144407650455,0.0862588907748926,193
1721468927733337600,-0.2348129644811153,0.0751087247371673,-0.2483568481218069,7.102431373557448,6.734300656476616,0.6124253207324072,-0.0954033434391021,0.0705320090055465,0.4725661873817444,0.7123124410401789,0.3551549340987427,-0.5853545686739989,-0.1543893276845246,0.1593612283468246,0.0471640266478061,0.0644985884428024,0.8463979253992437,-0.5847334866106509,-0.083895257782936,-0.0521670281887054,0.1987319439649582,-0.0923097517790738,-0.1321124732494354,-0.0266456815031124,0.0797527785501908,194
1721468927773112300,0.079040803489089,-0.1370733057409524,0.2427653847903013,7.221328971138596,6.60007104972899,0.6796008047848939,-0.058262899518013,0.1818681210279464,0.4633500576019287,0.7160501135100719,0.3487213965490318,-0.5862963314533727,-0.1480616019527137,0.4964005053043365,-0.0309177786111831,0.129030704498291,-0.3773533034563064,-0.5411258155524731,0.0798673539737239,-0.0504842512309551,0.1892239600419998,0.0223651797558763,-0.1706123054027557,0.0105618310560239,0.0949649698624387,195
1721468927812888000,0.0726566554099321,-0.0194359373539686,-0.2737836233884096,7.347273564621806,6.453254933130741,0.7372112091671675,-0.0383811630308628,0.1634292751550674,0.5090098977088928,0.7197126251749918,0.3429331199573661,-0.5872048732972674,-0.1400041602209774,0.2171017527580261,-0.024619510397315,0.2114348411560058,-0.1202095569625496,0.6427963840007782,-0.3934890667537227,-0.0680396631360054,0.1825342625379562,0.0210344403254799,-0.1529824137687683,-0.0409597046995069,0.1164609724182169,196
1721468927852662800,-0.2126800431281328,-0.065504445567727,-0.3694605774451047,7.4711512887030835,6.306589038658141,0.7610617480929941,0.0149398948997259,-0.072020299732685,0.5287984013557434,0.7219710783685673,0.3371696208856271,-0.5895025845546751,-0.1325182303915496,0.0310509167611598,-0.1853705793619156,0.3165125250816345,-0.049163259358704,0.2349491580814123,0.3583153889765962,-0.0494052842259407,0.1947994232177734,-0.0840741214811801,-0.1752118170261383,-0.004156418709841,0.0530990598710952,197
1721468927892437800,-0.131738374453783,0.0393780706644058,0.0149152450591325,7.6094287095367905,6.133023446822167,0.8080913564238696,-0.1220057010650634,0.2037979662418365,0.5944642424583435,0.7250457830958296,0.3296410526568579,-0.5917225548140714,-0.1245386364816946,-0.8733682036399841,-0.1181154251098632,0.4461996853351593,-0.0211976863294839,0.7451175253123045,-0.743422996354103,-0.0302615370601415,0.1705957204103469,-0.0826156115022487,-0.1876198798418045,-0.0018870764052146,0.0244955656809615,198
1721468927932213200,0.0850169552892446,0.020192308679223,0.2359070433281362,7.760780715999007,5.934335688689351,0.8510604373175651,0.019425019621849,0.0980895608663559,0.6382426619529724,0.7281748086815093,0.3219422361955492,-0.594105368105421,-0.1146878733184658,-0.388549268245697,-0.0592337362468242,0.3135082721710205,0.463981785595417,-0.9077420364171266,0.2342050617158412,-0.0287938341498374,0.195795252919197,-0.2344565339925698,-0.192391887307167,-0.0201071351633989,-0.058440434598783,199
1721468927971988200,0.3716600602507591,0.0376058002948761,-0.0780448512542992,7.888035223037004,5.759952935251594,0.8787556689728051,0.0050723827444016,0.0799029096961021,0.5143588781356812,0.7304524881919839,0.3154747670378694,-0.5963820936971227,-0.1060335855567776,-0.5828857421875,0.0349400639533996,0.2298208326101303,0.0098702366292476,0.416774628740549,0.0890647693753242,-0.0513448417186737,0.205930545926094,-0.1385983416174538,-0.1737849712371826,0.0397170613943832,-0.0712512729908805,200
1721468928011806200,-0.0841138689696788,0.0027460838377475,-0.4967823045004159,8.002187087395786,5.592203336217999,0.928785993489623,-0.132237508893013,0.1716903001070022,0.5485642552375793,0.7332839246915405,0.3087531732409123,-0.5977596270129596,-0.0982322847261966,-0.0761663541197776,0.0259452909231185,0.2445077002048492,-0.0812722158029675,-0.7714093199104071,0.3801660593220964,-0.0611844807863235,0.2064607143402099,-0.1765715139199979,-0.2019902765750885,0.0619441592702642,-0.1227270470756571,201
1721468928051583700,-0.0512538018971681,-0.4145288956403732,-0.0565063155978918,8.1268960016042,5.395664865073561,1.0053584341038018,-0.0934774801135063,0.1016448363661766,0.6190410256385803,0.736970597478786,0.299992556442329,-0.5989536317363513,-0.0901850519919816,-0.4024107754230499,0.0324598625302314,0.3758193254470825,-0.0371574720054864,0.635741204792261,0.0162613989710807,-0.0503840819001197,0.2112649977207183,-0.1121973236243706,-0.206073522567749,0.0340806469595874,-0.0575265072247944,202
1721468928091360300,0.1533241833180189,-0.2617518248111009,-0.0941087548919022,8.25541015331447,5.185726229608059,1.0615157901335508,-0.1048057004809379,0.1112930998206138,0.6218708157539368,0.7399265505109633,0.2912008147006918,-0.6008991938099786,-0.0814300160529455,-0.3389050364494324,0.0775559693574905,0.3644448220729828,0.0359551104784011,-0.0118494277477264,0.1654512954959645,-0.0220135357230901,0.14396932721138,0.0441550438418285,-0.1905920058488845,0.0734909371098736,0.0722108022054191,203
1721468928131130600,0.2518739893972873,0.0936152722865343,0.4813971769072115,8.371443009114264,4.989275436747074,1.0938380240023136,0.1858196258544922,0.0579993426799774,0.5773636102676392,0.7421266610357021,0.2852750020552318,-0.6023686202388057,-0.0708404799916635,-0.0735370144248008,0.0404240451753139,0.3861950039863586,0.0042170331731438,0.1654313852190971,-0.044767325954698,0.0090470733121037,0.1300071626901626,-0.0263729700755327,-0.2052066326141357,0.0461399660147726,-0.0105098611234803,204
1721468928170908200,1.0967711548447607,0.6445408895805478,-0.1184196048058569,8.463425127241015,4.832493806451558,1.0898665630880742,0.0461470372974872,0.0936595201492309,0.3281197547912597,0.7428019331660187,0.2814641327926986,-0.6043262469576453,-0.0617489631597147,-0.0273796375840902,0.0485557429492473,0.3552127182483673,0.3298126768633723,-0.3904273045629263,-0.0226782802760601,0.0386612117290496,0.0649732947349548,0.0229168017396703,-0.1949853599071502,0.1058265647497493,0.092931902265409,205
1721468928210684700,-0.1169797812610864,0.0192453832179307,-0.2414811901986598,8.518383044353127,4.728157233664393,1.1189558063849807,0.012564118951559,0.1497732847929,0.3502771854400635,0.74422976284059,0.2781544731523947,-0.6046314761490863,-0.0563286705727547,-0.3580089509487152,0.0110285524278879,0.3188373446464538,0.1311105979442596,0.5547971980303525,-0.4484381795048713,0.0323886051774024,0.0518355369567871,-0.0817803936539683,-0.1999416798353195,0.0353768265332561,0.0114624274493369,206
1721468928250461400,0.1361439159363508,0.0079965517118573,-0.3770564394015818,8.581742879107594,4.600542076620459,1.1657955912321805,-0.0609798580408096,0.1062071844935417,0.3639678061008453,0.74625551871884,0.2734606148113918,-0.6047977004183636,-0.0504150003325691,0.3507444858551025,-0.0267240460962057,0.2090597003698349,0.2340291206270456,-0.6629711570233107,0.4311316553950309,0.0473990030586719,0.0562450215220451,-0.0844138200306333,-0.1952222287654876,-0.0271626911145402,0.0576693360618548,207
1721468928290239000,0.2609370012968778,-0.2339952183574438,0.1232611996181309,8.637114053195715,4.484152662467956,1.209561521591991,-0.000918932724744,0.0493564009666442,0.2999831140041351,0.7480718365855933,0.2689250327403373,-0.6049866551304367,-0.0453777305251429,0.3797705471515655,-0.0585746504366397,0.3132385611534118,-0.2074658156111836,0.2211065106898546,-0.1348199738562107,0.0251975804567337,0.0576477870345115,-0.0273359607556369,-0.1962417960166931,0.058128258810495,0.0096307676008553,208
1721468928330015500,0.0832072755187749,-0.1574219740256667,0.1221118103872984,8.694533976507186,4.370169140413403,1.2153490920174863,0.074584737420082,0.0773285552859306,0.3592830896377563,0.7486029474673039,0.2656699597401481,-0.6061797696541025,-0.0394854843089684,0.2853260636329651,-0.1149030700325965,0.3898912072181701,-0.1620773986160755,0.2093605433166027,0.1301449860488064,0.0176178254187107,0.0438359640538692,-0.0947113330280873,-0.1923694312572479,-0.0400575727945892,-0.0080074806728924,209
1721468928369791700,-0.294340673726797,0.0246726689636707,-0.1689576596491038,8.737643050393462,4.281149963745475,1.2230048674676566,-0.010699063539505,0.0333248972892761,0.3553988933563232,0.7490828546567099,0.2629627802707816,-0.607037628315608,-0.0350834863161531,0.3912021815776825,0.0689159259200096,0.2805808186531067,0.5349930118858814,-0.1796200695693492,-0.1799415566086769,0.0241014435887336,0.050105333328247,-0.2057898269566707,-0.2164235413074493,-0.026713858218363,-0.0895672116052825,210
1721468928409569300,0.435094713807106,-0.0051341480180621,-0.3920383930213749,8.804577236503363,4.129744473530352,1.2629291007727383,-0.1476098746061325,0.2203000038862228,0.4469413459300995,0.7506791099996194,0.2565667216574943,-0.6080970774822112,-0.0295332583090087,0.1722104400396347,0.0968043953180313,0.143465369939804,0.3650999710828065,-0.1896241617113351,-0.0002396539747714,0.0292819812893867,0.0278614945709705,-0.2347482652144506,-0.2363663464784622,-0.0257406977706938,-0.187159634761326,211
1721468928449345800,0.7631032638579607,-0.0168999891355633,0.0883376241445541,8.83944046009183,4.019406614501774,1.3707789423778651,-0.2539712190628052,0.1571966260671615,0.1761584877967834,0.7544199893549741,0.2497665065703698,-0.6064044998088818,-0.0272159196144832,0.3571115732192993,0.1187919229269027,0.1008703783154487,0.0886316386550664,-0.5531611212611198,0.1708452269613742,0.073133148252964,0.0372403860092163,-0.3208044638909399,-0.2205162048339843,-0.0869276386156212,-0.1002091175936162,212
1721468928489122300,0.6586907032251358,-0.2008551652997732,0.2893716531425714,8.859308359122275,3.952569166764617,1.435351660053432,-0.1415878981351852,0.0565959885716438,0.1126284971833229,0.7566187233926548,0.2450109072626542,-0.6056294988642933,-0.0266583793782277,0.4828668534755707,0.0631702691316604,0.1403517425060272,-0.263577578933537,-0.3599485796689987,0.1188981638367287,0.0719270557165145,0.0348403789103031,-0.2492175018054433,-0.2087797820568084,-0.0368195315882796,-0.3042080425455234,213
1721468928528899000,0.3589320961028337,-0.1362161043897271,0.2358592586636543,8.867572914120554,3.918306539417803,1.4776407958589493,-0.0805443152785301,0.0533038601279258,0.0522797629237175,0.7580499300106958,0.2424438648538725,-0.6048820184307695,-0.0264406686606691,0.2435647845268249,0.2057850956916809,0.1816230118274688,-0.0643248803943395,0.1607172161787748,-0.3600549991855397,0.0359238684177398,0.0389614850282669,-0.2954824093741364,-0.1749084442853927,-0.1180888019489124,-0.3354598889701068,214
1721468928568676400,0.473362777402997,-0.0043473815545439,-0.2630857037633657,8.875845067903398,3.891333776818216,1.499092456949502,-0.1292073875665664,0.0845578014850616,0.0560708455741405,0.7587717211893892,0.2404222387992656,-0.6047848420424764,-0.0264180111553998,-0.0499770939350128,0.0649350881576538,0.1823854148387909,-0.224488846604526,0.158277421811223,-0.342948345029354,0.0203080084174871,0.0211406853049993,-0.3062953702135942,-0.1587054133415222,-0.1221104769467376,-0.2561694763678125,215
1721468928608452900,0.757293116274476,-0.0680211045637726,-0.2214344274699687,8.87847074023187,3.860586171855032,1.561738005954772,-0.2031336724758148,0.1679838299751281,0.0055410368368029,0.7608474515184257,0.2371638941217566,-0.6034292049247623,-0.0271607198210864,0.0138583471998572,0.0320434495806694,0.0235921032726764,0.4610211822241544,-0.1549298649489879,0.0539057046454399,0.0292854141443967,0.0088223097845911,-0.2947512638216838,-0.1466505825519561,-0.1792047119677998,-0.2216333658418618,216
1721468928648229400,0.1933902362465858,-0.1418251764431595,-0.2240641914516687,8.870757389375568,3.843560218252241,1.6453221519619226,-0.2622455954551697,0.1432243287563324,0.0097636505961418,0.7635586154986264,0.2334698005840729,-0.6013349871708811,-0.0294331095993788,0.2412949651479721,-0.0224632006138563,-0.0168265607208013,-0.141960493260622,0.2394488075882196,0.1464583892017603,0.0367650017142295,0.0005930757615715,-0.2759064790275879,-0.1150617226958274,-0.1613178489530459,-0.1903954383447766,217
1721468928688007000,0.3131646166622638,-0.1118903491675853,-0.2109106953680515,8.861415560534596,3.820060100199282,1.74724026543051,-0.2734473645687103,0.1412650048732757,-0.0230264998972415,0.7668742277909949,0.2294382205682698,-0.598559640415399,-0.0314398112744419,-0.0289045628160238,-1.66953541338e-05,-0.0083601716905832,-0.0310278832092881,-0.0579769726723432,-0.1911556455949321,0.0382115915417671,-0.0243640076369047,-0.201626222737506,-0.0761374831199646,-0.0921642880269326,-0.1779148913529701,218
1721468928727783400,0.1129126779526472,-0.1012190252885222,-0.1872854896306991,8.853522176936268,3.7915816092118617,1.846466947858036,-0.2716399133205414,0.2408100366592407,0.0489118322730064,0.7700963324427993,0.2254228527399989,-0.5958531067070503,-0.0330946417156466,0.0620495751500129,-0.0343215651810169,-0.0111262639984488,-0.2304351877883076,0.2121761852592229,0.242336930245161,0.0246828831732273,0.0024651722051203,-0.1916684174226597,-0.0177613142877817,-0.1022756764682941,-0.1076678087022621,219
1721468928767560000,-0.1466542040348052,-0.0399319051548838,-0.3410986255094408,8.842545440369843,3.746456227067113,1.9859154582977288,-0.3074835240840912,0.3380618691444397,0.1299079656600952,0.7746346236147423,0.220179479868342,-0.5918340057531167,-0.0345662093178792,-0.1610088050365448,-0.0972921699285507,-0.0344362445175647,-0.06861351749897,-0.0080254855453968,0.4627162957042455,-0.0004245704039931,0.0090089570730924,-0.1402968343647196,0.0066740876063704,-0.0753142983458237,-0.0483998920370824,220
1721468928807337500,-0.2059557033091783,-0.1759761601090431,-0.7140601237475872,8.831366459229589,3.640086687147617,2.219713254386932,-0.2612581551074981,0.8047714233398438,0.3732398450374603,0.7824119789166883,0.2135322994382811,-0.5841490210607349,-0.0317085984270855,-0.0848929956555366,-0.1133551299571991,-0.0504137463867664,-0.0682417615771293,-0.3208691996902227,0.2259633030712604,-0.0156574230641126,0.0101565513759851,-0.0678428345205728,0.0144442170858383,-0.071939903709013,-0.0059604844443878,221
1721468928847114000,0.1084890162914991,-0.2862435842499137,-1.353003923973441,8.79210529294312,3.4862440329134463,2.591404732689261,-0.4858040809631347,0.975684404373169,0.3219465017318725,0.7945996276227826,0.204192209930403,-0.5711222865972263,-0.0271359069588256,-0.1025649383664131,-0.0807742848992347,0.0364435166120529,-0.0242389537215232,0.148995214203,-0.484369909107685,-0.0101834964007139,0.0099183656275272,-0.0828555851374287,-0.0003183963708579,-0.1146490915575064,0.0187434570112032,222
1721468928886890500,-0.07721124997437,0.2512280927091836,-0.882436914768815,8.732399889042973,3.3073037623018022,2.9962174132183192,-0.5379401445388794,0.8590831756591797,0.2878651320934295,0.8075913169172867,0.1924680077399998,-0.55694836993204,-0.0236827630352192,-0.1897629499435424,-0.047725360840559,0.0597572959959507,0.1133776651158928,0.2536994512587786,-0.1472673674970865,0.0218444764614105,-0.0218206886202096,0.0379731677359668,-0.0005921695847064,-0.0222271001591696,0.0514757740847766,223
1721468928926668000,-1.4367314239740372,0.0236363116532564,-1.289144323003292,8.682184198021888,3.1397026318281887,3.3064082747668024,-0.8957297205924988,0.4579141736030578,0.3371257483959198,0.8172741156153576,0.1788938775490562,-0.5471901590003229,-0.025356723680731,-0.0907974913716316,-0.1097862273454666,0.0553457029163837,0.0377148136273026,0.0076847092837095,0.2113385653913021,0.0648114085197448,-0.0506196171045303,0.0128748378307966,0.0044347611255943,-0.0055727026904642,0.0130401068285282,224
1721468928966444500,-1.8261299700111149,-0.3570961128473282,0.0874777924448251,8.703773514017461,2.770451386284828,3.5692160383716223,-1.020687699317932,0.2561033070087433,0.90172016620636,0.8254893622338241,0.1557643309250941,-0.5419945568554586,-0.0233801490375495,-0.526910126209259,-0.1062890738248825,0.0904911756515502,0.0652209524512291,0.3360767056941985,-0.4928963299125433,0.0795040130615234,-0.0382714718580246,-0.0451180345219327,0.0269964765757322,-0.0615026488807285,-0.0520701734810834,225
1721468929006221000,-0.281750072222948,-0.4746167229868471,1.866827306580544,8.791490375915169,2.330571630158276,3.667219901005923,-0.785407543182373,-0.0652581006288528,0.8300492763519287,0.8286019682946869,0.1303573908682881,-0.5440871016222333,-0.0198712602298259,-0.2762022316455841,-0.2319632768630981,0.0973119288682937,-0.2682546308338642,-0.071636664712429,0.2574146723896265,0.0612958557903766,-0.031050780788064,0.0093263926681771,0.0555296055972576,-0.0387512166034895,-0.0539018321879208,226
1721468929045958700,-0.115596802470088,-0.4416090641371905,2.43533475779444,8.858622130423784,1.9635728397168213,3.720157418206334,0.0780130922794342,0.0527099557220935,0.9472737908363342,0.8304197093823488,0.1147510239448495,-0.5451210508942974,-0.0088472835765106,-0.1105666682124137,-0.17402184009552,0.1368813067674636,-0.195288471083343,-0.2463426587551832,0.0754477474331855,-0.0064550163224339,-0.0029910807497799,-0.0319034970000386,0.0653562396764755,-0.0440690780248492,-0.0436003462682478,227
1721468929125508600,0.3882937996655702,0.077466686040163,0.6007736440464854,9.083016576743123,1.7168375283822417,3.274391672781109,0.3114693760871887,-0.7125993371009827,0.2481083422899246,0.8166234056474365,0.113135399509823,-0.5659088879138825,0.0085785181139357,0.2479233145713806,-0.0250114221125841,-0.0446828939020633,0.6771402598902583,-0.4071002069443464,0.3900655220458284,0.0120570864528417,0.0368721932172775,-0.0569139100180938,0.020155182108283,-0.0304051938668359,0.1838652511247433,228
1721468929165284400,0.2505383568793535,0.314733619544655,-0.0371326298251748,9.161067784672976,1.6260659550890326,3.0985677806243297,0.5295292139053345,-0.1696686148643493,0.4942605793476105,0.8109236224421618,0.1161210402551417,-0.5731779037834502,0.0196431180054823,0.4933916628360748,-0.0803914815187454,-0.0079857315868139,-0.0248997557178139,-0.3007996406078338,-0.0701145697116851,0.0222152918577194,0.080665148794651,-0.1353939560855738,0.0051270560361444,-0.1382462585104629,0.1167982324154116,229
1721468929205059300,0.256324539065361,0.1412963302634656,-0.8841063092857598,9.191643540200593,1.5148926681496202,3.0641762662008403,0.2057504504919052,0.0871068388223648,0.3806877732276916,0.8095001528645183,0.1171621806374017,-0.57449413543333,0.0306439505869023,0.4867305755615234,-0.037351656705141,-0.0045581758022308,-0.1443392050907015,0.1654512589633464,0.049506076880428,-0.0046329125761985,0.0378985628485679,0.0474834347792901,0.0108491936698555,-0.0292234047703212,-0.003103747302154,230
1721468929244834300,-1.0307610978424548,-0.1961786979213357,-0.4536380862355232,9.177181884127856,1.331628835250437,3.190060946190357,0.1124004647135734,0.591766357421875,0.8028230667114258,0.8129492449942932,0.1129289994935524,-0.5697360801773124,0.0419691998409268,0.2366608083248138,0.023031098768115,0.0794298648834228,-0.1712523464575409,0.2089250745087862,-0.1400713185131549,-0.0235289111733436,0.0028338828124105,-0.0358115646887104,0.0261141862720251,-0.0771230237016454,0.0305323730436153,231
1721468929284610000,0.1591214714199304,0.0491878823433071,-0.2326075633913278,9.134570822891591,1.0487032164420933,3.4103117168337103,0.0223560780286788,0.5122643709182739,0.6796863675117493,0.8189352114972875,0.1042125207193183,-0.561482190512077,0.0567681718862603,-0.0911855176091194,0.0421136580407619,0.0646995231509208,-0.148310739070177,0.1603612423479557,0.1193032557725906,-0.0316400155425071,-0.0008986863540485,-0.0285669775550486,0.025492463260889,-0.0831490242592059,0.020804383012827,232
1721468929324385000,-0.477706359565258,0.2883076041076332,-0.3624333822220563,9.116135587012767,0.8408578269287943,3.515596968647837,0.0441156066954135,-0.0148427849635481,0.5540011525154114,0.8213769493393445,0.0981798045419918,-0.5577769813953324,0.0677166859424326,0.0432681664824485,-0.0636014193296432,0.070244088768959,-0.2258870229646563,-0.2256809789985418,0.2202893490880727,-0.0214997380971908,-0.0113344993442296,-0.1172522506600711,0.0110742338001728,-0.0187399247636902,0.0374245231605484,233
1721468929364159700,0.8902022880733013,-0.0048523354019969,0.0708168727621436,9.172776342645289,0.679867346766591,3.401224155014753,-0.2883086204528808,-0.5392738580703735,0.189868614077568,0.8174806754499149,0.0918672601749727,-0.5640445319147874,0.0716895927283106,-0.1404577195644378,-0.0987551510334014,0.0035506833810359,-0.0114966687873005,-0.0426391182869672,-0.0002800042514689,0.0195219162851572,-0.0296579618006944,-0.104773219771916,0.0092675881460309,-0.1283260087270289,0.048605104886135,234
1721468929403935700,0.6934124725162982,-0.2310096997406333,0.7412967979803681,9.223669494536518,0.6145307320464402,3.2736291639760133,-0.020064540207386,-0.115599937736988,0.1565003246068954,0.8135359295088521,0.0884206486852365,-0.5703272373185372,0.07118900262042,-0.6123272776603699,-0.175974041223526,-0.0562668442726135,-0.1714168893694877,0.1311515144765377,-0.1949152538567781,0.0254913493990898,-0.0113423783332109,-0.1315937326855491,0.0055006667971611,-0.079070961165335,-0.0867313762580044,235
