time_imu,phone_acc_x,phone_acc_y,phone_acc_z,phone_gravity_x,phone_gravity_y,phone_gravity_z,phone_gyro_x,phone_gyro_y,phone_gyro_z,phone_ori_w,phone_ori_x,phone_ori_y,phone_ori_z,watch_gyro_x,watch_gyro_y,watch_gyro_z,watch_acc_x,watch_acc_y,watch_acc_z,headphone_gyro_x,headphone_gyro_y,headphone_gyro_z,headphone_acc_x,headphone_acc_y,headphone_acc_z,frame_imu
1722165778373720300,2.240084865155816,21.31196269700527,-4.418158972078562,-0.1038584704140201,9.724524089977145,-1.2622336658544837,-0.5389975309371948,-0.4038050174713135,-0.0650787279009819,0.5095202828246737,0.574792542980002,0.4837039826789283,0.4195629966964367,-1.333194136619568,-0.0384300351142883,-0.1178381964564323,0.3784451903462409,-0.714644061115384,0.5029238029301166,0.0318444296717643,-0.080021247267723,18.06955430846214,0.3226651847362518,2.1933698757320643,-0.3186412579750642,0
1722165778413499400,1.5425430377498268,11.824054821538924,-3.843194015288353,-0.2148086526546627,9.759823951417207,-0.9327897492382676,-1.2417521476745603,-0.904711663722992,-0.2197372317314148,0.5290114807890618,0.5717712744423543,0.4697197586510252,0.4154370149173583,-1.333194136619568,-0.0384300351142883,-0.1178381964564323,0.3784451903462409,-0.714644061115384,0.5029238029301166,0.0120775187388062,-1.1740872859954834,7.500852014961838,0.5161952376365662,1.197164542964101,0.8846711035616696,1
1722165778453278200,-0.8660808963168412,-2.36326116296947,-0.0925309476485475,-0.2738581681956537,9.79396470595002,-0.4166853795545175,-1.086132526397705,-0.0253746304661035,0.11563740670681,0.5483098074376171,0.5595921700329585,0.4561815912416642,0.4220322801168443,-1.333194136619568,-0.0384300351142883,-0.1178381964564323,0.3784451903462409,-0.714644061115384,0.5029238029301166,0.1881709992885589,-1.7424442768096924,-7.177314472845196,0.673865795135498,-1.085656324981898,0.5034074947938323,2
1722165778495541500,-1.1156540614258497,-14.594733002316952,-1.7847201012581586,-0.1020966209738049,9.805580909463762,0.1026437334625516,-1.4541083574295044,0.2146461009979248,0.3734578192234039,0.557648522253451,0.547270976533668,0.4418835867006885,0.4407510366369717,-1.333194136619568,-0.0384300351142883,-0.1178381964564323,0.3784451903462409,-0.714644061115384,0.5029238029301166,-0.1784500479698181,0.581546425819397,-11.821910795247554,0.3645080327987671,-3.54147842887938,-1.0665475737556815,3
1722165778535320600,0.1618694732201285,-14.863082325696944,3.264873902851343,0.0052754476225614,9.78947090166211,0.5802141094900667,-0.5285047292709351,0.3736985027790069,0.2367182075977325,0.5644998264869951,0.532266102682123,0.4325622608282689,0.459263313822465,-1.333194136619568,-0.0384300351142883,-0.1178381964564323,0.3784451903462409,-0.714644061115384,0.5029238029301166,0.1705015152692794,-0.4861640036106109,-6.969193700456619,-0.1462512463331222,-0.6026344329496846,0.3214785272276029,4
1722165778575099100,0.8330126663863658,-14.123179320162532,1.7737404420822858,0.0547870038248831,9.793115980166196,0.5121235564192756,0.6381751298904419,-0.1772012412548065,0.0100448839366436,0.561437406256144,0.5352749890978857,0.4328621619842511,0.4592375403257313,-1.333194136619568,-0.0384300351142883,-0.1178381964564323,0.3784451903462409,-0.714644061115384,0.5029238029301166,0.1338422298431396,-0.1349845975637436,-9.889973595374824,0.2484505027532577,-2.337352230209112,0.6633779842585324,5
1722165778614878200,0.7374246327221393,-12.400066072511672,0.4086374995142221,0.0233327118970686,9.804752057424189,0.191559002231434,0.9172856211662292,-0.0354867838323116,-0.2049646377563476,0.5543671931040909,0.5446905661138445,0.4399379460391306,0.4499376650106158,-1.333194136619568,-0.0384300351142883,-0.1178381964564323,0.3784451903462409,-0.714644061115384,0.5029238029301166,0.0407168418169021,0.095450110733509,-9.921468803834914,-0.0182258784770965,-2.390071720744669,-0.326785985985957,6
1722165778654666200,0.0509443249560426,-10.55751863618493,-0.4854290627717971,-0.0911967399027198,9.805140179958938,-0.1458922888847533,0.7779222130775452,0.2416547089815139,-0.3228884041309356,0.5468323028955813,0.5508520226061453,0.4516641296714166,0.4399272155627521,-1.333194136619568,-0.0384300351142883,-0.1178381964564323,0.3784451903462409,-0.714644061115384,0.5029238029301166,-0.0213437844067811,-0.0661263689398765,-9.525614213526248,-0.2510377466678619,-2.341368041721731,-0.3732784552328288,7
1722165778694445600,0.3575251884469762,-9.03660378513634,-1.0772001929342747,-0.222402487050835,9.796165430864692,-0.3950837885992601,0.4682072103023529,0.2788023650646209,-0.3604941070079803,0.539733334201685,0.5515282504638594,0.4647152424825483,0.434216989284948,-1.333194136619568,-0.0384300351142883,-0.1178381964564323,0.3784451903462409,-0.714644061115384,0.5029238029301166,-0.0272181406617164,-0.0718565285205841,-9.670321959668398,-0.3854256272315979,-2.527628133827448,-0.4788019727822393,8
1722165778734225000,-1.046165953049436,-7.283311672320962,-0.9003402357280254,-0.2821670555260032,9.788394796863198,-0.5273517398850992,0.2041457444429397,0.1116381511092186,0.0979576259851455,0.5365833798736946,0.5529364782030909,0.4702645070472592,0.4303380436586397,-1.333194136619568,-0.0384300351142883,-0.1178381964564323,0.3784451903462409,-0.714644061115384,0.5029238029301166,-0.063029371201992,0.0469920076429843,-9.917414560008048,-0.5458440780639648,-2.742037484966218,-0.1717364949789829,9
1722165778774004200,0.4550195306565612,-2.7039076607972383,-1.496391235166788,-0.1901609172028489,9.788200735595822,-0.5704028730390593,-0.1896254420280456,-0.327999472618103,0.3228578269481659,0.533769433703592,0.5567876142213255,0.4680491480694958,0.431286209759963,-1.333194136619568,-0.0384300351142883,-0.1178381964564323,0.3784451903462409,-0.714644061115384,0.5029238029301166,-0.4313607513904571,3.526198625564575,-1.9225737437218424,-0.8411408066749573,-2.878221440652013,-0.8650665316425263,10
1722165778813783600,0.2390685578326694,9.804732183679938,5.56128037468791,-0.1229499782444909,9.792257317510249,-0.5166974036734551,0.7612385153770447,0.3839104771614074,0.0877734795212745,0.5327418377060998,0.5557804591755471,0.4663178288247602,0.4357085763922574,-1.333194136619568,-0.0384300351142883,-0.1178381964564323,0.3784451903462409,-0.714644061115384,0.5029238029301166,-0.6172181367874146,0.9828481078147888,9.295795988592506,-0.1062162443995475,1.92876543796882,-0.6170734753318131,11
1722165778853564000,1.9312448336943984,12.896333340162036,-0.1748481789924204,-0.1713572864030488,9.755509010827542,-0.9854418005608022,1.138882756233215,0.1967240124940872,-0.2932082712650299,0.5188202895114198,0.5655162060313993,0.480036424061589,0.4249495311227746,-1.333194136619568,-0.0384300351142883,-0.1178381964564323,0.3784451903462409,-0.714644061115384,0.5029238029301166,0.241994559764862,1.9553357362747192,14.207068732726572,0.1669701486825943,0.7501070772279054,0.838449377547577,12
1722165778893343500,0.477450229379721,13.413056535863875,-0.3372806746564805,-0.2751400246997363,9.685302086657286,-1.5131376411758362,1.6847567558288574,-0.1028168573975563,-0.1329619884490966,0.5041186782958722,0.5750915402149679,0.4964053464528076,0.4107502083651255,-1.333194136619568,-0.0384300351142883,-0.1178381964564323,0.3784451903462409,-0.714644061115384,0.5029238029301166,0.0307452771812677,0.4460770785808563,8.95297974551022,-0.4224196076393127,0.8882501310922205,-3.452194756056368,13
1722165778933122800,0.4868057944850996,6.450790004321933,-5.523792647814751,-0.3147224770961329,9.620288054955004,-1.876535338385403,0.0765594094991684,0.1998097151517868,-0.0599461793899536,0.4948789257166212,0.5845083456781369,0.5040105830233124,0.3992720330126396,-1.333194136619568,-0.0384300351142883,-0.1178381964564323,0.3784451903462409,-0.714644061115384,0.5029238029301166,-0.212058424949646,-0.7251696586608887,3.5446009448140856,-0.5555697083473206,0.923736455015093,-0.6854563258800656,14
1722165778972902400,0.4504057897834107,-0.6111953770786523,-2.1281633901976047,-0.3154324885290115,9.645116206741331,-1.744308303631842,-0.6589677333831787,0.4683401584625244,-0.1495218873023986,0.4956930708951259,0.5770967714062936,0.5058599500971891,0.4066366379590096,-1.333194136619568,-0.0384300351142883,-0.1178381964564323,0.3784451903462409,-0.714644061115384,0.5029238029301166,-0.0755518302321434,-0.2320484071969986,-3.6394051346242415,0.255838006734848,-1.4874742076091467,0.228679247499071,15
1722165779012681700,0.2825309569349512,-4.682994149857759,1.2854770326673983,-0.3627369682785123,9.685379828068614,-1.4940722906999289,-0.5456706285476685,0.6477009057998657,-0.238059714436531,0.4995922252327051,0.5638839369853365,0.508145051832852,0.4174101511070363,-1.333194136619568,-0.0384300351142883,-0.1178381964564323,0.3784451903462409,-0.714644061115384,0.5029238029301166,-0.1756433546543121,-0.0177648197859525,-4.718690024878084,0.3917560577392578,-1.1390804566554724,-0.3854908345414325,16
1722165779052461000,0.0099262046001851,-6.758488172271847,1.8119383630514143,-0.3971883231304585,9.698118898132442,-1.3996861801713705,-0.1388590335845947,0.352039635181427,-0.161848172545433,0.4995806219707031,0.5563152499136687,0.5117396555054553,0.4231490106075417,-1.333194136619568,-0.0384300351142883,-0.1178381964564323,0.3784451903462409,-0.714644061115384,0.5029238029301166,-0.1642089188098907,-0.1333614587783813,-6.1426277259916064,0.4027706384658813,-1.368087072945386,-0.5403960034405813,17
1722165779092240600,-0.10902582658194,-7.581895390444994,0.5393066373012959,-0.429669839214161,9.694929162180424,-1.4121427800320088,0.1442955434322357,-0.2820818126201629,0.0044655734673142,0.4999321898301829,0.5557792285687984,0.5129412205370234,0.4219818794301708,-1.333194136619568,-0.0384300351142883,-0.1178381964564323,0.3784451903462409,-0.714644061115384,0.5029238029301166,-0.0646397843956947,0.0702893286943435,-5.937009291812777,0.24337799847126,-1.147256602717936,-1.0991686444405466,18
1722165779132015900,-0.4534724108124152,-5.321019081673025,-0.3673554949246346,-0.4244514104461297,9.69088485522568,-1.4411650225073098,0.0597873516380786,-0.2108428031206131,0.1055903211236,0.5015235969765599,0.5597583438895772,0.5100485867299264,0.4183240958436393,-1.333194136619568,-0.0384300351142883,-0.1178381964564323,0.3784451903462409,-0.714644061115384,0.5029238029301166,0.0643596053123474,-0.1385176628828048,-4.618723045477271,-0.1552994102239608,-0.6004403204388916,-1.2386669123061,19
1722165779171795500,-0.9857511587709188,2.300535534465313,-1.3703273992180824,-0.3353992082914337,9.68768109074831,-1.4855056840151548,0.082335315644741,-0.310636818408966,0.335868775844574,0.5000839091713989,0.5653881471356547,0.506039480467094,0.4173444433542027,-1.333194136619568,-0.0384300351142883,-0.1178381964564323,0.3784451903462409,-0.714644061115384,0.5029238029301166,0.0470562689006328,0.8855435848236084,1.8742061647854744,-0.4573128223419189,0.38445926300399,-0.1528905411411076,20
1722165779211574800,0.0589835741653107,14.520961663663387,-2.8777146601736545,-0.2389975749556906,9.7041686996907,-1.3936908852793275,-0.4479697346687317,-0.5645581483840942,0.2583059072494507,0.5045745549038267,0.5701541806613926,0.4959664032311306,0.4175476565546481,-1.333194136619568,-0.0384300351142883,-0.1178381964564323,0.3784451903462409,-0.714644061115384,0.5029238029301166,0.1108815968036651,0.6091197729110718,12.144150698769092,-0.4464996457099914,2.586404440183937,-0.9679580932531504,21
1722165779251353900,-1.559687941557169,21.52731926586628,-3.9189711408063768,-0.1223881431106477,9.734218970039484,-1.1833710684765129,-0.973347306251526,0.0656249150633812,0.4001111090183258,0.5111677941817421,0.5710276532315002,0.4840067685473351,0.4223413909394199,-1.333194136619568,-0.0384300351142883,-0.1178381964564323,0.3784451903462409,-0.714644061115384,0.5029238029301166,0.1306624263525009,0.3022183179855346,23.255568122839925,-0.1321406811475753,4.221219226656854,0.5619959138954058,22
1722165779291125000,1.50712101123482,19.11301239079237,-0.7214964112281799,0.0027224283967021,9.780962016513945,-0.70933872124888,-1.0765128135681152,-0.1684550940990448,0.1916152685880661,0.5209795107440173,0.5602616724877828,0.4714584464269176,0.4386503807911375,-1.333194136619568,-0.0384300351142883,-0.1178381964564323,0.3784451903462409,-0.714644061115384,0.5029238029301166,0.1313087195158004,-0.6232539415359497,17.666151202470065,0.3352354168891907,3.221531020209193,0.1111011624181177,23
1722165779330904000,1.6008638554237782,7.766599631410837,1.6635001982092856,0.0418578728153603,9.794119604250788,-0.4937829034887254,-0.0987081080675125,-0.7489929795265198,0.1337312012910843,0.531079601700683,0.5604973210667369,0.4593676901481534,0.4390653769971495,-1.333194136619568,-0.0384300351142883,-0.1178381964564323,0.3784451903462409,-0.714644061115384,0.5029238029301166,0.0325296148657798,-1.6264885663986206,-0.0110604761769878,0.2902467846870422,0.1322186505177058,-0.4389748066434636,24
1722165779370684000,0.0752725917956791,-7.72742906601727,-0.9618494741797446,0.0315688468017498,9.79571944066286,-0.4618025053275749,-0.3094506859779358,-0.4808944761753082,-0.0614648051559925,0.5386477900945628,0.5660947862836886,0.4506462776316329,0.4316400552832947,-1.333194136619568,-0.0384300351142883,-0.1178381964564323,0.3784451903462409,-0.714644061115384,0.5029238029301166,0.0849742516875267,-1.0002384185791016,-13.408627028983831,0.2455827742815017,-4.519147695742547,-0.8883460657473653,25
1722165779410463000,-0.073062286201911,-14.605670575916768,-1.6597347081959246,0.0566021086891414,9.805745160114764,-0.1206528711501043,-1.4591245651245115,0.4526220262050628,0.0363624170422554,0.5479738135644585,0.5573193961383603,0.4422065977401516,0.4399695071790196,-1.333194136619568,-0.0384300351142883,-0.1178381964564323,0.3784451903462409,-0.714644061115384,0.5029238029301166,-0.513258159160614,1.0315061807632446,-4.411785637654364,-0.705415666103363,-0.1895262360285036,-0.1983128969384357,26
1722165779450242000,1.5837636675409972,-15.323381623387336,3.0136493172734973,-0.0151126581942196,9.801154325193169,0.3279081949489191,-0.3335746824741363,0.2971355617046356,-0.3376370966434479,0.5578752808701651,0.5388465094109834,0.4392331666247727,0.4533142384524141,-1.333194136619568,-0.0384300351142883,-0.1178381964564323,0.3784451903462409,-0.714644061115384,0.5029238029301166,-0.2350642383098602,-0.0335521847009658,-9.536510870593784,0.2309571057558059,-2.4151035784095525,1.0407662859629838,27
1722165779490020900,0.9960015538241712,-14.38939747673273,1.6080594660162926,-0.1839184791493229,9.803453249785305,0.1699343957267701,0.9360913634300232,-0.0532552227377891,-0.4396367371082306,0.5560850388731376,0.5382020900906439,0.4490815819820101,0.446580049592272,-1.333194136619568,-0.0384300351142883,-0.1178381964564323,0.3784451903462409,-0.714644061115384,0.5029238029301166,-0.1195408627390861,0.1629085391759872,-10.161032762235402,0.1520162373781204,-2.3299724952213463,0.2589570795260369,28
1722165779529800000,-0.1850712476473301,-12.43604924004078,-0.1819523119091987,-0.3175617191100492,9.79823756096363,-0.2531934196990914,1.0438148975372314,-0.2663970589637756,-0.2191895246505737,0.5490603240202817,0.5488069746547664,0.4601306076881205,0.4308405861907117,-1.333194136619568,-0.0384300351142883,-0.1178381964564323,0.3784451903462409,-0.714644061115384,0.5029238029301166,-0.0545732676982879,-0.0945605337619781,-9.444999877110122,0.0218592975288629,-2.034845639552921,0.0719876244414132,29
1722165779569579000,-1.2181656107429415,-10.623898111021518,-0.2132453488606959,-0.344949090392515,9.782187758916615,-0.6001844094490633,0.8345019221305847,0.0498956255614757,0.0884338691830635,0.541251799794126,0.5593599387846494,0.466601915500071,0.4200544253996455,-1.333194136619568,-0.0384300351142883,-0.1178381964564323,0.3784451903462409,-0.714644061115384,0.5029238029301166,-0.0572456568479537,-0.0786982327699661,-9.587198270779847,-0.081456571817398,-2.23381542949751,0.1836210853716358,30
1722165779609358000,0.0575767943736165,-8.780759138542413,-0.581741903579235,-0.2764966452067717,9.756396315056085,-0.9521932456273584,0.8196616172790527,0.1767652928829193,0.136240616440773,0.5284413155945865,0.5693115191147424,0.473743327040606,0.4149716522459104,-1.333194136619568,-0.0384300351142883,-0.1178381964564323,0.3784451903462409,-0.714644061115384,0.5029238029301166,-0.0307772830128669,-0.058972205966711,-9.86726024378538,-0.1218321546912193,-2.2660481584519148,0.2212925895801745,31
1722165779649137000,0.5112778263101354,-5.683749401015043,-1.2775043002225457,-0.2206818007380701,9.73324281848371,-1.1771505865264684,0.3717707693576813,0.0792876183986663,0.148280844092369,0.5192865079907615,0.5751509508652999,0.4787685870391478,0.4127028341473353,-1.333194136619568,-0.0384300351142883,-0.1178381964564323,0.3784451903462409,-0.714644061115384,0.5029238029301166,-0.055121224373579,1.2906242609024048,-8.985193331372738,-0.1818331927061081,-3.949800871095061,-0.4829511283509433,32
1722165779688916000,1.2397101377487183,5.847403839689493,0.8873393729228526,-0.1778817197357304,9.732713241651654,-1.1887099452864378,0.0626743659377098,0.9576544165611268,-0.2071813642978668,0.5150842871224947,0.5731010389253237,0.4818324804044049,0.4172299120103996,-1.333194136619568,-0.0384300351142883,-0.1178381964564323,0.3784451903462409,-0.714644061115384,0.5029238029301166,-0.041209653019905,0.1860391199588775,6.015003216597438,-0.2908967733383178,1.8779511965326965,-0.7755689968731254,33
1722165779728695000,2.294853981697559,12.00645955339074,-0.61170332660079,-0.247512268790137,9.68665291674435,-1.509260069090128,0.9332245588302612,0.0095548294484615,-0.2891551256179809,0.5023147233017343,0.5740935835792957,0.4973604409406214,0.4131937108205444,-1.333194136619568,-0.0384300351142883,-0.1178381964564323,0.3784451903462409,-0.714644061115384,0.5029238029301166,-0.0750658139586448,0.0729029104113578,11.837556108146906,0.4066563844680786,2.4727210701197384,0.5240323131388053,34
1722165779768491800,0.1950753032566979,15.0862574593544,0.4040191920638084,-0.3671586206456646,9.641955112361908,-1.7516557437852025,0.866736888885498,0.0601868405938148,-0.2887099385261535,0.4977481202150144,0.5774130485787915,0.5058693088634252,0.4036549200931537,-1.333194136619568,-0.0384300351142883,-0.1178381964564323,0.3784451903462409,-0.714644061115384,0.5029238029301166,-0.0329064093530178,-0.5902464389801025,9.67561422085762,0.4694232046604156,1.3131719720616937,-1.480218829653412,35
1722165779808271600,-1.564368500588834,11.8018336373806,-3.702243575853109,-0.3786756381012499,9.564471475186943,-2.132575507551432,0.552401065826416,-0.0376862250268459,0.1647045016288757,0.4874454114243314,0.5881772227271415,0.5126193929799088,0.3920024068345908,-1.333194136619568,-0.0384300351142883,-0.1178381964564323,0.3784451903462409,-0.714644061115384,0.5029238029301166,0.0917273089289665,-0.3874897956848144,8.138706266385316,0.0436233170330524,2.365730183431506,-0.8915081099748611,36
1722165779848052500,0.0193666715100407,4.430902133795619,-2.948289248612523,-0.3184918760996312,9.564102641874552,-2.144027460414171,-0.3763617873191833,0.3683367371559143,-0.0124539714306592,0.4840428728054475,0.5877213672124122,0.5137105905704102,0.3954584549469931,-1.333194136619568,-0.0384300351142883,-0.1178381964564323,0.3784451903462409,-0.714644061115384,0.5029238029301166,0.2096408605575561,-0.4468721151351928,-0.899472659113258,0.3650525510311126,0.238522559588775,0.5117401465922594,37
1722165779887832300,-0.4747511630214751,-1.5349766941487788,-1.817638620519638,-0.3009702844670042,9.626330842250583,-1.8475852843634784,-1.0972880125045776,0.2267591059207916,0.0485265627503395,0.4903755723992907,0.5777235678018832,0.5103294174852632,0.4066094574036494,-1.333194136619568,-0.0384300351142883,-0.1178381964564323,0.3784451903462409,-0.714644061115384,0.5029238029301166,0.2046297937631607,-0.2664287686347961,-2.9559087837055324,0.3595078885555267,-0.1508477741339709,-0.1562789232040755,38
1722165779927612400,-0.1238379217938519,-5.417027971097827,1.532636414632946,-0.247263098068349,9.688881698709723,-1.4949278846159575,-0.6340044140815735,0.0805554836988449,0.1257147043943405,0.4984138510822697,0.568537818245041,0.5029760002563028,0.4187642200008665,-1.333194136619568,-0.0384300351142883,-0.1178381964564323,0.3784451903462409,-0.714644061115384,0.5029238029301166,0.0973435193300247,-0.286507785320282,-5.685338716033101,0.2660443484783172,-1.2041537442643195,-0.5842332820035517,39
1722165779967392300,0.6026451370067895,-7.920501906877756,1.4110080769136548,-0.2010174614557065,9.714056471976637,-1.329305360738933,-0.2576379776000976,-0.0410996228456497,0.0970029458403587,0.5019307001532661,0.5650863360444147,0.4984507413364368,0.4246053667762656,-1.333194136619568,-0.0384300351142883,-0.1178381964564323,0.3784451903462409,-0.714644061115384,0.5029238029301166,-0.0212875604629516,0.0801536440849304,-6.528866346693039,0.1585167050361633,-1.7884436518259346,-0.7184917495194822,40
1722165780007172000,0.3249611451789737,-7.655006803885102,1.3296050743378698,-0.1738270009848289,9.71820891548097,-1.3025208141878246,0.0840659439563751,-0.1180232539772987,0.0947387069463729,0.5033747213414068,0.5665614261152238,0.495397041157298,0.4245040795189856,-1.333194136619568,-0.0384300351142883,-0.1178381964564323,0.3784451903462409,-0.714644061115384,0.5029238029301166,0.0108866151422262,0.294987291097641,-5.766209073036909,-0.0968484804034233,-1.750707064758241,-1.3146898292787372,41
1722165780046952000,1.5098346541076897,-4.930549691534042,1.2970751160025595,-0.1463366168524604,9.702642513036729,-1.4169343982227145,0.5442780256271362,0.0893949046730995,-0.0017901237588375,0.4988161463817855,0.5694987428513484,0.4979103647937351,0.4230117125618307,-1.333194136619568,-0.0384300351142883,-0.1178381964564323,0.3784451903462409,-0.714644061115384,0.5029238029301166,0.0681887716054916,-0.0621572360396385,-2.252775419902801,-0.2832792997360229,-0.3536880214368924,-0.4026526164183392,42
1722165780086732000,0.5402653627982362,3.011636808407306,-0.7516166780732572,-0.1473168600614648,9.66386474635303,-1.6608409158721564,0.4917117953300476,-0.3456748425960541,0.0256603974848985,0.4932748964144298,0.5777014376520221,0.5009394862691688,0.4147294568101673,-1.333194136619568,-0.0384300351142883,-0.1178381964564323,0.3784451903462409,-0.714644061115384,0.5029238029301166,0.17957504093647,0.4499698877334595,2.4020626027897,-0.1970095336437225,0.1909468068835325,-0.6864215907156467,43
1722165780126504000,-0.5740607744920998,16.273773299485445,-1.707651182363927,-0.147491440310236,9.64450538136661,-1.7697762146264313,0.2588237524032593,0.0288595575839281,0.2361451685428619,0.4909414698852778,0.5816070620968888,0.5019628486470643,0.4107831961543158,-1.333194136619568,-0.0384300351142883,-0.1178381964564323,0.3784451903462409,-0.714644061115384,0.5029238029301166,0.2056057900190353,0.7230798602104187,12.227182033199073,-0.2496460676193237,2.043900175885111,-0.3815111537881195,44
1722165780166283800,-0.2982947633811272,23.76853050470352,-6.5773711421430106,0.0199688249545404,9.644498951625824,-1.775848666407913,-0.3294077813625335,-0.6054668426513672,0.535947859287262,0.4894248679355929,0.5887941068977192,0.4938264719896455,0.4122138447588077,-1.333194136619568,-0.0384300351142883,-0.1178381964564323,0.3784451903462409,-0.714644061115384,0.5029238029301166,0.1278948038816452,0.0101799927651882,23.815703759288787,0.2521719634532928,4.224818420192599,0.8826286379486322,45
1722165780206063900,0.9737800043396652,19.48171944645643,-4.119263411526382,0.1262062674935441,9.677710900875926,-1.5799834183499215,-0.6745760440826416,-0.2190144956111908,0.1445221453905105,0.4969283149025665,0.5909499175971256,0.4809728973974027,0.4153377009487153,-1.333194136619568,-0.0384300351142883,-0.1178381964564323,0.3784451903462409,-0.714644061115384,0.5029238029301166,0.0209609474986791,-0.6532617807388306,17.08453321753144,0.3658637106418609,2.9493700295865533,-0.0780257538281846,46
1722165780245843700,1.1663701031845062,5.975768938317895,-0.2003305569037795,0.0967210014832206,9.719567928874492,-1.300384532811493,-0.5478618741035461,-0.6181520223617554,-0.1395002752542495,0.5090159208614469,0.5863714966688559,0.4716668571051127,0.4178534248249971,-1.333194136619568,-0.0384300351142883,-0.1178381964564323,0.3784451903462409,-0.714644061115384,0.5029238029301166,-0.1849943101406097,-1.4835655689239502,-1.1339179593257604,0.2698170840740204,-0.1809865356169641,0.5498698976960033,47
1722165780285623600,-0.7871569241404532,-10.169565612781048,0.0294445595405995,0.0466001628384692,9.742201785486936,-1.1215002301707864,-0.8455554246902466,-0.0640729442238807,0.1808830201625824,0.519569026184442,0.5850352793917342,0.4635885234986414,0.4157735323660965,-1.333194136619568,-0.0384300351142883,-0.1178381964564323,0.3784451903462409,-0.714644061115384,0.5029238029301166,-0.1205795109272003,-0.6145259141921997,-14.364571663033962,0.3845919370651245,-4.840816813638806,-0.2507823947682976,48
1722165780325374200,-0.3462311660923063,-15.75441274101734,-0.1326233771273866,0.2233785838076844,9.794946118202803,-0.4237293797818943,-2.395855188369751,0.7727699279785156,0.4585059285163879,0.532693275083543,0.5665878656338619,0.4478642390024779,0.4411732435301189,-1.333194136619568,-0.0384300351142883,-0.1178381964564323,0.3784451903462409,-0.714644061115384,0.5029238029301166,0.2015695571899414,-0.0996317490935325,-2.4377906265139577,-0.5528615117073059,1.5929225410304964,-0.0492283011186635,49
1722165780365152300,0.9799998287025838,-14.829356581705808,5.795723921334743,0.3049383295814507,9.801233820170165,0.1149610435835085,0.378493458032608,-0.251588374376297,-0.0486608855426311,0.5421208700782868,0.5496936259200987,0.4381501291277584,0.4603980198993141,-1.333194136619568,-0.0384300351142883,-0.1178381964564323,0.3784451903462409,-0.714644061115384,0.5029238029301166,0.2130983173847198,-0.352067619562149,-9.54452232761383,-0.230813056230545,-2.1394629289776086,0.4209396759981289,50
1722165780404930800,-0.6310617417391389,-13.649238450610635,0.5660264480531215,0.2105800751741975,9.796069569274785,-0.4038193586427718,1.4233067035675049,-0.209793210029602,-0.3110071122646332,0.5335185202901089,0.5657146179029252,0.4478348231213738,0.4413263502652971,-1.333194136619568,-0.0384300351142883,-0.1178381964564323,0.3784451903462409,-0.714644061115384,0.5029238029301166,0.1606193631887436,0.0534109361469745,-10.513138227188586,-0.262499064207077,-2.811368210823834,-0.063323882091674,51
1722165780444709400,-0.7245591597996651,-11.229748035418986,-2.0620669700860974,0.1290014785694889,9.77871336080432,-0.7283749186955392,0.3445130586624145,0.1981841921806335,-0.0788048729300499,0.5253812889778635,0.5720593863713184,0.4581319067468972,0.4322473897668228,-1.333194136619568,-0.0384300351142883,-0.1178381964564323,0.3784451903462409,-0.714644061115384,0.5029238029301166,0.2392300069332122,0.1324357092380523,-9.456256599661709,-0.339020162820816,-2.524686819678545,-0.6888972601141781,52
1722165780484487400,-0.3651974401079118,-8.962984422174095,-0.0952875894129276,0.1718655829850584,9.77057856966555,-0.8225894720494746,0.2905742228031158,0.4087696075439453,0.2032506018877029,0.5191658083776095,0.5729228010125367,0.462276815292589,0.4341964080322701,-1.333194136619568,-0.0384300351142883,-0.1178381964564323,0.3784451903462409,-0.714644061115384,0.5029238029301166,0.21883325278759,0.0506376251578331,-9.55552770575285,-0.5574119687080383,-2.603307351928949,-0.6104166843237355,53
1722165780524266000,0.9735780520267784,-8.71211697947085,-1.0742506954789162,0.247464812919218,9.760477446889876,-0.9177247204449028,0.1089440509676933,0.3345749080181122,0.0394384451210498,0.5109600976356921,0.5732621941102298,0.4670775056530776,0.4383250182394912,-1.333194136619568,-0.0384300351142883,-0.1178381964564323,0.3784451903462409,-0.714644061115384,0.5029238029301166,0.0813618153333664,0.0100862830877304,-9.695532973292469,-0.5268516540527344,-2.6470897950321435,0.1421022215525619,54
1722165780564044500,0.5335793456956743,-7.040261040848494,-0.7594096700370311,0.2520178913800046,9.764263979691266,-0.8752314403694123,-0.2407639920711517,0.3586033880710602,-0.021856527775526,0.5094523356581683,0.5694450831333508,0.4694216467426613,0.4425313319530461,-1.333194136619568,-0.0384300351142883,-0.1178381964564323,0.3784451903462409,-0.714644061115384,0.5029238029301166,-0.0947565957903862,-0.0072033801116049,-9.390144251328708,-0.5244337320327759,-2.431983839931339,0.4248420171989128,55
1722165780603822800,0.032918044337444,-0.3569429681122302,-0.933158728681132,0.2534884753892198,9.778275553908944,-0.701033834240213,-0.8916667699813843,0.8728327751159668,-0.0801769122481346,0.5103200019091539,0.5605874381172075,0.4706213989725195,0.451476097798674,-1.333194136619568,-0.0384300351142883,-0.1178381964564323,0.3784451903462409,-0.714644061115384,0.5029238029301166,0.6135374307632446,-0.6385428309440613,14.047479059273003,-1.3790249824523926,6.659129972419143,1.5941137966416776,56
1722165780643601200,0.7698120407816023,10.383939015823602,5.034063842022419,0.1784414725103415,9.785862648037076,-0.6127212714716792,1.0897294282913208,0.6812306046485901,-0.2760196328163147,0.5034410178874926,0.5448599886724849,0.4841153609850172,0.4640118907906571,-1.333194136619568,-0.0384300351142883,-0.1178381964564323,0.3784451903462409,-0.714644061115384,0.5029238029301166,0.3178487420082092,-0.1183988824486732,12.042121233880518,-0.4355396330356598,3.2233634963333606,1.1070471227306873,57
1722165780683379700,0.8673812383256853,12.66066697372198,-2.6428467506349085,-0.0153448926225828,9.74786521807611,-1.0720562541745602,0.6086704134941101,-0.4131154417991638,-0.6259366869926453,0.4980993330755508,0.555101803152654,0.4965094627641993,0.4441143211209248,-1.333194136619568,-0.0384300351142883,-0.1178381964564323,0.3784451903462409,-0.714644061115384,0.5029238029301166,-0.0873669236898422,-1.3645071983337402,11.26097903998494,0.2570667862892151,3.4025568649232385,-0.8584596807233988,58
1722165780723158000,-0.4045388320237398,12.819607827877997,-0.9638602294802664,-0.2565602475173771,9.71341992763877,-1.324397861083597,0.7589051723480225,0.2067571431398391,-0.4979076385498047,0.495077521987032,0.5538434635441888,0.5106690897724632,0.4328657301848101,-1.333194136619568,-0.0384300351142883,-0.1178381964564323,0.3784451903462409,-0.714644061115384,0.5029238029301166,0.5763828754425049,0.4805248975753784,10.326583389919996,-0.4707885384559631,1.9636532114766536,-2.4920181835249067,59
1722165780762937600,-0.1118800835018977,7.670072855591774,-2.2482455213882027,-0.367409344003722,9.683400636950134,-1.505713336393982,0.2139613926410675,0.2402853518724441,-0.1090978980064392,0.4910242210187043,0.5539117962259696,0.5195687996462415,0.4267614498094924,-1.333194136619568,-0.0384300351142883,-0.1178381964564323,0.3784451903462409,-0.714644061115384,0.5029238029301166,0.1220770850777626,-0.2731682658195495,2.9007971373364327,-0.5048588514328003,0.307955357581377,-0.4817663755457848,60
1722165780802677000,0.3635278263952582,2.4648037211239338,-1.622666521909088,-0.3986925536809489,9.68936042213738,-1.458670430190116,-0.4876280426979065,0.1177641004323959,-0.0826572030782699,0.4912380800495499,0.549667993535673,0.5217629659149337,0.4293176554732795,-1.333194136619568,-0.0384300351142883,-0.1178381964564323,0.3784451903462409,-0.714644061115384,0.5029238029301166,-0.0184186603873968,0.0813179016113281,1.0894314596064387,-0.1006497219204902,0.1740221399644389,0.1944083455142565,61
1722165780842453200,-0.4077926461879164,-0.1544967342287302,1.74452662255764,-0.3483261290775611,9.719631641760468,-1.2561091916248202,-0.5539671778678894,0.6195769309997559,0.0166409444063901,0.4941810814504669,0.5439108968108736,0.5178848164478276,0.4378827311482761,-1.333194136619568,-0.0384300351142883,-0.1178381964564323,0.3784451903462409,-0.714644061115384,0.5029238029301166,-0.1937438547611236,0.0617814846336841,-1.5307609761498868,0.0460288226604461,-0.4086050220167264,0.1973452940152958,62
1722165780882229500,-0.1365979067815467,-1.877176851159334,1.262714727369696,-0.3598994432976469,9.73958429646492,-1.0868899584300815,-0.3265359103679657,0.8143872022628784,-0.1784048676490783,0.490654702486101,0.5294048922372916,0.5245440151801563,0.4514885052655743,-1.333194136619568,-0.0384300351142883,-0.1178381964564323,0.3784451903462409,-0.714644061115384,0.5029238029301166,-0.2174226194620132,0.1262299716472625,-2.079911692725867,0.1152801588177681,-0.2637640048837289,0.7451675749991089,63
1722165780922006000,-1.0034422982841729,-3.1282407420933245,0.6584919657826424,-0.3007993300805799,9.74641268118024,-1.04276191675961,-0.0120522873476147,0.2352567613124847,0.3235379457473755,0.4861177285801848,0.5248684468913194,0.5269527248876167,0.4588284275559214,-1.333194136619568,-0.0384300351142883,-0.1178381964564323,0.3784451903462409,-0.714644061115384,0.5029238029301166,-0.1655376404523849,0.1199230179190635,-1.3916783764131366,0.2002549618482589,-0.0087640415111032,0.8357629880078137,64
1722165780961782000,-0.0314541823299601,-2.239571654936672,0.0770692842204123,-0.1859693655308336,9.753324068003892,-1.0042242424421013,-0.2015027850866317,0.559275209903717,0.0923934355378151,0.4815398186781889,0.5237192461378208,0.5262312608174069,0.4657447839613735,-1.333194136619568,-0.0384300351142883,-0.1178381964564323,0.3784451903462409,-0.714644061115384,0.5029238029301166,-0.1376372873783111,0.1174528002738952,-1.0620186981543898,0.2253691256046295,0.1901594741644337,0.6374914825256913,65
1722165781001558300,-1.2724800423197449,-1.9225404259741303,0.4403215816099196,-0.1097224944760557,9.75681600177288,-0.9812607885491104,0.1725283563137054,-0.0410857908427715,0.3123749196529388,0.4766594030463972,0.5210979116373066,0.5277190017956965,0.4719802718266875,-1.333194136619568,-0.0384300351142883,-0.1178381964564323,0.3784451903462409,-0.714644061115384,0.5029238029301166,-0.1540527194738388,0.1100230440497398,-0.6796692669112235,0.1834842562675476,0.2157959466589614,0.4538098991384729,66
1722165781041334500,1.1802719334173948,0.6527957999676466,1.3754022182643413,-0.0071130520129954,9.745071787965298,-1.0972254014182836,0.3794322907924652,-0.2505386173725128,-0.022003723308444,0.4747951713137803,0.5308717332928377,0.5235629185940998,0.467575245283707,-1.333194136619568,-0.0384300351142883,-0.1178381964564323,0.3784451903462409,-0.714644061115384,0.5029238029301166,-0.178685262799263,0.1521928310394287,-0.4464755376623943,0.1044183075428009,0.1786234232148155,0.2639524401279166,67
1722165781081111000,0.7885247784275561,-0.0215448923319578,0.8264728893540799,-0.048866075643571,9.72255191312134,-1.280623601286858,0.4421998262405395,0.378376692533493,-0.1656226813793182,0.4700254981717199,0.5333378350039257,0.5299475292473055,0.4623661755642701,-1.333194136619568,-0.0384300351142883,-0.1178381964564323,0.3784451903462409,-0.714644061115384,0.5029238029301166,-0.1886440217494964,0.1762489527463913,-0.2979948305864818,0.0101549997925758,0.3835554825646802,0.1627315334095619,68
1722165781120887300,0.4757517914313823,0.20386369946599,-0.9404372683167456,-0.1145267986183986,9.714565590542554,-1.3358495216853916,-0.1388891041278839,0.5876790285110474,-0.2898977696895599,0.4650860888043471,0.5270968924610699,0.5387747583855309,0.4643119831753191,-1.333194136619568,-0.0384300351142883,-0.1178381964564323,0.3784451903462409,-0.714644061115384,0.5029238029301166,-0.2200520485639572,0.1575767397880554,-0.3220584825400263,-0.1061011850833892,0.2579622598024085,0.0906179536340758,69
1722165781160651800,-0.8624566414050757,-0.4522498467475175,0.1055097082197666,-0.1564258573940955,9.724095050910115,-1.2601134588301182,-0.2107228189706802,0.5545011162757874,-0.0455495379865169,0.463133574861827,0.5183357337565943,0.5436689929790781,0.4703821269393508,-1.333194136619568,-0.0384300351142883,-0.1178381964564323,0.3784451903462409,-0.714644061115384,0.5029238029301166,-0.2405968904495239,0.2269498109817505,-0.2453692106131464,-0.1993360817432403,0.06562693030308,0.0311723742804722,70
1722165781200427800,-0.0650194841955322,-0.168978848567605,0.1445534323632717,-0.0976365454255603,9.734413031306865,-1.1840863771390169,-0.1139528602361679,0.0142253376543521,0.214672565460205,0.4600440197823959,0.513958370790472,0.5442594932969325,0.4774807853708341,-1.333194136619568,-0.0384300351142883,-0.1178381964564323,0.3784451903462409,-0.714644061115384,0.5029238029301166,-0.2359975278377533,0.237379103899002,-0.0135616795922862,-0.2851389944553375,0.2344609544393606,0.1557868105718866,71
1722165781240205000,0.2886602169375866,-0.138927993696928,1.1295828527309,0.0124105607703153,9.723066292384264,-1.277574735110253,0.569553554058075,-0.7779704928398132,0.4085188806056976,0.4583927219224356,0.5232533076760314,0.5397630582452482,0.4740652688318872,-1.333194136619568,-0.0384300351142883,-0.1178381964564323,0.3784451903462409,-0.714644061115384,0.5029238029301166,-0.2165626734495163,0.2154862284660339,-0.0339528079123934,-0.2109115272760391,0.2431936932049691,0.5594506133267656,72
1722165781279981300,0.3855223987234756,-0.0895429082810878,-0.0407047892235219,0.1100775093256495,9.694331196287274,-1.4758726171426475,0.4277909100055694,-0.5458402037620544,0.2665286660194397,0.4581048649463812,0.5392112294227649,0.5333852394783329,0.4635637216606562,-1.333194136619568,-0.0384300351142883,-0.1178381964564323,0.3784451903462409,-0.714644061115384,0.5029238029301166,-0.1987478137016296,0.149251788854599,-0.0966328665420413,-0.0763615146279335,0.1979530141174793,0.5879359724463895,73
1722165781319757800,-0.8934389319069683,-0.1647761361807584,-0.0715899029612541,0.2199201321831904,9.66960708939731,-1.618866106712818,0.2057320922613144,0.3288358449935913,0.3997491598129272,0.4523670307829658,0.5466273658661295,0.5326703700754795,0.4613294821442417,-1.333194136619568,-0.0384300351142883,-0.1178381964564323,0.3784451903462409,-0.714644061115384,0.5029238029301166,-0.1991397142410278,0.133699893951416,-0.0544842762849526,-0.0331026725471019,0.0235102512879064,0.2748404206986539,74
1722165781359534000,-0.4839728360814973,0.094938045322895,1.0196541590251027,0.4597315808050334,9.656046766078472,-1.649179996433854,0.1809518784284591,0.777667760848999,0.5489133596420288,0.439886674090959,0.547275046739729,0.5334555314189459,0.4716088707882297,-1.333194136619568,-0.0384300351142883,-0.1178381964564323,0.3784451903462409,-0.714644061115384,0.5029238029301166,-0.2174621522426605,0.1888691931962967,-0.0391761366178281,-0.1007360890507698,-0.0785466267639771,-0.0370872540301992,75
1722165781399358200,1.1007540870010852,0.1342249305725097,0.2759083604574203,0.6491080513656139,9.625887774658205,-1.7582187555626034,0.3467623591423034,-0.1322792321443557,0.2354813665151596,0.4285731038930336,0.5509698835631784,0.5348610962405184,0.4761101956933906,-1.333194136619568,-0.0384300351142883,-0.1178381964564323,0.3784451903462409,-0.714644061115384,0.5029238029301166,-0.1734466403722763,0.2099014520645141,0.2191801274708472,-0.2183487713336944,0.0122679477040306,-0.0423599268862512,76
1722165781439137000,1.5428674473986028,-0.0070335518985986,-0.6746937435209751,0.6063774554029107,9.616012277331947,-1.826199966507405,-0.063943400979042,-0.5741261839866638,-0.2806670367717743,0.4319629115560636,0.5561552189948922,0.5327303788829727,0.4693589161833578,-1.333194136619568,-0.0384300351142883,-0.1178381964564323,0.3784451903462409,-0.714644061115384,0.5029238029301166,-0.1276185661554336,0.1469492465257644,0.0426684768121922,-0.2664912641048431,0.0307180363754043,0.0975993917529471,77
1722165781478915600,0.5581625097449868,0.0744973148405551,0.1121532378874719,0.4417159585777669,9.63249521009922,-1.786148818887025,-0.1305643618106842,-0.0398168414831161,-0.3830063045024872,0.4400591235354739,0.5540570193656582,0.5330000575359906,0.463982542631579,-1.333194136619568,-0.0384300351142883,-0.1178381964564323,0.3784451903462409,-0.714644061115384,0.5029238029301166,-0.0929843038320541,0.096207819879055,-0.0333457636636449,-0.2112274914979934,0.0809303618290461,0.2644417032158933,78
1722165781518694400,-0.5365323137497529,-0.1151239242613315,0.0014157120168209,0.3702847167769447,9.646141458135842,-1.7277843082018196,-0.2189929485321045,0.5020735263824463,-0.2346290796995163,0.4411645795597657,0.5481138111636276,0.5363429233018127,0.4661345175669879,-1.333194136619568,-0.0384300351142883,-0.1178381964564323,0.3784451903462409,-0.714644061115384,0.5029238029301166,-0.0661025419831276,0.0906465500593185,-0.1693231502269394,-0.1419958919286728,-0.068583012762852,0.1238015444393735,79
1722165781558473200,0.4316972533885389,0.0948380920797586,-0.0583760549925267,0.2865633177235722,9.673503512313962,-1.5847950564153492,-0.3633232414722442,0.3544366359710693,-0.2906975746154785,0.443227292322168,0.5379331663256204,0.539842537804278,0.4719612489199602,-1.333194136619568,-0.0384300351142883,-0.1178381964564323,0.3784451903462409,-0.714644061115384,0.5029238029301166,-0.0373115986585617,0.1182098537683487,-0.1136920100283808,-0.1922312378883361,-0.0723266380042769,-0.1718571987492032,80
1722165781598251800,0.7983550483725964,0.2063847423762083,-0.5300372891746461,0.2669151989236474,9.693189625036716,-1.4632855227701365,-0.2255682498216629,1.2991546392440796,-0.1371883004903793,0.4408950212504046,0.5276009177082667,0.5442830775281402,0.480629541662635,-1.333194136619568,-0.0384300351142883,-0.1178381964564323,0.3784451903462409,-0.714644061115384,0.5029238029301166,-0.0301606189459562,0.1078080162405967,-0.0379251935585285,-0.2537541091442108,0.0395998145231511,-0.1847652504380792,81
1722165781638031400,-1.33313456363827,0.3425181369185447,-0.2747999608241021,0.4857367039488628,9.69666811480224,-1.3816877282746136,-0.0561197325587272,3.2557222843170166,0.6820604205131531,0.4130591788399005,0.5047463421903972,0.5618519379357972,0.5088571390422584,-1.333194136619568,-0.0384300351142883,-0.1178381964564323,0.3784451903462409,-0.714644061115384,0.5029238029301166,-0.0448539964854717,0.043198075145483,-0.0005391420989559,-0.2509246170520782,0.1565052062406204,0.0252150527616613,82
1722165781677810200,-0.5291120640885084,0.0127665425926446,0.8108968422986567,0.9714408938676118,9.671628366091849,-1.298565500690788,0.0502432659268379,2.615161418914795,0.8214079737663269,0.3691195127702241,0.4818809384207825,0.5779266189897319,0.5454743528343072,-1.333194136619568,-0.0384300351142883,-0.1178381964564323,0.3784451903462409,-0.714644061115384,0.5029238029301166,-0.0392169915139675,-0.0648773834109306,0.0205713254589121,-0.2155656218528747,0.1734217629184946,0.0116014420527382,83
1722165781717589000,-0.4920474579982459,-0.4570984558224678,-0.368065396759659,1.3268756493739784,9.64305284447074,-1.1922060437738895,-0.0393739193677902,2.2595455646514893,0.5759227275848389,0.3341184305223143,0.4621716171556657,0.5892223583111856,0.5723455677439643,-1.333194136619568,-0.0384300351142883,-0.1178381964564323,0.3784451903462409,-0.714644061115384,0.5029238029301166,-0.0231505036354064,-0.0575150623917579,-0.164979440200515,-0.2484873831272125,0.0222226386131835,-0.2214804037698544,84
1722165781757367600,-0.183284291165322,0.269981893017888,-0.9552079903386532,1.7360737053804098,9.598168577605485,-1.015669034911692,-0.1150973513722419,3.076843500137329,0.764310359954834,0.2941160425611095,0.4398931628125742,0.5985638774340766,0.60142413107979,-1.333194136619568,-0.0384300351142883,-0.1178381964564323,0.3784451903462409,-0.714644061115384,0.5029238029301166,-0.0015171588165685,0.003561423625797,-0.2279991928130388,-0.2838292717933655,-0.0460243311453145,-0.1884247593263164,85
1722165781797146000,-0.8605586988292634,0.0308610022097826,-1.7862310903429983,2.126043913825601,9.552529692980649,-0.6320623701490461,-0.6408928632736206,2.6999878883361816,0.7732416987419128,0.2522268969554712,0.4099365970029882,0.6034717875262846,0.6357321836251361,-1.333194136619568,-0.0384300351142883,-0.1178381964564323,0.3784451903462409,-0.714644061115384,0.5029238029301166,0.0161246955394744,0.0112859979271888,-0.0705435813792515,-0.2719858884811401,0.1839154286757111,-0.0627535759570077,86
1722165781836924700,0.385955419845879,0.5278799650102853,-1.4894517912924288,2.4146619721218943,9.504124850773811,-0.1068822478151414,-0.9418851137161256,2.7177417278289795,0.4321996569633484,0.2184417498823794,0.3804413726539996,0.6005945722620732,0.6684562903947167,-1.333194136619568,-0.0384300351142883,-0.1178381964564323,0.3784451903462409,-0.714644061115384,0.5029238029301166,0.0671921744942665,-0.0388586670160293,-0.0226643430822528,-0.2444891184568405,0.2587054245862178,-0.0639977947312872,87
1722165781876664800,-0.3375076152801513,-0.7136047811955213,-1.45496558432281,2.515483230264485,9.457230997651816,0.6352506447963416,-1.42943274974823,2.8901615142822266,0.3544361591339111,0.1881795874773607,0.3402625161556094,0.5931548301174652,0.7049662160206567,-1.333194136619568,-0.0384300351142883,-0.1178381964564323,0.3784451903462409,-0.714644061115384,0.5029238029301166,0.1143373325467109,-0.0672585442662239,-0.0557147085624746,-0.2288752794265747,0.1948696976820007,-0.0867798276427667,88
1722165781916441000,-0.026003625306487,-1.045546579042077,-0.5760737948149443,2.524203420075774,9.352378876557946,1.5270210589691997,-1.675764799118042,3.094374418258667,0.3666494190692901,0.1573001522305087,0.2954400478089818,0.5786698269671567,0.7437157335367585,-1.333194136619568,-0.0384300351142883,-0.1178381964564323,0.3784451903462409,-0.714644061115384,0.5029238029301166,0.1337990015745163,-0.0383391566574573,-0.1808909480216912,-0.190083622932434,0.1361432400829158,-0.0304867643531993,89
1722165781956218000,-1.013990580305457,-0.6623281829446553,-0.1212356851398944,2.452905778059363,9.16997414470613,2.462765201033652,-1.7072131633758545,2.795204401016236,0.545176088809967,0.1274878597502668,0.2513372999200935,0.5579099214996672,0.7805849976289638,-1.333194136619568,-0.0384300351142883,-0.1178381964564323,0.3784451903462409,-0.714644061115384,0.5029238029301166,0.1465601772069931,-0.0705381780862808,-0.0481385468203108,-0.1755298227071762,0.1482155807331669,-0.2407973543866537,90
1722165781995994400,-0.4039065254695713,-0.7068558914572,2.1179709358766674,2.35039232904613,8.973434504517913,3.1817437842220064,-0.3643028140068054,3.9714670181274414,0.870652437210083,0.086797728261451,0.2063877209324884,0.5433049965413075,0.8091290342483124,-1.333194136619568,-0.0384300351142883,-0.1178381964564323,0.3784451903462409,-0.714644061115384,0.5029238029301166,0.0965341702103614,-0.0146798230707645,-0.2532053658652119,-0.2141023278236389,-0.0032485780125221,-0.3562573239356279,91
1722165782035771100,0.7230082770958542,-1.1645090585529805,2.419776538656652,2.0057833573281765,8.955092792141437,3.4573902788728472,0.9510552287101746,5.545953750610352,0.9971421957015992,0.0148021237219156,0.1343305102415294,0.5528810646209096,0.822227972664543,-1.333194136619568,-0.0384300351142883,-0.1178381964564323,0.3784451903462409,-0.714644061115384,0.5029238029301166,0.0908426195383071,0.0155380778014659,-0.1776984538570046,-0.2169586718082428,0.0190467017160088,-0.2384131078649312,92
1722165782075548700,-1.8062528647609053,1.1304793631792067,-0.4148945140823721,2.0138002211757,8.823563092002273,3.776204007337987,-0.6450528502464294,2.135215759277344,1.6248868703842163,-0.0429314234820191,0.0953272281024866,0.5462416038584649,0.8310773941827225,-1.333194136619568,-0.0384300351142883,-0.1178381964564323,0.3784451903462409,-0.714644061115384,0.5029238029301166,0.0988445430994033,0.0766748860478401,-0.2244227042994462,-0.2098099440336227,0.0276577446224866,-0.1182679213754832,93
1722165782115325200,0.915940978833288,-0.7678747160434722,1.9421254164099693,2.12260005698204,8.680711202859879,4.038590330660343,0.2179531455039978,2.6399166584014893,1.2333171367645264,-0.0923679132216569,0.0701141713197843,0.5377482623975467,0.8350922424395023,-1.333194136619568,-0.0384300351142883,-0.1178381964564323,0.3784451903462409,-0.714644061115384,0.5029238029301166,0.1506617665290832,0.0387330502271652,-0.0736526076447218,-0.1855912804603576,0.0839874478447251,-0.1445881748830899,94
1722165782155093800,0.3647472121223807,-1.0398521667927505,1.2557894581511615,2.1252223683096467,8.658500540095567,4.084626397909224,0.7359089255332947,2.2467002868652344,1.1538478136062622,-0.1404317415721259,0.0394162008099467,0.5386913483178897,0.8297812272546836,-1.333194136619568,-0.0384300351142883,-0.1178381964564323,0.3784451903462409,-0.714644061115384,0.5029238029301166,0.1122152432799339,0.0300480499863624,-0.2247985701408237,-0.2208960205316543,-0.0994864750080276,-0.2566318149162456,95
1722165782194870300,0.4766283550702035,-0.5036567933797836,0.4158148437976837,2.200088808723539,8.700655089735985,3.953303618519008,0.7317920923233032,0.9312554597854614,0.7016327381134033,-0.1732767877085147,0.0214603905123956,0.5458727509387333,0.8194740484298056,-1.333194136619568,-0.0384300351142883,-0.1178381964564323,0.3784451903462409,-0.714644061115384,0.5029238029301166,0.1111353859305381,0.048239566385746,-0.0459289718789048,-0.2546654343605041,0.0662381758029106,-0.2920787018778734,96
1722165782234646800,1.1817898636996746,-0.3843681506544351,1.138520630815625,2.268105090981721,8.762427947559953,3.774380883564055,0.6306495070457458,0.3367816805839538,0.1441103219985962,-0.1860435236690568,0.0154177881374479,0.5543666906621288,0.81106583687207,-1.333194136619568,-0.0384300351142883,-0.1178381964564323,0.3784451903462409,-0.714644061115384,0.5029238029301166,0.111436903476715,0.0145669281482696,-0.1207527239285409,-0.2589200139045715,-0.0345457300209556,-0.1628069002007134,97
1722165782274423300,0.1788271656259894,-0.1511263810127973,1.6492568610623477,2.225699781450629,8.86991217072308,3.541372338156402,0.8751364946365356,0.3825869560241699,0.0634925961494445,-0.1913849250255281,0.0066266836380227,0.56515161300384,0.8024535284508639,-1.333194136619568,-0.0384300351142883,-0.1178381964564323,0.3784451903462409,-0.714644061115384,0.5029238029301166,0.1256267577409744,0.0402726046741008,-0.1189744439433328,-0.1995502561330795,0.0138607264709426,-0.0594762850191211,98
1722165782314199800,-0.3427053300537169,0.4298837011605501,0.2572930918365717,2.2217047204650937,8.969752016612887,3.282983267776668,0.6388137936592102,0.0912099033594131,0.035712294280529,-0.1953139009383137,0.0007975487864504,0.5767268007450285,0.7932453372291894,-1.333194136619568,-0.0384300351142883,-0.1178381964564323,0.3784451903462409,-0.714644061115384,0.5029238029301166,0.1267799586057663,-0.006690127775073,-0.1115541029505431,-0.1658062189817428,-0.0240447600234067,-0.2096012384709902,99
1722165782353976600,-0.008723550812155,0.3505903842151164,-0.3282052416667342,2.182808295837789,9.03587839347124,3.12388488497138,0.3182071447372436,0.2385084480047226,-0.1133159771561622,-0.1960928898712194,-0.0040205725018763,0.583703717701358,0.7879223080016587,-1.333194136619568,-0.0384300351142883,-0.1178381964564323,0.3784451903462409,-0.714644061115384,0.5029238029301166,0.1036821156740188,0.0400522463023662,-0.2393438493764027,-0.1634968668222427,-0.1684415633531287,-0.2436056532730348,100
1722165782393753000,0.1201667407341301,0.2570452545553445,-0.7137438974052667,2.108835151001811,9.066275285300613,3.0863974503591654,0.0498184897005558,0.2944700419902801,-0.1279114186763763,-0.1970309508221222,-0.0099117764392788,0.5852685558794465,0.7864739337447879,-1.333194136619568,-0.0384300351142883,-0.1178381964564323,0.3784451903462409,-0.714644061115384,0.5029238029301166,0.0748805031180381,0.0634394213557243,-0.0647220082194544,-0.1551735401153564,-0.058777146606706,-0.2003495355988852,101
1722165782433529600,-0.4525441535189747,0.4694470652639865,-0.7078975094646215,2.0695279536165296,9.069052348798513,3.104792646488548,-0.0206130668520927,0.2746806144714355,0.0613549128174781,-0.2001618384818417,-0.0145646394533856,0.58436931752567,0.7862796554462744,-1.333194136619568,-0.0384300351142883,-0.1178381964564323,0.3784451903462409,-0.714644061115384,0.5029238029301166,0.0579216554760932,0.0735775604844093,-0.063495352501329,-0.1236402168869972,-0.1056354352249763,-0.094985866519995,102
1722165782473307400,-0.0586409895390272,0.0292494753599166,-0.5552107472673058,2.069620746466517,9.057194153222442,3.1391528889909384,-0.0403643995523452,0.231865793466568,0.1177814379334449,-0.2047025763825618,-0.0175226158895425,0.5827870119286206,0.7862245551387905,-1.333194136619568,-0.0384300351142883,-0.1178381964564323,0.3784451903462409,-0.714644061115384,0.5029238029301166,0.0663774982094764,0.0441549457609653,-0.0180937198316212,-0.1125364303588867,-0.1021336193827912,-0.0539157648151507,103
1722165782516803000,0.180999687359482,-0.0803232445150613,0.3352653893113136,2.0761339277528226,9.052893241158127,3.1472511475116014,0.219249427318573,0.443478375673294,0.1728888750076294,-0.2109950906000153,-0.0216706510048203,0.582293085174547,0.7848224551712832,-1.333194136619568,-0.0384300351142883,-0.1178381964564323,0.3784451903462409,-0.714644061115384,0.5029238029301166,0.1030197069048881,0.0051173162646591,-0.0130867624067817,-0.0923765152692794,-0.0666857643067836,-0.0155773199888353,104
1722165782556580000,0.3139366239480674,-0.0368237100064754,-0.0770090054005384,2.0911885812826454,9.077927729171511,3.06407485165298,0.2958583235740661,0.1778017729520797,0.1043941527605056,-0.2172077815550417,-0.0264013708647176,0.5857291433858834,0.7804134655080185,-1.333194136619568,-0.0384300351142883,-0.1178381964564323,0.3784451903462409,-0.714644061115384,0.5029238029301166,0.1252741366624832,-0.022951491177082,-0.0262732474445481,-0.073077268898487,-0.0436157812993973,-0.0208322482672869,105
1722165782596356000,0.3066511431150138,-0.0529535915523767,-0.0123100309967994,2.087849646118283,9.098696376433969,3.004164572830498,0.1405100673437118,0.2357542514801025,0.0418181158602237,-0.219927301024539,-0.0294557206533375,0.58818585071066,0.7776900590299938,-1.333194136619568,-0.0384300351142883,-0.1178381964564323,0.3784451903462409,-0.714644061115384,0.5029238029301166,0.1214781552553176,-0.0566439516842365,-0.0707118871508631,-0.0667059272527694,-0.0591058808041503,-0.0820429718466009,106
1722165782636132400,-0.15177885357216,-0.1469242531478405,0.2184153719097376,2.0915309649795293,9.107673463615775,2.9742528341695667,0.1755297631025314,0.2464602291584015,0.152367815375328,-0.2243561150828271,-0.0329791085863077,0.589294226161429,0.7754412234571645,-1.333194136619568,-0.0384300351142883,-0.1178381964564323,0.3784451903462409,-0.714644061115384,0.5029238029301166,0.0948002859950065,-0.1020685583353042,-0.0710235332161886,-0.0533840656280517,-0.0416086016288725,-0.0742578024296788,107
1722165782675908400,0.2028282189384102,-0.4251046501904725,0.2513163555145263,2.1198465204902,9.119647979047894,2.916960628890991,0.2545114159584045,0.2817372381687164,0.1297658234834671,-0.2296468615472266,-0.0359783332426915,0.5915927331620517,0.7720012654498786,-1.333194136619568,-0.0384300351142883,-0.1178381964564323,0.3784451903462409,-0.714644061115384,0.5029238029301166,0.0890875086188316,-0.0459784790873527,-0.1267507222343236,-0.0763043239712715,-0.0985088438812177,-0.1842196175203658,108
1722165782715684400,0.0478787725061178,-0.4647422485738992,-0.0003834463596343,2.126205972519517,9.142226890602709,2.840654803323745,0.2980662286281585,0.2651112079620361,0.1440636813640594,-0.2344157463361129,-0.0403307249540808,0.5945925855378773,0.7680379971301156,-1.333194136619568,-0.0384300351142883,-0.1178381964564323,0.3784451903462409,-0.714644061115384,0.5029238029301166,0.0616826675832271,-0.0249544996768236,-0.1441569255926646,-0.0904227942228317,-0.0909955365085043,-0.1075566490785218,109
1722165782755460600,-0.1805919833414256,-0.5507762719511985,-0.4882160631418228,2.195611809439957,9.151646460855009,2.756273515589536,0.2617028057575226,0.2961262464523315,0.3412311971187591,-0.2413547409830182,-0.0424569520227531,0.5980523109337639,0.7630719460812078,-1.333194136619568,-0.0384300351142883,-0.1178381964564323,0.3784451903462409,-0.714644061115384,0.5029238029301166,0.0664875730872154,-0.0370162837207317,-0.0122234932160179,-0.0806944593787193,0.0110816947782412,-0.0253955581444315,110
1722165782795236600,0.1037350997626781,0.0267816239416599,-0.4979503984317183,2.2934594585992394,9.143311178708077,2.703758315454423,0.1806147843599319,0.2030440717935562,0.3688665628433227,-0.2500729368763384,-0.0437166816558464,0.6001962554951698,0.7584965126860831,-1.333194136619568,-0.0384300351142883,-0.1178381964564323,0.3784451903462409,-0.714644061115384,0.5029238029301166,0.1150278374552726,-0.0962741449475288,-0.02621714704287,-0.1005001962184906,0.0373913264271337,-0.0144024492568743,111
1722165782835012600,0.2700939750902354,0.1306950028806924,-0.4848153147876262,2.4187439807385203,9.12498934007585,2.656056360819936,0.0748503357172012,-0.263323962688446,0.2786900401115417,-0.254530007662752,-0.0397549230966652,0.6024934493588231,0.7554043144080472,-1.333194136619568,-0.0384300351142883,-0.1178381964564323,0.3784451903462409,-0.714644061115384,0.5029238029301166,0.1549696177244186,-0.0964061021804809,-0.1112904287793673,-0.1360763013362884,-0.0589147558459546,-0.084096936101187,112
1722165782874788900,0.4963496852368116,0.1414671567857265,0.3895540288597345,2.523786071446538,9.114666098982095,2.5930223970189687,0.1346149295568466,-0.1732050776481628,0.1388556659221649,-0.2532244896131181,-0.0327301966717517,0.6055752472731486,0.7537140402093219,-1.333194136619568,-0.0384300351142883,-0.1178381964564323,0.3784451903462409,-0.714644061115384,0.5029238029301166,0.1712642908096313,-0.093945175409317,-0.0540287054040236,-0.1732272207736969,0.0581311129212845,-0.1328132006110623,113
1722165782914564900,0.5258355997011065,0.1787310117751359,0.5456275108858942,2.5578958463191985,9.121694390183686,2.534213357436657,0.1549535542726516,0.0405548438429832,0.0331847667694091,-0.2529492817636677,-0.0311373633644413,0.6081295442315942,0.7518148140384926,-1.333194136619568,-0.0384300351142883,-0.1178381964564323,0.3784451903462409,-0.714644061115384,0.5029238029301166,0.167183056473732,-0.0682310387492179,-0.1761881954245269,-0.1761890351772308,-0.0858124165158718,-0.1440495105622802,114
1722165782954339800,0.3089253716573119,0.0171510412871837,0.6325532224059105,2.551547061814368,9.137976831942796,2.481405019573867,0.2145157754421234,0.1729971915483474,0.0392756089568138,-0.2537363819260357,-0.0330075921055769,0.6102409773098622,0.7497561669658402,-1.333194136619568,-0.0384300351142883,-0.1178381964564323,0.3784451903462409,-0.714644061115384,0.5029238029301166,0.1240947321057319,-0.0356009900569915,-0.1679525742597878,-0.1658186167478561,-0.0633231514393119,-0.1707032246747985,115
1722165782994115800,-0.0722641489610076,0.0630097061425447,0.3072939710631966,2.561186412297189,9.15885770740807,2.392916881042719,0.3114561736583709,-0.0345618315041065,0.0708804130554199,-0.2544563836758904,-0.0343137873934089,0.6138548324598785,0.746496379204587,-1.333194136619568,-0.0384300351142883,-0.1178381964564323,0.3784451903462409,-0.714644061115384,0.5029238029301166,0.0994541868567466,-0.0137817189097404,-0.1399091593545395,-0.1716896593570709,-0.0349353161437204,-0.1862596537142992,116
1722165783033891600,-0.0210889652580022,-0.0444242481380701,0.0683873075276613,2.5997934985890985,9.175012138873338,2.2870583593852816,0.3261126279830932,0.0122543815523386,0.0953622087836265,-0.2545142294667576,-0.0333981421397958,0.6182855651590424,0.7428527230427969,-1.333194136619568,-0.0384300351142883,-0.1178381964564323,0.3784451903462409,-0.714644061115384,0.5029238029301166,0.078268177807331,-0.0052157449536025,-0.1357374174946919,-0.1737403124570846,-0.0367513571563176,-0.1348880523900501,117
1722165783073667800,-0.1643523578107357,-0.1821767683148384,-0.2917366287082433,2.6447452777326106,9.186469936954976,2.1873452086150644,0.2409702092409134,0.0237244311720132,0.1472826898097992,-0.2555224658399933,-0.0327400855004724,0.6224182805174727,0.7390750012761893,-1.333194136619568,-0.0384300351142883,-0.1178381964564323,0.3784451903462409,-0.714644061115384,0.5029238029301166,0.0742081701755523,-0.0053737824782729,-0.1384986258363351,-0.1566382199525833,-0.0500386813532095,-0.0815736555681098,118
1722165783113443600,-0.1278463354513049,-0.3170101861745119,-0.3508072418361902,2.708945362703502,9.184384947374465,2.11638103633672,0.1767831891775131,0.1006211340427398,0.242066353559494,-0.2579910784979943,-0.0315649483334775,0.6253784889979804,0.7357621727926414,-1.333194136619568,-0.0384300351142883,-0.1178381964564323,0.3784451903462409,-0.714644061115384,0.5029238029301166,0.0688336491584777,-0.0353563390672206,0.0396915844598319,-0.1519456505775451,0.0696734200817532,-0.1078799901482183,119
1722165783153218800,0.1043128996506333,-0.1270540160298347,-0.4219396102882921,2.798955888496339,9.168007228547332,2.069748902890831,0.1401122659444809,0.1219088435173034,0.2782629728317261,-0.2624504988874353,-0.0299534114811929,0.6273555359305769,0.7325622884085998,-1.333194136619568,-0.0384300351142883,-0.1178381964564323,0.3784451903462409,-0.714644061115384,0.5029238029301166,0.0842776522040367,0.0176894385367631,-0.1022675662270747,-0.1196842491626739,-0.0165342942033952,0.0095056810581067,120
1722165783192994600,0.0938736309617757,-0.0436947648197412,-0.1903320177197456,2.8893013453319667,9.143307087054849,2.0548167066968976,0.0974394381046295,0.3835611343383789,0.3515101075172424,-0.2689423015181825,-0.0295704805532637,0.6279801698454356,0.7296825447234248,-1.333194136619568,-0.0384300351142883,-0.1178381964564323,0.3784451903462409,-0.714644061115384,0.5029238029301166,0.0663049072027206,-0.0119025828316807,-0.088353707629675,-0.143184021115303,0.0237809808209538,-0.1276694171149749,121
1722165783232770600,0.4054994937494396,0.0118120183467864,-0.1389358847424388,2.9701752094671128,9.107104723817107,2.099787482801825,-0.0265337079763412,0.5628057718276978,0.3014112710952759,-0.278712828986474,-0.0316815511303877,0.6260486503539537,0.7275841230104115,-1.333194136619568,-0.0384300351142883,-0.1178381964564323,0.3784451903462409,-0.714644061115384,0.5029238029301166,0.053676564246416,0.0177766289561986,-0.1399290787645615,-0.1566143035888672,-0.0118044720778591,-0.049755265868525,122
1722165783272546600,0.2249462349832058,0.1848790130108595,0.2414635084114968,3.020543460701406,9.070654523298144,2.1840125570610165,-0.025392860174179,0.6269677877426147,0.256408542394638,-0.2893286427990491,-0.0358868828866463,0.6223813009665979,0.7263900520924443,-1.333194136619568,-0.0384300351142883,-0.1178381964564323,0.3784451903462409,-0.714644061115384,0.5029238029301166,0.0579386800527572,0.0144827775657176,-0.0973684508075937,-0.1679009050130844,0.0450349182491656,-0.0815527589105535,123
1722165783312322600,0.0963683703869581,0.1350502754807472,0.3048040539436042,3.0564956485703587,9.042821928998828,2.248462232878804,0.0760476663708686,0.454583078622818,0.1937423050403595,-0.2987430697220739,-0.0403158373786017,0.6194634492655501,0.7248394366127389,-1.333194136619568,-0.0384300351142883,-0.1178381964564323,0.3784451903462409,-0.714644061115384,0.5029238029301166,0.0426511690020561,0.0138016063719987,-0.1454035098539665,-0.1913882493972778,-0.0210064152408158,-0.0764159485779469,124
1722165783352099300,-0.1953533530130982,0.1159907702237367,0.1120217204622924,3.091588881522417,9.039884706503152,2.2119996112696825,0.2856967449188232,0.029926037415862,0.1469836980104446,-0.3028427127739627,-0.0421013200889862,0.6208436864037661,0.7218496055953755,-1.333194136619568,-0.0384300351142883,-0.1178381964564323,0.3784451903462409,-0.714644061115384,0.5029238029301166,0.0232116281986236,0.0723336115479469,-0.1810311967425979,-0.1664652079343795,-0.0663745246668346,-0.0465612647333415,125
1722165783391875600,-0.2013701290845871,0.0037771804511547,-0.0671165569394826,3.1564135281324384,9.044659081298112,2.097998261297494,0.3174508810043335,0.0328969024121761,0.1992658823728561,-0.3041575542758188,-0.0409120952707928,0.6255861701906842,0.717256181361625,-1.333194136619568,-0.0384300351142883,-0.1178381964564323,0.3784451903462409,-0.714644061115384,0.5029238029301166,-0.0055369744077324,0.0690547451376915,-0.0497572431964799,-0.1398622244596481,-0.03344067997206,-0.0917640001303516,126
1722165783431651300,0.1190299917891621,0.082554364567995,-0.1973661541402339,3.2133994439408182,9.045189827173948,2.0072325332231817,0.2545686066150665,0.1704414039850235,0.1493309140205383,-0.3068956014072783,-0.0410751105913774,0.6292634250919867,0.7128502058837876,-1.333194136619568,-0.0384300351142883,-0.1178381964564323,0.3784451903462409,-0.714644061115384,0.5029238029301166,-0.0353963263332843,0.060994267463684,-0.019991653274279,-0.106875479221344,-0.0376534890612354,-0.0104196072904509,127
1722165783471427300,-0.1192024257466197,0.1183013852536678,-0.2465222531057894,3.253960294649005,9.040716481152176,1.9615186836659908,0.1815563291311264,0.3461763262748718,0.2118920534849167,-0.312011203853358,-0.0436600324048096,0.6309391245814371,0.7089841542229768,-1.333194136619568,-0.0384300351142883,-0.1178381964564323,0.3784451903462409,-0.714644061115384,0.5029238029301166,-0.0285622496157884,0.0347641073167324,0.0157918623552366,-0.1121870949864387,-0.0010340169395669,-0.0441668804100947,128
1722165783511203300,0.1589651118144392,0.1502022519052028,-0.1158957854166626,3.294221870149672,9.026773880517482,1.9585336765058337,0.1116721481084823,0.3359305560588836,0.1546957492828369,-0.3182260755306992,-0.0464485330819402,0.6308606054492641,0.7061088536884176,-1.333194136619568,-0.0384300351142883,-0.1178381964564323,0.3784451903462409,-0.714644061115384,0.5029238029301166,-0.0048426678404212,0.0271670203655958,-0.01915643314271,-0.149006649851799,-0.0003895861227647,-0.0234527489470085,129
1722165783552258000,-0.0255146727457642,0.1167845509499311,-0.0917430486738681,3.326969124497473,9.016196956923604,1.9518879548810424,0.1305610984563827,0.197726622223854,0.1378921270370483,-0.3233604955164652,-0.0488882258788492,0.6309448076802644,0.703531587488926,-1.333194136619568,-0.0384300351142883,-0.1178381964564323,0.3784451903462409,-0.714644061115384,0.5029238029301166,0.0131642650812864,-0.0003687751013785,-0.0407343715110328,-0.1449862867593765,0.0089397736789891,0.0018386244496301,130
1722165783592035800,-0.2027975315392017,-0.0319850378036499,0.0811478587709367,3.3676328510582447,9.011886692509057,1.9014011918336151,0.2345151156187057,-0.0253233928233385,0.147189974784851,-0.3259341927641191,-0.0493872686375286,0.6329426669878512,0.7005079046413876,-1.333194136619568,-0.0384300351142883,-0.1178381964564323,0.3784451903462409,-0.714644061115384,0.5029238029301166,0.0119842337444424,-0.0042183054611086,-0.0582484191580209,-0.1432945132255554,0.0425744418531889,-0.0508953027491224,131
1722165783631813600,0.2638762696191668,-0.0345984351724386,-0.0355174497134983,3.411821536874771,9.021533057254551,1.7725110464178024,0.3805362582206726,-0.1906335353851318,0.0516514666378498,-0.3246304588635406,-0.0477266952409916,0.638239179709489,0.6964107818278875,-1.333194136619568,-0.0384300351142883,-0.1178381964564323,0.3784451903462409,-0.714644061115384,0.5029238029301166,-0.0008673297706991,-0.0212438255548477,-0.1704220513795502,-0.1188440397381782,-0.0709769175954861,0.0113303723096847,132
1722165783671591400,0.0898658566251397,0.017355623948574,-0.4172060058951378,3.4459210826143623,9.03916106840372,1.609218865184486,0.3393742442131042,-0.1829663813114166,0.0553070046007633,-0.3224796343810078,-0.046635510976978,0.6448083413804563,0.6914146868314843,-1.333194136619568,-0.0384300351142883,-0.1178381964564323,0.3784451903462409,-0.714644061115384,0.5029238029301166,0.0048748161643743,-0.0217938218265771,-0.0379451175351277,-0.0800128281116485,0.0627306517391465,-0.0482608717254595,133
1722165783711369200,-0.281421863181889,0.0464905330181121,-0.2454968555808067,3.4788781803205606,9.047285922670364,1.488087371071428,0.2392449527978897,-0.0575985945761203,0.1297417879104614,-0.3213845663299042,-0.0456950901448255,0.6496465328558119,0.6874469036344016,-1.333194136619568,-0.0384300351142883,-0.1178381964564323,0.3784451903462409,-0.714644061115384,0.5029238029301166,0.0004480833886191,-0.0151862911880016,-0.1046410904253832,-0.0680655166506767,0.0105573672267491,-0.0750396735223708,134
1722165783751148000,-0.1865241498693823,0.0236830734044313,-0.1677231494180858,3.538556111691892,9.036126815274358,1.4133072937667368,0.1928513646125793,-0.0238941665738821,0.1736151278018951,-0.3228667688166558,-0.0443135987592321,0.6526696640632524,0.6839706075720989,-1.333194136619568,-0.0384300351142883,-0.1178381964564323,0.3784451903462409,-0.714644061115384,0.5029238029301166,-0.0150072230026125,-0.0084816282615065,-0.0588997592062223,-0.0478058122098445,0.0370654509070562,-0.0385398525748634,135
1722165783790926000,-0.2073535874083638,-0.0224696059614419,-0.0492952151753008,3.605623568792641,9.022571752652526,1.3277991939596832,0.2331894785165786,-0.1024611145257949,0.1838507652282714,-0.3240628800956879,-0.0423288975991632,0.6561321123243448,0.6802073687262833,-1.333194136619568,-0.0384300351142883,-0.1178381964564323,0.3784451903462409,-0.714644061115384,0.5029238029301166,-0.0107393860816955,-0.0111198211088776,-0.0319751694301841,-0.050831988453865,0.0861902277191635,-0.0300630544818355,136
1722165783830703600,0.3303437150001526,0.0481418073564767,0.2161987187735736,3.6555528440877794,9.015556320932507,1.2357348043769598,0.2528624236583709,0.0597965642809867,0.0796941295266151,-0.3250226486350635,-0.0414814800693665,0.6597532456509707,0.6762877285597838,-1.333194136619568,-0.0384300351142883,-0.1178381964564323,0.3784451903462409,-0.714644061115384,0.5029238029301166,0.0238149221986532,-0.009978687390685,-0.1107867809730116,-0.042172223329544,0.0189772749002324,0.0471594726550858,137
1722165783870481400,0.1178214927822351,0.041809681725502,-0.1211019026923924,3.6727979933992025,9.019794104632735,1.1507585464242844,0.2463036477565765,0.0164245143532753,0.03900858014822,-0.3263163593728239,-0.0432155769381114,0.6629178346433264,0.6724506898597219,-1.333194136619568,-0.0384300351142883,-0.1178381964564323,0.3784451903462409,-0.714644061115384,0.5029238029301166,0.0437459051609039,-0.0221177730709314,-0.0490697221566224,-0.051382191479206,0.0762062604831764,0.0388147239934885,138
1722165783910259200,0.0528916322320699,0.0445002359837293,-0.2771931395709514,3.677424484156072,9.026531303933265,1.0810464200336485,0.1348321288824081,0.0147907817736268,-0.0007852548151277,-0.3263357126050897,-0.0443220985900517,0.6655204919165163,0.6697932590995788,-1.333194136619568,-0.0384300351142883,-0.1178381964564323,0.3784451903462409,-0.714644061115384,0.5029238029301166,0.072739839553833,-0.0217733513563871,-0.0890249762210529,-0.0574330613017082,0.0414028270908165,0.0211904117719037,139
1722165783950037200,-0.1463379776924848,-0.1812000322371721,-0.241231014829874,3.703373456665873,9.016851621440052,1.0732158725384622,0.0630434826016426,0.1268600225448608,0.0535868965089321,-0.3286062435291946,-0.0448277081484786,0.6657865233660627,0.6683836270774851,-1.333194136619568,-0.0384300351142883,-0.1178381964564323,0.3784451903462409,-0.714644061115384,0.5029238029301166,0.0811850130558013,-0.000245485571213,-0.1354176474884152,-0.0882413014769554,0.0093857513227325,-0.0029539578597003,140
1722165783989815000,-0.1842357466712594,0.067539166265726,-0.2490203535318374,3.724661451627314,9.013518093103167,1.0265378541242332,0.0906653776764869,-0.0159696675837039,0.0618109814822673,-0.3300182830622375,-0.0456340687235938,0.667516791505613,0.6659030234324683,-1.333194136619568,-0.0384300351142883,-0.1178381964564323,0.3784451903462409,-0.714644061115384,0.5029238029301166,0.0946429297327995,0.0064243664965033,-0.1041935475872829,-0.0952452793717384,0.0074422845381835,0.0497869442149996,141
1722165784029576400,-0.1470262522175908,0.1079758060723543,-0.2491512864351272,3.743715403926372,9.01243614308536,0.9648679452180862,0.0689024105668068,-0.0939498320221901,0.089861549437046,-0.3293994925191938,-0.0448817043598423,0.6699186963361431,0.6638452587414069,-1.333194136619568,-0.0384300351142883,-0.1178381964564323,0.3784451903462409,-0.714644061115384,0.5029238029301166,0.1223459914326667,0.0318286903202533,-0.1589496219843626,-0.1060551702976226,0.0021881377152662,0.0594037723387591,142
1722165784069353500,0.3376204280048608,0.2772276263624429,-0.208166365095973,3.752873108372092,9.011376989421247,0.9388468573201448,-0.0680290311574935,0.0748015865683555,0.0720955953001976,-0.3293887557931847,-0.0447305176361056,0.67091826189738,0.6628506810593215,-1.333194136619568,-0.0384300351142883,-0.1178381964564323,0.3784451903462409,-0.714644061115384,0.5029238029301166,0.1689817905426025,0.0398976914584636,-0.0615051376653369,-0.1002626791596412,0.0150294848392368,0.0108819572553271,143
1722165784109130500,0.1698506629660725,-0.0289320799738168,0.3449782434217631,3.763223529733717,8.99746069227159,1.0267495241135358,-0.2310030460357666,0.5872710347175598,0.1526477038860321,-0.3346963393398063,-0.0474686794457013,0.6673807514993021,0.6635720859844039,-1.333194136619568,-0.0384300351142883,-0.1178381964564323,0.3784451903462409,-0.714644061115384,0.5029238029301166,0.1401166170835495,0.0648726001381874,-0.0228326511371531,-0.0883709043264389,0.0156840911318256,-0.083287199754035,144
1722165784148901000,-0.120000005865097,0.0179775552392005,0.1659329050004482,3.77953695115298,8.970005114591121,1.1935250904832035,-0.2407787442207336,0.3470502197742462,0.0567225068807601,-0.3443286195448574,-0.0522764898753341,0.6606166249259661,0.6650494051041455,-1.333194136619568,-0.0384300351142883,-0.1178381964564323,0.3784451903462409,-0.714644061115384,0.5029238029301166,0.0734382346272468,0.0455903261899948,-0.0586161656250245,-0.0660130530595779,-0.0209353821314871,-0.0495399289176799,145
1722165784188678100,-0.3218129102811217,0.0586789834618568,-0.3102420072138309,3.774101774361729,8.964917436063288,1.2477215947687623,-0.1641075313091278,-0.5602372884750366,-0.1226437091827392,-0.3428682865469166,-0.0500395796251765,0.6586956358771431,0.6678753633346078,-1.333194136619568,-0.0384300351142883,-0.1178381964564323,0.3784451903462409,-0.714644061115384,0.5029238029301166,0.0492793247103691,0.003895450849086,-0.0108927537856216,-0.0649958848953247,0.0626032305337721,-0.046891565266787,146
1722165784228455200,0.1178676700115203,-0.434872595489025,-0.0204173496067523,3.7511622128009794,8.983070347869395,1.1847472522005438,0.0514770820736885,-0.3912097513675689,-0.078254111111164,-0.3341463553723549,-0.044470863622406,0.6615262988129188,0.6698892379767032,-1.333194136619568,-0.0384300351142883,-0.1178381964564323,0.3784451903462409,-0.714644061115384,0.5029238029301166,0.0540214404463768,0.0456832014024257,-0.177978275445383,-0.0770902708172798,-0.0474536424292251,0.0288435340406838,147
1722165784268232200,0.1725201744362711,-0.0695230335593223,-0.7428302911579608,3.7723759734824296,8.978048135793209,1.1550820356465876,-0.0724949315190315,0.0319103747606277,0.112197645008564,-0.3331059886920228,-0.0424999302551405,0.6627978280661694,0.6692781210366776,-1.333194136619568,-0.0384300351142883,-0.1178381964564323,0.3784451903462409,-0.714644061115384,0.5029238029301166,0.0482981130480766,0.0766949728131294,-0.0893646747705061,-0.0781624019145965,0.018396556969406,0.0257606902459519,148
1722165784308009000,0.5072437119558453,-0.1590443145304918,-0.2414817747205495,3.8145895598337054,8.948607521775365,1.2416598105117678,-0.2010742872953415,0.415934294462204,0.1990702897310257,-0.3382362871755623,-0.0426272926340205,0.6594511959017504,0.6700024356322118,-1.333194136619568,-0.0384300351142883,-0.1178381964564323,0.3784451903462409,-0.714644061115384,0.5029238029301166,0.0419505089521408,0.0638336390256881,-0.0526181673192419,-0.0960711240768432,0.0430277385786408,-0.0281272093147388,149
1722165784347786000,0.6413166668370366,-0.1257522857815027,-0.168031338584423,3.862476223385334,8.903643759933114,1.4059830883584916,-0.283630907535553,0.5162131786346436,0.1969214379787445,-0.347866701269395,-0.0449773020687584,0.6529102956626859,0.6713225292504901,-1.333194136619568,-0.0384300351142883,-0.1178381964564323,0.3784451903462409,-0.714644061115384,0.5029238029301166,0.0588433928787708,0.1116171777248382,-0.1278614142894279,-0.1063408106565475,-0.0141375261268171,-0.0204671207323437,150
1722165784387562800,0.3318219708591699,-0.2411643793344497,0.2193020916163921,3.9014258395045993,8.857746516633034,1.5778456756688652,-0.2029292583465576,0.5412853360176086,0.2102924436330795,-0.3577581908831188,-0.0478405455262572,0.6459593984553029,0.6726491572059226,-1.333194136619568,-0.0384300351142883,-0.1178381964564323,0.3784451903462409,-0.714644061115384,0.5029238029301166,0.050694789737463,0.108022816479206,-0.0991666593359783,-0.1134387329220771,0.01975930353984,-0.0483789908129489,151
1722165784427339800,-0.002088788972795,-0.3661205463021993,0.1694604946047067,3.946536024080217,8.812864003333448,1.7113349854432045,-0.1144502684473991,0.4787455201148987,0.2492361068725586,-0.367584634546354,-0.050858090257005,0.6404370801943299,0.6724101041849709,-1.333194136619568,-0.0384300351142883,-0.1178381964564323,0.3784451903462409,-0.714644061115384,0.5029238029301166,0.0410744175314903,0.1070680692791938,-0.0637228456808487,-0.1110472753643989,0.033372505540098,-0.0775559900251217,152
1722165784467116500,0.0076896777197718,-0.2672428234428167,-0.054176411345601,4.00349563640356,8.766658716997505,1.813316227275878,-0.1057216674089431,0.3176223337650299,0.2181488573551178,-0.3761806165962732,-0.0524452499766645,0.6362358841233764,0.6715218839918021,-1.333194136619568,-0.0384300351142883,-0.1178381964564323,0.3784451903462409,-0.714644061115384,0.5029238029301166,0.0399963371455669,0.0777256041765213,-0.0331500858279177,-0.068078763782978,0.0259200455261277,-0.012459638917807,153
1722165784506893600,-0.3961418828174471,-0.4090478338807821,-0.1532055253744125,4.071540998625755,8.712737741717696,1.918630266793072,-0.1862431317567825,0.5078120231628418,0.362428605556488,-0.384484870362645,-0.0527629548344745,0.6319755960146116,0.6708161625764546,-1.333194136619568,-0.0384300351142883,-0.1178381964564323,0.3784451903462409,-0.714644061115384,0.5029238029301166,0.0336341112852096,0.0676251128315925,-0.0998180085173342,-0.0594219863414764,0.0142503125937073,-0.0360235406386898,154
1722165784546671600,-0.7364364984676242,-0.5522083505809307,-0.5683078369885682,4.189773118035495,8.612437877100705,2.107629866865277,-0.3035186231136322,0.6318878531455994,0.5955848097801208,-0.3988466365529042,-0.052837298757584,0.6242988112701717,0.6696122620844686,-1.333194136619568,-0.0384300351142883,-0.1178381964564323,0.3784451903462409,-0.714644061115384,0.5029238029301166,0.0327678099274635,0.0836760550737381,-0.1653671060775406,-0.0708550885319709,-0.0181563504387857,-0.0836206512257922,155
1722165784586448400,-1.0447639042317869,-0.8334370292782783,-1.0693944876194,4.380934280055761,8.46734902268648,2.29821878195554,-0.3145692646503448,0.3222936391830444,0.7968162894248962,-0.4138684258039453,-0.0478320976436019,0.6168756315114878,0.6677495833799162,-1.333194136619568,-0.0384300351142883,-0.1178381964564323,0.3784451903462409,-0.714644061115384,0.5029238029301166,0.022317748516798,0.1224010363221168,-0.128201112838881,-0.1117895022034645,-0.0371437996731605,-0.0158968445415841,156
1722165784626243000,-1.020464160233736,-0.9543921439111231,-1.0712766481041909,4.645584748917818,8.277506834310293,2.464103463900089,-0.3332917392253876,0.5705429911613464,0.9902482628822328,-0.429450364906334,-0.0382228713793972,0.6106592390190921,0.6642339016084772,-1.333194136619568,-0.0384300351142883,-0.1178381964564323,0.3784451903462409,-0.714644061115384,0.5029238029301166,0.0110552832484245,0.1267439275979995,-0.1009648678643628,-0.1075083762407302,-0.0055163111694855,-0.0152052227153442,157
1722165784666020900,-1.4794137968808412,-1.3670891479492189,-0.4432707137390971,4.954447284471988,7.969398916515708,2.8482459891051053,-0.6363277435302734,1.9133615493774407,1.7794252634048462,-0.4609451163313715,-0.0327332852267734,0.5947338880733686,0.6578370857945427,-1.333194136619568,-0.0384300351142883,-0.1178381964564323,0.3784451903462409,-0.714644061115384,0.5029238029301166,-0.003255087416619,0.0811023861169815,-0.203472416859772,-0.1131118237972259,-0.1348126307999715,-0.0114516491853515,158
1722165784705798700,-0.4471440480411052,-0.5675479585319757,-0.6348021703764796,5.265923217394947,7.471676773881912,3.5516879804655908,-0.950632870197296,2.496495723724365,1.98784601688385,-0.511443503435922,-0.0307387543347669,0.5638877926586259,0.6476968589833353,-1.333194136619568,-0.0384300351142883,-0.1178381964564323,0.3784451903462409,-0.714644061115384,0.5029238029301166,-0.010205733589828,0.1355863213539123,-0.0975803765252232,-0.1225114241242408,-0.0272235476064379,-0.0840899766374379,159
1722165784745576700,-0.5640227070152759,-0.4711684822291135,0.1291822602301836,5.446398442488908,6.879249225637317,4.379847653862834,-0.921763241291046,2.514469623565674,2.1700663566589355,-0.5649334802911733,-0.0298767428222389,0.5251640711236638,0.635736053556409,-1.333194136619568,-0.0384300351142883,-0.1178381964564323,0.3784451903462409,-0.714644061115384,0.5029238029301166,-0.0023667882196605,0.0914410576224327,-0.1340071048370562,-0.1070059910416603,-0.0057176195949781,0.1017320254451129,160
1722165784785354500,0.3017670243352651,0.585192336294055,-0.0254664496898651,5.578092393279075,6.241424784830212,5.108805487012863,-1.0146139860153198,1.6488981246948242,1.8275295495986936,-0.6113275980755508,-0.023234904423171,0.4888594518442578,0.621896437111645,-1.333194136619568,-0.0384300351142883,-0.1178381964564323,0.3784451903462409,-0.714644061115384,0.5029238029301166,0.0642912611365318,0.1128285154700279,-0.2060017709406092,-0.11105877161026,-0.0989723240739665,-0.0921044201990123,161
1722165784825132000,0.0922246947109699,0.061640171355009,0.1823100393056869,5.732268809512258,5.653319775959849,5.599237472638488,-0.8792664408683777,0.7619755864143372,1.6073012351989746,-0.6413815203267088,-0.0077770243548544,0.4630959384550741,0.6116465662353969,-1.333194136619568,-0.0384300351142883,-0.1178381964564323,0.3784451903462409,-0.714644061115384,0.5029238029301166,0.0770083293318748,0.1038790419697761,-0.0944794787672814,-0.1496105641126632,0.0090700507076195,-0.1419746405169833,162
1722165784864910000,0.9576718962341546,0.6296656842708587,1.237112522470951,5.885255723699927,5.140360316705704,5.9254404345721,-0.5683983564376831,0.8908990025520325,1.4190067052841189,-0.6661438145449232,0.0062872059980062,0.4448000378840426,0.5986366761541734,-1.333194136619568,-0.0384300351142883,-0.1178381964564323,0.3784451903462409,-0.714644061115384,0.5029238029301166,0.0425404608249664,0.1037728041410446,-0.1253121407985687,-0.1287970840930938,-0.0731086734937503,-0.0763187261480139,163
1722165784904687900,1.4565841254353522,0.8669251651212573,0.8918307660579681,5.796350528800487,4.738648817062377,6.333869844293594,-0.3751532733440399,1.9042118787765503,1.0003808736801147,-0.6926604644068769,0.0070142487892251,0.4207295163426514,0.5857976185327285,-1.333194136619568,-0.0384300351142883,-0.1178381964564323,0.3784451903462409,-0.714644061115384,0.5029238029301166,-0.0226744282990694,0.0764674469828605,-0.0901319876148831,-0.1755358278751373,-0.0246254733876558,-0.2310000185968354,164
1722165784944467000,0.8980196838259696,1.1191235641673207,1.0799369244217871,5.333039189812541,4.477921074602008,6.904874665281176,-0.3491807579994201,2.5747458934783936,0.4723391234874725,-0.7186425803226147,-0.0076908992193897,0.3845649760610886,0.5793128475122222,-1.333194136619568,-0.0384300351142883,-0.1178381964564323,0.3784451903462409,-0.714644061115384,0.5029238029301166,-0.080483078956604,0.0697040781378746,-0.0341212027322617,-0.1906602829694748,-0.025726057323988,-0.1320382889821194,165
1722165784984244500,0.4052759141266345,0.412787312670052,1.0697802720665932,4.619554820126295,4.384145643317699,7.457168940579891,0.2831073701381683,2.638704538345337,0.3490594327449798,-0.7430176024040197,-0.0354078871906888,0.3442912622939423,0.5728304844480031,-1.333194136619568,-0.0384300351142883,-0.1178381964564323,0.3784451903462409,-0.714644061115384,0.5029238029301166,-0.0842847749590873,0.0353559553623199,-0.0731053398923482,-0.1925493627786636,-0.008883380445544,-0.0300839534226804,166
1722165785024022300,1.2624939242258668,1.1745333167001604,0.5320458525180817,3.999362774382532,4.460968478496373,7.763713262319564,0.4195716679096222,1.6986372470855713,-0.0058059440925717,-0.7593123674476872,-0.0641659514495927,0.3162965434728601,0.5650523133659878,-1.333194136619568,-0.0384300351142883,-0.1178381964564323,0.3784451903462409,-0.714644061115384,0.5029238029301166,-0.0448897220194339,-0.0041977046057581,-0.0431278242525178,-0.1806628853082656,0.0591622734667733,0.0537976457276614,167
1722165785063800300,1.2914412017688155,0.6452466997623443,1.2817957138061522,3.4501255485668776,4.636811075353622,7.92256293106079,0.5703691244125366,1.6137003898620603,-0.1643434762954712,-0.7677044607030898,-0.0916368965458454,0.2960817355746106,0.56086377234535,-1.333194136619568,-0.0384300351142883,-0.1178381964564323,0.3784451903462409,-0.714644061115384,0.5029238029301166,0.0293530374765396,-0.0206045713275671,-0.0908231847494374,-0.1549364179372787,0.0161272123814909,0.0543641798695083,168
1722165785103598800,0.9953913860365748,0.0022737901508808,1.160688038960099,2.933044333207607,4.867980714896321,7.991895410484075,0.6967856287956238,1.4633574485778809,-0.3359217941761017,-0.7718777282266753,-0.1191121362328243,0.2798911076740977,0.5582812057160731,-1.333194136619568,-0.0384300351142883,-0.1178381964564323,0.3784451903462409,-0.714644061115384,0.5029238029301166,0.0594659969210624,-0.0100950663909316,-0.0415695893593132,-0.1077638417482376,-0.0283241292594815,0.0148717643937212,169
1722165785143372800,-0.1049368767678737,-0.4889303488910198,0.3414928855240345,2.432848932328075,5.156576122969389,7.978806796330213,0.8980087637901306,1.032437443733215,-0.2408449053764343,-0.7736613121701653,-0.1483633464152393,0.266800283027694,0.555206420636814,-1.333194136619568,-0.0384300351142883,-0.1178381964564323,0.3784451903462409,-0.714644061115384,0.5029238029301166,0.0564801357686519,-0.0291002802550792,0.0626800540630705,-0.0651527047157287,0.0452406882206443,-0.0284853728193556,170
1722165785183151600,-0.7650526443600654,-0.5389911416113377,-1.0554267525434493,2.42378562816754,5.4364802750647065,7.793608049845695,0.8058226704597473,-0.7358916401863098,0.035728994756937,-0.769600396419357,-0.1616547786997043,0.2765941187392909,0.5523392054679426,-1.333194136619568,-0.0384300351142883,-0.1178381964564323,0.3784451903462409,-0.714644061115384,0.5029238029301166,0.0421355813741683,-0.0176140088587999,-0.1169686662120278,-0.0512767508625984,-0.0767407555189449,0.0264244468177319,171
1722165785222930700,0.1279179393827915,0.0685457129597663,-0.453261654138565,2.6179317973479628,5.627110398948192,7.592920642328262,0.4987526535987854,-0.3577959239482879,0.107887402176857,-0.765396381700774,-0.1649446827828617,0.2926807571811591,0.5489077273156523,-1.333194136619568,-0.0384300351142883,-0.1178381964564323,0.3784451903462409,-0.714644061115384,0.5029238029301166,0.0788012966513633,-0.0628289729356765,-0.0528020405527437,-0.0925082713365554,0.0112728277279471,-0.0274495223990175,172
1722165785262709500,-0.6718570587903261,0.0113584293603897,-0.5520610510647297,2.7958129142954946,5.7600143100500105,7.428058581429719,0.4602502584457397,-0.5004188418388367,0.1988537907600402,-0.7624300547930128,-0.1663423053983604,0.3059487681917409,0.5453678690461902,-1.333194136619568,-0.0384300351142883,-0.1178381964564323,0.3784451903462409,-0.714644061115384,0.5029238029301166,0.0778608843684196,-0.0702686011791229,-0.1661742760082706,-0.0785247981548309,-0.0149167017972795,-0.0673726140597835,173
1722165785302489900,0.0847264479100704,0.0991933646798133,-0.2576350371420383,2.885729624325037,5.819871689641476,7.346566293135285,0.2330140024423599,0.0099921412765979,0.1715189516544342,-0.7619481980669741,-0.1672999804445359,0.312153924458539,0.5422227225870418,-1.333194136619568,-0.0384300351142883,-0.1178381964564323,0.3784451903462409,-0.714644061115384,0.5029238029301166,0.0523540303111076,-0.0323983915150165,-0.257868864164222,-0.0958289429545402,-0.1401913281636312,-0.1429094736816827,174
1722165785342268700,0.4637158281356096,-0.0091483520954847,-0.5796411319077015,2.8622791906327008,5.839179032179713,7.340417122855782,0.0122538758441805,0.2319799810647964,0.0625558793544769,-0.7639002591561377,-0.1701323674044677,0.3111235262331421,0.5391785344559916,-1.333194136619568,-0.0384300351142883,-0.1178381964564323,0.3784451903462409,-0.714644061115384,0.5029238029301166,0.0625408440828323,0.0146728456020355,-0.1807475940282456,-0.0695549324154853,-0.1243753531388007,-0.0575613410761579,175
1722165785382047700,0.176483525109291,-0.013157587736845,-0.3919353710383176,2.8032497862979766,5.817300377848744,7.380459794908761,-0.1376940011978149,0.2389368861913681,0.0202820133417844,-0.765900664118529,-0.1714467016219867,0.3070949621663502,0.5382329916531423,-1.333194136619568,-0.0384300351142883,-0.1178381964564323,0.3784451903462409,-0.714644061115384,0.5029238029301166,0.0740560293197631,0.0365459769964218,-0.0787636396486777,-0.0320457145571708,-0.0498402316050836,-0.0560669469330925,176
1722165785421826800,0.2425561259537935,-0.4927683196187019,-0.0058189154118299,2.7278999462813136,5.773329718697071,7.442957459875941,-0.1137357205152511,0.2959818542003631,0.0589865408837795,-0.7684163421149907,-0.1721651500003368,0.3014530345296077,0.5376073787295546,-1.333194136619568,-0.0384300351142883,-0.1178381964564323,0.3784451903462409,-0.714644061115384,0.5029238029301166,0.0489860735833644,0.042951550334692,-0.07928721599821,-0.0011341124773025,-0.1046014160021208,-0.050818981543323,177
1722165785461606000,-0.4157780189186334,-0.3480705103486776,-0.2232306632369756,2.6809923568949103,5.714823169192671,7.50489573739469,-0.2002080380916595,0.2197227478027343,0.2397014647722244,-0.7722353726737577,-0.1720632663664593,0.2962280274321824,0.5350659721064915,-1.333194136619568,-0.0384300351142883,-0.1178381964564323,0.3784451903462409,-0.714644061115384,0.5029238029301166,0.0027487892657518,0.0273231193423271,-0.0502527624953072,-0.003556041046977,-0.0476983105058316,-0.0833011278146877,178
1722165785501384700,0.103824823872745,0.1385305188119411,0.2399976736426353,2.677788592417538,5.640623375993966,7.561957348787784,-0.1047498360276222,0.228349432349205,0.206639364361763,-0.7763869357597951,-0.1701545476632662,0.2923951005352868,0.531766687728319,-1.333194136619568,-0.0384300351142883,-0.1178381964564323,0.3784451903462409,-0.714644061115384,0.5029238029301166,-0.005635367706418,-0.000520288478583,-0.0795708095794077,-0.0276630390435457,-0.0466005829635774,-0.0398189097670838,179
1722165785542406000,0.2011187846720218,0.0161696290343999,-0.4779968669444322,2.67401784170717,5.571897045770287,7.614064552643895,-0.2086272984743118,0.0103303287178277,0.1937063783407211,-0.7802492641977783,-0.1684188238747864,0.2888353321054588,0.528602361254375,-1.333194136619568,-0.0384300351142883,-0.1178381964564323,0.3784451903462409,-0.714644061115384,0.5029238029301166,0.004834140650928,-0.0175834577530622,-0.1166289585294201,-0.0434026755392551,-0.0537344899641117,0.021854166060395,180
1722165785582184700,1.0292676444143056,-0.0160778590977191,0.4787532382696867,2.715263752070069,5.49311343191266,7.65659436533749,-0.1302451640367508,-0.0430961102247238,-0.0307060647755861,-0.7816814945760917,-0.1637007761018234,0.2877922805456894,0.5285373485976703,-1.333194136619568,-0.0384300351142883,-0.1178381964564323,0.3784451903462409,-0.714644061115384,0.5029238029301166,0.0369868241250515,0.0038359691388905,-0.0823600567054469,-0.0331181697547435,-0.1003914610237348,0.010280590403761,181
1722165785621964000,0.0793964850589633,0.073445759961009,0.396837756127119,2.687253170855344,5.514471277239919,7.651121486884355,0.0875588953495025,0.0375392362475395,-0.1524930298328399,-0.7803915483199735,-0.1648966150377922,0.2875942917404856,0.5301769090275957,-1.333194136619568,-0.0384300351142883,-0.1178381964564323,0.3784451903462409,-0.714644061115384,0.5029238029301166,0.050512358546257,-0.0189210586249828,0.0170945504431496,-0.0484079830348491,0.0099839660943427,-0.06887778532519,182
1722165785661717500,-0.5067363469555973,-0.0824444744527339,-0.1533434725403785,2.684711669678986,5.545114837306738,7.6298367067933075,0.0683106034994125,-0.0424532629549503,-0.0406448356807231,-0.7791507709848449,-0.166028753789184,0.288827020996364,0.5309778594277639,-1.333194136619568,-0.0384300351142883,-0.1178381964564323,0.3784451903462409,-0.714644061115384,0.5029238029301166,0.0412066094577312,-0.0237423218786716,-0.1578869063899852,-0.0207724273204803,-0.0995558961155824,0.0289407610371941,183
1722165785701496000,-0.0412017789602279,-0.0967412953525781,-0.481932452827692,2.697119608092308,5.547141374698281,7.623985642677545,-0.0476684123277664,0.0686563923954963,0.0233927797526121,-0.7792633638282472,-0.1659019805152485,0.2894157145084619,0.5305315434803756,-1.333194136619568,-0.0384300351142883,-0.1178381964564323,0.3784451903462409,-0.714644061115384,0.5029238029301166,0.0463178642094135,-0.0450540855526924,-0.1080056623545009,-0.0454072058200836,0.0091337607394845,-0.1426592983128968,184
1722165785741273600,0.289208279274404,0.2156833165973424,-0.5894137533813715,2.620195650626719,5.505560825553536,7.680739795556664,-0.2663820087909698,0.2980274856090545,-0.0918085053563118,-0.7804549283942134,-0.1660734835149931,0.2842725200224469,0.5315062581990897,-1.333194136619568,-0.0384300351142883,-0.1178381964564323,0.3784451903462409,-0.714644061115384,0.5029238029301166,0.0322927609086036,-0.0130116827785968,-0.1675050131553783,-0.0363957099616527,-0.0664382375528104,-0.045876606937428,185
1722165785781051400,0.2583975459471345,-0.1350409231305122,-0.8220324226886033,2.4926897991761563,5.404529139530658,7.794097294667362,-0.4916679263114929,0.4056873619556427,-0.0634840726852417,-0.7825500289437388,-0.1646846297428987,0.2747555293266338,0.5338575968727043,-1.333194136619568,-0.0384300351142883,-0.1178381964564323,0.3784451903462409,-0.714644061115384,0.5029238029301166,0.0149932354688644,0.0024425042793154,-0.105164657641761,-0.0200618244707584,-0.0442038148869993,-0.0697917126991786,186
1722165785820829000,0.1886608696371317,0.1563981839358806,-0.7325491356402635,2.388098667106032,5.275147557336092,7.914555565693974,-0.6421586871147156,0.4029110968112945,-0.0320748388767242,-0.7852280414588385,-0.1615550593418578,0.2652733141128249,0.5356743172555465,-1.333194136619568,-0.0384300351142883,-0.1178381964564323,0.3784451903462409,-0.714644061115384,0.5029238029301166,-0.0121304290369153,-0.0081009697169065,-0.0445944627389777,-0.0201297774910926,-0.0067414616295805,-0.057318138870853,187
1722165785860606700,-0.1697843197315931,0.0201548992782831,-0.040616088026762,2.272042868822068,5.061089211592078,8.086630042189359,-0.6429688930511475,0.3771618604660034,0.0639067217707634,-0.7895417973958703,-0.1550679182621387,0.2522906058596721,0.5375195110663411,-1.333194136619568,-0.0384300351142883,-0.1178381964564323,0.3784451903462409,-0.714644061115384,0.5029238029301166,-0.0384407974779605,-0.0080293454229831,-0.0990108385866042,-0.0270442981272935,0.0110106639522011,-0.0522715823712758,188
1722165785900384300,0.2846552921451628,0.2100304054021835,0.2695686360418796,2.142466494707763,4.862385086846351,8.242416231706738,-0.5588744282722473,0.3910485506057739,-0.015782430768013,-0.7936222015905108,-0.1498320326054572,0.2393826998038684,0.5388969886142979,-1.333194136619568,-0.0384300351142883,-0.1178381964564323,0.3784451903462409,-0.714644061115384,0.5029238029301166,-0.0478224381804466,0.0111928042024374,-0.1246526631096843,-0.0507301166653633,-0.0039652851893129,0.0510451001830864,189
1722165785940161800,0.373981342805177,-0.564787261646986,0.4024865756690502,2.0841157202869653,4.694934763020277,8.353707445937395,-0.3928489685058594,-0.00657789548859,0.0617152974009513,-0.7962420884663446,-0.1438444819612621,0.2310588962107862,0.5402952523582938,-1.333194136619568,-0.0384300351142883,-0.1178381964564323,0.3784451903462409,-0.714644061115384,0.5029238029301166,-0.0055987569503486,0.0231084935367107,-0.0523264452305156,-0.0595558136701583,0.0486613011859357,0.1005919885645154,190
1722165785979939600,0.4309231272108852,0.2084922360494732,0.8706558760821819,2.103937880479544,4.614327733127772,8.393557810288668,-0.1332296133041381,-0.130945935845375,-0.0611903928220272,-0.7964171115881082,-0.139271658143283,0.2294581846136086,0.5419153387545238,-1.333194136619568,-0.0384300351142883,-0.1178381964564323,0.3784451903462409,-0.714644061115384,0.5029238029301166,0.0287517793476581,-0.0007932861335575,-0.0323148679796373,-0.0696893483400344,0.0631839484645985,-0.0254927805743645,191
1722165786019716900,-0.1186592587806284,0.0380123352691531,0.212657246774435,2.188296810251474,4.592373675473034,8.3840230892241,-0.046224758028984,-0.4126151204109192,-0.0517164506018161,-0.7947035965202945,-0.1351896061873858,0.2329325098646106,0.5439783077485348,-1.333194136619568,-0.0384300351142883,-0.1178381964564323,0.3784451903462409,-0.714644061115384,0.5029238029301166,-0.0021083739120513,-0.018777810037136,-0.08287927654027,-0.0622370317578315,0.0329829194173333,-0.1010087344055529,192
1722165786059495700,0.0392643811568617,-0.4374412769332528,0.2625783387631177,2.2950820913650096,4.613676868003607,8.343678219354151,0.1176344081759452,-0.2401393949985504,-0.0710987597703933,-0.7920616530927456,-0.132303182042897,0.2389281810150282,0.5459371877327163,-1.333194136619568,-0.0384300351142883,-0.1178381964564323,0.3784451903462409,-0.714644061115384,0.5029238029301166,-0.028941823169589,-0.0032434742897748,-0.0590836370063014,-0.0140384333208203,0.0053105394855403,-0.0378621633758535,193
1722165786099273200,0.2523126730754971,0.1027650856867432,-0.9724597155213356,2.3383630146868524,4.623688558930159,8.326100477087497,-0.1474306583404541,-0.1364568173885345,-0.1256396919488906,-0.7901701453497895,-0.1308360815068977,0.2415966251119886,0.547854247171678,-1.333194136619568,-0.0384300351142883,-0.1178381964564323,0.3784451903462409,-0.714644061115384,0.5029238029301166,-0.0387585870921611,-9.06758941709e-05,-0.0173301721301977,-0.0092020388692617,0.0653895824498264,-0.0534116192518733,194
1722165786139038000,-0.0183060565412044,0.0615752894252538,-0.8422773383378982,2.324969864628464,4.536638928769529,8.377578150868416,-0.4502067267894745,0.0600127726793289,-0.0796348229050636,-0.7895785611593518,-0.1265249150156208,0.2384404404883625,0.5510929501371041,-1.333194136619568,-0.0384300351142883,-0.1178381964564323,0.3784451903462409,-0.714644061115384,0.5029238029301166,-0.0302009172737598,0.0210225600749254,-0.1636168831430375,-0.0205816756933927,-0.0102534489517973,0.0164950490383955,195
1722165786178815000,0.3149460932515561,-0.0539113306686282,-0.7004945397317409,2.300569582865387,4.345517806498706,8.484941962522267,-0.666745126247406,0.0088283400982618,-0.0938589349389076,-0.7903740658859487,-0.1179768921007431,0.2312354027607093,0.5549058176911391,-1.333194136619568,-0.0384300351142883,-0.1178381964564323,0.3784451903462409,-0.714644061115384,0.5029238029301166,-0.0175954587757587,-0.0112792802974581,-0.0743519287202274,-0.0401930920779705,0.0611057402513222,0.0010567510736495,196
1722165786218592300,0.2203527697131037,-0.4521133608862757,-0.2566144619226455,2.284281442017853,4.137537903885543,8.592626092171669,-0.5825712084770203,0.1113769114017486,-0.0499409437179565,-0.7910190316862741,-0.1084902342229753,0.2238925209565375,0.558919448174612,-1.333194136619568,-0.0384300351142883,-0.1178381964564323,0.3784451903462409,-0.714644061115384,0.5029238029301166,-0.0205764863640069,-0.0058618411421775,-0.061165443682461,-0.0276905167847871,0.0380357572439359,0.0063116839186783,197
1722165786258369300,0.4649617365434765,0.1523886560335755,-0.4254015873104333,2.181678853416442,3.941396907626092,8.710686069884895,-0.6497266888618469,0.2893670499324798,-0.1882183104753494,-0.7920463117522689,-0.1022740171790666,0.2131164864318357,0.5628356750339195,-1.333194136619568,-0.0384300351142883,-0.1178381964564323,0.3784451903462409,-0.714644061115384,0.5029238029301166,-0.0126894935965538,-0.0250670034438371,-0.074196103404276,-0.0275570191442966,0.0523571006636833,-0.0028358359181002,198
1722165786298146300,-0.1592870372451841,0.0519929298266768,0.1998603090435266,2.03918425327912,3.7179768592968574,8.84244081095159,-0.656309962272644,0.3193824589252472,-0.1634848862886428,-0.7926462723975278,-0.0959250538236047,0.1998984040351297,0.5679356692822859,-1.333194136619568,-0.0384300351142883,-0.1178381964564323,0.3784451903462409,-0.714644061115384,0.5029238029301166,-0.0040845400653779,-0.0312754660844802,-0.0550396679782774,-0.0289174057543277,0.0527466890697367,0.0206169113164418,199
1722165786337923600,-0.0023797347433865,0.0615644757702946,0.2527320675313472,1.942281483754516,3.5149238916918635,8.946688536411523,-0.5528003573417664,0.1247091144323349,-0.1803996860980987,-0.7929006669296731,-0.0893455288190755,0.1893758184926819,0.5722436753162949,-1.333194136619568,-0.0384300351142883,-0.1178381964564323,0.3784451903462409,-0.714644061115384,0.5029238029301166,0.0227416716516017,-0.0148985050618648,-0.0975442001001443,-0.0293122697621583,0.0769144041859544,0.0588442022272385,200
1722165786377700600,-0.5746957844600081,-0.1470543092682957,0.0674526570260524,1.894649233355373,3.353189607425034,9.018692280870676,-0.4089555442333221,0.0015282740350812,-0.0161752328276634,-0.7925657727290335,-0.0832116893196109,0.1823471664655422,0.5759034302562527,-1.333194136619568,-0.0384300351142883,-0.1178381964564323,0.3784451903462409,-0.714644061115384,0.5029238029301166,0.0552382059395313,-0.0028672758489847,-0.1289521778013557,-0.0469146780669689,0.0471029566948767,0.006780998484703,201
1722165786417479000,-0.1388433841533959,0.0288414790809154,-0.3690817341953515,1.9490094768352808,3.212907568770647,9.058088471713662,-0.3537716567516327,-0.2118465900421142,0.0894862189888954,-0.7934085353403008,-0.0755679938930062,0.1801540588842876,0.5764866201761157,-1.333194136619568,-0.0384300351142883,-0.1178381964564323,0.3784451903462409,-0.714644061115384,0.5029238029301166,0.0460643991827964,0.0135586438700556,-0.1660184643920511,-0.0565245747566223,-0.0236653413849184,-0.0712652010515332,202
1722165786457256000,0.3340088133789599,0.06394172629565,-0.1829530133843422,2.0281705457031727,3.0724624485090373,9.089383189165591,-0.3747657835483551,-0.1678230166435241,0.0383303351700305,-0.7939449757911516,-0.0671487549416175,0.1790572208811156,0.5771315352962781,-1.333194136619568,-0.0384300351142883,-0.1178381964564323,0.3784451903462409,-0.714644061115384,0.5029238029301166,0.0179253220558166,-0.0041480385698378,-0.0364866052729077,-0.0555614493787288,0.064999994043773,-0.0768643636323045,203
1722165786497033000,-0.2888895687140524,-0.0341381241843104,-0.255045020648837,2.10219790494442,2.934114885048568,9.118229928943514,-0.3942335247993469,-0.1791776418685913,0.1717125326395034,-0.7948880765784774,-0.0591337036249919,0.1777719212274485,0.5771076986357545,-1.333194136619568,-0.0384300351142883,-0.1178381964564323,0.3784451903462409,-0.714644061115384,0.5029238029301166,0.0012899850262328,-0.0012929082149639,-0.06518135565978,-0.0336099602282047,0.0311031632354715,-0.0489524935516994,204
1722165786536810200,-0.2198847138099372,0.0250704361096024,-0.083013214251399,2.198542748325318,2.759386094652116,9.150004538866876,-0.4269670248031616,-0.2472743242979049,0.1898943781852722,-0.7967683698936084,-0.0491865880692924,0.1762392783714133,0.5759171490244671,-1.333194136619568,-0.0384300351142883,-0.1178381964564323,0.3784451903462409,-0.714644061115384,0.5029238029301166,0.0026704752817749,-0.0293900649994611,0.0145172244681627,-0.0424640513956546,0.0284515527481446,-0.016241075418971,205
1722165786576587300,-0.0516406092576682,0.021218144595623,0.3040308776140213,2.296952999803424,2.6067174526333807,9.170573279643058,-0.3371359407901764,-0.1419266313314438,0.1821683794260025,-0.7983720164628492,-0.0401159317283844,0.1755608080399924,0.5746052767282654,-1.333194136619568,-0.0384300351142883,-0.1178381964564323,0.3784451903462409,-0.714644061115384,0.5029238029301166,0.0186986923217773,-0.0741513296961784,0.1374078623244073,-0.0564708523452281,0.1112791675998363,0.1088217736435122,206
1722165786616364300,0.1882692399710416,-0.1604921752512454,0.0634942747890949,2.346741405323148,2.457130117756128,9.199223035544156,-0.3586009740829468,-0.0583699904382228,0.1713316887617111,-0.800583181074221,-0.0327756852713066,0.1729043655308627,0.5727970438641079,-1.333194136619568,-0.0384300351142883,-0.1178381964564323,0.3784451903462409,-0.714644061115384,0.5029238029301166,0.0550711639225482,-0.0803101882338523,-0.1184751526516862,-0.0338406041264534,-0.0963828190374188,0.1883174082280136,207
1722165786656141600,0.2169509984456002,-0.0515497161038219,-0.2815747156560421,2.40544786131382,2.326190930856019,9.218082049793004,-0.3197844922542572,-0.2274132221937179,0.1111169606447219,-0.801974539985494,-0.0257758150601022,0.171301523927968,0.5716889358712272,-1.333194136619568,-0.0384300351142883,-0.1178381964564323,0.3784451903462409,-0.714644061115384,0.5029238029301166,0.0753289684653282,-0.0427426882088184,-0.0455773819622583,-0.0266768019646406,0.028377667811315,0.099326863999525,208
1722165786695918600,0.8727049175664782,0.1945120798833668,-0.1862608227580785,2.481272333104908,2.185922920726985,9.23230288284719,-0.4355899393558502,-0.063058316707611,-0.0609954670071601,-0.8017906746222333,-0.0174339856404865,0.170234001420402,0.5725803510389981,-1.333194136619568,-0.0384300351142883,-0.1178381964564323,0.3784451903462409,-0.714644061115384,0.5029238029301166,0.0619786009192466,0.0017789673293009,-0.1060198040332179,-0.0338958166539669,-0.0583368828927632,0.0797458099532872,209
1722165786735695600,0.5014398479826748,0.1776350332319736,0.0790899033278226,2.399434738504141,2.000041160414368,9.295855609825251,-0.5938729643821716,0.4048661589622497,-0.085587054491043,-0.8014542682335534,-0.0115783583325034,0.1609633572289987,0.5758713869842562,-1.333194136619568,-0.0384300351142883,-0.1178381964564323,0.3784451903462409,-0.714644061115384,0.5029238029301166,0.0449364855885505,0.0068100630305707,0.0067771168940293,-0.0749220997095108,0.0202199204886448,0.0019497772235044,210
1722165786775464000,0.0278812557466328,0.0776055099889636,0.2416577158093452,2.2775854515105483,1.7997478667810558,9.367171372020245,-0.4635798335075378,0.1463098973035812,-0.0711354315280914,-0.8019283809218182,-0.0065713588277891,0.1495459841910321,0.5783628588042931,-1.333194136619568,-0.0384300351142883,-0.1178381964564323,0.3784451903462409,-0.714644061115384,0.5029238029301166,0.0293710865080356,-0.0424045883119106,-0.000467470382338,-0.0917861685156822,0.0262459210462053,0.011677764400182,211
1722165786815240700,-0.8810695719383657,-0.3270198312744498,0.2322363919913768,2.3057691973350942,1.679594131658971,9.382578199988602,-0.2142289876937866,-0.329934298992157,-0.0160408411175012,-0.8007585196503112,-0.0003171137127729,0.1470426380473677,0.5806583690193337,-1.333194136619568,-0.0384300351142883,-0.1178381964564323,0.3784451903462409,-0.714644061115384,0.5029238029301166,0.007113482337445,-0.0102636311203241,-0.0620006615307414,-0.0679990574717521,0.0007718531638209,0.019344822721125,212
1722165786855017200,-0.9990659828960896,-0.1490942906633019,-0.2865753004223108,2.489456516343355,1.6171888211503624,9.34653365766108,-0.1365845054388046,-0.5192968249320984,0.2343419343233108,-0.8007279516340706,0.007662218715585,0.1529728632367488,0.5791160058650707,-1.333194136619568,-0.0384300351142883,-0.1178381964564323,0.3784451903462409,-0.714644061115384,0.5029238029301166,0.0018775144126266,-0.0421103425323963,-0.0702082393445074,-0.0539225563406944,0.0187861419505265,0.0492134369096718,213
1722165786894793700,0.1660083083242177,0.0282728854127228,-0.6233785668253898,2.6411928459480403,1.48157039039284,9.327348480197786,-0.4379863142967224,-0.1391545981168747,0.3033018112182617,-0.8028201641993727,0.0172577084749326,0.1553696810377362,0.5753626023478051,-1.333194136619568,-0.0384300351142883,-0.1178381964564323,0.3784451903462409,-0.714644061115384,0.5029238029301166,-0.0004385572392493,0.0029698319267481,-0.1370600352674257,-0.06119354814291,-0.0246385018325876,0.0263272266710875,214
1722165786934570200,1.369195764839649,0.3524244677744805,-0.1067301899254321,2.586922911100089,1.2545337590016423,9.375732279616594,-0.6275240182876587,0.4174111485481262,0.1239582523703575,-0.805599254851306,0.024671484315057,0.1461574407696918,0.5736194525403397,-1.333194136619568,-0.0384300351142883,-0.1178381964564323,0.3784451903462409,-0.714644061115384,0.5029238029301166,0.0066889114677906,-0.0012546743964776,-0.1312459056285675,-0.0613249689340591,0.0075697068852023,0.0484176331897499,215
1722165786974346800,0.8458106270305812,0.1430148976843804,-0.0579734655410051,2.451603609419614,1.0094939264733345,9.441448322108387,-0.607284665107727,0.1492597907781601,-0.0393540933728218,-0.8068927891595115,0.0308827489616015,0.1329148599859452,0.5747207940035309,-1.333194136619568,-0.0384300351142883,-0.1178381964564323,0.3784451903462409,-0.714644061115384,0.5029238029301166,0.0220171008259058,-0.0047838678583502,-0.1592413349399343,-0.0744477808475494,-0.0034454186129849,-0.0693154278237838,216
1722165787014123800,0.3485410504698753,0.0275124954994767,0.2637953133374452,2.480058573400974,0.835896551259607,9.450977197954058,-0.3902275264263153,-0.3046834170818329,-0.1407707184553146,-0.804930024688014,0.0394833397191139,0.1287452004346121,0.5778870875950312,-1.333194136619568,-0.0384300351142883,-0.1178381964564323,0.3784451903462409,-0.714644061115384,0.5029238029301166,0.0369150005280971,4.02356963604e-05,-0.1244488658995833,-0.0891569256782531,0.0046587884453852,-0.0861369722951203,217
1722165787053900300,0.0381771704420447,-0.0739835931647568,0.2561409991919994,2.626718914915621,0.713085871887952,9.421371748763322,-0.3129073083400726,-0.4182330667972564,-0.1209706217050552,-0.8022376706700989,0.0495252547651238,0.1311143949649552,0.5803198396007554,-1.333194136619568,-0.0384300351142883,-0.1178381964564323,0.3784451903462409,-0.714644061115384,0.5029238029301166,0.0407362729310989,-0.0199786238372325,-0.0371379498876864,-0.0801817402243614,0.0594910030976403,-0.0645089134580455,218
1722165787093676800,-0.2562348149552941,-0.2670299844097346,-0.1299701957374811,2.7750845990434287,0.6267587838482112,9.384906350675225,-0.214671716094017,-0.3587810099124908,-0.0419498644769191,-0.7997254720746099,0.0580656437886575,0.1346526375174986,0.5821822781248609,-1.333194136619568,-0.0384300351142883,-0.1178381964564323,0.3784451903462409,-0.714644061115384,0.5029238029301166,0.0231547988951206,-0.0252187792211771,-0.2083952054157853,-0.0525072067975997,-0.0487498197196051,-0.0401453972085146,219
1722165787133449200,-0.0356304085686802,-0.1861206471024081,-0.0039870238095521,2.816944549651444,0.5177175770340487,9.379081590044498,-0.3970865309238434,0.1673821359872818,0.0466652289032936,-0.7993540100195113,0.0639461650930465,0.1330819148842895,0.5824373228336239,-1.333194136619568,-0.0384300351142883,-0.1178381964564323,0.3784451903462409,-0.714644061115384,0.5029238029301166,0.0228124670684337,-0.0483975373208522,-0.1028148248462937,-0.0806844606995582,0.0763365357993403,-0.1049985438272357,220
1722165787173226200,-0.2632844412058591,-0.0118411348434165,-0.074111530393362,2.7263193990916013,0.3325146292984485,9.414191481870413,-0.5013633966445923,0.220493271946907,0.0935654565691948,-0.8001819334425067,0.0688277835913896,0.1235821505366467,0.5828372114281216,-1.333194136619568,-0.0384300351142883,-0.1178381964564323,0.3784451903462409,-0.714644061115384,0.5029238029301166,0.0206390172243118,-0.033020656555891,-0.1682560872510075,-0.0832888707518577,0.0178085176735825,-0.0231987696193624,221
1722165787213002800,0.2732575536876916,0.092292316587083,0.1723024400323629,2.668318168760836,0.1582009955741465,9.435328962445258,-0.385685384273529,0.1303155422210693,0.0067760446108877,-0.8006826144575727,0.074272925321611,0.1158258802238168,0.5830738833910054,-1.333194136619568,-0.0384300351142883,-0.1178381964564323,0.3784451903462409,-0.714644061115384,0.5029238029301166,0.0250934660434722,-0.0125829093158245,-0.2135018991713412,-0.092303030192852,0.0055580656686914,-0.0681614537493791,222
1722165787252755000,0.2298977199107408,0.122619741643127,0.0906453165650367,2.6148624729052186,0.0153460650912951,9.451594453069568,-0.4127627909183502,0.1590222865343094,-0.0404500551521778,-0.8001229374739038,0.0787321563758853,0.1091055846118571,0.5845515241783884,-1.333194136619568,-0.0384300351142883,-0.1178381964564323,0.3784451903462409,-0.714644061115384,0.5029238029301166,0.0289685130119323,-0.0070060133002698,-0.1803518179100006,-0.0904393568634986,-0.0203619798574363,-0.0557018171148607,223
1722165787292530200,0.3866653216809034,-0.0178642767236102,0.5137970791220665,2.565834238103032,-0.114864332610229,9.464337614786624,-0.2537045776844024,0.0938716903328895,-0.0621304996311664,-0.7992058915592376,0.0828343735967684,0.102915223394838,0.586359009068211,-1.333194136619568,-0.0384300351142883,-0.1178381964564323,0.3784451903462409,-0.714644061115384,0.5029238029301166,0.0064770109020173,0.0293807033449411,-0.1310421084184665,-0.070683516561985,0.0161937816615449,-0.0887644347218796,224
1722165787332305400,0.1339803081616759,0.0068709634817205,0.322092019483447,2.5618907611742614,-0.1654868782659992,9.464656179216504,-0.0885790213942527,-0.090513065457344,-0.1082647070288658,-0.7979488549072528,0.0850307023083673,0.1010278092917918,0.5880823283578747,-1.333194136619568,-0.0384300351142883,-0.1178381964564323,0.3784451903462409,-0.714644061115384,0.5029238029301166,-0.0085912253707647,0.0272146183997392,-0.1379750494868029,-0.0635740906000137,0.0047224984772503,-0.0868216209578793,225
1722165787372080600,-0.0333104411885142,-0.0856253512448631,-0.0054652796685695,2.6377529346272346,-0.1784850741900503,9.443557861608266,-0.0467529371380806,-0.3204787075519562,-0.0803432315587997,-0.7963442957714769,0.0881378713775419,0.1036545062087363,0.5893413353238973,-1.333194136619568,-0.0384300351142883,-0.1178381964564323,0.3784451903462409,-0.714644061115384,0.5029238029301166,-0.0097060408443212,0.0502721555531024,-0.1555651306452229,-0.052472960203886,-0.0195190970092196,-0.0094809753042907,226
1722165787411855600,0.1113596032917499,0.0944585181776434,0.0634293928593397,2.719035671824217,-0.1797519157880917,9.420452295830843,-0.0367045924067497,-0.0794572606682777,-0.0892758443951606,-0.7946335941956483,0.0909567160774014,0.1068526404661887,0.5906495622194811,-1.333194136619568,-0.0384300351142883,-0.1178381964564323,0.3784451903462409,-0.714644061115384,0.5029238029301166,-0.005862773861736,0.0566429160535335,-0.1525203287223819,-0.048825055360794,-0.0642326081341598,-0.073795450181514,227
1722165787451630800,-0.3097837420523166,0.0290722738957963,-0.3106324678361415,2.678696647173166,-0.2180645857106894,9.431194054597617,-0.1902180910110473,0.1575023829936981,0.079697385430336,-0.7947436067641893,0.0912951281295909,0.1039621927319575,0.5909650204302024,-1.333194136619568,-0.0384300351142883,-0.1178381964564323,0.3784451903462409,-0.714644061115384,0.5029238029301166,-0.0292702876031398,0.0556456744670867,-0.0827515037084463,-0.0381081998348236,-0.0162692740335711,-0.1081162191900424,228
1722165787491407000,-0.219636145876348,0.0834443174113519,-0.182371414104104,2.6690537895590065,-0.3064043835460208,9.431471117973327,-0.2776748836040497,-0.0234269779175519,0.0072722779586911,-0.7947304220168784,0.094650910125,0.1008463793784,0.5909947591881535,-1.333194136619568,-0.0384300351142883,-0.1178381964564323,0.3784451903462409,-0.714644061115384,0.5029238029301166,-0.0499192290008068,0.0547880642116069,-0.0843938914874568,-0.0274043343961238,-0.0502935283305356,-0.0788350426507648,229
1722165787531182300,-0.185056999926269,-0.3711080158585682,0.3320511034399271,2.669190859942138,-0.371094425724633,9.429109065017103,-0.119994543492794,-0.0201722681522369,0.0990866348147392,-0.7948275790134427,0.0973090260639577,0.0988948650594308,0.5907622027848353,-1.333194136619568,-0.0384300351142883,-0.1178381964564323,0.3784451903462409,-0.714644061115384,0.5029238029301166,-0.0423891842365264,0.0151649806648492,-0.0038320404562837,-0.0288825761526823,0.0248223179838736,-0.0559418638152768,230
1722165787570957300,0.3498927573397755,-0.2943297504739836,0.5163865110933781,2.6079934639185667,-0.4011857587361708,9.44498818667233,-0.0394687354564666,0.2663960754871368,0.1570843011140823,-0.7967334142822372,0.0963775514871261,0.0956607551618019,0.5888771626313314,-1.333194136619568,-0.0384300351142883,-0.1178381964564323,0.3784451903462409,-0.714644061115384,0.5029238029301166,-0.0009828655747696,0.0443047173321247,-0.1299712734497152,-0.0261443238705396,-0.0219158628025092,0.0204918259153375,231
1722165787610732800,0.5237096935883164,0.1151099688012152,-0.2239303359389305,2.5684017505034804,-0.4220167671777308,9.454924474275112,-0.0007084803655743,-0.0667913034558296,0.0008629407966509,-0.7978338564759845,0.0958617362694606,0.0935068664315034,0.5878164287110714,-1.333194136619568,-0.0384300351142883,-0.1178381964564323,0.3784451903462409,-0.714644061115384,0.5029238029301166,0.0349029898643493,0.016175590455532,-0.120744604554167,-0.0493356958031654,0.0290886633415939,-0.023087616845488,232
1722165787650508000,0.2452373278617858,-0.0056988692287355,-0.2093178732186555,2.590694538593292,-0.4480023819034919,9.447644254139066,-0.0523533709347248,-0.0478420555591583,-0.0387627519667148,-0.7974698012521586,0.0976708294962089,0.0936195060862332,0.5879946887929601,-1.333194136619568,-0.0384300351142883,-0.1178381964564323,0.3784451903462409,-0.714644061115384,0.5029238029301166,0.0449072532355785,0.0123317409306764,-0.0782681203498505,-0.0217910911887884,-0.035582601071312,-0.0645298101156018,233
1722165787690283000,0.198958684028685,0.009824278595671,-0.0006488192975521,2.6437068745955825,-0.4457186183478683,9.433055172294376,0.0271640140563249,-0.0678982138633728,-0.0741167813539505,-0.7964738795187524,0.0993458129994714,0.0958041566791371,0.5887116219812952,-1.333194136619568,-0.0384300351142883,-0.1178381964564323,0.3784451903462409,-0.714644061115384,0.5029238029301166,0.0144790485501289,0.0144887194037437,-0.0629437282342463,0.0002253672573715,-0.0103706992479623,-0.0970189249838702,234
1722165787730058500,-0.0616466010957956,-0.0326294366544112,-0.205465873965621,2.6780598105743527,-0.4310974973971024,9.424040091189742,-0.0109585523605346,0.0109035866335034,-0.0168445035815238,-0.7957241882459463,0.0999084390437244,0.0976010851135397,0.589334706544682,-1.333194136619568,-0.0384300351142883,-0.1178381964564323,0.3784451903462409,-0.714644061115384,0.5029238029301166,-0.0093750301748514,-0.0038891867734491,-0.0460529727179091,0.0229435861110687,-0.0090108050758513,-0.0287146446807193,235
1722165787769833500,0.1139569263085722,0.1508618848577141,-0.1971457893878221,2.6927953151524067,-0.4425056476507336,9.419311309102175,-0.0651147589087486,-0.0010182664263993,-0.0748717933893203,-0.795155736995411,0.10092255225128,0.0977927236445305,0.5898970283340133,-1.333194136619568,-0.0384300351142883,-0.1178381964564323,0.3784451903462409,-0.714644061115384,0.5029238029301166,-0.0209927912801504,0.0085305823013186,-0.0753710198020096,0.0385907776653766,-0.0079130758211307,0.0147675779334618,236
