time_imu,phone_acc_x,phone_acc_y,phone_acc_z,phone_gravity_x,phone_gravity_y,phone_gravity_z,phone_gyro_x,phone_gyro_y,phone_gyro_z,phone_ori_w,phone_ori_x,phone_ori_y,phone_ori_z,watch_gyro_x,watch_gyro_y,watch_gyro_z,watch_acc_x,watch_acc_y,watch_acc_z,headphone_gyro_x,headphone_gyro_y,headphone_gyro_z,headphone_acc_x,headphone_acc_y,headphone_acc_z,frame_imu
1733460967254174000,2.102867474769056,16.177145985901355,-4.965967041873932,0.3820146828634664,9.681878541949391,-1.5118443864949047,-1.1752663850784302,-0.1806000173091888,-0.5862101912498474,0.5901140368396415,0.6762081616158784,-0.346157676690842,-0.2732814938134936,1.7698218822479248,1.2716175317764282,-0.9686517119407654,-1.2573682069778442,1.388305425643921,-0.4194123744964599,0.3742456436157226,-0.1204579100012779,0.132141110035777,-0.315235435962677,0.1549955505963414,-0.0405763405382633,0
1733460967294174000,2.2783330550074576,9.20490458831191,-7.515047129052877,0.0597545357049209,9.780365804186465,-0.7150205662775785,-2.8887531757354736,-0.2187642604112625,-1.03101646900177,0.6119089513262803,0.6563021375168907,-0.3251513619564236,-0.2985155528638324,2.398587226867676,1.338150143623352,-1.8379418849945068,-0.8478148579597473,0.8197489976882935,0.0555773377418518,0.3892589807510376,-0.1356029063463211,0.7091355268269777,-0.4660050272941589,0.0682728143025189,0.1281339202210307,1
1733460967334174000,1.4190981521278618,-0.8145727543324232,-4.49757445409894,-0.3678941318459808,9.782803260466457,0.5760219915624708,-3.323658466339112,-1.1694837808609009,-1.05066180229187,0.6417772225272493,0.6168434298568666,-0.3002253057343594,-0.3427695484823866,1.9047770500183103,0.7977414727210999,-2.5099544525146484,-0.1066381335258483,0.2142612934112548,0.4168215990066528,0.3498309850692749,-0.1222218945622444,0.919086437252164,-0.4753961265087127,0.000928476489149,0.5959565991535782,2
1733460967374174000,0.1675772381413728,-9.244077491793036,-2.973260023739934,-0.6506071308169513,9.632385904505847,1.7216911058932542,-2.475455045700073,-1.1186398267745972,-0.7466290593147278,0.6629907164515849,0.5756827730524624,-0.28426665373047,-0.3850000290790482,1.1391661167144775,0.5032665133476257,-2.234637498855591,0.6479234099388123,-0.2287008762359619,0.694786012172699,0.3104029893875122,-0.1088408827781677,1.131234565460682,-0.4847872257232666,-0.0644838338157162,1.0626891447618605,3
1733460967414174000,-0.3847701555840671,-14.561997438406944,-1.8709426329448813,-0.8313348693672568,9.425837496000527,2.575437055967748,-1.7483952045440674,-0.8544416427612305,-0.5464292168617249,0.6762090244311737,0.5427731370742268,-0.2721885012014205,-0.4171956683958073,0.9208362698554992,0.3072311580181122,-1.4018338918685913,1.30107581615448,-0.6300398111343384,0.568138599395752,0.1378960162401199,0.1567549109458923,-0.4223854543596506,-0.076699823141098,-0.2513388596072793,0.5415267975687981,4
1733460967454174000,-0.2333016100700944,-16.71603074452877,-0.2128086379438638,-0.8883818677131086,9.30971696191728,2.9513261320903896,-0.241628810763359,-0.0895133316516876,-0.0721249878406524,0.6816897515666986,0.5274540154655405,-0.2670515031049202,-0.4310160462208179,0.0332496911287307,0.4326614737510681,-0.3221712410449981,1.5792601108551023,-0.646486759185791,0.5610687732696533,0.1616449356079101,0.0708823874592781,-0.9475602520644664,-0.1173925101757049,0.0056183878710493,-0.1761620380699634,5
1733460967494174000,0.7582567006096244,-15.368193409538268,-0.9393161553323268,-0.8763208430413156,9.324779506492614,2.9070506447732445,0.4298829138278961,-0.2711505591869354,0.0494001731276512,0.6796977390532374,0.5282648234883011,-0.2696626362722966,-0.4315430525801397,-1.1672298908233645,0.5555616617202759,1.2601900100708008,1.4047374725341797,-0.7854154109954834,0.3313230872154236,0.2072043120861053,-0.0298574417829513,-0.8068646641731262,-0.1488412171602249,-0.0915653083536308,-0.3651373804837465,6
1733460967534174000,-0.4046273140247911,-11.317429826003313,0.1417334065064787,-0.743691584162414,9.420174063411354,2.622522047747672,1.230523705482483,-0.3059493005275726,0.5262386202812195,0.6715900476763448,0.5345774897565687,-0.2837525187378131,-0.4274087285464112,-1.8737350702285769,-0.0123442625626921,2.265176057815552,1.0619584321975708,-0.5175684690475464,0.3466867506504059,0.2351236343383789,0.0270214527845382,0.219240716817975,-0.1367257386445999,-0.4766158609148114,-0.627570757818222,7
1733460967574174000,1.282811466719955,0.4940022453278302,2.007174957817048,-0.4596550449701025,9.573465513503551,2.075537277033925,1.5719680786132812,0.1702508330345153,0.6758531928062439,0.6613358236816208,0.5487150627557815,-0.3051046254757353,-0.4104361624180286,-3.3035998344421387,-1.885451316833496,2.2516019344329834,0.430833101272583,-0.1827845573425293,0.1359633952379226,0.3501350879669189,0.2499444186687469,0.0709106885254383,0.3594585657119751,-0.1395623643440194,1.4446096100032328,8
1733460967614174000,0.6775793819598853,6.201560976475477,0.8807118445418775,-0.2780468703234568,9.693991589069366,1.4558791920363905,1.6132055521011353,0.5988380908966064,0.3715671002864837,0.6492661989615066,0.5684893544216171,-0.3202977903968417,-0.3907460571898374,-2.5320067405700684,-1.413893461227417,0.5937142372131348,-1.049358367919922,0.6189119219779968,-0.0398025512695312,0.1972993910312652,0.1468397080898285,0.4145440932095051,0.715147852897644,-0.0492996675881324,0.4495212985664605,9
1733460967654174000,0.1682771300390362,9.16738295916915,1.6607611286342143,-0.2438439738072454,9.770452897459268,0.8057152018770575,1.896700978279113,0.5385146141052246,0.0600801892578601,0.635326568326102,0.5934424869478884,-0.3267200234286004,-0.370729259847948,-1.235853910446167,-1.4159725904464722,0.5762267708778381,-0.6218273639678955,0.5538360476493835,0.1388411521911621,0.2824669480323791,0.1644435971975326,0.7921744600415229,0.5905982255935669,-0.4628444521285593,-0.1037424062862992,10
1733460967694174000,-0.7016277815453708,5.65260958186388,-1.7318635403394698,-0.1542995676888152,9.805404383853077,-0.0253311191726708,1.865680694580078,-0.0016778674907982,0.4070856869220733,0.6129081741627079,0.6199509038183618,-0.3419830471159372,-0.3507879288371297,-0.8848260641098022,-0.6896652579307556,0.1472345143556594,-0.6033379435539246,0.5856974720954895,-0.0887003988027572,0.2188084870576858,0.2757115960121155,0.2525233932167292,0.6285874843597412,-0.2797314258769154,0.4289654172718524,11
1733460967734174000,1.3938538207560778,4.246334086430073,-4.070651356309652,-0.0361916431976133,9.800596691310403,-0.3426107105728239,-0.1264120042324066,0.2493218928575515,0.1876132935285568,0.6060395881691706,0.6288895992538301,-0.3492365351194935,-0.3394815662085146,0.5217546820640564,-0.4394110739231109,-0.0681945085525512,-0.394003689289093,0.45375657081604,-0.1893952041864395,0.1126535534858703,0.179651141166687,-0.0013771335721015,0.6289793252944946,-0.1390158546434715,0.128799106131494,12
1733460967774174000,0.3103554044604301,2.699881474021077,-0.5335527499496936,0.0350081256516044,9.804135971352457,-0.2192746190875768,-0.3176854252815246,-0.1272789984941482,0.1341429054737091,0.6115973926065338,0.6241879278439161,-0.3486679290836896,-0.338775341825147,0.1728981286287307,-0.1285128891468048,-0.0797036960721015,-0.237801969051361,0.1122629642486572,0.0133695602416992,0.0845004990696907,0.1100504845380783,-0.1224158348351717,0.4893566370010376,-0.1722904938662424,-0.056356677994132,13
1733460967814174000,0.3533016159351915,1.1106266617178917,0.7277519644916057,0.0308179919018293,9.805886614412069,-0.1185772978519089,-0.1725899577140808,-0.1606899201869964,-0.119230218231678,0.613534934419986,0.6199051845835281,-0.348946015757587,-0.3428254769383321,-0.0167370419949293,0.0875855311751365,-0.0608595684170722,-0.088183581829071,-0.0511784553527832,0.0466147512197494,0.0354163534939289,0.0354380905628204,-0.0896089592546224,0.2594296634197235,-0.1864994538195431,0.0378188585236668,14
1733460967854174000,-0.0310233577312203,-0.4923953946530818,1.582673680347204,-0.0209009889548295,9.805839852660894,-0.1243049273842479,0.2153571993112564,0.0744173526763916,-0.1133161708712577,0.6121323218123729,0.6206843847636159,-0.3479779908427603,-0.3449002981795352,-0.0748972818255424,-0.0056761871092021,-0.1047872155904769,0.0581732392311096,-0.0426169633865356,0.0229500457644462,0.0336236245930194,0.0186629947274923,-0.1307213063657283,0.2144605070352554,-0.1710368770759552,-0.0258048878639936,15
1733460967894174000,0.4657871179843321,-1.047933766439557,1.3571148664236068,-0.0574262206215178,9.802781049612165,-0.269399636150524,0.5289223194122314,0.2475345432758331,-0.0956187844276428,0.608145776653398,0.6271318775192424,-0.3470463465262294,-0.3412084445259544,-0.2776554524898529,-0.2427545636892318,0.0511355437338352,0.1239505410194397,-0.0551261305809021,0.0024114996194839,0.0419578738510608,0.0232578162103891,-0.1428238320916891,0.2026917189359665,-0.1926444959132,0.0352554377764463,16
1733460967934173700,0.8278823908258229,1.7791081065952776,0.945143838572502,-0.1275784691622015,9.792966927084326,-0.5019174023665487,0.5932917594909668,0.1624881774187088,-0.3371317386627197,0.6008386590344037,0.6369828102022634,-0.3461842941065297,-0.3367525708473224,-0.550713062286377,-0.4166449904441833,0.3199920356273651,-0.0597749948501586,0.027087390422821,-0.136151909828186,0.0768143087625503,-0.0754402950406074,-0.2279658750653266,0.1554466933012008,-0.0276571646671742,-0.1410956931248307,17
1733460967974174000,0.2386028400170616,11.272446190416812,-0.7089373739063739,-0.3030966107049025,9.784556826135516,-0.5839315956432372,-0.3710518777370453,-0.0105504496023058,-0.479750394821167,0.5956517186387069,0.6431035703145858,-0.3408665778358098,-0.3397452590232681,-0.1045329347252845,0.5567162036895752,-0.3831260502338409,-1.009116530418396,0.8808999061584473,-0.3275308609008789,0.1291223913431167,-0.078462928533554,0.6631605421155691,0.0073627978563308,-0.3238805468680337,-0.2148465735122561,18
1733460968014174000,-1.3686501136556266,14.802371544146537,-2.444198155468702,-0.4466036940867081,9.794308989343046,-0.206033243791107,-1.6244521141052246,0.0725901648402214,-0.2340912967920303,0.605078867740414,0.6336256896320669,-0.3301867011515977,-0.3512475103507267,2.3239734172821045,1.461665391921997,-0.7784995436668396,-1.31605064868927,1.2416458129882812,-0.0090368837118148,0.1746893972158432,-0.055976066738367,0.7505372122734785,-0.1141844913363456,-0.1838096302136778,0.2641746680438518,19
1733460968054174000,-0.6778576143793761,8.112256650876999,-3.757469788512587,-0.503681197168678,9.77662077243924,0.5782691859673709,-2.195826530456543,-0.1094627603888511,-0.081060916185379,0.6295994676905995,0.6104142845621403,-0.3129071386995502,-0.3648125001888163,2.8245320320129395,1.651249647140503,-1.6091163158416748,-0.6630134582519531,0.5836398601531982,0.3390806317329407,0.1145799756050109,-0.0247966777533292,0.8109750221014023,-0.0207709595561027,-0.1628315779842436,0.8816805434435605,20
1733460968094174000,0.304204772876203,-2.537615274834633,-4.1535821529746055,-0.5303070460267365,9.688048170495032,1.4250899398885666,-2.088444471359253,-0.4048887193202972,-0.141218826174736,0.652890827034833,0.5812225398879582,-0.2992005848841441,-0.38261326305463,2.904224872589112,1.5370762348175049,-2.0479044914245605,0.1858851313591003,-0.015012502670288,0.5041085481643677,0.0346435979008674,-0.0093596065416932,0.2469382865607738,0.169936865568161,-0.0859910244857892,0.7755214314043521,21
1733460968134174000,1.153961799445003,-12.85554189556837,-3.651242287412285,-0.593718355240114,9.505305000469088,2.3381724605508145,-1.6244451999664309,-0.783790111541748,-0.2774353921413421,0.6727225789088993,0.5464725528654456,-0.2866254215222936,-0.4082375297950011,1.6922690868377686,1.0251634120941162,-1.2181042432785034,1.148194670677185,-0.6758578419685364,0.6376670598983765,0.0483608841896057,-0.0531986281275749,-0.1690752946794033,0.1204928010702133,-0.015792247089371,0.3190291247814893,22
1733460968174174000,0.5724248438533395,-15.63008961125612,-1.9235387893617155,-0.6044472545253112,9.364913363960383,2.846653166955709,-0.9467244148254396,-0.3481491804122925,-0.1175897121429443,0.6811231072568589,0.5244452031442942,-0.2825213454736684,-0.4256880405097134,0.3579486906528473,0.5155497193336487,-0.5055150985717773,1.5343966484069824,-0.686345100402832,0.563590407371521,0.0620781704783439,-0.0970376580953598,-0.5843617306888104,0.0710487365722656,0.0542479056792333,-0.1376619192838668,23
1733460968214174000,-0.2593695693170652,-15.8657548086524,-0.3323915874406695,-0.5534617116428912,9.307287104421851,3.039485477058589,-0.0095235463231801,0.0953636988997459,0.3373174965381622,0.6870457365137427,0.5162062188064261,-0.2802864806880785,-0.4277134158917607,-0.4132596254348755,0.4296716153621673,0.4102160036563873,1.3504786491394043,-0.7051078677177429,0.4431393444538116,0.0606834404170513,-0.0623617023229599,-0.4341045337259769,0.0387860164046287,0.0337055414533242,-0.0079050740361213,24
1733460968254174000,0.5062571120712905,-12.303337052118778,0.9720677935943008,-0.4297920773543417,9.367146822100878,2.870924853903055,0.8381752371788025,-0.0761164873838424,0.3582461774349212,0.6859053847402704,0.5210175733902382,-0.2866430935870927,-0.4194164460256449,-1.1372746229171753,-0.1253439933061599,1.669714093208313,1.145247459411621,-0.8388923406600952,0.3112663924694061,0.0592887140810489,-0.0276857465505599,-0.2837970678806304,0.0065232962369918,0.0131375313295051,0.1218883038297295,25
1733460968294174000,0.527389112753421,-5.419924861583113,2.0047557678461074,-0.2194350520799867,9.518648466166852,2.3489500212833283,1.9137548208236688,-0.1940686851739883,0.6259208917617798,0.6744835949071737,0.5354949438487028,-0.3057483320046077,-0.4059988068137059,-2.880350351333618,-1.1729940176010132,2.160158157348633,0.7310363054275513,-0.4248802065849304,0.1650059223175048,-0.0106088258326053,-0.1545526832342147,0.06344751303792,0.2989735603332519,0.1359259806030429,0.9656085344523192,26
1733460968334174000,-0.0077751743209373,4.460410552352666,-0.314655293611437,-0.0148199097672535,9.671513799801469,1.6223378744766117,1.7753387689590454,-0.1340540945529937,0.3952370882034302,0.6566499210669277,0.5561794478639699,-0.3285547301721671,-0.3892647302259931,-2.543698072433472,-2.2779905796051025,1.377004861831665,-0.1770247220993042,0.2098704576492309,0.0335100293159484,-0.0562798418104648,-0.0688306614756584,0.2148018575876951,0.4665775299072265,-0.0140305529127828,0.502711475353688,27
1733460968374174000,1.0343580994211137,8.851625987926125,1.3040946393758055,0.0587444270806154,9.766733584675192,0.8819611870158464,2.127035856246948,-0.0385709032416343,-0.02545627951622,0.6357895703113714,0.5788917498135557,-0.3462901061339443,-0.3751521863816761,-1.9714102745056152,-1.5128390789031982,0.9495272040367126,-0.7746982574462891,0.5661874413490295,0.190515398979187,-0.044050458818674,-0.0059369802474975,0.1574561685562133,0.3567000925540924,0.0019280454531311,0.1495388195604085,28
1733460968414174000,-0.0062396684244158,7.360729258522391,-1.7186936776429411,0.037962742240075,9.80644483281672,0.0508326584422262,1.7749053239822388,0.1961434483528137,-0.0979034602642059,0.6107393130517951,0.60619078894547,-0.3604732765215312,-0.3599850807752235,-1.1228983402252195,-0.7935863137245178,0.3601836562156677,-0.7321646213531494,0.660067081451416,-0.0333168506622314,-0.0318210758268833,0.0569567009806633,0.1031353803038597,0.2468226552009582,0.0182045141291804,-0.2043734025537967,29
1733460968454174000,0.8232315693452954,5.629008341524004,-2.225715563541651,-0.021623074417992,9.799077518919107,-0.3847120321886614,0.6023189425468445,-0.0161456409841775,-0.1474650204181671,0.5966777132616441,0.6213706976836513,-0.365394731815033,-0.3526483689229116,-0.5366854071617126,-0.4936447441577911,0.0796362310647964,-0.5088975429534912,0.5110189318656921,-0.1422126442193985,-0.000392023473978,0.0365904010832309,0.0027969372421503,0.034574881196022,-0.0316013539819978,-0.2717906960055232,30
1733460968494174000,-0.4688133339377119,2.9393361268281937,-1.522394275951385,-0.048034803318046,9.79452409339845,-0.4851435238286852,-0.0243924297392368,0.0200125575065612,0.0150005249306559,0.5928896414633252,0.6247885094795931,-0.3665716219507295,-0.3517760130309788,0.027218697592616,-0.0530019961297512,-0.0417378060519695,-0.2966823577880859,0.3223274350166321,-0.0584903955459594,-0.0163059588521718,0.0246844999492168,-0.0857265648633241,-0.0350794121623039,-0.0642981202515773,0.0649500265553593,31
1733460968534174000,0.0191522638576687,1.071509287816286,-0.1592248952617868,-0.0278312060598284,9.796220375922324,-0.4512966742085292,-0.1031729206442833,0.0832829475402832,0.0802255347371101,0.594762071555587,0.6238343998658563,-0.3658419985579256,-0.3510674331940452,0.1760076433420181,0.1406633853912353,-0.0265239644795656,-0.1598765254020691,0.1671501994132995,0.00287726521492,-0.0565594807267189,-0.001184694468975,-0.099223759818077,-0.0240479037165641,-0.1045362418114207,0.0414879024252295,32
1733460968574174000,0.1211368826742284,-0.5845230587303638,0.1445359332391992,0.0175773906402057,9.798307703590392,-0.4040075016260147,-0.1302683800458908,0.0456008911132812,0.1284012794494629,0.5976141086572646,0.6221083107371274,-0.3654858395624513,-0.3496550246595221,0.1591807156801223,0.1661658734083175,-0.0733216926455497,0.0102197527885437,-0.0330316424369812,0.0021827220916748,-0.0650183707475662,0.0076087284833192,-0.0574544101029634,-0.0193994808942079,-0.0826356313769705,-0.0564559005849063,33
1733460968614174000,0.7528915203146636,-0.6591612433463334,1.1342284865796566,0.0503629814041312,9.799474993804097,-0.3716751116894185,0.0486126132309436,0.2981190681457519,0.0055997599847614,0.6002051923984996,0.6215375357258074,-0.3641994614682132,-0.3475680839545177,-0.1005019769072532,0.0011275503784418,-0.0188354179263114,0.0928711295127868,-0.0969308614730835,0.0193303525447845,-0.0262689143419265,0.00094631081447,-0.2017617587506771,-0.0128605458885431,-0.0273306726591661,-0.0966597545489668,34
1733460968654174000,1.168067920078337,2.096650207689404,1.557031874090433,-0.0067304253539798,9.79505016309917,-0.4767979760160669,0.434198260307312,0.2639889717102051,-0.3258812129497528,0.5981076862263113,0.6281778077548498,-0.3601424350345366,-0.343449119105272,-0.3881033957004547,-0.2962228953838348,0.1649274975061416,0.0932193398475647,-0.0454928278923034,0.0045979171991348,0.0032275728881359,-0.0060151661746203,-0.1200192950874566,-0.0309193115681409,-0.03714101406103,-0.2646018074147403,35
1733460968694174000,0.2977797813300043,8.935941516947747,0.2933129381142556,-0.1119302062539383,9.78447323950529,-0.6496005110576748,0.1992236524820327,0.0572560988366603,-0.199516013264656,0.5921072499920624,0.6368453784176713,-0.3571391527710585,-0.3410113994444663,-0.6884949207305908,0.1818738430738449,-0.0035724437329918,-0.4961745738983154,0.532818078994751,-0.2277053743600845,0.0555592291057109,-0.1052575930953025,0.2113467486977577,-0.102077767252922,-0.168599365997035,-0.1536395328775048,36
1733460968734174000,-0.1147836229236796,14.47024620642662,-3.1031191603183745,-0.2015500704950653,9.794388484320043,-0.4468836070066317,-1.2547926902770996,-0.0069816480390727,-0.1801764369010925,0.5964221616870895,0.6316230293208356,-0.351904919244919,-0.3485624752102214,1.1483442783355713,1.0323559045791626,-0.563167154788971,-1.3601934909820557,1.173137903213501,-0.1599351167678833,0.0945105627179145,-0.025989793241024,0.4847247138947248,-0.244258314371109,-0.1424392532208934,0.038183161791414,37
1733460968774174000,0.5825474478084594,8.85040199908912,-4.565570716482401,-0.2742940023296512,9.800129658320545,0.2293722347319126,-2.128903150558472,0.1196407601237297,-0.2900016009807586,0.6179324369909965,0.613256925127081,-0.3349943504140984,-0.3603530079194351,2.930772066116333,1.2724313735961914,-1.342034935951233,-0.8611497282981873,0.9443531036376952,0.1310262680053711,0.0329208336770534,-0.0607761889696121,0.6791039611786603,-0.2308224886655807,-0.1287239950686693,0.641782969174534,38
1733460968814174000,0.6510617427166551,-1.4426409402787683,-4.639492277261614,-0.4043095167798921,9.73421020221114,1.1189681544099002,-2.3551104068756104,-0.2408854365348816,-0.4094250202178955,0.6415463373144545,0.5857015408317773,-0.3160731026858542,-0.3814051606855666,2.753402709960937,1.2252589464187622,-1.9751375913619995,-0.1280163526535034,0.1872925758361816,0.4238491058349609,-0.0733340829610824,-0.0112476684153079,0.4442395587712526,-0.076427549123764,-0.1358739764211699,0.8484715168029069,39
1733460968854174000,-0.0152946362981572,-10.643023667252065,-3.5399335375249383,-0.5296856261927634,9.586882044437528,1.9953741915166376,-1.9950084686279297,-0.3709191977977752,-0.2719732820987701,0.6625998764169209,0.5563383848016434,-0.2979124589716047,-0.4033574091748864,2.4584689140319824,1.166574478149414,-1.874619960784912,0.6981267929077148,-0.3257750868797302,0.5613390803337097,-0.1692231893539428,0.049743466079235,-0.1514426073551177,0.0324885845184326,-0.0988552735655568,0.3727154145225882,40
1733460968894174000,-0.0869216929320245,-15.70219623156786,-2.9891829845368862,-0.5149207128571346,9.455424825012685,2.54954741242975,-1.0141927003860474,-0.670809268951416,0.1203667819499969,0.6742411646979911,0.533407013835825,-0.2923802557456877,-0.4187954959793439,0.1660159975290298,0.9294901490211488,-0.7230628728866577,1.477067947387695,-0.913796842098236,0.618465781211853,-0.1767442226409912,0.0484651178121566,-0.5894739591360092,-0.0309904590249061,0.0300530650940723,-0.2053422475859522,41
1733460968934173700,0.3803802135294303,-16.63128676096201,-2.3457594085484743,-0.3497044682260602,9.367428561651709,2.880863479593396,-0.6723501682281494,-0.4333791136741638,0.3989596664905548,0.6821419864653366,0.5153828456803978,-0.2957995229637431,-0.4261050623392585,0.3102378845214844,0.8883830308914185,0.242835059762001,1.4311065673828125,-0.6725116968154907,0.3175755739212036,-0.1339023411273956,0.0117544420063495,-0.6936112099587917,-0.0941004827618599,0.0517032992303371,-0.2797027843043208,42
1733460968974174000,0.9277832461878656,-13.840349051487443,0.2694759893223643,-0.1688212468530982,9.328624491482971,3.019707886660099,0.0490106418728828,0.0649919733405113,0.4269528687000274,0.6892119389998475,0.506832565472839,-0.2985941995344529,-0.4230236770603061,-0.6345573663711548,0.5426202416419983,1.2024797201156616,1.2635098695755005,-0.8399469256401062,0.4182119071483612,-0.0682498067617416,0.0080205192789435,-0.4468921191066503,-0.1039015799760818,-0.0181298049251548,-0.2906013410679995,43
1733460969014174000,1.399848969517648,-7.827438423255085,1.3812860156059263,-0.0781001068391837,9.409856083014606,2.7602339436531067,1.289088487625122,-0.3654733598232269,0.0560645908117294,0.6836889927333457,0.5145211681171763,-0.3074657701683926,-0.4162957192222157,-2.477020502090454,-0.3994904160499573,2.148707628250122,0.9908822774887084,-0.8405946493148804,0.2616010010242462,-0.0431980863213539,-0.0321193449199199,-0.2587842071771621,0.1477660983800888,0.0922357092953287,0.0258494576580822,44
1733460969054174000,-1.7049514218859374,3.6850416811615214,2.636271463897824,-0.0015160081813686,9.568360883840915,2.148690337658673,2.084561824798584,0.1649776995182037,0.2310965657234192,0.6657806221027353,0.5329038033162885,-0.3262833378685948,-0.4077854525046253,-3.509218454360962,-1.6300400495529177,1.3417000770568848,0.0879071354866027,-0.1037372350692749,0.2996777296066284,-0.0181463677436113,-0.072259210050106,-0.0704910018086433,0.3994337916374206,0.2026055526310577,0.3422558327205479,45
1733460969094174000,0.2379944440614431,7.47475720424056,0.4033884929448366,0.0573900761624798,9.725935710340735,1.2542967353753744,2.1251723766326904,0.1785350292921066,0.2497241497039795,0.6450447115104219,0.5651953008135417,-0.3414717212088257,-0.3845368990397998,-0.9892837405204772,-1.4456790685653689,0.2595808207988739,-0.7450911402702332,0.9462656378746032,-0.1966263651847839,0.0549801886081695,0.0220190733671188,0.3796066353410482,0.3482031226158142,-0.0571223834033124,-0.0132454121507704,46
1733460969134174000,1.5617502809144557,8.931037378293276,1.1551794316064563,0.0694493609683355,9.793862414619326,0.4957723602728918,1.912574052810669,0.2088100463151931,-0.1003411188721656,0.6240846762753149,0.5907939644921153,-0.3545209954538864,-0.368504422704742,-1.3964039087295532,-1.0576519966125488,0.3157447576522827,-0.7744265198707581,0.5743781924247742,-0.0198648013174533,0.0540303997695446,-0.0748207047581672,0.1796498801857232,0.2024394422769546,-0.0365531677030958,-0.0648752077534794,47
1733460969174174000,-0.6374814725883304,6.276209682485461,-2.372061140018701,0.0450660805724095,9.806541863450407,-0.0106179988147167,0.6525017023086548,-0.0772715732455253,0.0228369440883398,0.6076316484360315,0.6066231497459389,-0.3640737857562566,-0.3608913112847502,-0.7868062853813171,-0.6748673915863037,0.0165241695940494,-0.7283949255943298,0.5848388671875,-0.1492180824279785,0.0486273132264614,0.0672023668885231,0.0488736287623643,-0.0009613037109375,-0.078080452290643,-0.1840767567172646,48
1733460969214174000,0.9459558856077492,4.136488394832611,-1.049530095720291,0.025341846062662,9.805396785068512,-0.1547532662730664,0.1515780240297317,0.2298967689275741,-0.1330435872077942,0.6039984805539141,0.6126674001223913,-0.3640451583178548,-0.3567851788016814,-0.0714548751711845,-0.1289442777633667,-0.028692577034235,-0.3196026086807251,0.3793488144874573,-0.0529656633734703,0.0174414198845624,0.0251718647778034,-0.1282242288529873,-0.0782041624188423,0.0254880039345473,-0.0532623652406036,49
1733460969254174000,-0.1044574044215492,1.3673013293951748,-0.5267617746353149,-0.0092670362969103,9.805389186283945,-0.1569319437527097,-0.0774851739406585,0.1620128750801086,-0.0157244633883237,0.6042697049253849,0.6143600434145456,-0.3613350792470089,-0.3561695318713735,0.2356589883565902,0.1093638986349105,-0.1279139071702957,-0.1729269623756408,0.2002909779548645,-0.0080305188894271,0.0155096044763922,-0.0091086514294147,-0.1389110425621271,-0.072749450802803,-0.01839117754139,-0.1453938287101686,50
1733460969294174000,0.418933414209634,-0.2534463532805442,0.1071802809136454,0.0066360039483755,9.805711842367051,-0.1354614592306781,-0.017507703974843,0.216163083910942,0.0302654039114713,0.6068608278241439,0.6150597118679335,-0.3586198029657214,-0.3532892242480409,0.2817426025867462,0.0742689222097396,-0.1957438886165619,0.0488160252571105,0.016584575176239,0.0071301460266113,0.0295880809426307,-0.0110764876008033,-0.151969846099615,-0.0646035745739936,-0.0284015715599991,-0.2533177584648132,51
1733460969334174000,0.3246585820358246,-0.3839215759307146,0.6935176864564419,-0.00233905010761,9.805553436934948,-0.1465919707198627,0.1125509217381477,0.1048386469483375,-0.0649299845099449,0.607383576386691,0.6166169045747868,-0.3567319772789275,-0.3515836185032418,0.0518931522965431,-0.0147029180079698,-0.0353127308189868,0.0778608918190002,-0.1108125448226928,0.0090043619275093,0.0441779270768165,-0.0065328385680913,-0.2506143447250127,-0.0659456923604011,-0.1231262663931585,-0.2681939866878092,52
1733460969374174000,-0.3922810426708311,5.1831782986909145,0.7521604295611382,-0.0108424746283097,9.80452350936532,-0.2038882311190478,-0.0099754054099321,0.3387385904788971,0.0060983765870332,0.6064518005956184,0.6195880078391572,-0.3556769709171083,-0.3490283043562787,0.0347546450793743,-0.0101698450744152,-0.0365224704146385,-0.2194248437881469,0.3031386137008667,-0.1610732078552246,0.1221794784069061,-0.0037972317077219,-0.1864998922109604,-0.0686308592557907,-0.2108494667001068,-0.0183769298203289,53
1733460969414174000,0.9278854644533246,15.054461806643008,-1.261590545645356,-0.0842289467167109,9.80618062892258,0.0462339461748488,-1.3929557800292969,0.0723138824105262,-0.3375284671783447,0.6148409179629459,0.6149406284868552,-0.34567433839854,-0.3526018588396627,1.3647561073303225,1.2456845045089722,-0.5798883438110352,-1.5322171449661257,1.0442458391189575,-0.4338400363922119,0.1514420807361602,-0.0122411977499723,0.0751601626634597,-0.1799908578395843,-0.1022328785061836,0.2131697263412177,54
1733460969454174000,-0.2156398975807242,11.683784765583276,-1.378358729982376,-0.1820970724084414,9.773650232195854,0.7829509968832135,-2.142258882522583,0.2447402775287628,-0.2021885812282562,0.6363874395888562,0.5936688454124823,-0.3280821681403351,-0.367328922824897,3.0641863346099854,1.1130472421646118,-1.2458552122116089,-0.9731850624084472,1.0879334211349487,0.0319957174360752,0.1807046830654144,-0.0206851623952388,0.3374246131718159,-0.2913508713245392,0.0068161462882533,0.444376921415329,55
1733460969494174000,-0.1280016721434891,1.1948024900078773,-2.606507024753093,-0.2736255832824856,9.676369423139096,1.5695185768283904,-1.805637240409851,0.4693326354026794,-0.1252109855413437,0.6616439835051533,0.5718544267627752,-0.3048923421059173,-0.3771610317168631,2.9902830123901367,1.0970983505249023,-1.9722299575805664,-0.1497762203216552,0.3150901198387146,0.5506013631820679,0.0826173275709152,-0.0364119745790958,0.2066162130445241,-0.2338721603155136,0.0893808861197903,0.8091006065316498,56
1733460969534174000,0.7696374148670584,-9.269259279322624,-2.577989955320954,-0.390755075212568,9.563296586188674,2.13566134473756,-1.1229172945022583,0.3173539340496063,-0.3350712060928345,0.6788035343058416,0.5561724060754447,-0.2859787193789622,-0.3848560762283259,2.132988691329956,1.018151044845581,-1.634151577949524,0.773305356502533,-0.5004881620407104,0.5326924920082092,-0.0457383245229721,-0.0448746941983699,-0.4391787682503462,-0.1809689998626709,0.1677851452710106,0.1758789833448827,57
1733460969574174000,0.440040645776689,-15.21990722038746,-3.203705732922256,-0.5078263341493904,9.470380402082204,2.4948718193903563,-0.7379940152168274,-0.2395706325769424,-0.1796418726444244,0.6867853831310402,0.545005030338272,-0.2752570604500121,-0.3943715206756522,0.9991981983184814,0.2445269525051117,-0.7314118146896362,1.448263168334961,-0.7251849174499512,0.5913834571838379,-0.0935491248965263,-0.0741871818900108,-0.6253764626443385,-0.3038086295127868,0.0658012548235245,-0.5437696080595255,58
1733460969614174000,0.4207708953024819,-17.1810319362998,-3.061243135358393,-0.4688044565115123,9.44401963390112,2.6002093859136104,0.0879226177930831,-0.2909232676029205,0.1667363345623016,0.6881331526508945,0.5388717485709245,-0.2775670293808056,-0.3988063030789707,-0.4394254386425018,0.3241907954216003,0.3105645775794983,1.4537787437438965,-0.8113299608230591,0.5647798776626587,-0.1054371073842048,0.0184524580836296,-0.6903127529352903,-0.3888303935527801,-0.1103746473750099,-0.5164964012086392,59
1733460969654174000,0.5816293465828523,-13.483968393433091,-2.0552187116265297,-0.3772243798470124,9.45647287276089,2.569672501091659,0.0899475365877151,0.0049766916781663,0.1975143551826477,0.6877146475576544,0.5375852962811649,-0.2828165632082752,-0.3975744590615958,-1.1412848234176636,0.2319016307592392,1.1845247745513916,1.2025452852249146,-0.7759604454040527,0.4400179982185364,-0.0837986394762992,-0.0222310796380043,-0.3430196566998958,-0.302131175994873,-0.1495353489616885,0.0850999573975801,60
1733460969694174000,-0.2631701306438073,-6.428461852657795,2.654721897345781,-0.3048540305651724,9.516981994259355,2.3461666741751133,1.2625128030776978,-0.1852506250143051,0.2479855120182037,0.682675332423981,0.544439850209197,-0.289765496912923,-0.3918871596691415,-2.0721523761749268,-0.8461761474609375,1.7171695232391355,0.8043708801269531,-0.5431594848632812,0.2860033810138702,-0.0621601715683937,-0.0629146173596382,0.00637830286026,-0.2154319435358047,-0.1891239388379268,0.686002342390269,61
1733460969734174000,0.0515763849150389,4.790374328124523,1.9005540734849868,-0.1114312985547818,9.652346742516755,1.72920542704612,1.7138885259628296,-0.5712701678276062,0.3264349699020386,0.6650421764288311,0.560147423071215,-0.3131611827994181,-0.3819473243718941,-2.582890272140503,-1.6189310550689695,1.0094083547592163,-0.2851125001907348,0.1666827797889709,0.0477746874094009,-0.1514136344194412,-0.036015473306179,1.0063251602441072,0.0251441299915313,-0.4651237952373921,0.7129882567323744,62
1733460969774174000,-0.6609527298729866,8.016796042984723,2.2695034134723246,-0.1019000024231616,9.745787242758274,1.0861202161666006,1.919738411903381,0.9858303666114808,-0.0930054858326911,0.6481501935431614,0.5833420643902012,-0.3230097788485871,-0.3678018746676138,-0.242042064666748,-0.6048706769943237,0.5623598098754883,-0.9026742577552797,0.6986669301986694,0.0574091672897338,-0.0293626561760902,0.1327285468578338,0.0010714286237955,-0.1115623265504837,0.0566964678751304,-0.1268096858799457,63
1733460969814174000,2.3539286864787337,7.658041641536355,-0.4427390910804271,-0.1768509153832681,9.802571206253766,0.2206768140356987,2.04598069190979,-0.3153548538684845,-0.2305395156145095,0.6236590182295904,0.615848072869295,-0.3308772662339731,-0.3497152757617788,-1.5566174983978271,-0.483640193939209,0.1168286725878715,-0.6350968480110168,0.3944065570831299,-0.4011600017547607,-0.0605471394956111,0.1081889942288398,0.0371112947762012,-0.1083525791764259,-0.0092959438726305,0.0505275334492325,64
1733460969854174000,-0.2033580697651021,3.892508373555541,-2.0857669946253297,-0.2572265476726926,9.799781283274292,-0.2617475687610917,0.5933544635772705,0.1304754912853241,-0.0882537513971328,0.6047914981252791,0.6303109730884573,-0.3406662429054092,-0.3476806862663848,-0.3601543307304382,-0.0965252369642257,0.0568485558032989,-0.3999468684196472,0.5480247735977173,-0.1905933022499084,-0.0917316228151321,0.0836494415998458,0.0734492670923471,-0.1051428318023681,-0.0753828107045032,0.2277873036280274,65
1733460969894174000,-0.0295848630604334,1.7373825960218905,-0.9609621699512004,-0.2258464352259412,9.796982007944584,-0.3721594976728782,0.1070799529552459,0.4072037935256958,0.2029709219932556,0.6043848242329161,0.6357506975027319,-0.3388154430167369,-0.3402117793085887,0.1527063101530075,-0.0455059967935085,0.0565655939280986,-0.1033846735954284,0.228661835193634,-0.0690789818763732,-0.1374688148498535,0.0534979775547981,-0.0293985284417867,0.0051487982273101,-0.0188328568942844,0.1842810471177101,66
1733460969934173700,0.7135203908476978,0.4923813661277293,0.0197696628203615,-0.1495365271386224,9.796701437437534,-0.4155606863735243,0.1211721897125244,0.5159197449684143,0.0204189401119947,0.607112151212642,0.6386204647028272,-0.3366772945521034,-0.3320048906197421,0.2776384055614471,0.1490131616592407,0.0745670348405838,-0.0279346108436584,0.0311468243598938,0.075669527053833,-0.1127363666892051,0.0210769549012184,-0.1594300989776849,0.0367198549211025,-0.0194634829480201,-0.0817889331534504,67
1733460969974174000,0.0897909099590964,-0.2526192548066377,0.3525063739042729,-0.1711938942685723,9.793363817447425,-0.480745800326392,0.2293983697891235,0.253659188747406,-0.0718297809362411,0.6071736430612992,0.6436078994955456,-0.3320844571707948,-0.3268471215803013,-0.1076898500323295,0.0269259121268987,0.0514272935688495,0.0035106539726257,-0.146120548248291,-0.0024826489388942,-0.0503493100404739,0.0365158766508102,-0.1047527523726224,-0.0055410079658031,-0.0613427045120857,-0.1683247685730457,68
1733460970014174000,0.4887540424760431,-0.0577940173208713,0.2449567573547363,-0.1840920638842508,9.787530288988352,-0.5837367671908811,0.2079779803752899,0.3494764864444732,-0.1500547379255294,0.6053290742687237,0.6488179124843388,-0.3298448251804964,-0.3222024881095771,0.1393332481384277,-0.0268084220588207,-0.0441562235355377,0.0221752524375915,0.0134118199348449,-0.023550808429718,-0.0173818059265613,0.0255936682224273,-0.0231330383062362,-0.0229391176253557,-0.0731891183188185,-0.0172068631276488,69
1733460970054174000,0.4434719353996217,0.0612906272649765,0.2477203768491744,-0.2746805539618246,9.781122760033607,-0.6515921232663094,0.2324685305356979,0.0745526403188705,-0.263604462146759,0.6031608087996685,0.654035656450191,-0.3247449950001324,-0.3208972816854927,-0.0921122208237648,-0.0467140078544616,0.0281300246715545,-0.0107208490371704,-0.017440915107727,-0.0353354215621948,-0.0436290279030799,0.0428032241761684,0.019077040913701,0.0040684323757886,-0.0900791705822572,0.0995794413879513,70
1733460970094174000,-1.0559064988844096,-0.1449170049786567,0.8197451885342597,-0.3711873647050931,9.768260940372944,-0.7833831046901643,0.3751777708530426,0.411952257156372,-0.0366042107343673,0.5989808033159764,0.6615264091148547,-0.3198815945316542,-0.3182461360138532,-0.0685618892312049,-0.0319671258330345,-0.0856563225388526,-0.073108434677124,0.0789635181427002,-0.0246517639607191,-0.0732183009386062,0.0391982980072498,0.0207394211679697,0.0063935173675417,-0.0388270126529037,0.107390699660778,71
1733460970134174000,0.503518298224546,0.2494353640735149,0.0429087290085852,-0.348344103125669,9.756381702008843,-0.9284637027326972,0.2816448807716369,0.5502728223800659,-0.0956169068813324,0.5975270506303668,0.6687650893765845,-0.3163727694473187,-0.3092294991536529,0.225329115986824,-0.0733837559819221,-0.0157153941690921,0.0072302818298339,-0.0044432878494262,-0.0494502820074558,-0.1121462062001228,0.0246949642896652,-0.0367430459856987,0.0060824872925877,0.0076167586140334,0.0787000272274017,72
1733460970174174000,-0.1573535849645733,-0.1958621793180704,-0.1797803746975958,-0.3524619137080386,9.750523623630404,-0.9866449658054858,0.0615289434790611,0.5392587184906006,-0.0485106147825717,0.5980847844735288,0.6733033914238425,-0.3113959469584743,-0.3032982403603888,0.0638664588332176,-0.0056217517703771,0.0409241840243339,0.0020921230316162,-0.0023720264434814,0.0610796213150024,-0.1151254475116729,0.0332595780491828,0.011309329521656,-0.015799656510353,-0.0267471736827865,0.0245294611006975,73
1733460970214174000,-0.6869815626859664,-0.6586731675684452,-0.7329084704719483,-0.3277108822785318,9.74706150047779,-1.0284759095147251,0.0776314884424209,0.4134771227836609,0.1650130003690719,0.5999130783800926,0.6771819669376582,-0.3063694847888575,-0.2960853587936146,0.025507615879178,0.022240025922656,0.003724084701389,0.0078390836715698,0.0005831718444824,0.0319139920175075,-0.1131708398461341,0.0521953180432319,0.0040407998234033,-0.0172000396996736,-0.0280288840563967,0.0923170491695404,74
1733460970254174000,0.6119626351241022,-0.8474404201894998,-1.0289770639698952,-0.2217076549207791,9.750577984166144,-1.0234517977423965,-0.1064850464463234,0.3814526200294494,0.1667350530624389,0.6035588808520734,0.6773304058717605,-0.3056223844234275,-0.2890244515045904,0.0500579662621021,0.0728209167718887,0.1147629916667938,0.0498886108398437,-0.0514544248580932,0.0436915792524814,-0.1267053186893463,0.0773474276065826,-0.0243728092342615,-0.0249817837029695,-0.0219236625164747,0.0793459239155054,75
1733460970294174000,-0.7421042419057339,-0.2064110458612442,0.8067069893933833,-0.1615573019984178,9.759124863237142,-0.9506586564712226,-0.188820868730545,0.8276051878929138,0.197552815079689,0.6093837616996806,0.6766944310923553,-0.300923163074185,-0.2831629913374088,-0.0244911015033721,-0.0229148268699646,0.179940328001976,0.0949718356132507,-0.0489045977592468,0.0197587050497531,-0.1622848510742187,0.0468637719750404,-0.0107779991239309,-0.0264116656035184,0.0196046084517613,0.0842430483072996,76
1733460970334174000,1.0123053306322545,0.1412351015955209,0.9002187282402068,-0.0269414632790256,9.762529118722677,-0.9287994374930858,0.1536757349967956,0.3322531878948211,0.3005887567996979,0.6159786558652871,0.6781822384226234,-0.2956762504139148,-0.2705819782731777,-0.1721729785203933,-0.0795318186283111,0.1223993375897407,-0.0628938674926757,-0.0341213941574096,-0.1064164638519287,-0.1794992089271545,0.0287027936428785,-0.0650473494499921,-0.0762488916516304,0.0033558132339268,-0.0474701917052268,77
1733460970374174000,1.16987175462991,0.8516746967583895,0.5181938527762889,0.1102777628717944,9.749700616809726,-1.0495564722705633,0.4003942608833313,-0.0266159735620021,0.2242808490991592,0.6142238954863705,0.6805323505184716,-0.3006463136911008,-0.2630904298691939,-0.3245033919811249,-0.1864678710699081,0.0100167347118258,0.0035834908485412,0.1007315516471862,0.0897010564804077,-0.1761452406644821,0.023219246417284,-0.1096095447540283,-0.1170365959405899,0.0685347714406438,-0.0134004565820097,78
1733460970414174000,-0.3761934293640777,-0.6319809754759073,-1.0012614471137522,0.1189662332374136,9.73368822416365,-1.1880860412344336,0.2042865455150604,0.0336106531322002,-0.0421983301639556,0.6093114332678071,0.6845441127396388,-0.3032736154283709,-0.2610825044790388,-0.2489937245845794,-0.1204075664281845,0.0995804443955421,0.0041167140007019,-0.09475839138031,-0.0433526039123535,-0.176270917057991,-0.0134098529815673,0.0013876549661159,-0.1198926270008087,0.0259496118306182,-0.0405538364455103,79
1733460970454174000,-0.2133062122024595,-0.2605249133646488,-0.2495113519191741,0.1583891750900074,9.726000592270491,-1.2450691805638372,0.307388573884964,0.6280818581581116,-0.0333093367516994,0.6101097044714534,0.6883972999729734,-0.2993159166486602,-0.2535453657645553,-0.2835184037685394,-0.0037029443774372,0.1435428410768509,-0.0315309166908264,-0.0294702053070068,0.0799503326416015,-0.1626233011484146,-0.0090264324098825,-0.0285498026579618,-0.1185519993305206,0.033782406081818,-0.004516892902553,80
1733460970494174000,-0.3405374479627236,-0.0462228219926357,-0.223966576296091,0.1151832988989073,9.701589204591512,-1.4269846675939857,0.4905935227870941,0.3834806084632873,-0.2152645289897918,0.6055154063812284,0.6976541186478943,-0.2933167258723048,-0.2461607808677008,-0.6121900081634521,0.10673338919878,0.2614052891731262,-0.0207580924034118,-0.0609105229377746,0.0603371858596801,-0.1518227308988571,-0.0238685235381126,-0.0638397272258996,-0.1239595785737037,0.0735152267343364,-0.0428787722617387,81
1733460970534174000,0.1215740502487868,0.0897591813802719,-0.9579473521746694,0.0593378629291197,9.691303957420589,-1.4985036972761154,-0.0122457174584269,-0.4503714144229889,0.0770181193947792,0.6029249039376331,0.7015503362121983,-0.2902232809439795,-0.245110643970897,-0.2757891118526459,-0.0340290516614913,0.1408364623785019,-0.0234876871109008,0.0433018207550048,-0.1028798818588256,-0.132415160536766,-0.0407859906554222,-0.0721843617230653,-0.1148468703031539,0.10678991162288,-0.0062669514402747,82
1733460970574174000,0.7241117813583463,-0.0289659822434186,0.0965431424319744,0.1134098594855982,9.68732511691749,-1.520943784882128,0.0335869826376438,-0.4527568519115448,0.2439724504947662,0.5993287782350672,0.6972692010514814,-0.3022618264322531,-0.2515124966950469,-0.0881624892354011,0.0437582619488239,0.0709826126694679,-0.0083518624305725,0.0680566430091857,0.0558165237307548,-0.1229288652539253,-0.0439965799450874,-0.0385088866144418,-0.0917350277304649,0.1015589521668385,-0.0445490435615181,83
1733460970614174000,0.2850824863149784,0.1862199062258005,0.0424563090659678,0.1454249271013308,9.693003162553904,-1.4815209982931612,-0.1055461019277572,0.2149141728878021,-0.0339462049305439,0.6015939984337421,0.6960713190802283,-0.3016973174759401,-0.2500960505487191,0.2180317938327789,-0.0451950468122959,0.0649355724453926,0.0608680248260498,0.0145427584648132,-0.0249338168650865,-0.0999252125620842,-0.0335660427808761,-0.0097270287662744,-0.0957199186086654,0.0793580527447164,-0.0588584316819906,84
1733460970654174000,-0.0103651805393397,-0.1094634142816066,0.072166241544485,0.1579077482486143,9.694050625780225,-1.473372617020458,0.011302525177598,-0.1223000437021255,0.1043543070554733,0.6021877979521256,0.6957936819264007,-0.3016492205931322,-0.2494969840244962,0.0374806560575962,-0.0107733709737658,0.0542613603174686,-0.044479489326477,-0.0326634049415588,0.0434416532516479,-0.076921559870243,-0.0231355056166648,0.0192442141741514,-0.0997048020362854,0.0570484687837306,-0.0733420073255896,85
1733460970694174000,0.1773299676044844,0.0260211609631776,0.441892703384161,0.204245958515536,9.693688806730508,-1.4700529710784551,0.0364686399698257,0.014303914271295,0.1335006356239318,0.6023926549306025,0.6943457179818039,-0.3046897831979565,-0.2493415552679036,0.1058690398931503,-0.024796724319458,0.0596896857023239,0.0196743011474609,0.0229032039642334,0.0122240781784057,-0.0613617785274982,-0.0205915831029415,-0.0463718750745058,-0.1012106761336326,0.0892184438333846,-0.0613505407586693,86
1733460970734174000,0.2901783664155751,0.1279319679081439,0.0055225628137588,0.2465716086728498,9.68171078416705,-1.5408045235194263,0.2370614409446716,-0.0218665674328804,0.0790426209568977,0.6004955301290065,0.6959967360674081,-0.306834993953599,-0.2466698196258462,-0.1207491904497146,-0.1148982867598533,0.0758026763796806,0.0088707208633422,-0.0250068306922912,0.0095167160034179,-0.0515729524195194,-0.0076317302882671,-0.015555881050229,-0.1039901450276374,0.0488634315953357,-0.0653594841390848,87
1733460970774174000,-0.0096878292670473,0.1752349863529205,-0.6289313786469399,0.3403869701087474,9.666129768675566,-1.6187747751675543,0.1832001358270645,1.054948806762695,0.2800312042236328,0.6006206953223368,0.6991572807027608,-0.3061268439572597,-0.2381598767114,-0.0953865796327591,-0.0592876449227333,0.0323990061879158,-0.01384699344635,-0.0100120306015014,-0.0177737548947334,-0.0408344566822052,-0.0031128046102821,-0.0280032746911048,-0.1107107698917388,0.0430638921708334,-0.0378384400069713,88
1733460970814174000,-0.966927142770216,0.5878823060303926,-0.0492611667752265,0.6303920988492667,9.645983052703738,-1.6516699135534465,0.2656540274620056,2.60929012298584,0.5869291424751282,0.6118822673024624,0.7080283726881333,-0.2879367137404888,-0.203441446254849,-0.1179978772997856,-0.1325609982013702,0.0381569601595401,0.0211744904518127,0.0005388259887695,-0.0472910404205322,-0.0357951708137989,-0.005394454114139,-0.0106295305639505,-0.0846570432186126,0.0294369447730132,0.0463990553423762,89
1733460970854174000,0.5357051056779921,0.0832107826501131,-0.0448000957131385,1.0440191502790896,9.6070205771029,-1.6689987956255674,0.1541903614997863,1.967029094696045,0.5535867214202881,0.6238248181949225,0.7158792001154766,-0.2694665606730662,-0.1604597070460396,0.166024774312973,-0.0292496364563703,0.0245508700609207,-0.0341691374778747,0.0062593221664428,0.0072684288024902,-0.0363142043352127,0.0113086262717843,-0.0170996033608913,-0.0744498372077941,-0.004544881454599,0.0010837035834789,90
1733460970894174000,0.9923485112093388,0.1861445029020309,-0.3237947317481041,1.2963584921658038,9.596413842892646,-1.5487700955711303,-0.1591535806655883,1.5632705688476562,-0.0560473166406154,0.6363028556831388,0.7194901104829642,-0.2475869132341555,-0.1270960781486372,0.5163394212722778,0.0645646303892135,-0.0810021236538887,-0.0400881171226501,0.0560870766639709,0.0676721334457397,-0.0307375937700271,0.0243971794843673,0.0072638535231351,-0.0852291733026504,-0.0173217901776311,-0.0354597281768918,91
1733460970934174000,0.1144974629260599,0.2530646604865789,-0.2240856726311147,1.257978492628038,9.625410220274327,-1.3925988522589203,-0.2517168819904327,0.9277436137199402,-0.3538135290145874,0.6451743230845537,0.7211791594228691,-0.2256178174362708,-0.112903663404498,0.5476272702217102,0.07333255559206,-0.112913578748703,0.0264638066291809,0.0146394371986389,0.0108389873057603,-0.0414756760001182,0.0348512679338455,-0.020408581778407,-0.0883950293064117,-0.0303627338314428,-0.0472644400000572,92
1733460970974174000,-0.7121328089468181,0.1541694019705057,0.2472891458250582,1.238258623766154,9.64215501884818,-1.2907123029723764,-0.1088523417711258,0.5492613315582275,0.0810831189155578,0.6503035419514748,0.7208501774757846,-0.2149023759330763,-0.1062885966369847,0.4903780817985534,0.1891461908817291,-0.1233600303530693,-0.013892114162445,-0.0007030367851257,0.0607823133468627,-0.0522137619554996,0.0453053563833236,-0.0479728805303573,-0.091560885310173,-0.0434755782442633,-0.0591004237443208,93
1733460971014174000,-0.3599326514475047,0.2415408114314079,-0.2004933462500572,1.343350837226212,9.63738415118456,-1.2192686766140162,-0.0905358865857124,0.9091004729270936,0.2358644604682922,0.6549573001551652,0.7203114964800812,-0.2081267654429827,-0.094156916582519,0.6688109636306763,0.1808656305074691,-0.1628364622592926,0.0232264399528503,0.0344721674919128,-0.0297334790229797,-0.052765104919672,0.0438947044312953,-0.0516828409641981,-0.0879011303186416,-0.0561477022854145,-0.0302528071835637,94
1733460971054174000,-0.6195797590643167,-0.3264081291168928,0.4826959114808589,1.5192007406070829,9.620399114114043,-1.144692305187881,-0.009602453559637,0.945081353187561,0.4562890827655792,0.6602061946285483,0.719941439020988,-0.2001184426352029,-0.0759252758716155,0.2082894146442413,0.1748141646385193,-0.1051905527710914,0.0080258250236511,-0.0309157967567443,0.0493176616728305,-0.0393475592136383,0.0418749451637268,-0.0593605359852313,-0.094333216547966,-0.0580029382306616,-0.0904155994623899,95
1733460971094174000,0.0117371995449066,-0.2746498848289251,0.0151728730820119,1.736179796103388,9.590788404226302,-1.082987105772644,-0.0748281702399253,0.7524095773696899,0.4377091825008392,0.6644217472041826,0.7189853293657482,-0.1956452669181441,-0.0576791156841587,0.5084260702133179,0.1754570007324218,-0.1622391790151596,0.0269723534584045,0.0395793914794921,-0.0249232649803161,-0.0228380896151065,0.0293387584388256,-0.0885427913278341,-0.1031534075736999,-0.0506849707669578,-0.0715440179929137,96
1733460971134174000,0.3499694758377969,-0.2983510784119367,0.542428203387931,1.8842694397687911,9.5725898997128,-0.9926876800358296,-0.1254720985889434,0.4139668345451355,0.2390593886375427,0.6687892804236141,0.7165376789454556,-0.1928386367327363,-0.0459116244589729,0.0543440580368042,0.1568941920995712,-0.079959362745285,0.0257010459899902,-0.0459825992584228,0.0251784995198249,-0.0079234922304749,0.0197234861552715,-0.0922013138353824,-0.1100479960441589,-0.0516470755310729,-0.0373766677141189,97
1733460971174174000,-0.4830957975186407,-0.4403647631645202,0.7882767219506204,2.0258594922818243,9.546711946612596,-0.9626045303307472,0.1460428833961486,0.463166207075119,0.4651866257190704,0.670586213399379,0.7158142015947294,-0.191544255508141,-0.0351443871935463,0.3145122528076172,0.2444833219051361,-0.1214599311351776,0.0002737641334533,-0.0087153315544128,0.012006476521492,-0.0055386056192219,0.0014641229063272,-0.0667196665763854,-0.1123086884617805,-0.0580334247004706,-0.0417114820480346,98
1733460971214174000,-0.1995877757124602,-0.2174251918286085,0.2392083498958498,2.265933884422481,9.49226548615396,-0.9658485537532716,0.1154947131872177,0.767043948173523,0.6371597051620483,0.6711301991203571,0.7158593014057077,-0.191807280159682,-0.0184354422139711,0.3038271069526672,0.2379577308893203,-0.1479233056306839,0.0055456757545471,-0.0220401287078857,-0.000750795006752,0.0003547109663486,-0.0026645469479262,-0.046173722153902,-0.1258493363857269,-0.0732153213391546,-0.0189604287967085,99
1733460971254174000,-0.2575228089392185,-0.098106738486886,0.3011128712754696,2.573913207401335,9.418884608122706,-0.9110358903307468,0.1505434364080429,1.2443825006484983,0.8161019682884216,0.6734353462898902,0.7147606331391898,-0.1885925274738908,0.0059155150335023,0.1325738728046417,0.189985454082489,-0.3387888073921203,0.0246484875679016,0.01204115152359,0.0005928128957748,0.0011268472298979,-0.0149249732494354,-0.0529839866906404,-0.1235972344875335,-0.0655344753798097,-0.0045171851634979,100
1733460971294174000,0.276697757269442,-0.1214198095351457,-0.4510534035045653,2.943503475640714,9.3193452064842,-0.8099432679008692,0.0701990947127342,1.6596100330352783,0.808247983455658,0.6761485900786686,0.7131838735818697,-0.180732885345049,0.0390847643149625,0.1424568742513656,0.1220076382160186,-0.1493239104747772,0.0218582153320312,0.0163900256156921,0.0050744414329528,0.0018989833770319,-0.0271853990852832,-0.0595540127307176,-0.1213451400399208,-0.0578417837190441,0.0098193832248449,101
1733460971334174000,0.7227315059810876,-0.4325497054994106,-1.565972720915079,3.232489636597037,9.24156638575494,-0.5611253416059538,-0.3181817233562469,1.474666714668274,0.5170730352401733,0.6830144237822314,0.7071506644139716,-0.1689596628726952,0.0698708503060409,0.1209803447127342,0.0405452102422714,-0.0790062844753265,0.0314342379570007,-0.0564048886299133,0.0045769810676574,0.0112994806841015,-0.0210959333926439,-0.0561789833396673,-0.131889209151268,-0.0741008263362571,-0.0818529383003711,102
1733460971374174000,0.505315958763659,-0.7085276240617037,-1.7530536278843878,3.3830171749338507,9.203304751899838,-0.157369403588213,-0.8293545842170715,1.7670042514801023,0.1850976943969726,0.6949772209612953,0.6960856901343588,-0.1532589932789259,0.094779088569021,-0.3159282803535461,-0.0386276394128799,-0.1939250081777572,0.0091166496276855,0.0969805121421814,-0.029400885105133,0.0421362444758415,-0.0329385697841644,-0.0276800340861082,-0.1539788395166397,-0.0613035872112493,-0.0279217338874936,103
1733460971414174000,0.4887073537901044,-1.0482762962669134,0.2518254740804433,3.3785268777772783,9.195295632967351,0.4499746683571487,-0.6648925542831421,2.2463631629943848,-0.0913627222180366,0.712874269034195,0.6791168381764813,-0.12592853882352,0.1214602810649259,-0.181112140417099,-0.1208643987774849,-0.1835726946592331,0.0329208970069885,0.0449801087379455,-0.0491449236869812,0.0457489974796772,-0.0336426645517349,-0.0224351191699504,-0.16635063290596,-0.0566692054088693,0.0065071899369359,104
1733460971454174000,-0.597756926573813,-0.6399521004855633,0.311183671978116,3.3358258001700043,9.18410905304253,0.8335442159797996,-0.1736687570810318,1.3878010511398315,0.1449577063322067,0.7221460734639628,0.6687585853234992,-0.1013066064299085,0.1449276530892135,0.0735446512699127,-0.0804863050580024,-0.1743799448013305,0.043118417263031,0.0763964056968689,0.0030868500471115,0.0485470630228519,-0.0501399040222168,-0.0412689989775419,-0.1881253272294998,-0.0188925237928051,-0.0149883102953433,105
1733460971494174000,-1.0799594285145402,-1.0031985526561735,0.6253951673448085,3.389166929735243,9.142586371564864,1.0474036781508476,0.0972484424710273,1.6868491172790527,0.5570446848869324,0.7245791565306091,0.6629372851751231,-0.0843292977295048,0.1684867857948221,0.128849446773529,-0.0572435595095157,-0.1918315589427948,0.0378620624542236,0.0815728902816772,-0.0094284415245056,0.0504271164536476,-0.0567465052008628,-0.0298825125664472,-0.1992703676223755,0.0096698095531668,-0.0103583124071359,106
1733460971534174000,-1.2074828156217932,-1.030771619236469,0.51214931191504,3.634006490451098,9.022467123234271,1.248785716868937,0.3559595942497253,2.561922073364258,1.2982606887817385,0.720928529600063,0.657255322100307,-0.0659172965174085,0.2096005874092359,0.1856163293123245,0.0530755966901779,-0.1468697488307953,0.0224718451499938,0.028909683227539,0.0415998101234436,0.051987312734127,-0.0349587723612785,0.0156850603878498,-0.231997936964035,-0.0343780384539859,-0.00827127700001,107
1733460971574174000,-1.194167114713788,-1.2237860079079863,0.1327272393606603,4.027105936832726,8.807718457138538,1.541717546711117,0.4351339340209961,2.98752236366272,1.7930819988250732,0.7114021647135329,0.6476928403463798,-0.043454203444671,0.2692817324893588,0.2036413997411728,0.1351287513971328,-0.0400837175548076,0.0239542126655578,-0.0198608040809631,0.012112982571125,0.0456738546490669,-0.0067908428609371,-0.0724409668326377,-0.2520350515842438,0.0179038917813682,-0.0049117374390363,108
1733460971614174000,-1.051365202192962,-0.7147855154126882,-0.9806918295547364,4.538819487679004,8.487712011757493,1.878367960640043,0.2965774238109588,2.616093397140503,2.183579444885254,0.6959003620525641,0.6351840755439431,-0.0277682181662192,0.3339055366649847,0.1817350387573242,0.2055749595165252,0.0095229856669902,0.0190906524658203,0.0003995895385742,0.0436327457427978,0.0456197783350944,-0.0223777927458286,-0.077075056374073,-0.2896153330802917,0.0066143766384571,-0.0531038136780262,109
1733460971654174000,-1.0157055675297977,-0.486149193739891,-0.898524418477714,5.069387668859958,8.051376357978581,2.376345247078687,-0.0816279873251915,2.829993486404419,2.470874309539795,0.67902952942708,0.6152327088668464,-0.0181336114469498,0.4000983427135546,0.0586554482579231,0.1984272003173828,0.1038415655493736,-0.0031215548515319,-0.0573367476463317,0.0551727414131164,0.0328690186142921,-0.0162539519369602,-0.0481049824774265,-0.2893753349781036,-0.0129576355847995,-0.0057090252965688,110
1733460971694174000,-0.0070335518985986,0.0023258125990629,-0.999014837230742,5.514744248962402,7.501550518620013,3.079725425249338,-0.4743139743804931,3.118282556533813,2.4368906021118164,0.6609113151726624,0.5855633228020608,-0.0096591402008847,0.4692743824065695,-0.0873877704143524,0.1860007345676422,0.2094966918230056,0.0128077268600463,-0.081375777721405,0.0468379408121109,0.0331145040690898,-0.026712168008089,-0.1589332553714513,-0.2738253474235534,0.0567627700104145,-0.0833437613800168,111
1733460971734174000,-0.0330751711279153,-0.1574988386541604,-0.8003501677125692,5.8242000742346045,6.844953572803735,3.923735578729212,-1.3315349817276,2.352004289627075,2.161534547805786,0.6489291756929246,0.5475417368580107,-0.0119668064703026,0.5281532420203345,-0.0871917605400085,0.0949755385518074,0.2902796864509582,0.0301401615142822,-0.059961199760437,-0.0202282518148422,0.0490650758147239,-0.0783328860998153,-0.1323737497478723,-0.2514930665493011,0.0673824504672084,-0.0643786564081907,112
1733460971774174000,-0.1843108577340841,-0.8885334780782461,1.4097627530276775,5.8630573358953,6.120313018330931,4.933225632745027,-1.377483606338501,3.1453752517700195,1.9901710748672483,0.6419181238469508,0.4982927064998311,-0.0134114440637852,0.5826368538775708,-0.0203070100396871,0.0891374573111534,0.2899211347103119,-0.0164958834648132,-0.0175368189811706,0.0040439069271087,0.039108507335186,-0.0780163034796714,-0.0611573562741279,-0.2408394813537597,-0.0036128841343801,-0.0490285270631313,113
1733460971814174000,-0.698914577063918,-0.7991758632361888,0.6578302870035171,5.740055810126662,5.335889318546652,5.894949434718489,-1.2991197109222412,2.015235662460327,2.3145315647125244,0.6287236802548151,0.4463841561765399,-0.0135054916001357,0.6366045338768003,-0.2144511938095092,0.1290578097105026,0.2841643989086151,-0.0330125093460083,0.0021774768829345,0.0578603148460388,0.0128357801586389,-0.0441649481654167,-0.0438403107702732,-0.2339367419481277,0.0279020839055301,-0.0231996738016605,114
1733460971854174000,-0.3183551710426807,-0.8676651698336004,1.2130816585421562,5.970766015464067,4.491588657687604,6.351847399532795,-1.265094518661499,0.3680633306503296,2.0264711380004883,0.6114475127045393,0.4178371352604564,-0.0394719693767175,0.670809969349781,-0.2687445282936096,0.1159887239336967,0.3027126491069793,-0.0067588090896606,-0.0074782371520996,-0.0144518762826919,-0.0075724497437477,-0.0426101721823215,-0.1046340944290161,-0.246783971786499,0.0656233409733511,-0.0852075094252824,115
1733460971894174000,-2.2653058156520127,-0.9539940845042466,2.7602713530540464,6.17443857627213,3.758501761908829,6.627243718814849,-0.2458147704601287,0.7759636640548706,2.5926103591918945,0.5895394453190732,0.3979206189404204,-0.0613497156642965,0.7002418746157879,-0.2978254556655884,0.1190138682723045,0.3653019964694977,-0.0133798718452453,-0.0492306351661682,-0.0235934257507324,-0.0275365579873323,-0.0131264384835958,-0.0227232884615659,-0.2517142593860626,0.0043060551719565,-0.0301344415009021,116
1733460971934174000,-1.25524263792336,-0.7459805718824267,1.867864248412848,6.296832783797383,3.0067054894849656,6.890574337249994,0.4381963014602661,1.5561833381652832,3.758441686630249,0.5424532452834387,0.37915012473498,-0.0701689342453279,0.746368649309382,-0.2294109612703323,0.1522554010152816,0.403494268655777,-0.035535454750061,-0.0268847346305847,0.0080076456069946,-0.0563487112522125,0.0351161062717437,-0.0503086300015449,-0.2221943289041519,-0.0048852404452889,0.0198532859832048,117
1733460971974174000,0.7453244460612535,-0.5049345582306385,0.5097077639818192,6.212824128767847,2.131345673495531,7.282071901392936,0.0433793440461158,1.650089979171753,3.633264541625977,0.4846193900231206,0.3504799548702799,-0.0766906484580734,0.7977634283396129,-0.0964225456118583,0.1032196134328842,0.4744832217693329,-0.0189854502677917,-0.0686274766921997,-0.0718254595994949,-0.083684429526329,0.0290137231349945,-0.207953599128127,-0.205241397023201,0.0292338713654084,-0.0953255833357572,118
1733460972014174000,2.959863366550207,0.4060318470604717,1.1546528504490852,6.072711309200525,1.349217245041579,7.581040819442272,0.0056111398153007,0.7013094425201416,2.5431008338928223,0.4353210690742896,0.3253632156605047,-0.0872541112573972,0.8348778818559901,-0.0581715665757656,-0.061543770134449,0.4421131610870361,-0.0108178257942199,-0.026774525642395,-0.0735152214765548,-0.0925272703170776,-5.92544674873e-05,-0.1819768618285656,-0.2058823257684707,-0.0014533908458193,-0.1139718316167592,119
1733460972054174000,1.1283329988002777,0.1673545353014022,1.9189748424470423,6.117568688058853,0.8687363061964511,7.615185081106424,0.4104456603527069,-0.1128609925508499,2.113398313522339,0.396932267942806,0.3199563934727194,-0.096755029276409,0.8548164689092677,-0.0948752462863922,-0.1571352630853653,0.352651447057724,-0.0602800250053405,0.0070384740829467,-0.0772575139999389,-0.0939125642180442,-0.0075352485291659,-0.092121818858385,-0.1764557957649231,-0.0378915812665829,-0.1045902552872896,120
1733460972094174000,1.9914555567681789,0.268479489098303,1.2072083825945854,6.174268480402231,0.5156214815376327,7.601508437931537,0.362947404384613,0.4441833794116974,1.7337578535079956,0.3597862316283291,0.3194746287672642,-0.1018180029150661,0.8707025417740344,-0.2176211476325988,-0.1959511041641235,0.1987481713294983,-0.0630621314048767,0.047397494316101,-0.0080738067626953,-0.0979765281081199,-0.0044873896986246,-0.1917600046962499,-0.1499734371900558,-0.0086580204284284,-0.1499742883682251,121
1733460972134174000,1.365757022562623,0.1798417312297038,0.5184732542395591,5.926083408650755,0.2189425741216167,7.810505408632755,-0.1770153492689132,0.9187339544296264,1.0693615674972534,0.3380335433115442,0.3020378453195845,-0.1027044209874749,0.8854142560325529,-0.2317510843276977,-0.1716225445270538,0.1677091568708419,-0.0275713205337524,-0.0158503055572509,0.005469262599945,-0.0810870379209518,-0.0205926652997732,-0.09416413834095,-0.1592201292514801,-0.0400485583710717,-0.1921148094832897,122
1733460972174174000,1.4906073910683393,0.389059304145351,1.2340776848196982,5.709954101851582,-0.0294800486958003,7.97282479931116,0.2557736933231354,0.5700440406799316,0.9072285890579224,0.3218042772675259,0.2872433828935973,-0.1048345780014808,0.8960708883509364,-0.2147470712661743,-0.1669866144657135,0.189501941204071,-0.0052904486656188,-0.0107740759849548,-0.0242470502853393,-0.0684971958398819,-0.014854934066534,-0.1128951422959566,-0.1276694238185882,-0.0487477053943322,-0.1276759473204612,123
1733460972214174000,2.222766066086292,0.4664946451991796,-0.3245066794097423,5.500030663955212,-0.0470604235942475,8.118979821652173,0.4489359259605407,0.7769462466239929,0.5367619395256042,0.3075622523381751,0.2769256108423867,-0.0967441625857562,0.9051841078066948,-0.2174387276172638,-0.1716821491718292,0.1444311887025833,-0.001662790775299,0.0158029794692993,0.020605020225048,-0.0605536811053752,-0.0195414163172245,-0.0607557897359132,-0.107308804988861,-0.1015115876274649,-0.1507359203904867,124
1733460972254174000,1.427593008750677,0.1623629923581145,-0.7649158662378788,5.227689056068659,-0.0519304042507894,8.29692465148568,0.0450832024216651,0.8064162135124207,0.2905124127864837,0.3008240803356303,0.2626157150322917,-0.0894849505043689,0.912431021283742,-0.1919703781604766,-0.1182938143610954,0.1625635921955108,-0.0027916431427001,-0.0109378695487976,0.003697283565998,-0.0531523637473583,-0.0041980920359492,-0.1699514929920434,-0.0864042490720748,-0.0731297619475517,-0.0787760150730609,125
1733460972294174000,1.3096598722875117,0.3267527413034811,-1.1146715531945228,5.151242945247888,-0.0295724465368548,8.344711654055118,-0.0127757731825113,0.061807882040739,-0.2989088594913482,0.3016336425521648,0.2587536490663125,-0.0870900178747354,0.9134982716658866,-0.0903606563806533,-0.112624317407608,0.1307584047317505,-0.011062741279602,0.0341213345527648,-0.0060364678502082,-0.0342669449746608,0.0032872348092496,-0.1284995386630296,-0.0909347087144851,-0.0707682295811362,-0.1114630636662244,126
1733460972334174000,-0.4465829070270061,0.0221526832160889,-1.287956574523449,5.094027020075917,-0.0371164618583745,8.37973094498813,-0.3684039115905761,0.2086434215307235,-0.1483835279941558,0.307518610236406,0.2549683268753319,-0.0879986774238045,0.912512787225098,-0.0027658329345285,-0.1658981442451477,0.1247863918542862,0.0010815262794494,0.0039389133453369,-0.0154688917100429,-0.0276406034827232,-0.0339668542146682,-0.1067412958413362,-0.0767270848155021,-0.0430061615010723,-0.0943792423963546,127
1733460972374174000,-1.1469798316031694,-0.6561639612264931,0.023047698110342,5.016009714415669,-0.1969199630090035,8.424443946939705,-0.4859943687915802,0.2300478518009185,0.1763002425432205,0.3106445230272692,0.2477610920638947,-0.0953275438628411,0.912703152788216,0.0422748774290084,-0.2171991914510727,0.1778145879507064,-0.002916932106018,-0.0202410817146301,0.0188475251197814,-0.0079251620918512,-0.0737061649560928,-0.1285755265086889,-0.0662588328123092,0.0011233962730504,-0.0853530553758144,128
1733460972414174000,-0.3020844197213649,0.0360587900485843,0.3468459369897842,4.933068980878591,-0.3884554199680686,8.466658702334762,-0.2678271532058716,0.2257324606180191,0.4327980577945709,0.3064976231109613,0.2405739539812287,-0.1021993196663071,0.9152806476099667,-0.0454437881708145,-0.1617137789726257,0.1522036343812942,-0.0359670519828796,-0.0181299448013305,-0.0033199787139892,0.0109443478286266,-0.0879308134317398,-0.126788643091917,-0.0867931619286537,0.0028974384745582,-0.0495610265046358,129
1733460972454174000,0.6130179163306951,0.5163628379568457,-0.5681482625126838,4.921179221120476,-0.5606554956045001,8.463926062500477,-0.458502858877182,-0.2239479124546051,0.080570600926876,0.302510323303509,0.2375844640212614,-0.1096060123115115,0.916530271720054,-0.0812126994132995,-0.2680126428604126,0.1287374645471573,0.0073766112327575,0.0169960856437683,-0.0465205311775207,0.0084405867382884,-0.0953403115272522,-0.1231874037295579,-0.1068913042545318,0.0616146167886443,0.0016086042404174,130
1733460972494174000,0.4557172305971383,-0.2944763558704406,0.6810556797683238,4.967299167260527,-0.7269499273937196,8.424242871409653,-0.4358424544334411,0.0784080699086189,0.0145428348332643,0.3050725484768447,0.2370259917640008,-0.1195902349739747,0.914575140524724,0.0157186351716518,-0.1570857316255569,0.1833949238061905,-0.0148667693138122,-0.0145472884178161,0.0250080786645412,0.0137571590021252,-0.0846210569143295,0.0255208102256059,-0.094349056482315,-0.0036595271545462,-0.0202484227806329,131
1733460972534174000,0.3675245678812265,-0.0664450874187052,0.5066980607718229,4.911241179952025,-0.8324279983662068,8.447316873005033,-0.0686453655362129,0.1470887660980224,0.2032816261053085,0.3038873400509443,0.2324879973557723,-0.1235153571902268,0.9156122545472946,0.3050386011600494,-0.2031334936618805,0.1541187167167663,-0.0059030055999755,0.0492412447929382,-0.0367097221314907,0.026154339313507,-0.0707849413156509,-0.0361105933010578,-0.0895674601197242,-0.0012872998641803,-0.0909486834257841,132
1733460972574174000,0.3362354033872485,-0.0834312935329973,-0.2340203527987003,4.885368779809773,-0.8913079842928796,8.456307404190301,-0.1394748538732528,-0.0626224428415298,0.0505001433193683,0.3021913744013823,0.2303964721317659,-0.1255619035890613,0.916423566849176,0.2168852984905243,-0.2764729559421539,0.2407958209514618,0.0175751447677612,-0.0204630494117736,-0.0069213435053825,0.0595948211848735,-0.0842620357871055,-0.0633972441554069,-0.0923714712262153,0.0424077389501966,-0.0437234063923358,133
1733460972614174000,0.2391840191721916,0.0565534426752477,-0.3005763532459736,4.905057522881031,-0.9462987076960504,8.438916708928346,-0.1616191118955612,-0.0318273231387138,0.0365676060318946,0.3021649488144245,0.2305678524817986,-0.1287379756698251,0.915948301999971,0.6858687996864319,-0.3938693404197693,0.2064474374055862,0.0142316818237304,0.0473036170005798,-0.0845215320587158,0.0735873430967331,-0.0782589167356491,-0.0796826085239648,-0.0856923460960388,0.0031778993837535,-0.0074070613861083,134
1733460972654174000,0.5043932909607887,0.37518085478805,-0.94917587056756,4.931043028008937,-1.0440609435942023,8.412201720482111,-0.3910630047321319,-0.1760753691196441,0.0421242415904998,0.302093477881513,0.2304000888228739,-0.1342120753088137,0.9152280517089312,0.9019209146499634,-0.6286750435829163,0.2623171508312225,0.0621712803840637,0.0191717743873596,-0.0700656101107597,0.0907764136791229,-0.0885043889284133,-0.0688905808746814,-0.1217391937971115,0.0211570620581507,0.0004839841246604,135
1733460972694174000,0.2187345208615064,0.2084383139051497,-1.0461176569283008,4.989252640393376,-1.2485692976392804,8.3497794588387,-0.8115761876106262,-0.0648631528019905,-0.0073236618191003,0.3042857718759268,0.2298947076480864,-0.1463835233270159,0.9127598665848892,1.175071120262146,-0.5450068116188049,0.3714919686317444,0.0423429608345031,0.014103889465332,0.032613456249237,0.0688690692186355,-0.1104018539190292,-0.0264016847133636,-0.1335392892360687,0.0325413565121591,0.0470405681163072,136
1733460972734174000,-0.1660463022470474,0.0659542351618409,-0.7117080076634883,5.023282335767149,-1.5216286984063685,8.283819086197019,-0.8002864718437195,-0.2039410769939422,-0.0323767513036727,0.3078684543364958,0.2267091169121033,-0.1620053546553314,0.9097110396272072,0.9694688320159912,-0.5108374953269958,0.4175919592380523,-0.0009912252426147,0.0358966588973999,0.0689177066087722,0.0472890809178352,-0.0734686255455017,0.1271235741347074,-0.1408339589834213,-0.0608235942751169,0.0865232681989669,137
1733460972774174000,-1.062902202990651,-0.1240687166087329,-0.1176046351611614,5.085909180071949,-1.780369066441804,8.193546694597602,-0.7032420635223389,-0.1469021886587143,0.1616369038820266,0.3098391986322149,0.2254854275270008,-0.1772052911893499,0.9065066904570512,0.6864395141601562,-0.3619594275951385,0.5420849919319153,-0.0226707458496093,-0.1227653622627258,0.0422790497541427,0.0505552664399147,-0.0601546950638294,-0.0918015008628368,-0.1586623787879943,0.0807650334658101,0.0808066441178321,138
1733460972814174000,-1.1516221044510602,-0.049155952835083,-0.0160480484813451,5.124350846669078,-2.04307702293396,8.107851109394431,-0.539638102054596,-0.2779553830623626,0.4150598645210266,0.3065956001179606,0.223961407588902,-0.1909343648805336,0.905198599231888,0.503027081489563,-0.3665214776992798,0.5302624702453613,-0.0306710004806518,-0.0361146330833435,0.0160762667655944,0.0584174543619155,-0.0820796936750412,0.0072340429067611,-0.1559045761823654,0.0427013698682188,0.1353068805903196,139
1733460972854174000,0.1673334194481372,0.3187399325765669,0.1078670850008726,5.148542454117536,-2.297846879903227,8.02388921611607,-0.4615339040756225,-0.116315558552742,0.4846411347389221,0.2994084925027441,0.2228014807706317,-0.2031132999213932,0.9052397886552394,0.462468147277832,-0.4039264619350433,0.4184654057025909,-0.0450959801673889,0.0058779716491699,-0.0143096894025802,0.0393122658133506,-0.0592076107859611,0.0125818336755037,-0.167002871632576,0.0074428633518517,0.0192214178204536,140
1733460972894174000,0.7085965976446866,0.2263791903957724,-0.1754331392735242,5.157945073235035,-2.539028064242005,7.944766579562425,-0.5875554084777832,-0.188602477312088,0.2613686919212341,0.2940503325468111,0.2208353673116436,-0.2148519692845596,0.9047677103806024,0.2290194630622863,-0.2940216362476349,0.3507162630558014,-0.0617616772651672,-0.03669273853302,0.0517599582672119,0.0212818887084722,-0.0367870330810546,0.0162175598293542,-0.1394239366054535,0.012650222736597,0.0741957015454769,141
1733460972934174000,0.6421382123529911,-0.0604743424460291,0.5601379745364189,5.196272173541784,-2.760493763633072,7.845305503857135,-0.4953623116016388,-0.1392758637666702,0.1244921684265136,0.2926411587071962,0.2198839400047484,-0.2272703180237878,0.9024192506145672,-0.0937439352273941,-0.246829941868782,0.2841460406780243,-0.0450968146324157,-0.0070205926895141,0.0279230326414108,0.0163616146892309,-0.0110308025032281,-0.0104927524417638,-0.0962773784995079,-0.0154521284148097,-0.0333861367732286,142
1733460972974174000,0.1196019464582204,-0.2526440969869494,0.370101140370965,5.226799413752556,-2.9020155732154844,7.773626169046759,-0.3025631010532379,-0.202497512102127,0.1458055078983307,0.2913412101923198,0.219728889096279,-0.2353180732757275,0.9008135120868458,-0.1815478354692459,-0.2109521627426147,0.2198183089494705,-0.0288886725902557,-0.0013472437858581,0.0109907984733581,-0.0064496491104364,-0.0136545402929186,-0.0329074133455753,-0.0792617052793502,0.0273741830073297,-0.0080775079935789,143
1733460973014174000,0.2179278806537389,-0.1715691573217511,0.3282207314968109,5.290531588950753,-3.012868688289821,7.687865701913833,-0.2224067896604538,-0.3139854669570923,0.0932784676551818,0.2890183617335964,0.2221335168519718,-0.2422491123653863,0.8991331744620593,-0.148795485496521,-0.2221567183732986,0.1678042411804199,-0.0229478180408477,-0.0036001801490783,-0.0083707422018051,-0.0269981883466243,0.0041459640488028,-0.0541635518640279,-0.0683034360408783,0.0058551557689905,0.009136661657691,144
1733460973054174000,0.446610964077711,0.0382230554103851,0.283549815121293,5.3956899995148175,-3.073322572469712,7.590231257113814,-0.1209586486220359,-0.3370510041713714,-0.018398318439722,0.2873237321426964,0.2274191730832811,-0.2475609741491057,0.8969053754296311,0.0139929074794054,-0.23227359354496,0.1231372356414794,-0.0167488455772399,0.0200980305671691,-0.0045732259750366,-0.0397773906588554,0.0073066810145974,-0.0673269848197698,-0.0854049921035766,-0.0001789002308622,-0.0031388825476169,145
1733460973094174000,-0.095924718272686,0.0038806408256292,-0.0700502723038196,5.501433516490459,-3.0970395481437443,7.504196064692735,-0.0985888093709945,-0.4153385460376739,-0.0300058778375387,0.2866750386399914,0.2330385553046486,-0.25116828715241,0.8946647173443281,0.0039943354204297,-0.2678729295730591,0.0479230396449565,0.0040674805641174,0.0207944512367248,0.0028335452079772,-0.0458353571593761,0.0018541533499956,-0.0788929194509983,-0.0858112052083015,0.0121279158955439,-0.0462497099995613,146
1733460973134174000,0.134310270768404,0.0817424636632204,-0.1851566609084606,5.618058492964506,-3.127316905246675,7.404572491902113,-0.2116551548242569,-0.2727582156658172,-0.0755151510238647,0.2862721342375044,0.239132847096962,-0.2555139156382665,0.8919508421305872,0.0694918558001518,-0.2845888435840606,0.0339825861155986,-0.0076848864555358,0.0238056182861328,-0.0280827134847641,-0.0518933199346065,-0.0035983743146061,-0.0903711757987737,-0.0862174108624458,0.0243721881797537,-0.0894686740010976,147
1733460973174174000,-0.3609235621809959,-0.0103825700655579,-0.1769663401901721,5.717351226365566,-3.1839313573941586,7.303756494456529,-0.2422619760036468,-0.3914932906627655,-0.0583398006856441,0.2870968893333071,0.2435639450110059,-0.2613210073890904,0.888798728698796,0.0431531891226768,-0.2535301446914673,0.0478854849934577,0.0021536648273468,-0.0177395939826965,0.0076155662536621,-0.0382656902074813,-0.0034756625536829,-0.1361936002969741,-0.0714829862117767,0.042184323724173,-0.1223930384814739,148
1733460973214093600,-0.0354828167915344,-0.1492223009571433,0.1975415107071399,5.7492450787544245,-3.2638618031993505,7.243188336247205,-0.2339549511671066,0.1630570888519287,0.2259830832481384,0.2867162286859576,0.2442738692981008,-0.2665153902359475,0.8871829979172333,-0.1136550605297088,-0.160099372267723,0.052169382572174,-0.0393474400043487,0.0008281469345092,0.0595563203096389,-0.02469177916646,0.0009513236582279,-0.1293000048583373,-0.0525872409343719,0.0395377090723719,-0.1283680029715411,149
1733460973254093600,0.6398375341951846,0.1491889832094311,-0.0122235217571258,5.633719003432989,-3.401263025720417,7.270694767332077,-0.2390575408935547,0.2373190820217132,0.2715372741222381,0.2836236731552001,0.2367759194419383,-0.2706194833708809,0.8889655911470997,0.0234942659735679,-0.1537933200597763,-0.0315857678651809,-0.0354524850845336,0.029361605644226,-0.0093751102685928,-0.0096265412867069,0.0053077093325555,-0.1251385377973318,-0.0480486266314983,0.0656446212233975,-0.1247691199630498,150
1733460973294093800,0.6110229431211948,-0.1001943584159016,0.1182090307950973,5.576641609948873,-3.50607189219445,7.264909754189849,-0.2601485550403595,0.0744177103042602,0.0318725481629371,0.2832072971018687,0.2322173565134427,-0.2750777674135997,0.8889325072906173,0.1390573382377624,-0.1725476682186126,-0.0134777389466762,-0.0021515786647796,0.0144919753074646,-0.0367248058319091,0.0054386975243687,0.0096640959382057,-0.1208902327030897,-0.0435100123286247,0.0917516338391229,-0.1212473755776882,151
1733460973334093800,0.2343266422688961,-0.2775961674138903,0.2334405070841312,5.553356595951319,-3.5809590831354257,7.246195116847753,-0.2064756155014038,0.0766130685806274,0.030404595658183,0.2842196102650545,0.2295219948450967,-0.2790457142332304,0.8880722603750898,0.4808213412761688,-0.2164593189954757,0.1126690134406089,0.0416348278522491,0.034697413444519,-0.0327842757105827,0.0078574661165475,0.0231723003089427,-0.0912754311621189,-0.0236313790082931,0.0853000830795615,-0.0893716433674097,152
1733460973374093800,0.3393792543709278,-0.2820493474304676,0.2550795074403286,5.531502491539716,-3.625587037152052,7.240716977697611,-0.0624811090528965,0.0346898920834064,0.0079864114522933,0.2847162069737828,0.227504958796462,-0.2811897275940597,0.8877559183469885,2.377870798110962,-0.2601276934146881,0.3487951159477234,0.0593872964382171,0.0819519162178039,-0.066173180937767,0.0102762356400489,0.0366805046796798,-0.0616337416142225,-0.0037527456879615,0.0788436734817922,-0.0575157849013805,153
1733460973414093800,0.2208095735698938,-0.1792626344338059,0.2302753210514783,5.534102444905042,-3.627068800142408,7.237987260472774,0.0178329609334468,-0.0192222949117422,-0.0310739930719137,0.2850390768977958,0.2275242703141949,-0.2814214929091653,0.8875738268106027,2.273841857910156,-0.2490589171648025,0.361467182636261,0.0092994272708892,-0.0389495491981506,0.0195585191249847,0.0050763143226504,0.05866539478302,-0.0498410124897956,0.0020941300317645,0.0346083720445632,-0.0501245056062936,154
1733460973454093600,0.1635457176029682,0.083203476126492,0.056865796560049,5.542435388964415,-3.608964695914089,7.24066144811809,0.0463634952902793,-0.0215476732701063,-0.0468501970171928,0.2854042764433235,0.2281346334825917,-0.280684181837823,0.8875333988270055,2.08833384513855,-0.0341966748237609,0.3495263755321502,-0.0721997320652008,0.0306637287139892,0.0979751348495483,0.0070526115596294,0.0637318864464759,-0.0408458051294088,0.0045175165869295,-0.0020285466855391,0.028614684587717,155
1733460973494093600,0.0421364294618368,0.153484342315793,-0.1245078386783599,5.5608940057188265,-3.5855724221497773,7.238129299291968,0.0028888012748211,-0.0253135710954666,-0.0806488320231437,0.2864038811522909,0.2291822681546841,-0.2800599664433969,0.8871385823679813,1.5977537631988523,0.0751405730843544,0.234666958451271,-0.0335734486579895,-0.0694586038589477,0.1329197585582733,-0.0018236758187413,0.0731781870126724,-0.0228244107484817,0.0638018921017646,-0.0126279378395527,0.0722732090502977,156
1733460973534093600,-0.1543909357666969,0.15140110630095,-0.1995908444523811,5.56034864679575,-3.58588338779509,7.238394087707996,-0.065613754093647,0.0806358456611633,0.0329032391309738,0.2872071539010418,0.2288938646497009,-0.2802716673575535,0.8868863896705775,0.2192837446928024,0.1790355443954467,0.0296215284615755,-0.1014590263366699,0.0108941793441772,0.0903576016426086,-0.0088517945259809,0.0764076337218284,-0.1051432129949331,0.0746065303683281,0.0022716347264125,-0.1072726262390613,157
1733460973574093800,0.0145306296557188,0.1107891099274158,-0.201808520501852,5.5147284668713805,-3.62921779486984,7.25168494643569,-0.0969328954815864,0.1263654083013534,0.0909021273255348,0.2869699866016607,0.2258128020903417,-0.2815591241908425,0.8873451191889431,-0.7471054792404175,0.0829485952854156,-0.0224773585796356,0.0294321775436401,-0.039549171924591,0.0285539627075195,-0.0015878612175583,0.05483228713274,-0.1223205577671527,0.0296516790986061,0.0314206088539212,-0.096003044205904,158
1733460973614093800,0.1217985797196626,0.0762222389370202,-0.2802981198489666,5.476892364951968,-3.674408058944344,7.257600307959318,-0.1269090473651886,0.0487538278102874,0.0525335520505905,0.2866461872974318,0.2231649320198885,-0.2831303330980829,0.8876196374491181,-1.377948522567749,-0.0546218380331993,0.0337394401431083,0.0212023854255676,-0.0417138934135437,-0.0792819261550903,-3.51031776517e-05,0.0283422153443098,-0.095534842172265,-0.009225383400917,0.0383081764105707,-0.0201040458738803,159
1733460973654093800,0.3071078008413315,-0.1365823073536157,-0.0247416425466537,5.4593268976449965,-3.724666420063376,7.245204936766624,-0.1497740149497985,0.0926681533455848,0.042876124382019,0.2869165024420438,0.2213669149946424,-0.285646683234841,0.8871762478607769,-1.293157696723938,-0.2300968766212463,0.1741523444652557,0.075199544429779,-0.0709126591682434,-0.0640255808830261,-0.0054655941203236,0.0156474858522415,-0.0605038608014583,-0.0256087314337492,0.0182600254423916,-0.0125263040959835,160
1733460973694093800,0.1195475859224796,-0.0840431418210268,0.0921791020035743,5.402528905624151,-3.76134399959743,7.268793317624926,-0.0277021471410989,0.118763692677021,0.0029644218739122,0.2876470338791977,0.2174724685204402,-0.2865316586707843,0.8876173812521254,-1.1375707387924194,-0.3204705119132995,0.3352622091770172,0.0288513302803039,0.0049219131469726,-0.0831278860569,-0.0108960848301649,0.0029527591541409,-0.0254489140331745,-0.041992075741291,-0.0017934592880308,-0.0049707741498947,161
1733460973734093600,-0.104358200097084,-0.1117535710453987,0.1337619892358779,5.390007277703285,-3.766254567992687,7.275543376407027,0.0114499107003211,0.0064742974936962,0.0174458865076303,0.2880897053046842,0.2165714795543501,-0.2866135134550464,0.8876676793917827,-0.909363865852356,-0.1942820996046066,0.2904104590415954,0.0212675333023071,0.0123155713081359,0.0381739139556884,-0.0189660806208848,0.0117883700877428,-0.0373263988316059,-0.048698142170906,-0.0180345095908269,-0.0095563483744859,162
1733460973774093600,0.2401934884756803,0.0512304210215806,-0.1833984190642833,5.378997807911038,-3.764487558320164,7.284600543087721,0.0038740932941436,0.0393505655229091,0.005395162384957,0.2876369813190929,0.2161424368881102,-0.2861314318605613,0.8880744295817918,-0.8894405364990234,-0.3654293119907379,0.3769430816173553,0.0300777554512023,0.0296273231506347,-0.0597277730703353,-0.0270360764116048,0.0206239819526672,-0.0491658897072076,-0.055404208600521,-0.0342983562473207,-0.0141787474781274,163
1733460973814093800,0.1432733294248581,-0.0626911417126655,-0.3219505651861429,5.373265986260772,-3.7689293401598927,7.286532972455024,-0.0674707368016243,0.0101225627586245,-0.0320966318249702,0.2885833947374759,0.2154577072225024,-0.2864754546160419,0.8878227669082822,-1.762366771697998,-0.493095338344574,0.2497176080942154,0.0158566832542419,-0.0887352228164672,-0.0846772789955139,-0.0220519695430994,0.0258405469357967,-0.0921060367673635,-0.0550700649619102,-0.0393471640694886,-0.0741290660500526,164
1733460973854093800,-0.0020668694019317,0.0440153750762343,-0.0739238988667726,5.3592421370834105,-3.796177997091412,7.282714875471592,-0.1184652671217918,0.1115932017564773,0.0212895721197128,0.2894798578947803,0.2139920559047266,-0.2879101799541527,0.887421242681476,0.2618650197982788,-0.3202342391014099,0.1092626303434372,-0.0421200692653656,0.2153778076171875,0.1023176908493042,-0.0170678626745939,0.0310571137815713,-0.1350204648643732,-0.0547359213232994,-0.0444244125348515,-0.134106857150793,165
1733460973894093800,-0.0391395857334136,0.1644593253165483,0.0448246456325054,5.318653521585464,-3.836266846373677,7.291458738419413,-0.0770664364099502,0.0973399579524993,0.0801503509283065,0.289379705753425,0.2112080391813277,-0.2891889395430046,0.8877051024858456,0.114167183637619,-0.2149944752454757,0.0176878366619348,-0.0629258155822753,-0.011762797832489,0.0212063863873481,0.0009413007646799,0.0139653980731964,-0.1095247890800237,-0.0556301586329937,-0.0561420671290718,-0.1441337456464767,166
1733460973934093800,0.0526823733955621,0.0999926983639597,0.1672808124780654,5.285938415941596,-3.874002702789008,7.295296124625206,-0.0679828897118568,0.0614781342446804,0.0600003823637962,0.288893137527435,0.2090172444136133,-0.2904396990267272,0.8879737212749874,-0.1828922033309936,0.0863854587078094,0.0679056718945503,-0.0487368106842041,-0.0429629683494567,0.1643220633268356,0.0104822255671024,0.0143634714186191,-0.149914667135477,-0.0568527691066265,-0.0443387800780124,-0.1119967321515083,167
1733460973974093600,-0.0874123259931802,0.0283922740086913,0.0964846902430057,5.265621604099869,-3.902659472952783,7.294715109866857,-0.0650521591305732,0.0271187499165534,0.0738029405474662,0.2882935891901608,0.2076769814980231,-0.2914503654943167,0.8881518988818409,0.1632971763610839,0.4916324019432068,0.0457104817032814,-0.0554818511009216,-0.0275304317474365,0.0855859518051147,0.0060725822113454,0.0066598220728337,-0.1134048453837633,-0.0523808225989341,-0.0356827232778072,-0.0888233618348836,168
1733460974014093600,0.0207493580400943,-0.0695157270357012,0.0807867703735828,5.242603716605902,-3.942418067367375,7.289912678021192,-0.0570808090269565,0.0318469032645225,0.085118144750595,0.2873141029537576,0.2061500612355841,-0.2929505606290307,0.8883314459719133,1.1962199211120603,0.4243054986000061,0.0653331875801086,0.0088438689708709,0.0582162141799926,-0.0539370775222778,0.0016629388555884,-0.0010438282042741,-0.076849430924654,-0.0479088760912418,-0.0270250225097872,-0.0656944151818752,169
1733460974054093800,0.0400356577903032,-0.085825641323626,-0.0327951851427555,5.226610028660297,-3.966061393283308,7.28857295385003,-0.0194807555526494,0.0011946553131565,0.0717372968792915,0.2861532706699035,0.2053098280016794,-0.2936564013972766,0.8886676141829206,0.7138213515281677,0.2254907190799713,0.0420967750251293,0.0304303765296936,-0.1033887863159179,-0.1119634509086608,0.0029624092858284,0.0010098624043166,-0.0284831671625375,-0.030741898342967,-0.0436261200303211,-0.0241314016938209,170
1733460974094093800,0.1098088667184114,0.0331692791521549,-0.1960252609252929,5.2216293176382775,-3.982255279976129,7.283311087799071,-0.0136604057624936,-0.0620111934840679,0.0414651669561862,0.2850526203978586,0.2051613361216756,-0.2942164481351606,0.8888704042531326,-0.1620124876499176,-0.140413612127304,0.0618016347289085,0.1014220714569091,0.0085005760192871,-0.0125842690467834,0.0059572802856564,0.0141191221773624,-0.0226443780064582,-0.0277703218162059,-0.0647943793359212,-0.0357154565036296,171
1733460974134093800,0.0737614017814397,-0.0037491234004497,-0.2127583690613508,5.24450867344439,-3.997560693396628,7.258444942089914,-0.0813199877738952,-0.0752434879541397,-0.0089287431910634,0.2848031088833838,0.2062601218714645,-0.2955994982241377,0.8882369308815949,-0.3086954057216644,-0.3887980580329895,-0.0939472839236259,0.0232763290405273,0.0760270953178405,-0.1003502011299133,0.0087865181267261,0.0090414145961403,-0.1437766027718782,-0.0545119941234588,-0.0201220564546063,-0.0638455724447965,172
1733460974174093800,0.0275397488325834,-0.0503042460873723,0.1577227105379104,5.22429123032391,-4.036298712591827,7.251583824148773,-0.0385510064661502,0.1154313459992408,0.156249389052391,0.2836015673616671,0.2049853214305558,-0.297074322510886,0.8884245437878985,-0.1970114856958389,-0.3744882941246032,0.0200917404145002,0.0667513608932495,-0.0304080247879028,-0.014845535159111,0.0108854360878467,0.0049138995818793,-0.0608884762048721,-0.0571925565600395,-0.0683762746769934,-0.0468552746772766,173
1733460974327020000,0.1000578725546598,0.0130517892748117,0.0573556259036064,5.2177632898598905,-4.062993827293813,7.2413681350827215,-0.0592646710574626,0.0458377487957477,0.0572242587804794,0.2821845322536722,0.2047099858635709,-0.2981389088444481,0.888582507411006,0.0351866073906421,-0.126737579703331,0.0615891814231872,-0.0374497473239898,-0.035890519618988,-0.0608244538307189,0.0130130052566528,0.0177839919924736,-0.0912426796699874,-0.0179751813411712,-0.0597458455083891,-0.0672475309419678,174
1733460974366766800,0.2389431961536407,-0.0754544694349169,0.0058335284590721,5.22567245554924,-4.075642296464741,7.2285460629105565,-0.0442653186619281,-0.054617054760456,-0.0530169941484928,0.2823142147247849,0.2049105356426208,-0.2990959634141819,0.888173418193753,-0.1098017320036888,-0.0372756570577621,0.0320762284100055,-0.0092166066169738,0.0419681072235107,0.1209003329277038,-0.0089716864749789,0.0129740303382277,-0.090591339621786,0.0037944016512483,-0.0652548410210991,-0.0796029856828041,175
1733460974406766800,-0.0031353754162788,-0.0101095983430743,0.1800210515856742,5.242247158253193,-4.07320133305341,7.217912440693378,0.0223912261426448,-0.0282815694808959,0.0043284730054438,0.2827119922852474,0.2057155749467452,-0.2994494634854857,0.8877415378935708,-0.0142238177359104,0.130227044224739,-0.0886188969016075,0.0006984770298004,0.0336472392082214,0.0319551229476928,0.0015568379312753,-0.0028081396594643,-0.0740776281237602,0.0062668630853295,-0.0541130820521153,-0.0800397513985633,176
1733460974446766800,0.2026204214066267,0.0208779528558254,-0.0711661245912313,5.254812625315785,-4.06558238248229,7.213069676837325,0.0132618127390742,-0.0530991367995739,-0.0165433604270219,0.2822724668350035,0.206661307393613,-0.299210462065768,0.8877424071809756,0.0050753122195601,0.1769295334815979,-0.0380061194300651,-0.0095216035842895,-0.0327075719833374,-0.008278876543045,-0.0087013505399227,-0.0036156983114778,-0.048100306302309,0.0172098167240619,-0.0393402594046667,-0.0290928234934806,177
1733460974486766800,0.0806979230463504,-0.0840843506142497,0.0569487986683845,5.267200397723913,-4.057285971041024,7.208704467365146,0.0337385274469852,-0.0051670907996594,-0.0191144291311502,0.2824572128565255,0.2073972063030969,-0.2990731452643896,0.8875582816370562,-0.0579193644225597,0.1266969740390777,0.0566649325191974,0.0492661595344543,-0.0468869805335998,-0.0308675169944763,-0.0189595390111207,-0.0044232569634914,-0.0221200618714094,0.0281527694314718,-0.0245692451218143,0.0218523508459329,178
1733460974526766800,0.0539274050205945,-0.0583624648585915,-0.121495797380805,5.273171288827061,-4.033627447555959,7.21761024287641,0.0979142859578132,-0.0700774118304252,-0.0209718830883502,0.2822118342922751,0.2081540657145173,-0.2977854622266692,0.8878919396308644,-0.2845679521560669,-0.3960348963737488,-0.0106705669313669,0.0694884955883026,0.0210133790969848,-0.1627842634916305,-0.0346266403794288,0.0092348773032426,-0.0083422964096069,0.0421874970197677,-0.0300978175512514,0.0302320566564798,179
1733460974566766800,0.1837777737706899,-0.0110033323124051,-0.2535416303485632,5.31300996274054,-4.0033243714898825,7.205255788215994,0.0171495005488395,-0.107656106352806,-0.08196721971035,0.2823308022269781,0.2107365822362152,-0.2970257345667709,0.8874994279256556,0.4265418648719787,-0.416441947221756,-0.1549920588731765,0.005705177783966,0.2241109609603881,0.0030924826860427,-0.0368138924241066,0.0186178181320428,-0.0721288321435451,0.0403845757246017,-0.0073316945949569,-0.0072013096809387,180
1733460974606766800,-0.0636719694435596,0.0006885667860507,0.1841992140531539,5.318196425467729,-3.995713604225218,7.205653263100981,0.0341414138674736,0.0420187525451183,0.03391744941473,0.282757285724682,0.2109895140006338,-0.2968119616249215,0.8873749975610711,0.7065817713737488,-0.0460449680685997,-0.0124188661575317,-0.006026953458786,-0.0979716181755065,0.0986639261245727,-0.0263816453516483,0.0239084288477897,-0.0682025986105203,0.0384154729545116,-0.0196202261460013,-0.0067968205332756,181
1733460974646766800,0.240440156713128,0.0869397400453686,-0.0562555557072162,5.323085951074957,-3.982455478723347,7.209381343713402,0.0172494910657405,-0.0529717057943344,-0.0715653225779533,0.2827920642777342,0.2114404902335523,-0.2961701533537376,0.8874709718980117,-0.1976117491722107,-0.2095926254987716,0.0790620446205139,-0.0393319427967071,-0.0150146484375,-0.029367059469223,-0.01594939827919,0.0291990377008914,-0.0642646746397018,0.0364463701844215,-0.0318976335148327,-0.0064051908671855,182
1733460974686766800,-0.0256114111185073,0.1054611929029226,0.0147562551051378,5.354056258878112,-3.959975935889781,7.198823124819993,0.0304683428257703,-0.0780643001198768,-0.0542926229536533,0.2834355186287302,0.2132518342811633,-0.2957800201512797,0.8869622950283702,-0.0947399586439132,0.0849821791052818,-0.1263118088245391,-0.0876794755458831,0.0170950889587402,0.1384390443563461,-0.0107326228171586,0.0137973316013813,-0.0607546206921339,0.0281630419194698,-0.0181477059080265,-0.0064800096690654,183
1733460974726766800,-0.0250000012218952,-0.0244826993495225,0.0351876332372426,5.375741436463594,-3.948395680472255,7.189016601076721,0.0120345307514071,-0.0514017306268215,-0.0219660401344299,0.2838241787121681,0.2144809042967153,-0.2957365501731857,0.8865560419457547,-0.2215959131717682,0.3471009433269501,-0.1336856335401535,-0.0606665313243866,-0.0488237738609313,0.0781444907188415,-0.0055158478207886,-0.0016043726354837,-0.0572422286570072,0.0198797155171632,-0.0043944720992818,-0.0065565820366144,184
1733460974766766800,0.1442670166373252,0.000807516990602,-0.0372808061242103,5.420456191980838,-3.9252033131942152,7.168111760213971,0.0602963268756866,-0.1887199133634567,-0.0660971626639366,0.2834668262832466,0.2173953352083269,-0.2954103727445655,0.8860692057854632,0.0225280709564685,0.3350573778152466,0.0289000123739242,0.0061314702033996,-0.0175930857658386,0.015762448310852,-0.0013936450704932,-0.0134580908343195,-0.0155243168681859,0.0293874237686395,0.0196011561193503,0.0339332492619752,185
1733460974806766800,0.0816892721712589,-0.120753454580903,-0.0897580123364925,5.478993136623502,-3.897913447469473,7.138436752918362,0.0500612184405326,-0.1340940147638321,-0.0404449850320816,0.2834001362127109,0.221039578557682,-0.2952668555480662,0.8852362721569361,0.0828617215156555,0.0518503822386264,-0.0510317049920558,0.0410415530204772,-0.0264422297477722,-0.1141668558120727,-0.0011924626305699,-0.011962248943746,0.0115969142913818,0.0316778793931007,0.0266928862122818,0.0558943211793899,186
1733460974846766800,0.1603583197385072,-0.0313411869421601,-0.3696808691322803,5.509859399530291,-3.878539761696756,7.125219543948769,0.0434428602457046,-0.0907567963004112,-0.0084656262770295,0.2828692935025048,0.2232031320822759,-0.2947800122772734,0.8850254349976995,-0.0742208361625671,-0.1821030974388122,-0.1276782900094986,0.0602516829967498,0.0432139635086059,-0.072016641497612,-0.0130245117470622,-0.0008244756609201,0.0066489364951848,0.023409467190504,0.0359944013091735,0.0539104538857936,187
1733460974886766800,0.1236304713219404,0.0698871906965971,-0.3508937510758638,5.520699357974529,-3.8792113773480055,7.116458145344257,-0.0676819086074829,0.0488334856927394,0.0155328242108225,0.2828869715358113,0.2237861182132484,-0.295095536364774,0.8847673986883944,0.0255763251334428,-0.4093427956104278,0.0162539239972829,0.0582208931446075,0.0049597024917602,-0.1131648868322372,-0.0248565599322319,0.0103132994845509,0.0017079729616641,0.0151410568505525,0.0453013597661629,0.0519201568514108,188
1733460974926766800,0.1801747808426618,-0.0388622300967574,0.0402899248123168,5.483458883860707,-3.912168767315149,7.1272016576766966,-0.0538793504238128,0.1093556135892868,0.0444468259811401,0.2830100918983325,0.2212068234441011,-0.2961104525901064,0.8850375344999205,0.0467151664197444,-0.3155500292778015,0.0653234645724296,0.0220903158187866,0.0144684314727783,-0.0024771690368652,-0.0177619010210037,0.0165902897715568,0.0121031102478504,0.0157953016459941,0.042409967439901,0.0468365699768066,189
1733460974966766800,0.2244207498043775,0.1330672849699855,0.0006108253747224,5.473180066430569,-3.915606340548396,7.133212296268344,0.0196625106036663,-0.0464419722557067,-0.0433416180312633,0.283162463021268,0.2205388500768403,-0.2960912295812046,0.8851619433903196,-0.0974643751978874,-0.130926251411438,0.0694092214107513,-0.0094266533851623,-0.0102173089981079,0.0642167925834655,-0.0106672430410981,0.0228672809898853,0.022499416577816,0.0164495445787906,0.0395254980447702,0.0417483069270849,190
1733460975161793500,0.094322543773055,-0.012982231169939,-0.119492640864849,5.4886564525038,-3.8964495123967526,7.131810028254986,0.0109984781593084,0.0612389706075191,0.0708803087472915,0.2825124645874233,0.2218898500698533,-0.2952012306245496,0.8853292770517414,-0.1794524639844894,0.2795459330081939,-0.0323741994798183,-0.0257309973239898,-0.0342418551445007,0.0527145564556121,0.0439465008676052,0.0069972928613424,-0.1335477619633078,-0.0104974601417779,0.095597934003733,-0.0496650166020728,191
1733460975201793500,0.4440981044739484,0.0598567950695753,-0.0146796827375888,5.458955726245045,-3.9100323398083447,7.147156065946817,0.036649651825428,0.0274521224200725,0.0272312443703413,0.2816484901182587,0.2203417541810008,-0.2950355183415968,0.8860461722794332,-0.0635282471776008,0.5266171097755432,0.0150190833956003,-0.031422346830368,-0.0009704232215881,0.0463204532861709,0.0562316961586475,0.0107732312753796,-0.0470920060425996,-0.0004305215552449,0.0674836732188239,-0.0026730186015367,192
1733460975241793300,0.2141910322129726,0.0941533246859908,-0.0605880319535732,5.467249507337808,-3.882528539071977,7.15580523634851,0.0991120561957359,-0.0273718833923339,-0.0312219765037298,0.2815908561462151,0.221218606419862,-0.2936286889058114,0.8863132536155423,0.0203799661248922,0.6014028787612915,0.0241191051900386,-0.0038345754146575,-0.0219810009002685,0.0480891317129135,0.0431331731379032,0.0195705592632293,0.0245651169359683,0.0159159563481807,0.0456325279492884,0.065709612751007,193
1733460975281793300,0.1595920115411281,0.0910416224062442,-0.4001069870561361,5.474263770014048,-3.8629564081177112,7.161033200129866,0.0365082137286663,-0.0566364042460918,-0.0021471627987921,0.2812326134323211,0.2220084106652155,-0.2925768151900326,0.8865773127975961,1.0721652507781982,0.3452439606189728,0.0346776731312274,0.067226231098175,0.0358389019966125,-0.0433762520551681,0.0300346538424491,0.0283678863197565,0.0962333458304405,0.0322624370455741,0.0237749712052755,0.1340554192245006,194
1733460975321793500,0.1576128204226493,0.1390948746964335,-0.4173638268053531,5.487765056622028,-3.849509189784527,7.157939325767755,-0.0038921965751796,0.0130366878584027,-0.0368352308869361,0.2816843540479408,0.2227997438226596,-0.2922446368290012,0.8863448992306528,0.2943377494812011,0.1383743435144424,0.0264593567699193,0.0505574643611907,0.0570682287216186,-0.0888431668281555,0.0230459719896316,0.0359753556549549,0.0785731859773397,0.0599934607744216,0.0046000959402881,0.1121516304522752,195
1733460975361793500,0.7877297555923461,0.5294999674275517,-0.7418816121309996,5.487921123966574,-3.843523685634136,7.161034953695535,-0.0458332821726799,-0.0469891279935836,-0.1483379602432251,0.2830587621338498,0.2224424491644188,-0.2922467723598361,0.8859959407937597,1.759397268295288,0.1486836075782776,0.1014423221349716,0.067362368106842,0.059129774570465,0.0712132155895233,0.0160572901368141,0.0435828268527984,0.0609860913604497,0.0877244845032692,-0.0145591342309955,0.0901893894910812,196
1733460975401793500,0.7625064670085907,0.5217962611824274,-0.7821773821622133,5.530353321504593,-3.8268420154243694,7.137286413839459,-0.164275661110878,0.014149704016745,-0.2788038253784179,0.2870483337868514,0.2237079037515356,-0.2933503729391246,0.8840269064493688,2.7776424884796143,-0.0382327996194362,0.1865807175636291,0.0215213000774383,-0.0414687395095825,0.0790285468101501,0.0356374308466911,0.0299949645996093,0.0479360556513071,0.1066265553236007,-0.0150662161034531,0.0877852509588003,197
1733460975441793500,0.5728998409539461,0.507263001178205,-0.7333937697708607,5.581245888873935,-3.800786952191591,7.11154699242711,-0.1449058204889297,-0.0844544917345047,-0.374399721622467,0.2934978126242163,0.2247556811899535,-0.2947828049562184,0.8811623169223957,5.319202423095703,0.1156184449791908,0.5710803866386414,-0.0046809315681457,0.0620589852333068,0.0869727730751037,0.0552175678312778,0.0164071060717105,0.0350707288593053,0.1255286186933517,-0.0155786774039268,0.0852116010785102,198
1733460975481793300,0.750952222815156,0.537490966181457,-0.6151566819250583,5.711596608361601,-3.731954531244933,7.044186689859628,-0.1228903084993362,-0.3563899099826813,-0.6138167977333069,0.3013979047006834,0.2303510930978507,-0.2962849842638371,0.8765346639509979,4.137595653533936,0.0099409092217683,0.1244076862931251,-0.0849234461784362,-0.096897542476654,0.0881118774414062,0.0721129551529884,0.0190660264343023,0.0696194796711206,0.140974685549736,-0.0442753548864042,0.1064671550750732,199
1733460975521793300,0.3461743213385343,0.6756660956844687,-0.3087555680483579,5.956113220733404,-3.5846211127743124,6.917051425287127,-0.0316678695380687,-0.6210869550704956,-0.8303035497665405,0.3115038670425148,0.2428211877690909,-0.2972648474664553,0.869273812835786,1.8001238107681274,-0.0038333861157298,0.1610268205404281,-0.0141011178493499,-0.0681670308113098,0.1687072515487671,0.0669473558664321,0.0015240423381328,0.0772661950320005,0.1646310985088348,-0.0502400217447429,0.1587719273298978,200
1733460975561793300,-0.1864946315139532,0.4594678153023123,-0.1819394524276256,6.2634273578017945,-3.381441011658311,6.745792941349745,-0.0590163059532642,-0.7182717323303223,-0.8556849956512451,0.3223829371304653,0.2596545780253034,-0.2977243295962466,0.860237797404535,2.029395341873169,0.2107623219490051,0.1051481738686561,-0.1512747704982757,0.062980055809021,-0.0910782814025878,0.0654931738972663,-0.0139883020892739,0.0479372246950864,0.1796257048845291,-0.0494258466844912,0.142370827627182,201
1733460975601793500,-0.3449205218851566,0.461795965988934,0.4859364277720451,6.545453908878565,-3.179065212662518,6.574264408299326,0.0195757206529378,-0.6016876101493835,-0.8180437088012695,0.3332776924687445,0.2753423341759199,-0.2983159231716558,0.8509524670560598,1.2076849937438965,-0.0622294805943965,0.1668950319290161,-0.016167938709259,-0.0589522123336792,-0.0372132658958435,0.0732230246067047,-0.0461958050727844,0.0122211836695671,0.1868443191051483,-0.0297474697436206,0.1401449682712554,202
1733460975641793500,-0.7105868946790694,0.3996528135478496,0.4328676854074001,6.800238817286491,-2.920747161692381,6.4340013666063545,0.3854753375053406,-0.5188149213790894,-0.7858009338378906,0.3416223028446609,0.2917114001899462,-0.2947230381755513,0.843408033499345,1.0184016227722168,0.0436048097908496,0.2146870493888855,-0.0137361884117126,-0.039807379245758,-0.000734806060791,0.0778012573719024,-0.0748579502105712,0.0715045627653598,0.2388861775398254,-0.0470010352569399,0.161869308823347,203
1733460975681793500,-0.5033189397275447,0.1286541447028517,0.0806418089449405,7.014649629729986,-2.570590200458467,6.352727689498662,0.4479207098484039,-0.4634042382240295,-0.993379533290863,0.3511645866178063,0.3074758004298056,-0.2855865435288355,0.8370080396357777,0.3144387602806091,0.220777615904808,0.3421780467033386,0.0180588662624359,-0.0394038259983062,0.0693565011024475,0.0823794975876808,-0.1035200953483581,0.1314677408188581,0.2909280359745025,-0.0646881059498526,0.1830593963682651,204
1733460975721793500,-0.8071779679059982,0.3634013504713773,-0.2311000814378261,7.291124976420402,-2.136008404609561,6.200593008226156,0.6846450567245483,-1.0089997053146362,-1.0282753705978394,0.3606276625173836,0.3291619080538387,-0.2747911343059433,0.828305514173991,-0.6460235714912415,0.3548969626426697,0.4643653929233551,0.0152629017829895,-0.1011877059936523,0.0987302064895629,0.085076980292797,-0.1165802702307701,0.2151268517583608,0.355379968881607,-0.1174927631513681,0.2316530391454696,205
1733460975761793300,-0.5622480985581875,0.1286713880985975,-0.0044739305436611,7.582197003740072,-1.6687416059941051,5.991325403890014,0.6390023827552795,-0.7475000023841858,-1.0505794286727903,0.3683570004216133,0.3538814418631684,-0.2632401008491906,0.8184043721650911,-1.2324680089950562,0.4581405222415924,0.8126967549324036,0.013374239206314,-0.1378662288188934,0.1614831686019897,0.0753250643610954,-0.1165541782975196,0.1830401071459055,0.4507261514663696,-0.2176410265363752,0.3496259230971336,206
1733460975801793300,-0.7556780822932719,0.3545939938332885,0.1744476353675127,7.82381146492958,-1.1817905943520366,5.793249640175699,0.8902435898780823,-0.6115148067474365,-0.8214669823646545,0.3750454975048953,0.3773976989751457,-0.249394144111671,0.809144335793131,-1.7723910808563232,0.3815826773643493,1.1016966104507446,0.0472718626260757,-0.1065757274627685,0.1631491184234619,0.0655731558799743,-0.1165280863642692,0.1534457638710737,0.5460723638534546,-0.3187500886444002,0.4657973105847835,207
1733460975841793500,-0.9436310959219932,0.733587611842528,0.6081891809999942,7.888611561620235,-0.8425238604448735,5.764577672442793,0.5553385615348816,0.1397216320037841,-0.2791107594966888,0.377540289378322,0.3884496757777406,-0.234936577506625,0.8070780997643482,-0.7843657732009888,0.585928201675415,1.6691601276397705,0.0819889158010482,-0.1327853202819824,0.0772719383239746,0.0646326690912246,-0.152890458703041,0.1662678360432386,0.6678465604782104,-0.2549375416863709,0.4612403779327869,208
1733460975881793500,-0.8239625139683484,0.6946938906289637,-0.6473708523094653,7.84570648587346,-0.7119025073222816,5.840244615584612,0.4792045652866363,0.1793951690196991,0.2080504149198532,0.3736508486561457,0.3897874304127756,-0.2242680627971277,0.8112672245154287,-1.1421375274658203,1.0635839700698853,2.4659972190856934,0.0978500545024871,-0.3616223931312561,0.1954550743103027,0.1026612073183059,-0.1794909536838531,0.2394353635847568,0.772686243057251,-0.2227824993443675,0.4663865086495876,209
1733460975921793500,0.7933598704338073,1.297909813261032,-0.1214542963266372,7.807060821136832,-0.710881639841944,5.891928625592589,-0.2366860657930374,0.0643195509910583,-0.2023529857397079,0.3735341417099673,0.3873701332505708,-0.2225749732416278,0.8129433640719252,-0.9946249723434448,1.015982747077942,2.934540271759033,0.1537780612707138,-0.2180581092834472,0.0640097260475158,0.1636261343955993,-0.1544855237007141,0.3472580249220132,0.8207906484603882,-0.2848539199898019,0.5115460853248834,210
1733460975961793500,0.5423877983123063,1.0556885452847926,1.0830191083461045,7.833875762826204,-0.6194948572598398,5.8665995385468,0.2008539736270904,-0.1348660141229629,-0.3823383748531341,0.378596628601524,0.3897943028103882,-0.2212398351152927,0.8098010812965248,-1.1129120588302612,1.3749332427978516,3.718325138092041,0.1137828826904296,-0.2511948347091675,0.1236293911933898,0.1938603818416595,-0.1077318787574768,0.3003782003253698,0.8250606656074524,-0.3438293656475842,0.7277265377894043,211
1733460976001793300,0.8357774549245834,0.8377048427905887,0.986246833333373,7.822552989301085,-0.4152779604420065,5.899626194357872,0.3304797410964966,0.149573802947998,-0.4438523650169372,0.3841955484416961,0.392369105730977,-0.2127187074620742,0.8082022922211907,-1.2636200189590454,1.4679317474365234,3.8867788314819336,0.1608140766620636,-0.1985917091369629,0.0356262922286987,0.2240946292877197,-0.0609782338142395,0.2625146258771419,0.8293306827545166,-0.4057141959460452,0.9385673827916384,212
1733460976041793300,0.1284305650800466,0.6968336060713977,0.882123611035943,7.821815322676301,-0.2461251618132926,5.910076861223578,0.6145990490913391,-0.0656351670622825,0.1634824573993683,0.3831477950075233,0.3966330114865995,-0.2033523789116947,0.8090289176753451,-2.476353883743286,1.6423444747924805,4.758317947387695,0.0939173400402069,-0.2772746086120605,0.1879169344902038,0.2236110717058181,-0.0608194023370742,0.1172124209731817,0.7608118653297424,-0.4002907461252063,0.959504372358322,213
1733460976081793500,0.593939121851325,1.1755194051280615,0.2642833891153335,7.789058715978264,-0.2199337223171256,5.954206510329247,0.5531514883041382,0.199222907423973,0.4553087651729584,0.373331555623752,0.3975591242917842,-0.1958741548711786,0.8149868733254517,-2.7653748989105225,1.4205924272537231,4.975470066070557,0.186303436756134,-0.1328324079513549,0.0747619867324829,0.2231275141239166,-0.060660570859909,-0.0197077400326728,0.6922930479049683,-0.3975230349775403,0.9760387430518864,214
1733460976121793500,0.6743769326567649,1.5885402342930437,-0.8028893308013677,7.770121960318088,-0.2290823849398642,5.978554769644141,0.4767218828201294,-0.2326422780752182,0.4225378632545471,0.3617302720618665,0.3988596005649241,-0.1899725150557325,0.8209584587549444,-3.0676145553588867,1.084416389465332,5.247770309448242,0.342797577381134,-0.0244892835617065,-0.0479887723922729,0.2243280112743377,-0.0543734058737754,-0.027480712121725,0.6101061701774597,-0.4794907587639987,1.0029749730333686,215
1733460976161793500,1.1590391027092932,2.061723855736852,-1.0672370173245669,7.894185562360287,-0.2545505516627803,5.812694345358014,0.0235627144575119,-0.7572729587554932,0.0597795508801937,0.3536395097647442,0.4083356895083613,-0.1920860122358863,0.8193313876262172,-3.557821273803711,0.7719348073005676,5.357671737670898,0.4464911818504333,-0.0258930623531341,-0.0749575793743133,0.2223231196403503,-0.0758472979068756,0.0259416659861803,0.5766336917877197,-0.5575596850136295,1.145274927381426,216
1733460976201793500,1.0300853905379772,1.936676795615256,-0.687946608325839,8.091672712531686,-0.224972301006224,5.535756057330966,-0.047956395894289,-0.9067782163619996,-0.2229344695806503,0.3521436141427791,0.4227311247568923,-0.1976193242709217,0.8113197518968309,-3.6971354484558105,-0.239411175251007,4.753322124481201,0.6572325825691223,0.297239750623703,-0.1561641693115234,0.2024550437927246,-0.0734718367457389,0.187682964515686,0.5987035036087036,-0.6731766900215298,1.2164254160121082,217
1733460976241793300,0.5299246225804091,1.455148247413337,-1.157583058682084,8.254401268532872,-0.1755969150004908,5.291920412960648,-0.403967410326004,-0.5331233143806458,-0.3189365565776825,0.3554008098610208,0.4344226633028809,-0.2036273477346256,0.8021865411438314,-2.601576805114746,-0.9860588908195496,3.951072931289673,0.5592400431632996,0.594646155834198,-0.1281425356864929,0.1731985211372375,-0.0665834993124008,0.5032628256261349,0.6492469906806946,-0.6653877897109836,1.161305294075608,218
1733460976281793300,-0.5029337398022413,1.1672996391195802,-1.3613187478542328,8.319253972193598,-0.1762497711523435,5.189347927236557,-0.7019789218902588,-0.078616090118885,-0.3987987339496612,0.3650285337429491,0.4365078917605289,-0.2118436773675002,0.7945673669386134,-2.343251943588257,-1.11235773563385,2.8057751655578613,0.2578625679016113,0.6028790473937988,-0.0477825105190277,0.161384716629982,-0.062286514788866,0.7592027492880821,0.6808624863624573,-0.6287354907486588,0.9558233457580207,219
1733460976321793500,-2.6047335853397846,0.6188882696688175,-2.2278268566071984,8.333908520489931,-0.2322248659503646,5.16356700477004,-0.7754268050193787,-0.2040152996778488,-0.1165743693709373,0.375739351285253,0.4332544971443243,-0.2214089083790726,0.7887258836508412,-1.915484309196472,-0.9093029499053956,2.0181634426116943,0.0991315245628357,0.6949537396430969,0.0056266188621521,0.1733953654766082,-0.0097149908542633,0.8893278433263301,0.6924965381622314,-0.6394019923221319,0.8678734057568013,220
1733460976361793500,-3.833663970398903,0.248013770305179,-2.896545032849908,8.465247081971167,-0.4031878558062017,4.934309920850396,-0.7346011400222778,-1.204712986946106,0.1576301157474517,0.379029244690071,0.4373832680336172,-0.2389897145089873,0.7796900780974979,-1.4256994724273682,-0.6927268505096436,1.571549892425537,-0.0421082973480224,0.7008098363876343,0.1353491246700287,0.1141495183110237,0.0465954281389713,0.9131336663275956,0.7565696239471436,-0.5229561718072742,0.8409558804757893,221
1733460976401793500,-4.541791196966171,-0.8732312064629048,-3.364015829604864,8.799130661535262,-0.6146152685247361,4.28578346876502,-0.5002776980400085,-2.486555576324463,0.4393194615840912,0.3705182356532867,0.459863505984349,-0.2645966883831304,0.7623847254828073,-0.768666684627533,-0.4790032505989074,0.991417109966278,-0.1242020726203918,0.7719359993934631,0.1640349328517913,0.0549036748707294,0.1029058471322059,0.9460369880199432,0.8206426501274109,-0.4078520116923376,0.8116830242402852,222
1733460976441793500,-4.827186932215095,-3.1990663826838133,-3.6736920196294784,9.220098650312424,-0.9138725019961595,3.2132574051216243,-0.5539998412132263,-3.283613681793213,0.9451115131378174,0.349248223595136,0.4967644475617258,-0.2989892233196509,0.7361089087470281,-0.1761645227670669,-0.0050216885283589,0.45204558968544,-0.2272880673408508,0.804497480392456,0.1248687505722045,0.0189807340502738,0.1417672336101532,0.6931126127868891,0.827143132686615,-0.1535802039057016,0.6575118687041104,223
1733460976481793300,-3.9642134273290632,-7.08312520006299,-3.5968157006978987,9.486589194083214,-1.576103362046182,1.9211738137960432,-1.608306884765625,-3.048180341720581,2.039203405380249,0.3170569703623094,0.5278931823151075,-0.3512494593864851,0.7052854051590419,0.2067849934101104,0.2341847717761993,-0.451968789100647,-0.1454278826713562,0.7818015813827515,0.1502878665924072,-0.0169422104954719,0.1806286126375198,0.4517722923636436,0.8336436152458191,0.1006953302079811,0.5013573573309927,224
1733460976672073700,3.198393890249729,-7.521617739614844,-0.9180721456430851,6.898402838918567,-6.537882012319565,-2.416301994413882,-3.6431610584259033,-0.3007413744926452,3.1952357292175293,0.1893438994253118,0.3775388703414508,-0.6932975658812378,0.5839107594742937,2.1499876976013184,0.9124311208724976,-3.726716041564941,0.4276304841041565,0.4553269743919372,-0.0209666192531585,-0.1378541439771652,0.1996943205595016,0.698317780214548,-0.1823589950799942,0.455535517354682,0.2271232502287253,225
1733460976711816700,4.020651353865862,-6.389726171550154,0.6083025782465934,6.005217735642194,-6.929816214314103,-3.476406529510021,-3.408445358276367,-0.5115215182304382,3.138850450515747,0.1736634912369282,0.3230336433394429,-0.7568993804666956,0.5409192540793072,2.4765424728393555,0.5700962543487549,-3.6777515411376953,0.6269062757492065,0.2824371457099914,0.0861006528139114,-0.2545763254165649,0.2431033849716186,0.2084102020555175,-0.2357961982488632,0.4751532775489613,0.3929721667401492,226
1733460976751816700,5.325391889929771,-3.93169413651824,2.473580901819467,5.037160638993978,-7.130413605460524,-4.467051305541396,-2.690840005874634,-0.618432343006134,2.975843667984009,0.1500839499793225,0.2709944580171075,-0.8088993965566108,0.4997183029156588,2.396782636642456,0.3675664365291595,-3.729706048965454,0.548069417476654,0.040093183517456,0.1629008054733276,-0.3185569643974304,0.2229091674089431,-0.3147913410812616,-0.1758567094802856,0.4695293367199599,0.6068382778476923,227
1733460976791816700,6.208517956006527,-1.3549743472635745,3.5625744084000583,4.18112014824152,-7.152970889705419,-5.246297894948721,-2.2206602096557617,-0.2325322777032852,2.376336574554444,0.1287050875016842,0.2241828069330175,-0.8468936247662289,0.4647023680426618,2.190061569213867,0.1190811917185783,-3.540212869644165,0.4184429049491882,-0.1054440140724182,0.2295300960540771,-0.3738543093204498,0.2257829159498214,-0.4006605292856693,-0.0577743127942085,0.3974105510463938,0.7197247984457761,228
1733460976831816700,6.204260298562049,-0.4198129735231399,4.064932394140959,3.595057751114666,-7.014931369280815,-5.834097783392667,-1.9531105756759644,0.1661596596240997,1.7722259759902954,0.1184257875366449,0.1838067159928368,-0.8738828894728887,0.4341879560602254,2.1564383506774902,-0.0153699861839413,-3.0129148960113525,0.3182936310768127,-0.2621954679489136,0.294719249010086,-0.3749501705169678,0.1601100265979766,-0.466223427042365,0.0182912275195121,0.5276215698024258,0.5229112732196226,229
1733460976871817000,5.977615442967415,-0.5816483800768852,4.682001047167182,3.228688490748405,-6.773339704445004,-6.314098975896835,-1.738858699798584,0.2703335285186767,1.3393548727035522,0.115860448738348,0.150415363822531,-0.894038403815206,0.4057671337734733,1.8149489164352417,-0.0894674360752105,-2.397352457046509,0.3186790943145752,-0.3673879504203796,0.3956804871559143,-0.3760460615158081,0.094437152147293,-0.5313017561525106,0.0943567678332328,0.6582236702352762,0.3270176393173635,230
1733460976911817000,5.820890511295199,-0.4166360970526933,5.651522955670952,2.9881252921774983,-6.521909367161989,-6.686265816625952,-1.296931266784668,0.2784789502620697,1.0453343391418457,0.1158593014863497,0.1233353097771289,-0.90867655000872,0.3816697671350819,1.4412487745285034,0.1824109405279159,-1.723562479019165,0.2726356983184814,-0.4565873146057129,0.4599427580833435,-0.2988036274909973,-0.0308023989200592,0.0491378326565027,0.0325189344584941,0.6083060123126953,-0.1097649545114487,231
1733460976951816700,5.78817657469511,0.2422095044732093,6.341087520587444,2.837533456432819,-6.351015040361881,-6.912554113867879,-0.7229976654052734,0.2990252673625946,0.7095675468444824,0.1167092136546805,0.1027059408552993,-0.9175476300648544,0.3659737955508127,1.6196608543395996,0.5320796370506287,-0.8468311429023743,0.2742301821708679,-0.5131211280822754,0.426717072725296,-0.1040337681770324,-0.1942645013332367,0.2824398080527782,-0.0241980366408824,0.583152756757848,-0.1347957892630249,232
1733460976991816700,5.645657278507947,0.3728559920370579,6.396738680660724,2.771158365510404,-6.310176834017038,-6.976584979751705,0.0128324665129184,0.0811659172177314,0.3920009136199951,0.1180549712927398,0.0903072977070729,-0.9206255624929304,0.361048762631798,2.04114031791687,0.7746652364730835,0.3262975215911865,0.2460764646530151,-0.4600868225097656,0.4209104776382446,0.0907360911369323,-0.3577266335487366,0.5164543156325817,-0.0809150040149688,0.5579035300152376,-0.1600542222253978,233
1733460977031816700,6.524694029444456,0.2687514744400978,5.4757350116103884,2.687895268151164,-6.406736927583813,-6.9209349887222045,0.4373833537101745,-0.2253256738185882,-0.0120439967140555,0.1139486832488573,0.0881683433819865,-0.9192909388270049,0.3662598336482507,0.8876820802688599,1.0756685733795166,0.8895660042762756,0.2132461071014404,-0.5048108100891113,0.4328371882438659,0.2589101195335388,-0.1977905631065368,0.578569703283906,-0.053869642317295,0.3694483024854212,-0.0244191325940191,234
1733460977071816700,8.020883020037413,-1.1233984650075437,5.216893521288037,2.71636265322268,-6.546425968781113,-6.777613143980503,0.8173797130584717,0.0875086858868599,-0.43415367603302,0.1126883375571017,0.0940753198426556,-0.9147195986360656,0.3764826121463426,0.3392040133476257,1.2057361602783203,1.167980074882507,0.3158289790153503,-0.4905769228935241,0.4106268882751465,0.3405070304870605,-0.0094502568244934,0.52291035990417,-0.0394877046346664,-0.1568633902948349,-0.1291892014276236,235
1733460977111817000,8.751918828505277,-0.8811334309548139,4.905787590721249,3.136787328903377,-6.805898158222437,-6.325397784024477,1.6547013521194458,0.4025088250637054,-1.6452929973602295,0.12577636093406,0.1164073252075568,-0.8994191844713134,0.402087839533541,-1.138290286064148,0.7065081000328064,1.535324215888977,0.4115750193595886,-0.6276524066925049,0.6157273054122925,0.4221039414405823,0.1788900643587112,0.4672708902686834,-0.0251057669520378,-0.6829805103510618,-0.2340288283661007,236
