time_imu,phone_acc_x,phone_acc_y,phone_acc_z,phone_gravity_x,phone_gravity_y,phone_gravity_z,phone_gyro_x,phone_gyro_y,phone_gyro_z,phone_ori_w,phone_ori_x,phone_ori_y,phone_ori_z,watch_gyro_x,watch_gyro_y,watch_gyro_z,watch_acc_x,watch_acc_y,watch_acc_z,headphone_gyro_x,headphone_gyro_y,headphone_gyro_z,headphone_acc_x,headphone_acc_y,headphone_acc_z,frame_imu
1726740951681745700,1.2612056379809975,24.21462124429941,-1.485652399009466,0.0773027093837969,9.614251697400212,-1.9314716281875968,0.699791669845581,0.0810578241944313,0.2736829817295074,-0.3338018232086563,-0.4128021176271866,-0.6542721588889796,-0.5386081400277956,0.0209686383605003,-1.0741406679153442,0.8829761147499084,6.356404332184791,-7.68550247991383,4.105282524707913,0.1843880265951156,-0.3604581654071808,16.856978845876455,0.6297518610954285,3.3114702343314883,-1.4428737261213362,0
1726740951721518300,1.4619666952565311,19.13389618886709,-11.166246746367216,0.1318232488587964,9.647850015619396,-1.7527156281016767,-1.5549954175949097,0.0362482517957687,0.0978590697050094,-0.3349271273057761,-0.4101527248733556,-0.6489517479124225,-0.5463151808794928,0.4432935416698456,0.0707675665616989,0.086303986608982,16.317769093078375,-14.822055903303625,2.896682980015873,0.1717070490121841,-0.2580181658267975,15.474972699302434,0.7998859286308289,2.360888588619232,-0.7518809550326317,1
1726740951761290500,0.9301954218961298,8.728238093188404,-5.586241797465085,0.2104920315645635,9.75095850791633,-1.0222030397903177,-2.09392523765564,-0.2000460773706436,0.2459682375192642,-0.3494904938601051,-0.4016191431468802,-0.6251559112686874,-0.5707351322639903,1.017756462097168,0.6446557641029358,-0.6841858625411987,15.27508842486143,-17.956528817784786,4.289259620442986,-0.0128442253917455,-0.5934724807739258,8.955184562078118,0.8774383068084717,2.200373032492399,0.2432253852511756,2
1726740951801062000,1.206067688126862,-1.2744681473970412,0.5296960379889235,0.2338948815218172,9.796779178848862,-0.3725765175085515,-1.2675529718399048,-0.585733950138092,0.004729407839477,-0.3669156946756334,-0.3956135420623371,-0.6020681360781613,-0.5885379139462817,1.4713047742843628,0.8082666993141174,-0.9350537657737732,7.829114247512817,-13.05676004896164,1.7894484449543058,-0.2774755358695984,-1.0616458654403689,-4.379216370221973,1.023305892944336,-0.976488094254583,0.5585526781063527,3
1726740951840834300,-1.267626757069677,-12.434569230616091,-0.2952606746485456,0.2752300593370571,9.800050747865438,0.2316648209148086,-1.828439712524414,-0.0528603866696357,0.2184643149375915,-0.381990568001135,-0.3895086355415523,-0.5800615523800551,-0.6048925436475754,0.8825992345809937,1.258901596069336,-0.8563777804374695,1.5527771392554044,-3.9995717409580944,-1.1432149261116982,-0.220226839184761,-0.0523465946316719,-11.069419526296851,0.5367674231529236,-3.351855436211824,-1.1798678095959123,4
1726740951880601600,-0.5072376840738579,-14.42612181801796,2.7206249868422745,0.3601437734475359,9.77149509998858,0.7473761909592896,-0.6710324883460999,-0.0982435494661331,0.1448377221822738,-0.3903150267554841,-0.3825691404047355,-0.5617252624288701,-0.6210956590340576,1.387653350830078,1.3666447401046753,-0.711780309677124,-5.010489489689469,5.927482754054665,-2.4893211995258926,-0.26156747341156,0.0698847845196724,-7.693823733535408,-0.4676316082477569,-1.648993533951044,-1.2670339057430624,5
1726740951920373200,0.3380940003333613,-14.295976850235462,-0.0623410861659795,0.3669984251152723,9.764950208389758,0.8254925000146031,0.1678750962018966,-0.0197507906705141,-0.1511280089616775,-0.3926773464737111,-0.3821473790274893,-0.5584576766475537,-0.6228104752681293,0.7889358997344971,0.7000719904899597,-0.2345361411571502,-10.070851556050776,9.353971114185452,-5.961673192948102,-0.2622199654579162,-0.0682624280452728,-9.234543355250358,-0.3292080760002136,-2.308326772863418,0.5772573420437053,6
1726740951960145400,0.4416392400797456,-12.338857278311252,-0.7275701051186769,0.2624056308110244,9.781702021226286,0.647963046048954,0.5922715067863464,-0.072704441845417,-0.3050301671028137,-0.3926333565089975,-0.3828108925780299,-0.5660555618418054,-0.6155291390334382,-0.3578425645828247,0.2169788479804992,0.1668704003095626,-10.684497833412886,9.872578223937747,-7.437125684982537,-0.1414477825164795,0.1076552718877792,-9.994075774884225,-0.101731389760971,-2.483300331801176,0.5631234200879931,7
1726740951999918000,0.2841115406572818,-11.096956352519989,-0.5016571074625477,0.1740787107235752,9.79855203374028,0.3584542129253968,0.8883620500564575,-0.2733427882194519,-0.1924308687448501,-0.3923217568073677,-0.3885116814451357,-0.5751370222854548,-0.6036222903045726,-0.8018479943275452,-0.172130137681961,0.3408330082893371,-9.301837606844304,8.604388426157831,-6.669011899486184,-0.1551121771335601,-0.126937597990036,-9.24101167448163,-0.239191249012947,-1.9089063067667185,-0.0615279842513846,8
1726740952039690200,-0.3674213632350787,-9.877786313974855,-0.7898539081394672,0.1136359233264345,9.805961433213948,0.0244576402567909,0.7551453709602356,0.0734327659010887,-0.0951899737119674,-0.388638027825638,-0.3944842353144479,-0.585777428313485,-0.5917833543873587,-0.9435327053070068,-0.3552989959716797,0.273743599653244,-7.9154060450434685,7.390601834216714,-3.994849388611316,-0.1762829571962356,-0.2670229971408844,-9.55817675895691,-0.3675223588943481,-2.428682314167917,0.1279568009553011,9
1726740952079461600,0.4074690767893567,-7.411750420707464,-0.2806499654939398,0.1042916833326686,9.80220997172594,-0.2760022492859512,0.7190557718276978,-0.1500610113143921,-0.00636812672019,-0.3831199444727003,-0.4004091068406575,-0.5947644451457587,-0.5823631709180423,-0.79768306016922,-0.3874592781066894,0.3484824597835541,-6.750768976196646,6.473098282241821,-4.039346994246542,-0.1614659130573272,-0.3236398696899414,-9.107952865079044,-0.472486287355423,-2.415103140018135,0.2097072926613502,10
1726740952119234000,1.346960698286444,1.4373159458637237,0.4476689852306619,0.0065116166627703,9.798820913809536,-0.3917043752940371,0.3676126599311828,0.2514000535011291,-0.4660687446594238,-0.3826442971139939,-0.3986453908723974,-0.6008770397174416,-0.5775914581100657,-0.7514772415161133,-0.3511617183685303,0.3402949869632721,-5.259205891838669,5.213928241741657,-1.8991741634339088,0.0757660120725631,-0.5803012847900391,1.6486654710404574,-0.7196630239486694,0.8231859766378998,1.3966793995708229,11
1726740952159006500,-1.279550857488811,9.365213808211683,-0.1651495726030319,-0.0472857156835263,9.781366505661609,-0.7021501249190419,0.4221720397472381,0.1142464056611061,0.1304201185703277,-0.3781578903874349,-0.4033282824068389,-0.6108403959669296,-0.5667423410318385,-0.9770549535751344,-0.6589578986167908,0.5246679782867432,-2.725020006930828,3.371237597551941,0.1556295376509427,0.1496680080890655,-0.4754357039928436,15.105077895158528,-0.3438168466091156,4.477213218593597,-0.4809925050964578,12
1726740952198777900,0.0260861570573644,11.981962240993976,0.9787235251564532,0.0065349027818796,9.764720491287113,-0.9058494276035576,0.934356927871704,-0.3475488126277923,0.0642845854163169,-0.3724928096047433,-0.4090594570195667,-0.6155126534500344,-0.5613052601375519,-0.3093762397766113,-0.4459550380706787,0.1717405915260315,7.117896069192886,-7.294923199659586,4.305840168365836,0.4774690866470337,0.4447097480297088,15.378006363022326,0.1634087562561035,4.052212905560434,0.2495111509897746,13
1726740952238550300,-0.1706998819402418,10.98488713965416,1.5058677963033318,0.0248032502405112,9.71448141939044,-1.341116502302885,1.3590368032455444,-0.0070002195425331,0.1360647827386856,-0.3647903764507519,-0.4202101141707774,-0.6259403897750656,-0.5463972344195451,-0.4819866418838501,-0.4523990750312805,0.2538809180259704,7.418122293826937,-7.828411652201414,2.1554665537953377,0.0534600317478179,-0.5965750813484192,10.944801797503231,0.8286874294281006,3.4002307600632307,0.0294479547907947,14
1726740952278322400,0.96027031522952,2.634571674242616,-4.241217181807756,0.0651960235059494,9.620598436078428,-1.900059860227257,1.0943902730941772,-0.0506966076791286,0.0164440050721168,-0.3518960071600406,-0.4325385182943296,-0.6401457015696977,-0.5284819244975099,-0.9162949323654176,-0.7201938033103943,0.7067116498947144,6.951589070183038,-9.22984146116972,2.2526674294836817,0.0496284775435924,-0.5194386839866638,0.3683076810829341,0.5505649447441101,-0.0172235083017731,-1.3837979984268545,15
1726740952318094000,0.7054166524343192,-3.1153070262402296,-3.754361593364179,0.0447166369470767,9.605986557880044,-1.973166451361776,-0.5840733051300049,0.0820390060544014,-0.0743687003850936,-0.3502384709622549,-0.4324908600564496,-0.6430825354218239,-0.5260507881041226,-0.6229421496391296,-0.146210491657257,0.4844526350498199,4.956748547151684,-5.932422548544406,1.078578641680628,-0.1288467943668365,-0.1771555840969085,-4.925048756030201,0.100046195089817,-2.065398306465894,-1.351274908223748,16
1726740952357866200,0.3686700115893035,-6.717032126289606,0.5448422057271003,0.0360996494986466,9.655615388923882,-1.7141107337668535,-0.5102406740188599,-0.0874378755688667,-0.0482698678970336,-0.3563645944449438,-0.4275804799282266,-0.6360583763530909,-0.5344239646034209,0.4436520040035248,0.2446779459714889,-0.0689907968044281,0.0940741219699382,-0.041751814058423,0.9438824403345584,-0.2869143784046173,0.1810081005096435,-6.441724069812894,0.0426333919167518,-2.315167870929837,-1.01555877947025,17
1726740952397639000,0.2845323781515471,-8.117256651121377,1.3002690897382796,-0.0264073038866859,9.668847795462607,-1.638001307554543,0.0801127105951309,-0.1846265345811844,-0.1994120478630066,-0.361143700990725,-0.4257400002186206,-0.6342399187478421,-0.5348460413592683,0.4464499056339264,0.242484837770462,-0.2896738350391388,-3.657289166361093,3.302581994476914,-1.505233297792077,-0.2079338282346725,0.2491951435804367,-6.566036678180098,-0.0718192756175994,-1.983490130846948,-1.3418778420642017,18
1726740952437410000,-0.4422038151599466,-5.650820944881439,0.729233289090544,-0.1075648141186684,9.650633508858084,-1.7389875470004974,0.4093213677406311,-0.1286339610815048,-0.1115927174687385,-0.3628617737172999,-0.4270087149914107,-0.6374380330145932,-0.5288360825943295,-0.0169446561485528,0.2070877999067306,-0.2502835392951965,-5.070813317748904,6.327772696462273,-2.902184500041604,-0.1261852979660034,0.2442436218261718,-4.747629119114578,-0.3845859467983246,-1.5256718363173305,-1.5911927946284412,19
1726740952477182700,-0.9917447000972928,4.143658140331507,0.3024693273857236,-0.1428075385440141,9.610430677807331,-1.946687025237084,0.7048107385635376,-0.2329281568527221,-0.0314985774457454,-0.3605071047841001,-0.4313400858781244,-0.6428056858672776,-0.5203663328804302,-0.5998435020446777,-0.2215433269739151,-0.0421609058976173,-5.709028219178319,6.121311381718516,-2.9782553478091955,-0.1009955555200576,0.6167837381362915,-1.784514495683461,-0.4280272424221039,-0.6834163444850594,-1.2450213958993552,20
1726740952516955000,-0.2325824837489984,15.955772348707914,-5.631447551369667,-0.077316957104858,9.580482698789238,-2.092545694980025,-0.3450520038604736,-0.436007022857666,0.4160088300704956,-0.3588226966709603,-0.4404823821115093,-0.6423903890749283,-0.5143501607601018,-0.6694183349609375,-0.3604495525360107,0.2350600510835647,-2.827565020126104,2.877724012523889,-1.4291332239300012,0.0783853679895401,0.953465461730957,8.471623046743868,-0.7093290090560913,2.5663001020491123,-1.82375637274757,21
1726740952556727300,-0.0504482165687484,23.916898526918885,-5.716849122062325,0.0220172362511744,9.650855042654277,-1.7409385349377988,-1.380465030670166,-0.5608008503913879,0.4095203280448913,-0.3710427902071727,-0.4453912314527545,-0.6248118220946726,-0.5230333962954445,-0.4882320165634155,0.0693291425704956,-0.2927995324134826,5.459391779574752,-4.1512247761935,2.1888410001307723,0.2412047088146209,0.4516814351081848,19.7046163476944,-0.3057120144367218,5.34939703489542,0.3582128419175744,22
1726740952596407000,1.150387594220042,16.36307889187932,0.07535780412741,0.1288642255232669,9.74883201728165,-1.055484181819111,-1.736782431602478,-0.1476229578256607,0.2619539201259613,-0.3865611847437349,-0.4386523471606565,-0.601164566169028,-0.5447528906089177,0.6051670908927917,0.9300599694252014,-0.4962040185928345,10.440832869434356,-15.909970382475851,4.500126476669311,0.1173195466399192,-0.1686452180147171,20.52866361733675,0.7826700806617737,5.412286914050579,1.4986153409570455,23
1726740952636175600,0.3262896538363769,1.9962533124387265,2.1375603102266787,0.3244842483822256,9.783668937385082,-0.5873145891450345,-0.8052316308021545,-0.1940960735082626,0.5920533537864685,-0.3942506555020058,-0.438125281391157,-0.5813698893760613,-0.5609115988411839,1.3515019416809082,1.3518446683883667,-0.4517611265182495,13.73897658920288,-19.983769973683355,3.731101421546936,-0.1620692461729049,-0.90416020154953,6.760434630164504,1.087847113609314,2.495687519687414,0.7639659451019019,24
1726740952675944400,-0.0414777098247781,-10.934293262970447,-0.7937059073925018,0.4118308887280523,9.793754862591625,-0.2883230208724737,-0.912873923778534,0.2363863587379455,0.0505849123001098,-0.3980612808939028,-0.4343159338817315,-0.5710254394814306,-0.571705134163836,1.042852520942688,1.081685185432434,-0.0708336979150772,8.007168382939696,-11.342018323814868,2.4235224471867083,-0.2737118005752563,-0.4887909591197967,-10.034299064201116,0.3451625406742096,-2.723166195757687,-0.80786690001823,25
1726740952715711700,0.7245866323284804,-15.256353329253196,-0.4708464106678962,0.4615905430773273,9.79547803312242,0.0770004659010563,-0.7146422266960144,0.0976776182651519,0.0146312098950147,-0.40152296214325,-0.4252810572435379,-0.561435741045376,-0.5854102968884826,1.848465919494629,1.5882692337036133,-0.0330726690590381,-0.017305355066061,1.132073354372382,-2.616590611872077,-0.5331194996833801,0.7174639701843262,-6.741068250915408,-0.076435811817646,-1.2570341975152493,0.5761838675932959,26
1726740952755480600,-0.1325008101936429,-13.042847258943318,0.9540992984443902,0.3714720999306067,9.799151168677213,0.0948604226425755,0.5202481746673584,-0.0560040846467018,-0.3565285205841064,-0.4050435957368688,-0.42275724704561,-0.5625297988279043,-0.5837603015706155,0.7590320706367493,0.2406956255435943,-0.3371504247188568,-10.75345621882677,11.684942118924855,-6.876047799247503,-0.1884529739618301,0.0804899260401725,-9.856844063711163,0.1960119009017944,-2.6786767734289167,0.5129364071721211,27
1726740952795249200,-0.4136694657994434,-10.480666867172715,-0.5070318227708339,0.2504148400975391,9.80295815974474,-0.0984017302449326,0.3606551587581634,0.2701513767242431,-0.2460170537233352,-0.4028976319146531,-0.4217052288122507,-0.5719980698953676,-0.5767637076334093,-0.529144823551178,-0.2385050654411316,-0.0462526567280292,-10.2609240460515,11.038403625786303,-8.49670721911788,-0.0825291499495506,0.0669384598731994,-9.681929395353794,-0.0675994977355003,-1.9381053671136497,-0.0606758700672304,28
1726740952835016700,-0.6387164212107658,-9.693175596511365,0.1078957631060853,0.18546422902029,9.801512052589654,-0.2575329832733609,0.4653172791004181,0.1757812201976776,-0.1395031958818435,-0.3990490734683692,-0.4207135674424545,-0.5797677314141039,-0.5723890050829183,-0.5856216549873352,-0.4704761505126953,0.2543137669563293,-7.899612848106027,7.485120192822814,-4.876888828495145,0.0362213030457496,-0.1039625480771064,-9.583737316671014,-0.1797274500131607,-1.859111179245264,0.2840673727219924,29
1726740952874777600,-0.2897036250432953,-9.98336031960249,-0.202908554165624,0.1343798836722038,9.79765946881473,-0.3977361297389492,0.2827226519584656,0.1278861910104751,-0.0973981171846389,-0.3953396996740353,-0.4197962395981463,-0.5865577692749251,-0.5687069518935491,-0.3326120674610138,-0.2393981218338012,0.2200563251972198,-5.089779884025454,6.829623901724815,-2.654724527694285,0.0611266382038593,-0.1070544421672821,-9.85620342772007,-0.2099783420562744,-1.9611290998265145,0.0312170902050333,30
1726740952914546000,0.0878320949083659,-9.466762796106934,-0.5436206280428916,0.1327335229709744,9.790579739686846,-0.5452924702452495,0.3755474686622619,0.062499925494194,0.0062707215547561,-0.3918580230582102,-0.4223400638426841,-0.5911269313703388,-0.5644867194072067,-0.227093368768692,-0.1993783265352249,0.1501944363117218,-5.234593428629636,7.651785503751039,-3.4422128757461903,-0.015011073090136,-0.1726277321577072,-9.48331645602286,-0.3446474373340606,-1.9111233982943,-0.2311744618482887,31
1726740952954313700,0.4716773815993219,-3.660156830751896,-0.1907808574657887,0.0994893428185489,9.783924957972763,-0.6597594284351914,0.3749384880065918,-0.0558901280164718,-0.1640061140060424,-0.3897936948576604,-0.4230399203562514,-0.5955464661336495,-0.5607338477252465,-0.5126616954803467,-0.2468297332525253,-0.0602947734296321,-5.714761794394255,7.530316009855269,-3.347409562718868,-0.1244466453790664,-0.0552166327834129,-9.85849358448386,-0.59125816822052,-2.4895970938578245,-0.6424950629666447,32
1726740952994082600,-0.3123143565084785,8.896852784618735,2.916996869248152,0.0586785268041305,9.779116680908205,-0.7319893098004162,0.4303525984287262,0.1867143511772155,0.0845910981297493,-0.3875178468528431,-0.4212152310451786,-0.5999156575624174,-0.5590248850562496,-0.334953248500824,-0.2538756132125854,0.0153225576505064,-5.600941353946924,5.962101647493243,-2.371765664203465,0.1492675244808197,0.2401498258113861,5.275201333349943,-0.9593977332115172,1.025726537741348,0.0970568549746181,33
1726740953033851100,2.2363258048832417,13.559799587225914,-3.8631612830400464,0.1131342939472291,9.75224328702986,-1.0253496672529727,0.4110225141048431,-0.0476085655391216,-0.1017051711678505,-0.3791857899208629,-0.42821488325453,-0.6073798614961065,-0.5513074520649659,-1.862704396247864,-0.9404928088188172,0.1481630951166153,-1.3434937528282402,1.8326643402159213,0.4526709947690367,-0.010508470237255,-0.3403691947460174,9.116846365630629,-0.3105551898479461,1.855564154288173,-0.0356090895027271,34
1726740953073618700,0.3848226894889027,13.474024507045746,2.713965528953075,-0.0244952186210895,9.752573541897537,-1.0281485041912644,0.3967679738998413,-0.1319402754306793,-0.3312812447547912,-0.3842973866876093,-0.4254113851924744,-0.6094638134907112,-0.5476262513991332,0.4397592544555664,-0.3140345513820648,-0.2659344971179962,11.857684703940151,-15.439351935344934,5.583572285994887,0.1931633204221725,0.0991822257637977,15.02784618691802,-0.2010402530431747,3.13337810498178,-1.8933597780667244,35
1726740953113387300,1.2245575768023729,5.2935231719821685,-2.374305704075098,-0.0371832731670234,9.705850953689216,-1.4019490105368195,0.8090363144874573,0.4705625772476196,0.0324173755943775,-0.3746746717529606,-0.4303040636608579,-0.6215447853645847,-0.5367861673627772,-1.1225943565368652,-0.3882987201213836,-0.0386620461940765,7.955588417828083,-6.62369976259768,3.2997827191472053,0.2689657509326935,-0.3626679480075836,5.143396907922625,-0.2272395193576812,1.5255689604647458,-0.0655999463980318,36
1726740953153156000,0.6510701452188193,-2.09576407250464,-1.4177997828803957,-0.0049350669406296,9.702890350317954,-1.4227709954217076,-0.4009019136428833,0.2142934501171112,0.018659746274352,-0.3694012965365028,-0.4272005935850557,-0.6245324527789402,-0.539445597338262,-0.1014576777815818,-0.3784051835536957,0.3497549891471863,5.28483074696064,-12.621805620408058,0.9691536597132684,0.2377307116985321,-0.4552991688251495,-2.194654800976068,-0.2207890599966049,-0.3470102972386404,-0.3446498151849955,37
1726740953192923600,-0.9464078671589492,-6.823143892055749,0.1794774462282657,-0.0084296812904707,9.717584061580895,-1.3186686697818335,-0.0840718746185302,-0.0470469743013381,-0.0359032079577446,-0.3711707865608037,-0.4244005877199554,-0.6221876991856664,-0.5431380403995677,0.8965068459510803,-0.0723035708069801,-0.0093736667186021,1.7290239329993724,-1.746723840340972,2.68764158565104,0.0447043217718601,-0.2134963721036911,-5.248665208601952,-0.4365765452384949,-1.381414464291185,-0.9223253461081534,38
1726740953232692200,-0.9622227644715458,-9.469301959195732,0.381362977489084,-0.004586021749163,9.716953362461924,-1.3233322776786982,0.0772384628653526,0.0441407226026058,0.0583779923617839,-0.3707887541133162,-0.4244147199893313,-0.6223691130803469,-0.5431801375947631,0.4175021350383758,-0.1384303867816925,-0.01422028709203,-2.993572743928432,4.110914977636933,-1.7707529507040976,-0.215168222784996,0.0563376359641552,-7.2369836363881825,-0.1571797877550125,-2.393956599353998,0.3548835148317739,39
1726740953272461000,0.2221526770082302,-8.189383145177365,1.966885763657093,-0.0030833723760501,9.703566057622432,-1.41816452453956,0.4807694852352142,-0.1130926683545112,-0.0951940938830375,-0.36916202186804,-0.4268378615329333,-0.6245924354497004,-0.5398269901391933,0.0645757690072059,0.0208210982382297,-0.0778683051466941,-4.289007691508531,6.626662704056501,-3.066820350968837,-0.2234792560338974,0.054617702960968,-6.070002050241827,0.1149650141596794,-1.5588292789012193,0.1503831522969063,40
1726740953312228600,0.7262835724394768,-1.4403899464815857,1.3671242192626,-0.011913739996968,9.6544469296664,-1.7210170060239731,0.970263659954071,0.0402547381818294,0.0608737729489803,-0.3630294193183673,-0.4326858185810203,-0.632874735359114,-0.52958684139605,-0.139261245727539,0.0283128377050161,0.0928703472018241,-5.49902703987062,6.9851359504759305,-2.5597493652313945,-0.1542272567749023,0.2165490090847015,-4.192136340035498,0.1168417632579803,-1.3436109494671225,-0.8943108924359082,41
1726740953351997200,-2.357368890060484,13.079336622428894,-2.169602631175518,-0.0300991395753691,9.585821721729635,-2.069181478266418,0.6475152373313904,0.0118113132193684,0.1425327062606811,-0.3552540729490064,-0.4381034069107439,-0.6430896503562021,-0.5179726633636377,-1.0170501470565796,-0.2692726254463196,0.4378589689731598,-5.3888592767119405,6.540546847614646,-2.6378672086566683,0.0193520188331604,0.5275292992591858,4.043167137056589,-0.2044401317834854,0.7459267228033393,-1.8444895103052257,42
1726740953391765800,3.71001888602972,27.76600088946819,-11.982053426408768,0.2917396061166189,9.553169744449852,-2.195959746094793,-0.4490197300910949,-0.462909996509552,1.241155028343201,-0.3450465433603073,-0.452993510233598,-0.6377771300602326,-0.5186329811508864,-1.2010785341262815,-0.6223878264427185,0.4624859988689422,-0.658257572504878,-0.2029991915911436,0.4617302072763443,0.3143014311790466,0.8404635190963745,15.643375793808698,0.0143494792282581,4.322815853086114,-2.020914729356021,43
1726740953431533600,-0.761057218048349,23.93600771653652,-4.241002077752351,0.4372415165774524,9.686813660264017,-1.464530554395169,-2.39082407951355,-0.6520426869392395,-0.0586215294897556,-0.3650009233653104,-0.4521644935906598,-0.6084550524188808,-0.5404665159770321,1.0087062120437622,1.020704984664917,-0.1982728838920593,15.91982425249219,-17.92550473396778,6.245013164710998,-0.0379232242703437,0.2538599371910095,22.381144418656824,0.842064619064331,4.296222737453878,-2.1155356715537605,44
1726740953471302100,-0.358434521844238,7.477374693262576,2.3809072942972183,0.4052711648862808,9.763720374333856,-0.8221329604536295,-1.255831241607666,-0.3411939740180969,0.1187258064746856,-0.3880226801729312,-0.4466891855244469,-0.585137494057071,-0.5545459913108586,1.064949870109558,1.0205987691879272,-1.0298038721084597,15.6391590528965,-19.240400753343103,5.13937831993103,-0.2839582860469818,-0.330200731754303,14.724641823256016,1.0483779907226562,3.811396609011292,-1.332379507487267,45
1726740953511070700,0.0061599108692258,-10.227101271426678,-0.1186626197814941,0.5219112658642232,9.78522201204598,-0.3839706757694482,-1.1720589399337769,-0.0753658637404441,0.4428358376026153,-0.3959689835017386,-0.4427139981820929,-0.5688421334143196,-0.5688862576687188,0.6830097436904907,1.5296651124954224,-0.2261528521776199,14.399582186138629,-17.874431549334524,0.660596244585514,-0.6765270829200745,-0.7019150853157043,-5.346238278603553,1.198223114013672,-1.8925816333010792,1.895490068093688,46
1726740953550839600,1.5561397475562988,-15.47656493692994,0.6850351047933101,0.7357097185630351,9.77462521470785,0.2929962733805179,-1.929087519645691,-0.1381830424070358,0.3553640246391296,-0.4054355080465106,-0.4355181435063202,-0.5434936007051184,-0.5920817826502244,1.979080438613892,2.077979564666748,0.2180291414260864,2.94113470068276,-5.75835602144897,1.6121248157590626,-0.6706393957138062,0.9387800097465516,-8.6686379032284,0.9964119791984558,-2.72703017770946,1.682320487882942,47
1726740953590607000,0.2762268883546814,-13.683628211468458,4.811225392973423,0.5960106674283743,9.772998490288852,0.5510381012251601,0.6378366351127625,-0.3068543672561645,-0.8336049318313599,-0.419274316418086,-0.4297610897321295,-0.5359200331701132,-0.593552087945116,2.790435552597046,1.1547565460205078,-0.1152823939919471,-7.631452325296402,8.514824475088716,-3.3915129083395,-0.2836611270904541,-0.4980853796005249,-8.039013720011711,0.4816775321960449,-1.0283845049042255,0.7878625881917775,48
1726740953630375700,0.2567604279982857,-11.431314563858509,-0.2872159364134073,0.2832817387696355,9.799815770065784,0.2318502422180026,0.7154664397239685,0.1269625574350357,-0.6384164094924927,-0.4220042939548196,-0.4282726402498127,-0.5520520561905808,-0.5776966917032076,-0.475644588470459,-0.4021441042423248,-0.5255312919616699,-11.946382393568754,15.629965692615508,-11.361679302096366,-0.1451740860939026,0.1191254630684852,-10.564912838089466,0.1111760064959526,-2.354805469313264,-0.3375589070759713,49
1726740953670172400,-0.5934131252158433,-9.193144592413306,-1.2382394806742667,0.1304342787184287,9.805611889123917,-0.0579215435575228,0.8193923830986023,-0.0705147087574005,-0.2113206833600998,-0.4195452126205729,-0.4295740043730784,-0.5642865863401401,-0.5665939532990929,-1.3151912689208984,-0.5749499797821045,-0.1938511133193969,-8.16225489975512,9.729791801247,-6.564446778640151,-0.0452563166618347,0.0636296197772026,-9.45887993390262,-0.116775706410408,-1.5338849533893166,-0.2769536865255795,50
1726740953709941200,-0.5631946586932987,-8.603090787562728,-2.516572486805916,0.0423060138750821,9.802586988344787,-0.2791069373030215,0.2144689708948135,0.2550761997699737,-0.2487817108631134,-0.4164339582526558,-0.4309372799453032,-0.5731697425585746,-0.5588849288148416,-0.5089500546455383,-0.7445229887962341,0.1979793757200241,-7.1836132807284585,4.790853051552176,-1.7582725315764545,-0.0537628903985023,0.0023225778713822,-9.910770884209873,-0.2328963130712509,-1.7723912194304168,-0.748580671378225,51
1726740953749711000,0.0181254940762184,-9.09344970795214,-1.7341221329212189,-0.0453596658246591,9.801834124150872,-0.3039422494824975,-0.047765988856554,0.1645230054855346,-0.2450623214244842,-0.4154377682091655,-0.4258490113218712,-0.5780565382140795,-0.558493298076506,-0.3164828717708587,-0.3350579738616943,0.167419821023941,-4.205651362907886,6.142406192195415,-3.623256840638816,-0.0909513458609581,-0.0679232254624366,-9.715294489338994,-0.3690687417984009,-1.547305722106993,-0.7047230441469698,52
1726740953789480700,-0.3426518463008106,-8.470884795597195,-0.3571826220870018,-0.1281080277279485,9.804006207492948,-0.18824613309009,-0.4222145080566406,0.3295724987983703,-0.1611130237579345,-0.4181042978859791,-0.4186899763102278,-0.5781838681088755,-0.561774778409121,0.1404135376214981,-0.2702358067035675,-0.1325565725564956,-4.405486537510156,6.177915312471986,-3.565659514933824,-0.1261031180620193,-0.1992157548666,-9.894468568706513,-0.4352827370166778,-1.94453554629162,-0.1489779251414816,53
1726740953829249500,0.3315689459461718,-3.0045576638013123,0.3005471271514892,-0.1832777700929902,9.804688344538212,-0.0698055585614405,-0.38108029961586,-0.1899714767932891,-0.0786984711885452,-0.4212760335620055,-0.4135806422825366,-0.5766369268246421,-0.5647719643276407,-0.0466341078281402,0.0012743494007736,-0.2515262365341186,-5.0981847242772576,7.277987262427806,-2.6381203066349026,-0.3345145881175995,2.3700990676879883,-6.189487092322111,-0.6307608485221863,-3.139238229186833,-0.4492353577645495,54
1726740953869019400,-0.4192834697563201,9.713180273663998,5.179261417508125,-0.1657995609443634,9.80465210418105,-0.1081929650875274,1.1027332544326782,0.1679674386978149,0.2033404260873794,-0.4191926068603869,-0.4141306567399419,-0.5779378039932946,-0.5645895232345318,0.2011599838733673,0.0966999903321266,-0.074239544570446,-4.735491229814291,4.847789575260878,-1.893355540283024,-0.4031329751014709,0.6745930314064026,5.977515489724278,0.0497168079018592,0.8610942670106887,-1.201244140427932,55
1726740953908782000,0.3282108676899224,11.838083346891402,-3.385126422172785,-0.135328160840366,9.79053765411079,-0.5454052464373409,0.4358465373516083,-0.1326884776353836,0.0553927011787891,-0.4085857836997098,-0.4238637113079085,-0.5900402384544614,-0.5524941884045376,-1.6726865768432615,-0.972425639629364,0.2900478839874267,-1.0570400329589844,1.6540654303878546,-0.3376587141886353,-0.0852290317416191,0.8022699952125549,6.589712737321853,-0.0783974975347518,0.2256287738872691,-0.3611199980685487,56
1726740953948551000,1.0912366823974995,13.406581202369928,1.5242378579914568,-0.1166469417106825,9.78320658057034,-0.6675619919449091,0.8317988514900208,0.3402652740478515,-0.0530277229845523,-0.404488383499477,-0.4259783428048888,-0.5937833281038201,-0.5498662639125116,0.5053055286407471,-0.0856738090515136,-0.0173862539231777,12.110568747162818,-13.029315577197076,4.794176643016934,0.1338408440351486,0.0558070056140422,16.80612427242994,-0.0502408742904663,4.291241149649024,-0.7488919292844831,57
1726740953988320500,0.7186880758091807,7.54132021895051,-3.102196784776449,-0.2166540795919485,9.732845928120613,-1.1811793305858969,1.1880006790161133,-0.2770883440971374,-0.4051523506641388,-0.3942405329943276,-0.4314606589317316,-0.6116086039427198,-0.5332458779232585,-0.5509129762649536,-0.5330737829208374,0.1954013705253601,7.253693948170542,-8.686127967211604,3.3031691467151045,0.0621161125600338,-0.1744704991579055,3.615855624471605,-0.1372046321630478,0.7018358713380992,-0.3723717521840706,58
1726740954028090400,-0.7710209051147103,1.9750427666276693,-1.6854210842467845,-0.3153485365726053,9.708812141582367,-1.3453389423035085,-0.2729676961898803,0.2792144417762756,-0.0106181232258677,-0.3942754793517411,-0.4328275586011811,-0.6174572863891153,-0.5253130561030643,-0.8670229911804199,-0.3281253576278686,0.4461642205715179,5.688377060815692,-9.707680507203936,0.1880997286230325,0.0044224113225936,0.0361986458301544,0.2673990551841445,-0.1400320380926132,0.1100641931863501,-0.0481744309844449,59
1726740954067859200,0.3595159238727763,-1.8298305780947208,-0.2551497961975634,-0.3180665998922661,9.74700772446394,-1.0320335289310665,-1.1245100498199463,0.7235434651374817,-0.2582535445690155,-0.3952651162450135,-0.4195087498189589,-0.6137030843485214,-0.5395800164122926,-0.1605926305055618,0.1226202175021171,0.0241262353956699,4.5849078696370125,-3.0936481521397825,3.606060498905182,0.011164465919137,0.0693396925926208,-2.061558289911598,-0.11403539031744,-0.0978976531803142,-0.0038684948717535,60
1726740954107628800,-0.0209591283332556,-3.683485683891177,0.7933611125428229,-0.4312456371635198,9.773435128140449,-0.6814325502566992,-0.6590021848678589,0.7124364376068115,-0.383028119802475,-0.3978470554430183,-0.3999247813624773,-0.6122120223722334,-0.5540525425944985,1.4025654792785645,0.127398669719696,-0.3606747686862945,0.9384580771982668,-1.6199357817709443,1.052431223989278,0.0625650063157081,0.1367861032485962,-2.915674388472736,-0.2200976908206939,-0.3621807957004755,-0.0331173092196113,61
1726740954147398700,-0.4384579431625083,-3.354914239260554,1.104600241035223,-0.5584275173567235,9.77317033972442,-0.58625528935045,0.1011487320065498,0.3906370103359222,-0.156307503581047,-0.3970863212904718,-0.3870393337193497,-0.6165154130253977,-0.5589559975520253,0.9877679944038392,0.3704097867012024,-0.3864121735095978,-0.836805628928542,3.061494772031903,-1.8554039952903985,0.1104123517870903,0.1628777980804443,-2.256747100012749,-0.3505833148956299,-0.1928482931233011,-0.1752633356645703,62
1726740954187167500,-0.1304786567162722,-2.241842522478104,0.0432464365303516,-0.5756611954260618,9.762478849840164,-0.7300825993962585,0.4134018123149872,0.5227574110031128,-0.0794990956783294,-0.3903196173018898,-0.3844791967293485,-0.6240189094625697,-0.5571595817837559,0.1289297193288803,-0.1346746385097503,-0.2983890473842621,-3.240213508847356,3.0393788018137213,-2.158019307018072,0.1505479961633682,0.1539104878902435,-0.620849340608716,-0.4399511218070984,0.21945697165085,-0.3060317873739637,63
1726740954226937300,-0.6241765122700482,-1.7907056054085493,-1.57602299028635,-0.5410517639355734,9.754418292981386,-0.8537923464994877,0.268925130367279,0.1875007450580597,0.3025240898132324,-0.3816597086313172,-0.3821386771771442,-0.6304770629322464,-0.5574984762191311,0.0272241365164518,-0.1510644853115081,-0.2465049922466278,-1.6936743871986866,1.25535428160429,-0.6906380393669009,0.1277370452880859,0.169741079211235,-0.2084943549413234,-0.4153308272361755,0.3536426479252055,-0.4026168509852141,64
1726740954266707000,2.1448652264125645,1.3141238659590482,-0.1009749143343418,-0.4009883730005473,9.749481421101091,-0.9783617061067372,0.0559683963656425,0.7282926440238953,0.0212835762649774,-0.3734897490844783,-0.3871471693529577,-0.6324552414550186,-0.5573354251609623,-0.0228808429092168,-0.2482050359249115,0.047305591404438,-1.3845610917538405,1.114115088355541,-0.8182483741052449,0.0209644511342048,0.2074775248765945,0.2283712044632062,-0.3656064867973327,0.2717712606526911,-0.6016674145484343,65
1726740954306475500,-0.1586157138548791,0.2156371393680572,1.1647883869510145,-0.348805400494486,9.758457923761007,-0.9062152652412652,-0.2121396362781524,0.9082167148590088,0.2837211191654205,-0.3624467313188613,-0.3751344200035724,-0.6367717695055829,-0.5678277132536363,-0.2557540237903595,0.0866722241044044,-0.0682222694158554,-0.2315121693700552,0.2072071646749973,0.0473667313307523,-0.1095455139875412,0.2596440613269806,-0.5223103481844067,-0.2094107568264007,0.0465566661900375,-0.1255451367036905,66
1726740954346245600,1.1493366238623857,-0.1890899087041616,-1.117181490188837,-0.2179922876594588,9.758114809411763,-0.9497627305448054,0.2712768316268921,0.0058985990472137,0.0699406713247299,-0.3541844702255597,-0.3761685671821363,-0.6379040923827998,-0.5710769812083246,0.0605610571801662,-0.2759611904621124,0.1868015080690384,-0.7806956191718578,-1.1886550732940435,-0.0336294440098106,-0.1032717451453208,0.2340478003025055,-0.1578581734858453,-0.033283345401287,0.2794828214107081,0.3315613106289878,67
1726740954386015200,0.7619328318390994,-0.1986409963816404,-1.2577999211907387,-0.3487834809236228,9.75614380159974,-0.9308001097910106,-0.3219225108623504,0.0200817063450813,-0.7179942727088928,-0.3595343770906568,-0.3728498936562658,-0.639093540359771,-0.568574897395516,-0.0544584728777408,-0.24772609770298,-0.016883049160242,-0.2556143449693918,-0.5138116921693087,1.5935297131434083,-0.0420167110860347,0.1461456269025802,-0.0768413389497436,-0.0101855443790555,0.0765828067445661,0.3195947227749973,68
1726740954425784000,-1.3349454124525189,-0.951792775067687,0.4727588932257145,-0.6109423156330361,9.754974173298477,-0.7985203219369054,-0.2649173736572265,0.935105323791504,-0.5841236710548401,-0.3618913168176217,-0.3530337461370193,-0.6450429301041285,-0.5729935122992541,-3.100778579711914,-0.7004156708717346,0.0147698856890201,-0.3044534869402647,1.6089935319960116,-3.7582261598378417,0.0573626086115837,0.1937020719051361,0.2964216995182447,-0.1257856488227844,0.253732531544473,0.1955670870953239,69
1726740954465553700,-0.795291203822568,-0.0294628258496522,1.4389385786294937,-0.7358006117168814,9.739746209028365,-0.8754034359354526,0.6597880125045776,0.0151638155803084,-0.1495535671710968,-0.358929595177908,-0.3443440670973408,-0.6527329599763575,-0.5714336457160641,-0.3227711319923401,-0.140122041106224,-0.0269551239907741,1.019817094501853,-0.9894429990261792,-0.8705401407480239,0.1067094430327415,0.2441994398832321,0.2754071877359412,-0.2628274857997894,0.2715613990279846,-0.0573982686020899,70
1726740954505323800,-0.1093837001089006,-0.0113467389225959,-1.0431352070514113,-0.7416051332771778,9.718934891667962,-1.0782773937117307,0.2318919897079467,-0.0094514582306146,0.0657747089862823,-0.3563495699736911,-0.3488751192048842,-0.6582271630196623,-0.5639485751979226,-0.8911075592041016,-0.0395954251289367,-0.0058985743671655,0.5805412956178188,1.2287550284922122,-0.760662154316157,0.1140754967927932,0.1990900635719299,0.0493265418953262,-0.3580781519412994,0.4764612914076074,-0.1264179283496923,71
1726740954545092400,-0.2320291789814829,0.0680091218650341,-0.9009105098966508,-0.6503834050636739,9.72921254005432,-1.0439294992342592,-0.5496467351913452,0.3534796833992004,0.3654963374137878,-0.3534092025366653,-0.3502798680405728,-0.6561475497394997,-0.567341363139746,-0.3481478691101074,-0.122709222137928,0.1264844983816146,0.4346545688241719,-0.7103267824381589,0.879767987820506,0.0568781532347202,0.1303648948669433,-0.1053434939405415,-0.3221045434474945,0.4507120061883702,0.1137543346748687,72
1726740954584862000,-0.1431809749662876,0.3656570204436778,1.75478381267786,-0.4203541311951353,9.75508172532618,-0.9121749042980372,0.0581069961190223,0.3137856125831604,0.6620835065841675,-0.3436196078621704,-0.3494965462172978,-0.6514293063335184,-0.5791524643335583,-0.2447341382503509,-0.040132638067007,0.133088931441307,0.2124947496891021,-0.4710305350631475,0.2865865524686873,0.0137974424287676,0.0400878340005874,0.0842231745630502,-0.1629756242036819,0.608843772451207,0.4021003528304397,73
1726740954624631800,0.3398109237864613,-0.1353659173011779,-0.193400684575364,-0.1883774678521789,9.752573541897537,-1.011031876630336,0.2718598842620849,-0.0643884316086769,0.4030881822109222,-0.3334272031822523,-0.3572656876997226,-0.6510833349176853,-0.5807563522806395,0.3123696148395538,-0.0722670927643776,-0.0482036843895912,0.3597849135398864,-0.7835404872089624,1.0026724829554556,-0.0173315610736608,0.0312150828540325,-0.0122390618195524,-0.1146840006113052,0.222348089982476,-0.005428468489251,74
1726740954664400600,-0.5673534588731824,-0.1175707328915595,-0.5126210210800171,-0.1495602094083093,9.741961546990275,-1.1145384283341466,0.2871138453483581,0.0038471750449389,-0.0753848031163215,-0.3311430721578885,-0.3612022831990351,-0.6529613736914921,-0.5775107086659509,-0.5099942684173584,-0.0582167245447635,0.0057442332617938,0.4424766407519578,1.3060381746590135,0.0985597429513931,-0.0462986752390861,0.0816829279065132,-0.0022613239657745,-0.144068956375122,0.1891058734582737,-0.0716857554180081,75
1726740954704170500,0.0589465300905518,0.0149625913321971,-1.0003390715718268,-0.1081774661242961,9.73602222006917,-1.1698550226908175,-0.0571214444935321,0.4604657590389251,-0.0004801187315024,-0.3255459186897511,-0.3597362644816074,-0.6559236425654101,-0.5782507068616007,-0.4922011792659759,0.0448666214942932,0.0155065152794122,0.1062391915380954,0.7393325121700763,-0.4262585694659501,-0.0641172230243682,0.0847606807947158,-0.0444504420252516,-0.0773393288254737,0.0712751242239261,0.2150129247887991,76
1726740954743963100,0.8826660473495721,0.2606453248739242,0.2294997335691004,-0.1403138950973749,9.742927177152035,-1.1072734057672322,-0.1812386065721511,0.083327516913414,-0.2179743349552154,-0.3234234965408952,-0.3528302158437134,-0.6572412579076451,-0.5821872356732447,-0.2892568707466125,0.0050147590227425,-0.049955315887928,-0.374629431450367,0.0859194570869207,0.5066553176086396,-0.052537590265274,0.0812790840864181,0.0508923070744378,-0.0050295889377593,0.1399725343137979,0.3471693602578714,77
1726740954783733000,0.2491447836291044,0.367822089523077,0.5566882724739611,-0.1788148176010698,9.74752911798954,-1.0602185168646276,-0.1539673656225204,0.1785286515951156,-0.0275500528514385,-0.3236195319629729,-0.3487181648696363,-0.6576106322623231,-0.5841354059285404,-0.7826841473579407,0.1183529272675514,0.1587302535772323,0.8859685960263013,0.9192664699941872,0.2471895944407209,-0.0167607963085174,0.0345254018902778,0.1298398199566174,0.0420661978423595,0.2215676436618901,0.402558581459336,78
1726740954823503600,0.0062538727629929,0.1697796435564756,1.1187761389691382,-0.1915050618208013,9.747152685892582,-1.0614642060767858,0.1741693168878555,0.183323323726654,-0.0198469888418912,-0.3227034961865119,-0.3468753490542985,-0.6586327550081746,-0.5845876692097423,-0.6280511617660522,0.1143941432237625,0.0197766292840242,0.3131669547498226,-1.251980421257019,0.997828550055623,-0.0126143554225564,0.0357183329761028,-0.011839495442179,0.0544373467564582,0.2018603054880164,0.252687607335113,79
1726740954863273500,0.2004082800487987,-0.0188829796463251,0.6064461367249488,-0.1812546667675487,9.7385935318619,-1.1390062954407183,0.1861808001995086,0.1454125940799713,0.0339221023023128,-0.3189352344252809,-0.3461447494149204,-0.6620097976905519,-0.5832728469866839,-0.7705771327018738,0.0285491663962602,0.0042874841019511,-0.259668588796258,-0.0738408967584371,0.5362053102850913,-0.0280877128243446,0.0642230212688446,-0.0613131404908839,0.0115468027070164,0.1104187879108358,0.1499235445616766,80
1726740954903033000,0.4968306371541693,0.0582949525803327,-0.5016518832981586,-0.1528137495778501,9.729949622157216,-1.2145414288964125,0.1835009455680847,0.2320427447557449,0.0170027669519186,-0.3146272399922828,-0.3459363035146419,-0.665020642369753,-0.5823103111320443,-0.409822940826416,0.1283982098102569,0.1040259972214698,0.375962725880742,0.121769938147068,-0.4064145262351259,-0.0117294900119304,0.0650961995124816,0.0728018177679739,-0.0291725825518369,0.0900150558374822,0.177588399344962,81
1726740954942803700,0.3468539011005312,0.0155348382622003,-1.1710697322428223,-0.1096782260760664,9.723179689630866,-1.2720634243428706,0.1151408478617668,1.256553053855896,0.05480183288455,-0.3044938810401059,-0.3393799692928678,-0.6705806582841656,-0.5851720547007535,-0.5770103335380554,0.0476066432893276,0.0544284805655479,0.0820528447866439,-0.0547287845313549,0.3852443489670753,0.0282433126121759,0.0119085870683193,0.0749634208152303,-0.0411417298018932,-0.0093350703066214,0.259596546473354,82
1726740954982573300,0.0482836498128483,0.2021896287739276,-1.0188530717752873,-0.0024945644681909,9.72132675524056,-1.290803926778585,-0.0317226685583591,2.116270065307617,0.2065944373607635,-0.2848529559821627,-0.3250019681851055,-0.6783704016045853,-0.594176791692568,-0.590641975402832,0.0785382464528083,0.131313219666481,0.0334013343423604,0.505987282153964,-0.4311702338397503,0.0878790169954299,0.0079554608091712,0.1313338305071927,-0.0468727089464664,-0.0105602236208273,0.2174836257512681,83
1726740955022344200,0.7194283727824687,0.4390069188147783,0.2966577184975147,0.171364300665725,9.722433839699626,-1.2709481565773486,0.0178646575659513,1.938738465309143,0.1038869619369506,-0.255099030254354,-0.3027797342334605,-0.6878406449256479,-0.6083783316855389,-0.2044831216335296,-0.0116450171917676,0.1798434555530548,-0.0468640425056219,-0.4898375268638134,0.2364321631807834,0.1204252392053604,-0.0636689588427543,0.123146176670026,-0.0721510574221611,-0.0156767720501171,0.1108478726436383,84
1726740955062114800,-0.0842603647682815,0.0539952095597982,-0.4370994777582586,0.267267190699093,9.721080671525002,-1.264728989801556,0.0474440529942512,1.93820595741272,-0.0410629957914352,-0.2284747844974373,-0.2793860678469499,-0.6974429447587467,-0.61912521970773,-0.1860681623220443,-0.0411727130413055,0.0613695457577705,-0.1085059674263,-0.3912964886128902,0.3592647621233016,0.1368104070425033,-0.0880123004317283,-0.0772253332986496,-0.084546111524105,-0.114195803965209,0.0415115481622982,85
1726740955101884400,-0.52291383050289,0.6146025551736355,-0.9548608574014156,0.3940760363288224,9.726103468123078,-1.190792596779391,-0.322762131690979,1.864547610282898,0.2016554772853851,-0.2018338650820062,-0.256717410922325,-0.7034271080708485,-0.6313077748493092,-0.2986602187156677,0.0319658443331718,0.0620726235210895,-0.0239507844299077,0.0495879145115613,-0.190364750945568,0.1314716041088104,-0.0705990865826606,-0.0957385480508208,-0.1501153111457824,-0.1727107833712361,-0.1340159365974832,86
1726740955141655000,-1.899599987630546,0.0243470902711153,-0.3685550069075077,0.6453375929161906,9.731575177532434,-1.02486977478154,-0.3666658401489258,2.057490825653076,0.7375048995018005,-0.1706032216035541,-0.2366020824290436,-0.7044666566684814,-0.6470244943807626,0.0156686808913946,0.058700144290924,-0.000421650300268,0.187654907464981,-0.3424503323793411,-0.2304384026587009,0.1178293675184249,-0.0806500390172004,-0.032562967839057,-0.2185786813497543,-0.1132124646168202,-0.1709641588996164,87
1726740955181426000,-0.5558872582893818,-0.1573135452151298,-0.8223720299065113,1.0695931519966573,9.721999539935588,-0.713508335083723,-0.8987339735031128,2.249457836151123,1.0102626085281372,-0.1334967954232139,-0.2212661140397382,-0.6981547886064585,-0.6676824453130029,0.076780766248703,-0.0111722005531191,-0.0026458560023456,-0.2542933254987001,-0.0822445679664611,0.1360053842484951,0.091820515692234,-0.1142510399222374,-0.0502808149794349,-0.2297477722167968,-0.0882018598025198,-0.0865160347405821,88
1726740955221195500,-0.0341968686342239,-0.527695840615034,0.0745136631871573,1.498999225708097,9.688960609164834,-0.2178667433173395,-0.9576552510261536,1.813493490219116,0.9636393785476683,-0.0949307784415845,-0.2042164653136199,-0.6851304603896464,-0.6927338606151433,-0.1922736018896103,0.0298145934939384,-0.0580351464450359,-0.3537193298906088,-0.165390468686819,-0.7910065853059292,0.0980898141860961,-0.1581028997898101,-0.0647699892467586,-0.2507470250129699,-0.0761498632539762,-0.0670600546790054,89
1726740955260966100,1.994077283573896,-0.696986239349842,-0.2277426059697754,1.7935498889237642,9.639627546197175,0.1764170357443392,-0.5837988257408142,1.93925142288208,0.4516211152076721,-0.0610619269496535,-0.1866667804591071,-0.675396733427706,-0.7108207339863436,-0.3889850378036499,0.0187429282814264,-0.1009850800037384,-0.1954360628604888,0.153523505282402,-0.098380879253149,0.1313124299049377,-0.1887532621622085,-0.0855968558027409,-0.2792780995368957,-0.1510672529703937,-0.064446524879476,90
1726740955300736800,1.0507366950310766,-1.123018525779247,0.6905898163110017,1.8440027497015887,9.617496962931751,0.5232703157903627,-0.7179213762283325,0.9268566370010376,0.0105946501716971,-0.0432970869902843,-0.1696303295747934,-0.6667429719246216,-0.7244341326296481,-0.0140836220234632,-0.0783265829086303,-0.1786565035581588,-0.442530416765809,-0.0041530280262231,0.4020214423753321,0.1404389441013336,-0.1778574734926223,-0.1082655645328573,-0.2796874642372131,-0.0804974137718789,-0.0119070362615457,91
1726740955340506400,0.7011280153296887,-0.5453180065453053,1.9979075093865395,1.785250408742577,9.608269115859269,0.8151301690194755,-0.2946251630783081,1.5642017126083374,-0.0729044899344444,-0.0294607109227814,-0.1502377754572568,-0.6602034075070984,-0.7353177344609876,0.4313897490501404,-0.1491072624921798,-0.1310973614454269,-0.3896417071431875,-0.6930541605979204,0.1712682746790349,0.1309946328401565,-0.1808145940303802,-0.0887214540966786,-0.2614358365535736,-0.0397288477302994,-0.1263140387169551,92
1726740955380277000,0.3833317933440208,-0.2091711582243442,2.771797540196776,1.7198245813690125,9.60371861294806,0.990540511939302,0.0772158131003379,2.3091609477996826,0.1242390647530555,-0.004240961687314,-0.1219528275041543,-0.6592601883853364,-0.7419471069565693,0.0057907504960894,-0.0871175602078437,-0.0169808529317379,-0.1734977872967719,0.5616016173481941,-0.0828887110888958,0.1156272888183593,-0.2056419998407364,0.0580888264158274,-0.2677670419216156,0.090675373776583,-0.2014686758219264,93
1726740955420048000,0.4267138389527797,-0.3404705567389726,1.3906553169757128,1.7415348933957515,9.590169395545123,1.0798610827066004,0.2032390236854553,1.878517746925354,0.3656222224235534,0.0301959598307207,-0.0924842736351974,-0.6605975084399298,-0.7444097343450318,0.061311800032854,-0.0791893899440765,0.0780187621712684,-0.0317810396641492,0.001508650997281,-0.0461645159341394,0.0828544124960899,-0.1616831123828888,-0.1645680646543391,-0.2943237125873565,-0.0850303992927074,-0.2395879785968921,94
1726740955459817500,0.2987513297758996,-0.0018792378753423,0.3667313716769218,1.6897826404571532,9.602927170309425,1.048241882540658,0.3762239813804626,-0.2872075140476227,-0.4043156802654266,0.041243983596655,-0.0791439585573026,-0.6635440995582395,-0.7427950171270143,0.2373083978891372,-0.034991830587387,0.1059549897909164,0.4101116637200117,0.2038502554625272,-0.3212590757906436,0.0616065002977848,-0.1230346113443374,-0.1057879589055664,-0.2798281013965606,-0.0092092582489101,-0.0542213555990252,95
1726740955499588000,-0.4717163253702223,-0.136923083615303,0.3770118696074933,1.5136429603494703,9.65791431351602,0.7771430412568151,0.8290730714797974,-0.0288086328655481,-0.3468796908855438,0.0312384766052545,-0.0764568440306835,-0.6741892040365394,-0.7339260178553833,0.0618377737700939,-0.015811214223504,0.0568878464400768,0.1063689553976059,0.3775643158584832,-0.0075800068002194,0.0557512268424034,-0.1132700145244598,-0.1183991191402543,-0.2436547726392746,-0.0385065485268831,0.0582428342340281,96
1726740955539359000,0.0486835130177438,0.0235696761578321,-0.4739046291947364,1.4885434442758558,9.67938146443665,0.514007653132826,0.5916181802749634,0.4382871687412262,0.1121619343757629,0.033652363873361,-0.0729502728091682,-0.6844495308534378,-0.724620351006628,0.0323238261044025,-0.0966471582651138,0.0023700082674622,-0.3307873671144247,-0.5906073470801114,0.2760544178646058,0.0882347971200943,-0.0699831470847129,-0.1304150534281507,-0.2217138856649398,-0.1433019527311436,0.1519217783073428,97
1726740955579128600,0.1040276529684662,0.0628892946332693,-0.7569961791545152,1.55036554806903,9.676572836756703,0.3615038097543642,0.2974222004413605,0.4835231602191925,0.2334731668233871,0.0436643888675611,-0.0680281818360272,-0.69060886364691,-0.7186967185992222,0.2644042074680328,-0.1111867949366569,0.0164396204054355,-0.4573270038813352,-0.4357967245966195,0.1034323174238204,0.1223547533154487,-0.0326495543122291,-0.0427445057570468,-0.2099230587482452,-0.0885943023193627,0.0324751822410384,98
1726740955618899200,-0.0224621533073484,-0.1263759706377983,-0.4501689488202333,1.6249312519706784,9.664725747096538,0.3508094337932765,-0.0985193476080894,0.5182809829711914,0.1968265324831009,0.054482550122376,-0.062954294209863,-0.6914842389058748,-0.7175778758092796,0.2684910893440246,-0.054997980594635,0.0850505083799362,-0.1222124212175607,-0.2676876446008682,0.0978957991499453,0.1086426004767417,-0.0329684764146804,-0.0021379070778377,-0.1886452734470367,-0.0482818871140247,0.0377440442883642,99
1726740955658668800,0.4861559157416224,0.1394143159091472,0.7892746469467878,1.6630888409294189,9.654965400582553,0.4314690706558525,-0.082672506570816,0.1579827666282653,-0.0071059358306229,0.059771491043767,-0.0605934073245787,-0.6887159342619597,-0.720018200666003,0.1765499711036682,0.0020903951954096,0.1377346217632293,0.3463941015690565,0.0268693022251129,-0.2710099939566105,0.0975342020392417,-0.0570175722241401,-0.0003116469215587,-0.1631767153739929,0.0174972803169221,0.007785176266788,100
1726740955698439400,-0.0907858940795064,0.1085538982212543,0.6585024871766567,1.62217727708742,9.663979897165298,0.3826759963164106,0.3013737499713897,-0.1472629606723785,-0.1820070892572403,0.0582680710075805,-0.0591099150425143,-0.6906482265611444,-0.7184121327159737,0.0626926496624946,0.1106920763850212,0.0904242321848869,0.4984504569083452,0.3132856126934289,-0.1135983221292495,0.101502925157547,-0.0823170691728591,-0.0690133989701746,-0.1796435266733169,0.0559254789360566,-0.104894352800399,101
1726740955738210000,0.017263415620476,0.1597147611379623,-0.6393430286765098,1.5682966338180004,9.67611457159519,0.2891910176123492,0.0965300723910331,0.1315649300813675,-0.0784522965550422,0.0562693531436827,-0.0571771012221488,-0.6942522166653928,-0.7152470909096571,0.1940812915563583,0.1109318137168884,-0.0143070388585329,0.2807400183975696,-0.1572393109351396,0.2630173147022724,0.0839303508400917,-0.0909737274050712,-0.0719023710104869,-0.1867949068546295,0.0918903481900692,-0.0444724711939692,102
1726740955777839000,-0.0573993189148604,-0.0537123009651899,-0.6154699856579303,1.5594615854553877,9.676906598755716,0.309760288111493,-0.1120797917246818,0.2839255928993225,0.0333767049014568,0.0586148819815137,-0.0542720982190868,-0.6937298896724509,-0.7157916650857891,0.184109628200531,0.0868161469697952,0.072073258459568,-0.2368634672701358,-0.1913829880774021,-0.0668669295599684,0.0829337537288665,-0.0676751658320427,-0.0966092573375906,-0.1480047553777694,0.0244225552436779,0.0354886779934517,103
1726740955817604400,-0.5779753906525671,-0.325044439548254,0.0947293710082769,1.6028433388032015,9.667069679874182,0.3860559576109051,-0.16561920940876,0.494569182395935,0.256295382976532,0.0651586331629004,-0.0511004805257235,-0.6911623288404252,-0.7179399214621682,0.2186843752861023,0.0125005850568413,0.0664730295538902,-0.3816132989883423,-0.0838461579442024,0.2535293553888798,0.0903041586279869,-0.018500167876482,-0.122542803949397,-0.109888881444931,0.0038130486322683,0.0100861489688279,104
1726740955857369300,0.5451509794153273,-0.1089765075474977,0.0102601127296686,1.710935172470659,9.644183894327282,0.4824964433860033,-0.1293576210737228,0.2878692746162414,0.2463421523571014,0.0755253842804277,-0.0489916476475181,-0.6877494795725192,-0.7203446335566571,0.3623256981372833,0.0399631038308143,-0.1589140892028808,-0.0149567461133003,-1.8724837249070403,-0.9494926814317702,0.0806259512901306,-0.0172115191817283,-0.0659604731063824,-0.095668539404869,0.0748463657402433,-0.0294895540263736,105
1726740955897131500,0.2632517079800367,-0.2001589997291565,-0.0757482647497206,1.755060291531682,9.633611646908522,0.5325918690282851,-0.0727820545434951,0.016814149916172,0.0254849717020988,0.0785956399573006,-0.0492899648993868,-0.6858686981404649,-0.7217875522011898,0.5054610371589661,0.1217065900564193,-0.0255138874053955,0.4797621230512857,-1.8737667504549025,-0.7336112119138241,0.0722548887133598,-0.0152488118037581,-0.0815684588031843,-0.0902768820524215,0.1076353038053028,0.0139996417512884,106
1726740955936896500,0.2244616663366556,0.0006312836408615,0.3242782044161111,1.7630249868005514,9.629896425777671,0.5720513343658298,-0.0636805966496467,0.3973307609558105,0.0813952162861824,0.0809573219540747,-0.0476855694984692,-0.6845141232137267,-0.7229194489330751,0.3988858461380005,0.1630241423845291,0.0284435525536537,-0.2300648931711912,-0.4329781600445508,-0.2903484074865468,0.0815981402993202,-0.0105657540261745,-0.1605159762519411,-0.1114362403750419,0.0260401487914379,-0.0413896205493714,107
1726740955976661800,0.0311699220284819,0.0598772533357143,0.2356552605241537,1.7887226148977875,9.62197498512864,0.6232642197307199,-0.1069209277629852,0.1922078877687454,0.0872146785259246,0.0862038359318899,-0.0446594905090056,-0.6828088311747497,-0.7241177673382431,0.3066819012165069,0.0392806380987167,-0.0500940643250942,-0.3013356471806764,-0.8440238897442818,-0.0312380188286304,0.1029536053538322,0.0019772369414567,-0.1058876746866852,-0.1401548534631729,0.080546486211149,-0.0438989684552187,108
1726740956016425700,-0.3831619897350669,-0.4123866229146719,0.5987385580223054,1.8319532693371177,9.611956279939411,0.6516334051247685,0.032173253595829,0.2763766348361969,0.1899572908878326,0.0904112430267577,-0.0438322724512315,-0.6818025188156692,-0.7246032322421795,0.3478021621704101,0.1132282093167305,-0.0669735819101333,0.0107458504199981,0.6615057606458663,-0.0764490288636414,0.1210998594760894,0.0248390883207321,-0.1537669221168384,-0.1521417200565338,0.0057565165584615,-0.0426547451143618,109
1726740956056190700,-0.2817350207842886,-0.4832476270794868,0.1794032119482755,1.9466028540849685,9.587797990238666,0.6747279380515218,-0.0100886840373277,0.6216152310371399,0.4513069987297058,0.1017513487405475,-0.0413683538946183,-0.6810925830967034,-0.7239117843509005,1.4054765701293943,-0.1078295558691024,-0.1184235215187072,0.0267471371501684,-0.9829600667476652,-0.5273907201886177,0.1415572315454483,0.0542268939316272,-0.1532713936848566,-0.1905092000961303,0.0200141482338774,-0.0511176082968711,110
1726740956095956000,0.1298747725389897,-0.5111000951230525,0.3845956027347594,2.111547186439484,9.549362168860435,0.7221242608029395,-0.0122544653713703,0.4542548060417175,0.4561263918876648,0.1151367387738698,-0.0406867521854055,-0.6793574148431318,-0.7235756745688323,1.5716111660003662,-0.0945266857743263,-0.0177488420158624,-0.3480938912242651,0.6759662476748227,-0.8300509670365601,0.1395467519760131,0.037795290350914,-0.1112343329442664,-0.2067521214485168,0.0220923564471537,-0.0776671405157074,111
1726740956135719700,0.839643336572498,0.0092068042844533,-0.5182060546707362,2.2695269404783844,9.51358183042705,0.7151295065447688,0.2283626496791839,0.2597340643405914,0.3832546472549438,0.1271811767081459,-0.0405902198571644,-0.6796256156996114,-0.7213088916192945,1.4475542306900024,-0.0786515846848487,-0.2458765506744384,0.0483183329671621,-0.6361731664687394,-1.0409259335041046,0.1412775814533233,0.0532273836433887,-0.1487680817830841,-0.2606238722801208,-0.0224300160198588,-0.1440355733684729,112
1726740956175485000,0.1719976118668914,0.2510024672597646,-0.9486287580788136,2.39219222002998,9.480828730860352,0.7494611074745655,-0.1952777504920959,0.6502183675765991,0.4144284725189209,0.1385511359470395,-0.0388231018794969,-0.6784400384280772,-0.7204273110451909,0.1101046353578567,0.1637987047433853,0.0179238673299551,-0.6227934604138136,1.923766168376804,-0.8821062215097248,0.1502940058708191,0.008203855715692,-0.0276195566201233,-0.2981570065021515,0.1161290918490383,0.0206308439436717,113
1726740956215249200,0.2354740587383508,0.2496574823915958,-0.3919149127721786,2.5407524038165805,9.426059614318609,0.9297124606847762,-0.3187488615512848,1.0140578746795654,0.4693382680416107,0.156076007788619,-0.0341207638662474,-0.6718881068835543,-0.7232167263030843,0.1363578140735626,-0.0826151669025421,-0.0417721532285213,-0.9131056092768908,-0.6122083535134792,1.7720979355722666,0.1757999658584594,-0.005899372510612,-0.1281450078706257,-0.3192218244075775,0.0438633034867933,-0.0094670426770608,114
1726740956255014100,-0.0108133626982569,-0.2459042673379182,-1.1318621958397328,2.64862533403635,9.370956151255964,1.1577495743554085,-0.3728306889533996,0.965454876422882,0.3405618369579315,0.1756585392860138,-0.0254289799029871,-0.6635695627204845,-0.726755164120086,0.0105620697140693,-0.0639526471495628,-0.1144817098975181,0.0218716400682926,0.298593070474267,-0.0446586414158344,0.2137403041124344,0.035182349383831,-0.1956761917592957,-0.3368248343467712,-0.0455738839640747,-0.0232127022465923,115
1726740956294779400,-0.1759995409846305,-0.1682873591721057,-0.686070293059945,2.715798589599133,9.313239875346422,1.4347075169309973,-0.4821160435676574,1.0106158256530762,0.4230038821697235,0.1928654980036817,-0.0170798343473302,-0.6531145034590166,-0.7320878653997329,-0.2074168622493744,-0.2205548137426376,-0.0582119785249233,-0.5255938998997212,-0.1028822823256254,0.0735679250359535,0.2195508331060409,0.0574672669172287,-0.0946832759773824,-0.3316706120967865,0.0004459782145655,-0.0047925823093304,116
1726740956334543000,-0.5339183683916926,-0.5119634339541197,-0.6415238798469305,2.854647965101897,9.229700591394304,1.6834505148261785,-0.1528184711933136,1.2579840421676636,0.7349815964698792,0.2176292877123609,-0.007493535009678,-0.6435151562000689,-0.7338049068267593,-0.1999371200799942,-0.121031641960144,-0.0438296422362327,-0.7609381947785615,-0.1989911249935627,-0.2031752788104116,0.2108522057533264,0.0945521369576454,-0.0993785850536078,-0.311979740858078,-0.0524991577491862,-0.050916203973256,117
1726740956374308400,-0.3146782360956072,-0.9181301594406366,-0.0285290521308779,3.0642689129203555,9.130689597544071,1.8469247746281323,0.0610978156328201,0.9373729825019836,0.8512112498283386,0.2431039331260375,-0.0018667261867806,-0.6370475350547027,-0.7314829716494373,0.141298770904541,0.0124082267284393,-0.0342017821967601,-0.0627606998175382,-0.6294318755149841,-0.0265637434072792,0.2000664174556732,0.086987018585205,-0.0777445440003182,-0.3344620168209076,0.019178583325725,-0.0697777755053713,118
1726740956414073300,-0.196703890839219,-0.4440221166282892,-0.1901912940748036,3.3521120413213965,9.022894993257522,1.8764573047131297,0.1215205788612365,0.249380812048912,0.9313567876815796,0.2636750652622972,-0.0044832079504009,-0.6358515587904554,-0.7253606791523565,0.3366291224956512,0.0329084396362304,-0.0236262381076812,-0.4397884245812892,-0.2733388022303581,0.3902577932149171,0.2123140394687652,0.0580342449247837,-0.0898122176086064,-0.3940541446208954,0.0215116385163273,-0.0990659206415526,119
1726740956453837300,0.1353568572118878,-0.6259668297529221,-0.2203364031001925,3.676960373775661,8.90077784910798,1.851087447265536,0.0706478059291839,0.232323870062828,0.967454195022583,0.2790016200212196,-0.0136664478383327,-0.6367370207323397,-0.7187054009303901,0.0187193322926759,0.0684312283992767,0.0065123555250465,-0.1174807165205478,-0.0790671069741249,0.1635147379428148,0.1962350904941558,0.0120658408850431,-0.0469399390197359,-0.485064148902893,0.0608537519513629,-0.1386485922336578,120
1726740956493602600,-0.4349830701261759,-0.5737368762999773,1.233574995994568,4.059056195583939,8.718810924151539,1.917493371717632,0.1164705902338028,0.7347734570503235,1.454963207244873,0.3012293721870446,-0.0225107535321571,-0.6338204111562876,-0.712057430608964,0.0139621272683143,0.0997632145881652,0.0348427966237068,-0.1634276441812515,-0.0378694196671247,0.1939841104865074,0.1706060767173767,0.0015053898096084,-0.0516551766391377,-0.4615797996520996,0.0310394503494957,-0.0482678403223631,121
1726740956533366800,-0.5131529359996319,-0.6701502548724413,0.3815659527152776,4.576412428492308,8.452203476002811,1.9460469737678765,0.394100934267044,1.0718324184417725,1.8198506832122805,0.3356244756880876,-0.030249539865678,-0.6323481477809749,-0.6975507557783452,0.1037303581833839,0.1150628104805946,0.0381106287240982,0.0581511601954698,0.1317985802084207,-0.2684621361047029,0.1482946872711181,0.0080505823716521,-0.1857981919487006,-0.4306811988353729,0.0109396354094496,-0.0791475974649656,122
1726740956573131800,-0.7184341010481119,-0.9692892687916757,0.5243769253253936,5.049694541874528,8.131842810356616,2.131690395279973,0.142098993062973,1.4642210006713867,1.8049800395965576,0.3776965953705608,-0.0314850506536429,-0.6247581364497493,-0.6826648099882154,-0.0608924068510532,0.0996315479278564,0.0763175338506698,-0.0282546191036701,0.3839648305505514,-0.2736580973125994,0.1207048967480659,0.0344934239983558,-0.1868970748350024,-0.4258338510990143,0.0085457220144831,-0.1916187695946544,123
1726740956612896800,0.0661725540876388,-0.4715747249424457,0.3125660662472247,5.525186147999763,7.7451593684971325,2.378067394696176,0.1101230084896087,1.099372386932373,1.8540253639221191,0.4199948020949927,-0.0354722450625219,-0.614405424801228,-0.6669722766088078,-0.1855286061763763,0.0626569092273712,0.1826726794242859,0.1132265662074089,0.3583522503882646,-0.1270797349929809,0.06741514056921,0.0228130910545587,-0.2008626727527938,-0.4151719808578491,0.0753589092391077,-0.1774107594894245,124
1726740956652660700,-0.6939899801433086,-0.4084183038055896,1.0251792060568927,5.951057690909504,7.38676737062037,2.488161800357699,0.4247541129589081,0.721594512462616,1.4846467971801758,0.4515107852427657,-0.0435358961093436,-0.6092976912392025,-0.6503836553060264,-0.2727766931056976,0.0673519596457481,0.3318358063697815,-0.0642114831477403,0.7383832486212253,-0.3229991974562406,0.0245307087898254,0.0044572679325938,-0.0862158005518373,-0.3222481310367584,0.0720628679349785,-0.1654134659699164,125
1726740956692426000,-0.9833388369321824,-0.675081866055727,1.3851023590236902,6.29053572947979,7.103214048367739,2.478690207657218,1.0434004068374634,0.9378105998039246,1.566042423248291,0.4810253024031954,-0.0436844401544397,-0.6096832326592286,-0.6284844980398414,0.0425578206777572,0.0465829223394393,0.2574452459812164,0.6358768138706684,-0.1930471218973398,0.439789009103179,-0.0017313458956778,0.0145019628107547,-0.1297394191889092,-0.2117324769496917,0.0272117635538103,-0.1134753350703977,126
1726740956732191000,-0.0330143808513879,0.0900917743355035,-0.0162400639221072,6.614674744620919,6.807454155492782,2.4647604665040967,1.291778802871704,1.5103042125701904,1.5875707864761353,0.5174462126215126,-0.0354333145512117,-0.6108000255697881,-0.598261938623334,-0.2955411076545715,0.0789099186658859,0.2233171015977859,0.3889975640207528,0.7533399947345256,-0.3419453054666519,-0.0023008238058537,0.0335193797945976,-0.1695108000198379,-0.1282696276903152,0.0241632490036543,-0.1317773456241469,127
1726740956771955000,-0.0363812269359827,0.0901753609657287,-0.7686091677978635,6.884995075812936,6.492681519111991,2.571442725634575,0.6350109577178955,1.3009092807769775,1.4917950630187988,0.553279515529561,-0.0268794256311955,-0.6067704758834059,-0.5700779374177143,-0.1196579858660698,-0.0044954954646527,0.1610471457242965,0.5346545737117528,-0.0577232901722192,0.7776350625574588,-0.0098576983436942,0.0223301909863948,-0.1625778589515015,-0.091355562210083,0.0356345276213716,-0.1337201502549927,128
1726740956811823400,-1.179948035225272,-0.138155840280652,0.4969952896639704,7.0803078045547005,6.076224285757541,3.019787381637096,-0.3032282292842865,2.4187886714935303,1.8851593732833865,0.5909230688978693,-0.0248090368693839,-0.5877229003597991,-0.5520653711480209,-0.149067535996437,0.0057255034334957,0.0698234215378761,0.5241442856132984,-0.0852431652605533,-0.0087095222868025,-0.0010986800771206,-0.0122702559456229,-0.1026309561793692,-0.0715285316109657,0.108091450074967,-0.1056762330262456,129
1726740956851591700,-0.5474608637928963,0.3487929794043302,-0.0921650734782218,7.303149176213145,5.275335773384571,3.873656373569369,-0.3565231263637543,2.624593496322632,3.04486083984375,0.6491247424766747,-0.0302165845822529,-0.5491679660136926,-0.525488768446627,0.0372056663036346,0.0141696417704224,0.0503930635750293,0.4589665877819061,0.3565028231292962,0.4924051853947341,-0.0120376367121934,-0.0152103807777166,-0.1158735370522364,-0.0768292322754859,0.0501543253558222,-0.1173609625983983,130
1726740956891352800,-0.3417851464688777,-0.4738493918761611,0.8042758167237043,7.358741299575567,4.34931369165033,4.806535773852468,-0.2001843601465225,3.291703939437866,3.092672824859619,0.7109374286474436,-0.0349126912042088,-0.5037022746881529,-0.4895233503787873,-0.1581563800573349,0.0033907103352248,0.1119778677821159,0.1451414613842964,0.5003519066154957,-0.0334573023132979,-0.0435268804430961,0.0355998873710632,-0.1444685670914128,-0.0508231446146965,-0.0734982573332265,-0.0997714750950224,131
1726740956931122200,3.0051708272635933,0.2825833081766963,1.1225579225301745,7.205052374598384,3.421396297688782,5.705405937027931,-0.2143941521644592,2.5016911029815674,2.532606840133667,0.767414442606794,-0.039478819480646,-0.4555729031037341,-0.4494105871933732,-0.1634110659360885,-0.1054832562804222,0.1362242102622985,-0.1091951187342405,0.0484282230824232,0.7923251205585896,-0.0814232304692268,0.0472974181175231,-0.0708396599826868,-0.0438747070729732,-0.0098536884948902,-0.0749354870621114,132
1726740956970890500,2.5872137107402087,0.5015244575262069,1.4725988561689851,6.911780791407823,2.90632203823775,6.320676600721479,-0.0176425408571958,1.89032793045044,1.202264666557312,0.8012722189822195,-0.0375461047482454,-0.4199112563093576,-0.4245321515565888,-0.2972306311130523,-0.0947041660547256,0.1982462406158447,-0.0100333182364702,0.4102981262028217,0.01650514459908,-0.0995907187461853,0.0503077432513237,0.1109987158237956,-0.0519517287611961,0.0532811886720824,-0.0446222594947786,133
1726740957010659600,1.442306009235978,0.9165013891950248,1.2505641247183084,6.496417198508977,2.6004306274488567,6.870567322009801,-0.1776957213878631,2.176302194595337,0.9492438435554504,0.826185562005406,-0.0307048091338143,-0.3856886827308739,-0.4095348044080865,-0.5118273496627808,-0.1571750491857528,0.1064025312662124,-0.1532394276440143,-0.3672130177140236,0.1139092877745628,-0.0838110074400901,0.0125530734658241,0.0089948220554302,-0.0434243008494377,0.0018768992169614,0.0903877250747755,134
1726740957050429000,1.3786854777187108,1.08920583415702,0.8281295705199241,6.003087153354286,2.355003037711978,7.388321614325046,-0.2039829939603805,1.6404316425323486,0.4465285539627075,0.8466723579611666,-0.0236208700634942,-0.3503462406260143,-0.3998069840457813,-0.3872055113315582,-0.2151311784982681,0.0869008749723434,-0.2983703676342964,0.1469470495015382,0.7537959218084812,-0.04237050563097,-0.0154350036755204,-0.0547560743970796,-0.0601654537022113,-0.0052541468229173,0.0096168349736253,135
1726740957090197200,0.9511293427228928,0.2235591645389795,0.4825935470849275,5.692480989003181,2.230348045647889,7.667568179294466,-0.1996421366930008,0.7096215486526489,0.1628502756357193,0.856252137915829,-0.0201053809338972,-0.329634050434434,-0.39720222098006,-0.2191936373710632,-0.1210627481341362,0.2277011275291443,0.2682832724064588,-0.4216507103443145,-0.1948479607742279,-0.0008183888858184,-0.020070718601346,-0.165211294461321,-0.0958469957113266,-0.0269049900264246,-0.0875132473506964,136
1726740957129966600,0.8645183962404728,0.724385118407011,0.6196791277855634,5.483706721141934,2.202376773530245,7.826166503623128,0.0646175742149353,0.611398458480835,-0.109907291829586,0.8609871794880442,-0.015970877921993,-0.3173664860364545,-0.3971455450884794,-0.1186457201838493,0.1380488723516464,0.0817856714129448,1.2144050161004063,-0.1521346812725067,-0.3550754206746816,0.0066154301166534,-0.0335452109575271,-0.0687017529048491,-0.1303415298461914,0.0384281997607788,-0.1126795359170529,137
1726740957169734700,0.3248427794963121,-0.2803160938970744,0.4212193331897259,5.327717702528834,2.262864706110209,7.916139035493135,0.1316969096660614,0.5017708539962769,-0.1308731883764267,0.8628920411990324,-0.0097048513045507,-0.3103144461196938,-0.3987833430483496,-0.0791270732879638,0.1048770174384117,0.0245774425566196,-0.0126806178748607,0.2269423772364854,0.3812239708771929,-0.0087608126923441,-0.0549561157822608,-0.0708116074985591,-0.1018467918038368,0.030649864226731,-0.0717205892693716,138
1726740957209504000,0.1571113006412982,-0.4145483309932052,-0.5189508086234331,5.076763166064024,2.328562920684367,8.06068603811562,0.1414724737405777,0.6846939921379089,-0.082810640335083,0.8666169554038144,-0.0006969032779147,-0.2983603662680718,-0.3999446023221991,-0.0271642711013555,0.1151501089334487,0.0267553757876157,-0.1240717853486537,-0.100620767134428,0.4127776680588721,-0.0411082357168197,-0.0437731891870498,-0.0488939728640718,-0.0967085659503936,0.0443267791129648,-0.1015822325777262,139
1726740957249273300,-0.0226630827069282,-0.4358363259546458,-1.6752561024546622,5.108845234501362,2.430505730202794,8.01016405762434,0.0094784256070852,-0.4963955581188202,-0.2599252760410309,0.8638329178197859,0.0023588499769452,-0.3026379271788013,-0.4027375286717241,0.2614832520484924,0.0457923337817192,0.0493240691721439,-0.4677086971640586,-0.5357289249449968,0.0854378110498189,-0.0274742618203163,-0.0391057021915912,-0.1111264886556193,-0.0878524109721183,-0.0040289963628223,0.0517297488458454,140
1726740957289041400,0.094635847505927,0.0724810065820813,-0.232594119387865,5.127566886106133,2.4032731476232407,8.006417272311449,-0.2675212025642395,0.3504182994365692,-0.1138314604759216,0.8618785011069489,-0.0007797864458841,-0.3029615562882925,-0.4066684598615798,0.3030445575714111,-0.140889823436737,-0.0500012524425983,-0.4250526277422904,-1.1349445258945223,0.4518435309689492,0.0417296923696994,-0.0392050333321094,-0.1035141504883766,-0.0758855491876602,0.0534548282059375,0.0406463872669031,141
1726740957328811000,-0.6840665520220994,-0.1639594129703938,-0.36011399936378,4.921204940083623,2.3055727979801595,8.163115900498628,-0.3835107982158661,0.8024777173995972,0.1361832916736602,0.8655998555614498,-0.0008356762412499,-0.2894757498933826,-0.4085829504842591,0.0287240296602249,-0.1672587990760803,0.0716009512543678,-0.4460205969691276,0.0548065259426832,-0.427802876298502,0.0941841527819633,-0.0645294114947319,-0.151473185156472,-0.0743736028671264,0.0452897652264917,-0.084291380961053,142
1726740957368580000,0.0001104746371507,-0.1814921470515429,-0.0217687642157077,4.675466092440486,2.170325538622588,8.342666996484994,-0.2595702707767486,0.6520023345947266,0.0812992006540298,0.8708592123516703,-0.0011236044853498,-0.2732052565932432,-0.4086096740341138,0.0297773089259862,-0.1755952388048172,0.1394976377487182,-0.1872662004083395,0.1252232934713363,-0.0710083767462521,0.0847128927707672,-0.0422699972987175,-0.2301090428401715,-0.0844463184475898,-0.0538026598294964,-0.1474658126786351,143
1726740957408348400,-0.1623185138955712,0.0491777262754738,-0.0874170021682977,4.530838718058169,2.05502625779435,8.450961951509118,-0.299097865819931,0.4250291883945465,0.2490828037261963,0.8747198563670597,-0.0025748081659155,-0.2628958631821236,-0.4071171650025508,-0.0385306403040885,-0.0956367999315261,0.2483844310045242,-0.0199409642666578,0.0786918439209461,-0.253635153850913,0.0580040179193019,-0.034638937562704,-0.1544980494029819,-0.094731405377388,0.0668724322855705,-0.1564812773757614,144
1726740957448117500,0.0883674347609281,-0.073911916168034,0.5381973608851433,4.428892547538876,1.9008374204710128,8.540615334427356,-0.3822945058345794,0.272815465927124,0.1673853993415832,0.8781963578586482,-0.0068383936650244,-0.253974486139982,-0.4052422270200932,0.1232872828841209,-0.0403449460864067,0.2700537145137787,0.0563368042498826,-0.0786895058333873,-0.0166676416844129,0.0495261810719966,-0.0316059440374374,-0.195727940212842,-0.100507915019989,0.061554575430788,-0.1461797914560884,145
1726740957487885800,0.1748179299846291,-0.6922365606047213,0.3485644313454628,4.450779677437246,1.7883321542754769,8.553526253926753,-0.0265616029500961,-0.4392678141593933,0.1283361613750457,0.8793265478779624,-0.0121899173708868,-0.2524736169991891,-0.4036005046093414,0.6723338961601257,0.0051625114865601,0.1368146389722824,0.1057207206219434,-0.5129249724626541,0.1467225200306624,0.0439935289323329,-0.0053573753684759,-0.2828830400419421,-0.1122853979468345,-0.0020262816632166,-0.1717004372849129,146
1726740957527655200,0.8599927355095743,0.0148990245766937,0.0562654925793409,4.543869756805896,1.7586057090535758,8.510636960271,-0.1816947609186172,-0.0972279086709022,-0.0808313116431236,0.8780632759518069,-0.0158281131307082,-0.2565692078626895,-0.4036416789601897,0.0069761234335601,0.0037983867805451,0.2046090066432953,0.2988724719375372,0.4300397685050964,-0.5789566567748785,0.0272294171154499,-0.0278215780854225,-0.1509496088069397,-0.0961748138070106,0.1000509496235288,-0.0895393463508226,147
1726740957567424300,0.4686521154940128,0.1749364417977631,-0.1632546257019043,4.602117363113164,1.7069059169545768,8.489839086914062,-0.2365306168794632,-0.4041446149349212,-0.2155346125364303,0.8757698394312404,-0.020744883805001,-0.2582795271359325,-0.4072941038829853,0.243326336145401,0.0421289429068565,-0.0155567275360226,0.1126040503948926,-0.115880295586586,0.9927513929218054,0.0254243556410074,0.0092845382168889,-0.1647955715335905,-0.0806466415524482,0.0539775460389442,-0.2221581021020189,148
1726740957607192800,0.508810815142095,-0.2183694869413971,-0.1923895347714424,4.753943709088862,1.7050190802946683,8.406147242748737,-0.1159839555621147,-0.4682112336158752,-0.3348397016525268,0.8706584255885293,-0.0262874995248474,-0.2659224301843245,-0.4129746066706101,0.1860814243555069,0.0774446427822113,0.069268949329853,-0.2212023722797632,-0.8510621178179979,-0.6841080530762672,0.009792991913855,0.0179915651679039,-0.2124628749798051,-0.0762470737099647,0.0514460411002161,-0.2183766656008549,149
1726740957646962000,-0.4070385398849844,-0.2128760040916502,-0.3014239099860191,4.87252391128391,1.73888028723374,8.330977727735043,0.035319410264492,-0.3680980801582336,-0.1492283195257187,0.8663267838562803,-0.0290804839995212,-0.2727502069290903,-0.4174201126272274,0.3351920843124389,-0.0130892498418688,0.1448788195848465,-0.5873205804944038,0.1177840833812952,0.3740664638053625,-0.0047047366388142,0.0341028273105621,-0.1986730172214098,-0.0451895594596862,0.0165123392415582,-0.0921877054351381,150
1726740957686730200,0.1055675758868455,0.0362526321202516,-0.6731371617287397,4.996625799509883,1.784088817617297,8.247493388840555,0.0243230517953634,-0.4024638235569,-0.1269348263740539,0.8631863330637837,-0.0306141143791671,-0.2802813745034532,-0.4188251781898149,0.4812608957290649,0.1126148849725723,0.2663193047046661,-0.338399595683813,-0.084324296849966,0.1430686006329953,-0.0206352137029171,0.020148541778326,-0.1765715139199979,-0.0542306154966354,0.0619441592702642,-0.1227270470756571,151
1726740957726499600,-0.029545243436098,-0.2147146176956594,-0.7100637475878,5.114978622689843,1.7684017114028334,8.178027638426423,-0.2065455168485641,-0.4607611000537872,-0.0903710201382637,0.8599972868546061,-0.03521645686737,-0.2860007800766055,-0.4211507779564118,0.7165157198905945,0.1669493317604065,0.4046568572521209,-0.0215969147801399,-0.4760790506243705,-0.4277746000520884,-0.0087933419272303,0.0306665077805519,-0.2337771368936635,-0.0693895891308784,0.0259054073627106,-0.0675809869803022,152
1726740957766268700,-0.0587368511289358,-0.1463677883088588,-0.1742155801773071,5.284381249627471,1.7299825488984584,8.077924173164368,-0.2400577515363693,-0.6172264814376831,-0.2279666513204574,0.8551727010373253,-0.0428243012865598,-0.2937797963422218,-0.4248989831682231,0.2099340260028839,0.1482727378606796,0.4971583783626556,0.0039086978763341,0.7135930907577276,-0.0483358686238527,-0.0091079585254192,0.0345330238342285,-0.1822017566256225,-0.0946336761116981,0.0614908625448122,-0.1454951336601748,153
1726740957806037000,-0.7394909176021814,-0.4252950581960379,0.6790846719563007,5.410428134441376,1.6686336155749857,8.007078366568685,-0.2435758709907531,-0.2506702244281769,0.003202804364264,0.8513468404504893,-0.0503429184828783,-0.2986941525313084,-0.4283174736684161,0.491870641708374,0.1036902591586113,0.2382706850767135,0.2541583009421825,0.0799275231957435,0.0421140714995563,-0.0328936465084552,0.038990031927824,-0.1082331509674433,-0.1055924594402313,0.1481417026462033,-0.1252294218180235,154
1726740957845806000,-0.1771054563999176,-0.0186082543581724,0.4280108930259942,5.47487517991066,1.6197306145876644,7.973242732462286,-0.1013794466853141,-0.1808648854494094,0.0362052433192729,0.8502148448839454,-0.0545082370637688,-0.300843158276716,-0.428552169991551,0.1176243349909782,0.0028157336637377,0.2640434801578522,0.5942231994897127,0.5573907216548919,-0.261149182742834,-0.0499649979174137,0.049542810767889,-0.168044161533378,-0.0934877395629882,0.090066986954119,-0.0206615610256325,155
1726740957885541000,0.113045364421606,0.0357042044572532,0.4108545910418033,5.566000388947129,1.585020681864768,7.916926971000432,-0.0302241463214159,-0.4224340617656708,-0.0345327444374561,0.8484618790921835,-0.0587456802057593,-0.3047917320663953,-0.4286764401242284,0.2545446455478668,0.0280446577817201,0.2642025351524353,0.0557674799293279,-0.8848059819877148,0.231626151138544,-0.0274441242218017,0.0686961710453033,-0.146622046197718,-0.0973326191306114,0.0894862644567154,-0.0420603411514777,156
1726740957925309400,-0.0197106626421213,-0.2393552840858697,0.0154646956354379,5.751579074659944,1.627543188034743,7.77436968089044,0.1730866432189941,-0.7944820523262024,-0.0944947823882103,0.8442617447752478,-0.0620230091908768,-0.315864845516151,-0.4284910703116688,0.5747940540313721,-0.0645265504717826,0.16049425303936,0.0645741789802908,-0.3719125737071037,0.3076227646261453,0.0014023634139448,0.0743212476372718,-0.0937919531608466,-0.0779415071010589,0.1187169894503895,-0.0113959186764317,157
1726740957965077800,-0.6235971780121327,-0.5431318946778774,-0.1062093809217214,5.974637888461351,1.7001298469483852,7.588388844117522,0.2228018194437027,-0.7373406887054443,0.0162186902016401,0.8392236346977786,-0.0647485819102716,-0.3300113029192187,-0.4273218495207585,0.8342482447624207,0.0823796465992927,0.3118443489074707,-0.2288002800628542,0.7384113056719303,-0.6287877323925495,-0.0153283094987273,0.0795579850673675,-0.1389099922493565,-0.0506373420357704,0.0572143405696609,-0.0634660944408038,158
1726740958004845000,0.5672796629846095,0.2558639358162879,-0.5517775579482317,6.189755972391366,1.749429592168331,7.402486333277821,0.2146899998188018,-0.4391762614250183,0.1897086501121521,0.8358022604710739,-0.0671479162991268,-0.3436122702849138,-0.4229140836213758,1.0293476581573486,0.0669387876987457,0.5098535418510437,-0.7195972996085882,0.1337789403706789,-0.3442649805858731,-0.0336750298738479,0.0886428281664848,-0.0617887358131119,-0.0314881578087806,0.0730303155944915,0.0218820313148549,159
1726740958044613600,0.1560614993274211,0.3093888975158333,-0.9693138187110424,6.2445373638927935,1.7081749139770863,7.366022104233503,-0.2497254014015197,-0.1566821634769439,0.0963693857192993,0.8359520957351744,-0.06972296616605,-0.3457977698178907,-0.4204126136944839,0.4920461475849151,0.2066798657178878,0.3353651463985443,0.16594810256958,0.5642635300338268,-0.4444385884746908,0.0203930716961622,0.1158042922616005,-0.0817803936539683,-0.0041260458528995,0.0353768265332561,0.0114624274493369,160
1726740958084381700,0.3039233255863189,0.1775076074600219,-0.2982873655259609,6.346121423101425,1.607968134471029,7.301476859086751,-0.2218531668186187,-0.4252189993858337,0.0569654740393161,0.834004851533796,-0.0775444590096238,-0.3488769804520225,-0.4203659886153402,0.4091605842113495,0.086259551346302,0.4079903960227966,-0.1972512955889105,-0.5432604894936084,0.1699339573353528,-0.0132657010108232,0.093090534210205,-0.1296116463570855,-0.0544837191700935,-0.0220404298970941,-0.1205828289880417,161
1726740958124149000,-0.0618073446154594,-0.1277443363815546,-0.2425596330851316,6.450734474742412,1.5343378117233517,7.225248774930835,-0.2974419593811035,-0.2786663174629211,0.00924704503268,0.8312015686905598,-0.0846832066025372,-0.3527656314622493,-0.4212946411451933,0.1214715391397476,0.122227132320404,0.3902090787887573,0.1086450836360454,0.397013112694025,-0.4072577355936169,-0.0582357421517372,0.1346083283424377,-0.1161334392305929,-0.0545153468847274,-0.0394768548637628,0.01339130401953,162
1726740958163917600,-0.2460644263356924,-0.0600854892589151,-0.0384206238090992,6.521416030687093,1.437050572925806,7.181670914489031,-0.292208582162857,-0.1547149270772934,0.0950968340039253,0.82943101964382,-0.0918900175936011,-0.3541086145876908,-0.4221462301428071,0.0478764213621616,0.0440159030258655,0.3724777400493622,-0.0115644733265042,-0.2446153965711593,-0.0995294647663831,-0.0621963441371917,0.1042295396327972,0.0066212932905444,-0.0474832989275455,0.0289685623595723,0.0058423653568985,163
1726740958203684900,-0.2827753236174583,-0.0424376043654978,0.0564192218363285,6.552590921151638,1.3177989012099802,7.176165302810072,-0.2922199070453644,-0.0493509769439697,0.166636124253273,0.8294211856527463,-0.0983988329037003,-0.3527535651124989,-0.4218330855321788,0.3774814903736114,-0.0177814736962318,0.2533436417579651,0.2020107650756835,-0.4025555492520332,0.2858496164962649,-0.0439987406134605,0.0719305425882339,0.0,-0.0541683062911033,0.0,0.0,164
1726740958243453200,-0.0547235238343477,0.0260921073075383,0.1101928975999355,6.576678483703732,1.17669509784393,7.178654781538247,-0.3378467261791229,-0.1142074912786483,0.1808068454265594,0.8298823252757811,-0.105547872160018,-0.3504998046424454,-0.4210760366812793,0.5563076734542847,-0.0127843720838427,0.2823536396026611,0.1185959842860698,0.151302322101593,-0.1386763570234179,-0.0295041836798191,0.0598914325237274,-0.0165990311443223,-0.0421394668519496,0.0042736661518953,0.0604149221426807,165
1726740958283221500,0.1727905158102512,0.0276293998774141,0.1772434035658836,6.633774581888318,1.0599367042485623,7.144225273191928,-0.2608855068683624,-0.2029592990875244,0.057572141289711,0.8289392088764742,-0.1128670354294067,-0.3507234179447335,-0.4208491216546349,0.6440356969833374,0.0082085281610488,0.2815912067890167,0.1894829996749758,0.1584299820244312,0.0342898076146841,-0.0291333887726068,0.0252867192029953,0.1013606713820714,-0.0417020544409751,0.1095296844508498,0.0170647466766415,166
1726740958322988800,-0.4056804032742976,0.281052737608552,0.0684971976429223,6.656641078212857,0.961687415485829,7.136852698597312,-0.2470335066318512,-0.016086209565401,0.1891268044710159,0.828792912904693,-0.1182368056844775,-0.3494879833600783,-0.4206904011202195,1.2915533781051636,0.0380781181156635,0.2566638886928558,0.0620893764272332,-0.2945259671658277,0.0844330179214477,-0.0240293685346841,0.0358862541615963,0.0056103238664247,-0.0185331031680107,0.0235841407913132,0.1592724607305601,167
1726740958362757000,0.3444710245519876,0.3621075843337923,0.3720569506138563,6.661411945876479,0.8569900465622544,7.145736262276769,-0.217927411198616,0.0518243908882141,0.0941266417503357,0.8294078887896175,-0.123115855554975,-0.3471474165061238,-0.4200163542996696,1.0176182985305786,0.0203039124608039,0.240273579955101,0.2905757682353257,-0.120419692581892,-0.5954185467541218,-0.0021963329054415,0.0127542503178119,0.0288586996437748,-0.0356461219489574,0.0887825822999235,0.1079148148664273,168
1726740958402524400,0.4153519024610519,0.3250642402272671,0.1890454850405454,6.627192865410446,0.7629507767099887,7.188088380315899,-0.2265605330467224,0.2301282435655594,0.1474263072013855,0.8308618777941396,-0.1263693100651771,-0.342841490761149,-0.4197132235576963,0.5010854601860046,0.0444742813706398,0.0579875968396663,0.522477521444857,-0.247404150506854,0.0879664527446031,0.0148057360202074,0.0031335533130913,-0.0004593474403256,-0.0524428263306617,0.0898803052756004,0.1513970511803403,169
1726740958442293000,0.4407236596047878,0.2856663688838481,0.0427805725842714,6.545706422334909,0.6654300944827497,7.271953827482461,-0.2805436253547668,0.2809041440486908,0.0407761819660663,0.8329781718562627,-0.1287522323759989,-0.3356432685191419,-0.4206111259161028,0.5609301328659058,0.0070406259037554,-0.0103682903572916,0.2367585455909371,0.097981650802493,0.255101134750247,0.0525056906044483,-0.004456428810954,0.0171307280098728,-0.0569463372230529,0.1141219076119363,0.0740563981060637,170
1726740958482061000,0.3290209419637918,-0.1593644133303314,0.2671077988862991,6.510465013083815,0.5832877813143655,7.310540455508232,-0.2131546735763549,0.0028947556857019,0.0012630871497094,0.8332941027069286,-0.1322327810810253,-0.3313316453222051,-0.4223206547555617,0.5645254254341125,0.031874231994152,-0.0252885166555643,0.2503109778642654,-0.0567436314851045,0.0523123710393905,0.0526108108460903,-0.0340215191245079,0.0329225926483981,-0.0587559677660465,0.1130878975222352,0.0298895154126803,171
1726740958521828400,0.2789098803609609,-0.3026748233625665,0.2335492281556129,6.510297255301476,0.5539162870099767,7.312973820134997,-0.0192219950258731,0.0087971398606896,0.0033002602867782,0.8329351828174256,-0.1339758982031696,-0.3304429734918334,-0.4231747110839857,0.0916641131043434,-0.0821704715490341,0.0550961382687091,-0.2355658286750316,-0.0332885216176509,-0.1412444539457559,0.0544664673507213,-0.0414597280323505,0.0266129459940013,-0.0383092835545539,0.0666220514208078,0.0162619743598159,172
1726740958561597000,0.2484334935545921,-0.1399386685768142,-0.1295505090206861,6.514438008368015,0.5313906765449792,7.310958388659357,-0.1104937195777893,0.0053996299393475,0.0440783314406871,0.8330439527891988,-0.1350590591605368,-0.3301574036146428,-0.4228392744807445,-0.0759967938065528,-0.0747074410319328,0.0823161080479621,-0.1113078731045126,0.3775099553227424,0.3753501469403505,0.0453628338873386,-0.0497328788042068,-0.043467522801971,-0.0048582311719655,0.0361560010620742,0.058367921918421,173
1726740958601364200,0.1128998184710741,-0.1165390152236446,0.0962269160896539,6.516943853709101,0.4746216914229095,7.312630121263862,-0.1374539583921432,-0.0069345678202807,0.0549919344484806,0.8330481154677452,-0.1379052877969488,-0.3288491325360129,-0.4229316646903037,-0.5016689896583557,-0.219706505537033,0.1143518015742302,-0.3987161172196268,0.1265384677231311,0.3896440452307462,0.0436139553785324,-0.0433649569749832,-0.0356993638853542,-0.0141367381438612,0.0848911917514167,0.0433919687811518,174
1726740958641132500,0.038426469027996,0.0325263781387358,-0.0099304423838853,6.507021594631672,0.4425729042006656,7.32346832614243,-0.0481896921992301,0.0863673165440559,0.0473421961069107,0.8333851818428224,-0.1391188399353083,-0.3274950172976479,-0.4229209946626245,-0.8694981336593628,-0.3061534166336059,0.0933714210987091,-0.013534312094748,0.2175268986374139,0.0382201328009366,0.0550761334598064,0.0051742135547101,-0.1120894793357234,0.0050928094424307,0.0079592924371449,0.0718703775701811,175
1726740958680900900,0.1223866087406873,0.1696738450944423,-0.2106692878276109,6.472591501763462,0.3952080725660547,7.356613055375218,-0.1289401799440384,0.1683568954467773,0.0911179929971695,0.8346107830009789,-0.1401153574215688,-0.3244761898161109,-0.4225018535932014,-1.114513278007507,-0.2555834352970123,0.0634327009320259,0.1550865168154239,0.5927928744256497,-0.2610053903579711,0.0564207807183265,0.005710067693144,-0.0943435774279292,0.0027403249405324,0.0234522511900868,-0.0093628579292679,176
1726740958720668200,0.0266653040856122,0.0342750119043514,-0.1406540868371725,6.440671930411457,0.3338334568120539,7.387603236922621,-0.1703202575445175,0.0118127688765525,0.0356280021369457,0.8353850668720174,-0.1421697553442177,-0.3211305157513178,-0.4228413474476272,-0.7947536110877991,-0.1325022429227829,0.0962564945220947,0.0690250209093093,0.2267611754506826,-0.3045399961799383,0.0659873783588409,-0.0189309399574995,-0.0948110488092061,0.0074603613466024,0.0496981699530035,0.0023149076125584,177
1726740958760436500,-0.1207493629276752,-0.0249016006150282,-0.0389659827321767,6.466880138379335,0.2812310533175244,7.366869076451659,-0.1439412236213684,-0.1167584285140037,0.0816028118133544,0.8348274530915036,-0.1454985672515708,-0.3212854958809951,-0.4226925678435093,-0.75733882188797,-0.1322007328271865,0.1445271521806717,-0.0750114018425345,0.2927402527928352,-0.1373269882410764,0.0634512528777122,-0.0246276408433914,-0.1513173552739433,-0.0050162277184426,0.0365411233555641,-0.0881839679528027,178
1726740958800203800,0.1554845762223005,-0.0756593626235611,0.1550356634110212,6.483037492454051,0.2119791831160895,7.354976394084096,-0.1657607853412628,0.0305877681821584,0.0998600646853447,0.8347997541249058,-0.1491159217599288,-0.3205698353418336,-0.4220293069639018,-0.6590189337730408,-0.1241292655467987,0.170673593878746,-0.1846443274721503,0.0481827238887548,0.4174567657858133,0.0680646002292633,-0.0081592267379164,-0.2308881739865057,-0.0229515172541141,-0.0100594618913019,-0.128002868586732,179
1726740958839972400,0.0847884072303771,-0.0614850173259153,0.1641910297691822,6.482057833766937,0.1581508910884149,7.357193485611677,-0.0571931414306163,-0.0903106927871704,0.0845120698213577,0.8352293104316301,-0.1514160890167024,-0.3193128287327386,-0.4213128777029113,-0.5271527767181396,-0.0035396870225667,0.1117180064320564,0.0869733500540256,-0.0799789611220359,-0.1823077012181282,0.046345580369234,-0.0180088076740503,-0.1741780611785128,-0.042474053800106,0.01172165948248,-0.1746860654995776,180
1726740958879740400,0.3291834390491246,0.0100733488527592,0.1923065326631069,6.514941281715035,0.122206283737719,7.328778122988343,-0.0756435021758079,-0.0716623440384864,0.0472332052886486,0.8349794389750959,-0.1537634321918304,-0.3204576422724318,-0.4200870032844075,0.1506203711032867,-0.0190734788775444,0.2124502062797546,-0.1519175313904881,-0.6174789873927832,0.0131903209626674,0.0375540181994438,-0.0348762907087802,-0.1559846164326183,-0.0351256914436817,0.0240995384009671,-0.1310926878282334,181
1726740958919509000,0.0723673170745372,-0.0493613483472261,0.1129097553431987,6.515577826052904,0.0985921747831162,7.328568279629946,-0.0199219081550836,0.031385563313961,0.0438571274280548,0.8350876344465668,-0.1548443552847395,-0.3199534605163476,-0.4198592136791013,0.0016087885014712,-0.023987278342247,0.2283132672309875,-0.1532990488767623,0.2283627654284238,0.2733580914527178,0.0337914712727069,-0.0408678129315376,-0.1770950811363756,-0.0175607688724994,0.0071829765856935,-0.1174790816858876,182
1726740958959118600,0.1994990745157003,0.0022331476132385,0.0667681818932294,6.512944554939866,0.0902428093119058,7.331015672782063,0.0033679760526865,-0.019184598699212,0.0187936518341302,0.8353684145254989,-0.1550072050431811,-0.3196795055704132,-0.4194489286383823,0.9017348885536194,-0.310665100812912,0.3803046345710754,-0.5037909411534667,-0.2210772845953702,0.2046522194951772,0.0362786464393138,-0.0363442189991474,-0.1709693099987693,-0.0280812308192253,0.0218939044157392,-0.1031738491507247,183
1726740958998879700,0.1882411829203367,0.0716482181529048,0.0965507412165403,6.53063627897501,0.0987888572658412,7.31514941060841,-0.0025733760558068,-0.0585212968289852,-0.0621908493340015,0.8347420377341811,-0.1552786946374013,-0.3208110011814465,-0.4197315034548153,2.755753993988037,-0.3170346021652221,0.6415083408355713,-0.2164101695671677,-0.6342156026601791,0.2893523639202118,0.0399051830172538,-0.0237607266753911,-0.1399290787645615,-0.003683318151161,-0.0118044720778591,-0.049755265868525,184
1726740959038642000,0.0174789580672979,0.0660880998077336,0.1900871030479669,6.533056784120202,0.1056957688437774,7.312891402548551,0.0059786983765661,0.0350061058998107,-0.0047374260611832,0.8343886382724324,-0.1552395638147059,-0.3210093270211994,-0.4202965499776362,2.3754687309265137,-0.2898218929767608,0.8982189297676086,0.0671884531319141,-0.6177507900714874,-1.0710516071766614,0.0298284646123647,-0.0149126499891281,-0.1113901536936406,0.0071664587594568,0.0308409983180812,-0.0737745489573804,185
1726740959078403000,-0.0501204139530658,0.0075383139498066,0.0414350031942129,6.536012126794457,0.1049892097433097,7.310260469523071,-0.019104816019535,-0.0711589381098747,-0.0084229744970798,0.8342915059196296,-0.1553837650916473,-0.321148464714435,-0.4203299410398363,1.7566126585006714,0.3072682619094848,0.7483643293380737,1.0223268853656946,0.9323778805017472,-1.762837355273962,0.0173281282186508,-0.0121759017929434,-0.0933805867478251,0.02496824786067,0.011463960677653,-0.0295034866536036,186
1726740959118165200,-0.1036281322568655,-0.0895273727852385,0.0961626186817884,6.564979862603545,0.1145167795478832,7.284113636353611,0.0601826831698417,-0.1360847949981689,-0.0059904274530708,0.8335852106456285,-0.1558026587006905,-0.3230156197471757,-0.4201453885314875,0.6141670346260071,0.2352511137723922,0.2438868284225464,-0.0465465009890496,-0.4715419917166232,0.0349497328281402,0.0069425147958099,0.0011943521676585,-0.0708116074985591,0.0188343562185764,0.030649864226731,-0.0717205892693716,187
1726740959157927400,0.1518529417216777,0.0697764420648105,-0.1357096161723136,6.59799950415194,0.1292416531340684,7.253969842502475,0.0329105220735073,-0.052143707871437,0.0094474256038665,0.8330971603555485,-0.1558420361291411,-0.3253670519754004,-0.4192835360889736,-0.6486470103263855,0.1829371005296707,-0.1494069993495941,0.6187840786419808,0.1283066464394331,0.5224263757795096,0.0011938797542825,-0.0511731021106243,-0.0402107997280778,-0.0028661098331212,0.0637009580760262,-0.003409339798495,188
1726740959197688600,0.2222796461224555,-0.0207015277098398,-0.1259738195776939,6.588775164210796,0.1211086429604329,7.2624904180884355,0.0335350260138511,0.0315212570130825,0.056961853057146,0.8337565851834711,-0.1556236807981139,-0.3248034824135786,-0.4184902507215507,-1.2047523260116575,0.0816258564591407,0.0401696525514125,-0.2768039941228926,1.372286132070422,1.457830326104164,0.0222372692078351,-0.0300357788801193,-0.0880339284902438,-0.005482031032443,0.069918092724937,0.0042646854068851,189
1726740959237450500,0.2783680285692215,-0.0251875779495574,-0.2734960386186838,6.59074558750093,0.1227512225356884,7.26067372405529,-0.0394326858222484,-0.0272548515349626,-0.0268287025392055,0.8338250289197056,-0.1555123392413407,-0.3249993352318064,-0.4182428599173176,-1.0164830684661863,-0.2641017735004425,0.1260803639888763,-0.8915987108677625,0.4157686665683984,0.0619873773574829,0.0203555505722761,-0.0211480446159839,-0.105731853937311,-0.0158840585500001,0.0717978466235101,-0.0477915554469684,190
1726740959277212000,-0.0356640185773372,-0.2062772634137421,-0.0970814870923757,6.60999155524075,0.1217319168247748,7.243174892243743,-0.0199051592499017,-0.1291827112436294,-0.065035879611969,0.8327718559631578,-0.1566009284875686,-0.3258481532862015,-0.4192733485114564,-1.390768051147461,0.0203028470277786,0.2437488734722137,0.0286618847303092,0.3634522038757801,-0.0572638559669256,0.0183263793587684,-0.0069796624593436,-0.109795742375357,-0.0008441056124866,0.0474925405343528,0.0302337462900672,191
1726740959316973800,-0.2376023029386997,-0.1304216749651823,0.2173556337237357,6.645981737032533,0.1280273637071717,7.21005646649599,-0.032826118171215,0.0952818617224693,0.0382541194558143,0.8317222245194443,-0.1575195401286591,-0.3279893645056294,-0.4193431138817078,-2.6364569664001465,-0.0311455875635147,0.1165696233510971,-0.581120849071443,0.8788304147094488,1.102658459317684,0.0135646928101778,0.0055995653383433,-0.0830550258328206,0.0041641891002655,0.064862393937679,0.0393882312988163,192
1726740959356736300,-0.1736877569109201,0.0224676788658369,0.134065940618515,6.599874065852164,0.0827275383109692,7.252944006586074,-0.0932096913456916,0.1127177700400352,0.1009838655591011,0.8332518343848632,-0.1580251154319348,-0.3243930067966644,-0.4189136167337184,-2.723971366882324,-0.6888628005981445,0.0674946829676628,-0.1972032186634838,0.8506950380712747,-0.9086223263829946,0.0204353835433721,0.0029981848783791,-0.0458410515668569,-0.0330402106046676,0.0632476613505743,-0.0261774338037008,193
1726740959396497200,0.0654419017255306,0.1083102804574184,0.2990314618915319,6.578467705208063,0.0546452024677069,7.272631288352608,0.0469393506646156,0.0117310089990496,0.0341345034539699,0.8342062885114487,-0.1584145027770885,-0.3226512742096814,-0.4182115959653331,1.5337111949920654,-0.2825777530670166,0.1677039116621017,0.9645153323881328,-3.047194444000721,0.755163410769403,0.0232763346284627,0.0320118553936481,-0.0744279485319275,0.0011374255409464,0.0032294743073638,0.1311313302050344,194
1726740959436259600,0.2406745499908923,0.0862806642152834,-0.1590554204463958,6.582351268643141,0.0585687051875283,7.2690855785697694,0.0070191784761846,-0.0509952120482921,0.0278755966573953,0.834576234475143,-0.1579812935404538,-0.3231434293576781,-0.417256220405393,1.4685173034667969,-0.06104676425457,0.1745369732379913,0.3798044960007071,-0.6329974590420723,-1.6182447599440812,0.0084102153778076,0.0263938829302787,-0.0316915735656977,0.0140623459592461,0.0281893901140429,-0.0410631331079406,195
1726740959476020500,0.3191004364520311,-0.0592282148424535,-0.1816974603652954,6.601639321959018,0.0517464031531242,7.251625325202942,-0.0402501784265041,-0.0759671330451965,-0.0249934140592813,0.8340384997616708,-0.1589534717867054,-0.3240429149010784,-0.4172646313648799,1.0149606466293335,0.3418088257312774,-0.2258450537919998,0.4404330060951411,-1.0699036061853169,-0.7761053687721491,-0.0159720387309789,0.0140230692923069,-0.0369821268550236,-0.0107998782768845,0.0507423635100014,-0.0684015004497952,196
1726740959515783000,0.2037824509233236,-0.0304827708813827,-0.3885995046138763,6.631064738407731,0.0623556307145627,7.224643794775009,0.0124397678300738,-0.1692627817392349,-0.0445094183087348,0.83303533723251,-0.1595487109749013,-0.3258678824857968,-0.4176200661255502,0.4642552733421325,0.5455498695373535,0.0620379336178302,0.1361930157750845,0.8120026115834712,-0.8319944292545318,-0.0377635098993778,0.009177716448903,0.0047233609895309,0.0080719646066427,0.0934486926811281,0.0493385245940648,197
1726740959555543800,-0.0573012653678655,-0.0578134389739716,-0.1598135453373193,6.644348582872748,0.0488352969128172,7.212533085742592,-0.1387228220701217,0.0755599960684776,-0.0095694009214639,0.8322772862436828,-0.16095333768816,-0.3261244800858538,-0.4183915119275974,0.3486093580722809,-0.0733086466789245,0.1503773927688598,-0.8785209103688597,-0.2012467949658632,0.5753688614159822,-0.0244905520230531,0.0212664287537336,-0.1038538490378297,0.0200337618589401,0.030448558084527,0.04521666802424,198
1726740959595306200,-0.2423895372152328,-0.0857366295996122,0.2533738725662231,6.614557255721092,0.0020892125228361,7.240028995433449,-0.1229201555252075,0.2066189497709274,0.0666587874293327,0.8326745486581358,-0.1625878119053806,-0.3231508287668762,-0.4192755859848368,-1.5321824550628662,-0.3316139280796051,-0.4224516451358795,-1.0938918000161648,2.1431109300911424,1.6690414657235144,-0.0124302906915545,0.054066464304924,-0.1035141504883766,-0.0028974111191928,0.0534548282059375,0.0406463872669031,199
1726740959635125500,-0.1803688421100377,0.1483831832518801,0.1226069734930992,6.556127863106132,-0.0463303603206062,7.292834118425846,-0.0803090184926986,0.1414473056793213,0.0993017703294754,0.8344283025844158,-0.1629097907327643,-0.3187935702063889,-0.4189995079945515,0.6143089532852173,-0.4557238519191742,0.3055860102176666,0.6915320655971765,-0.4880307697027921,-1.568124930512905,-0.0162694919854402,0.0198565572500228,-0.0079956532377807,-0.0112626962363719,0.0902727569255977,0.0324058250655652,200
1726740959674890200,0.162454999756813,0.1439697324574925,0.2003039611577987,6.527542989134788,-0.0845635215664748,7.318087802147865,-0.0292005985975265,0.0628914609551429,0.0617619603872299,0.8354677183263751,-0.1636342361497643,-0.3163940452632863,-0.4184642031995844,0.310751736164093,-0.1081456765532493,-0.1733134686946869,0.8098949717797338,0.2789987276881933,-0.4998340202212333,-0.0286957174539566,0.0460838787257671,-0.0398991536627523,-0.0188774857670068,0.0462036743341712,-0.0111945166361052,201
1726740959714656000,0.4332750971645117,0.1011657972639426,0.0387754285961389,6.519336301803588,-0.0896438844375312,7.325339380711316,0.0339621342718601,-0.0131358196958899,-0.0158784631639719,0.8358762904742232,-0.1634719465127236,-0.3158932680679241,-0.4180898152207538,0.5955427289009094,0.1738385111093521,-0.1399730890989303,0.5545265643954277,-0.6900736834824085,-0.8621236100584269,-0.0574989840388298,0.0409762524068355,-0.0516551766391377,-0.0235319714993238,0.0310394503494957,-0.0482678403223631,202
1726740959794186200,0.3398094624817371,-0.1185155211946926,-0.184769707417488,6.540826833599805,-0.0749657543362118,7.306322545552253,-0.0499376282095909,0.000454330292996,-0.087505005300045,0.8345313801946711,-0.1640384902904509,-0.317131806977001,-0.419614415762167,1.2291390895843506,0.5887172818183899,-0.2440641373395919,-0.1338046593338251,1.2842156344294546,0.917103739002347,-0.0566692948341369,0.0012965246569365,0.0032928983573277,0.0197939090430736,0.1316828996731899,0.0811569188602268,203
1726740959833952300,-0.1197550911933183,0.0209307790216058,-0.0770218648821115,6.511824026477337,-0.0869209440133534,7.332051445570587,-0.0891937240958213,0.1419278979301452,-0.0143398251384496,0.834576695801819,-0.1642231623967309,-0.3149605933508146,-0.4210847071792309,-0.7082754373550415,-0.2824978828430176,0.1507627367973327,-1.6977879599973558,0.3902180457264185,1.5241431654453277,-0.0272434037178754,0.0217824541032314,-0.1040096697872038,0.028307182714343,0.0391971976721659,0.0491092550159897,204
1726740960271372800,0.1864636518537998,0.1504343436280265,0.0372509955078363,6.359882237428426,-0.0287788210742874,7.464680631384253,0.0766899734735488,0.1842473000288009,0.0516641549766063,0.8392569029239036,-0.1559866307320006,-0.3083429563208,-0.419810287287675,6.33328914642334,-0.5693690776824951,0.0125383567065,-0.0332872064433991,-2.798408483746648,0.2466010174304246,-0.0397666245698928,0.0218965746462345,-0.0458690994844073,0.013067265972495,0.0227441074873087,-0.0293923315964406,205
1726740960311137800,0.0519505519896745,-0.0937539866374805,0.1269575699180364,6.29732261314094,-0.0109923759519064,7.51757869335711,0.0972887501120567,0.2625556290149688,0.0721514374017715,0.8411117634906443,-0.1529519939373506,-0.3054764350728068,-0.4193098105873459,3.877756118774414,-0.3477437198162079,0.0001033918233588,0.2170147113315761,0.9878107216492296,-1.519897782960534,-0.0518237091600894,-0.0149756176397204,0.0203313495404436,-0.0070879152044653,0.0606597637492231,0.0058493316705134,206
1726740960509964300,0.9075146574020384,0.1036542896114289,-0.1072767178922891,6.135927351570129,0.3792262577213346,7.64048201944828,-0.0114070754498243,-0.0583883672952652,-0.4478738009929657,0.8398724471984476,-0.1326714495913057,-0.3047000328182549,-0.4291507708749487,1.6903644800186155,0.0141670322045683,0.1255480647087097,0.0528507156997919,-0.1183112947263289,-0.3572282147943973,-0.0648888349533081,-0.0298605598509311,-0.0809451666725333,-0.004973791539669,0.0726407317550154,-0.0015707153488649,207
1726740960549729800,-0.1977332338869571,-0.2719144319830462,0.9137801475375892,6.131762048584222,0.5032542039282619,7.636662168899178,0.1597771048545837,0.1867243200540542,-0.3036568164825439,0.8360580245134668,-0.1292537254156798,-0.3064833634334258,-0.4363122223662416,0.6610285043716431,0.053540214896202,-0.0356010757386684,-0.0018245850786566,0.4902461076647043,-0.1183504850924015,-0.0843675285577774,0.0003148490795865,-0.0621284343625651,0.0004952441668137,0.0500240500396583,0.0264523120721918,208
1726740960589495600,0.6463128676891327,0.2044827081471681,0.1601601668179035,6.027673897600174,0.6378274364817887,7.70913177730441,0.2274927645921707,0.258530855178833,-0.3921339511871338,0.8360258765654145,-0.1211750429791136,-0.3037437701562941,-0.4405872134217026,0.9326767921447754,-0.0710730254650116,-0.104581743478775,-0.1272515844285488,-0.5862726058114319,0.4579395828217267,-0.0780672058463096,0.0404978767037391,-0.0579566970692947,0.0083847176283597,0.0482079998939065,0.0778239019799977,209
1726740960629260300,0.1459182909756898,-0.1793481207601726,0.8716565775573253,6.010322365304828,0.8465822689902037,7.702578117877245,0.359296590089798,-0.136577770113945,-0.6292126178741455,0.8316553971373494,-0.1137128550098253,-0.3071598693754676,-0.4484101110309959,0.0761996656656265,-0.0618842206895351,0.0568421743810176,-0.0427605527095496,0.2273770423267036,0.3667687810778617,-0.0705526620149612,0.0274026244878768,-0.0347363709219614,-0.0048969965428113,0.0729028943891171,0.0232513423401047,210
1726740960669025800,0.1081190139353275,0.1032778575144708,0.1818833383262157,6.001135434764623,1.0894835551198572,7.679178537589311,0.3586118221282959,0.1380301564931869,-0.3731292188167572,0.827856193504035,-0.1042572488544032,-0.3124120337081416,-0.454074095221448,0.1514701843261718,-0.09856878221035,0.0229409970343112,-0.1360401633009314,-0.3929525121916085,-0.1427414145052433,-0.0842803195118904,0.0536115393042564,-0.0768014818633906,0.004577322397381,0.0303211345958639,0.0465859699163353,211
1726740960708790800,0.3818453541785478,0.3942727279447018,-0.0319300927460193,5.871360469338297,1.2644602558627724,7.752332036605477,0.0942291095852851,0.4739564657211303,-0.5668522119522095,0.8264448732428995,-0.0945357054447065,-0.3095223044604333,-0.4607037263127242,-0.4041309654712677,-0.063439130783081,0.0397712402045726,-0.1274956223174929,0.0700832977905869,0.130056120455265,-0.1004707440733909,0.0453525334596633,-0.058404239907395,0.0015496487030759,0.0513230814408278,-0.0470027157573727,212
1726740960748556300,0.416968690007925,0.2529240829721093,0.253517664951086,5.682110401636362,1.4426196052297948,7.861479224544763,0.0563648380339145,0.5144709944725037,-0.9081032276153564,0.8226125771757432,-0.0850878524350019,-0.3032097857266723,-0.4734262377396124,-0.262993574142456,-0.0079781115055084,0.1356763392686844,-0.1836421646922826,0.3016666327007115,0.4914671738922596,-0.1204686015844345,0.0020897481590509,0.0276039868749445,-0.0116275353357195,0.0951373216215055,-0.0006637565717799,213
1726740960788321300,-0.2365828967630863,0.1113521506376564,-0.0001508066475391,5.433047962528467,1.7015075650423763,7.984813343268632,0.2837907671928406,0.624897837638855,-0.8728327751159668,0.8175125342551686,-0.0710392498931982,-0.2963802240681365,-0.4886568253950767,-0.1375797241926193,0.1330796778202057,0.169737622141838,-0.2511538584291934,-0.0296546220947057,-0.5217985992699862,-0.1158902123570442,0.0234241802245378,-0.0600946041471324,0.0153077561408281,-7.38849368295e-05,0.1155679417017847,214
1726740960828086800,0.0436719684660434,-0.2939284396640956,0.0113870709329843,5.228958053091168,1.994859081601352,8.052882670888303,0.5854932069778442,0.113653689622879,-0.5040760040283203,0.8144605667905055,-0.0546070289283657,-0.2939988519436066,-0.4972290923223963,-0.6432706117630005,0.3578621447086334,0.2894119620323181,-0.2326442421399056,0.5868466793723404,0.2146288391083478,-0.0870926678180694,0.0278761535882949,-0.0447141116298502,0.0117018157616257,0.106145120046474,0.0895086315521504,215
1726740960867852800,-0.0796405229479074,0.0572227933041751,-0.1545136853635311,5.154450216856598,2.270091004101932,8.027995482391118,0.4333761632442474,0.526828408241272,-0.6015531420707703,0.8101152664571183,-0.0422630442553819,-0.2981609791055431,-0.5030180914427401,-0.32591712474823,0.3034232854843139,0.0919466987252235,0.502817858337611,-0.3764276399787515,-0.906128171479702,-0.0815583541989326,0.0301223881542682,-0.039947125556902,0.0364571064710617,0.0288309599701897,0.1220949597171973,216
1726740960907616300,0.2901233482927083,-1.0549451065063475,0.4100543805748224,4.724082823832333,2.602646842193604,8.190217257913947,0.8117807507514954,1.808765172958374,-1.0209988355636597,0.8087858448071504,-0.0177678708196424,-0.2865299931205865,-0.5132742536904819,-0.093936912715435,-0.0016108661657199,0.0692130252718925,-0.1483186301156878,-0.0683044515497982,0.4285083211541176,-0.0803245529532432,0.0595676749944686,-0.0849093393294606,0.0276538264006376,-0.0414203216483117,0.0661321992443641,217
1726740960947382000,0.5226426488786936,-0.9034250500008464,-0.1893926910430192,3.477469774827361,3.3025644588202234,8.553984519088267,2.154481172561645,4.596973896026611,-1.183671474456787,0.8137138032847565,0.0472235993422554,-0.2482701916387927,-0.5234515906365396,-0.0211915988475084,-0.0459413155913353,0.0841285213828086,0.2085733384616672,0.0046339434109628,0.2997632832974195,-0.059814166277647,0.0622894391417503,0.0560668875675881,0.0075660161674022,0.0799065260734874,0.1053915343333501,218
1726740960987146500,-0.5238420877963305,-0.5913099423915148,-1.8495745584845544,2.838885747824609,3.724571727517247,8.616187000501155,-0.1427170932292938,-0.6822125911712646,-0.9040713906288148,0.8087610420382313,0.081213523132655,-0.2325964144378624,-0.5340494115122779,0.0088893380016088,-0.0674850568175315,0.0450542233884334,-0.1168016482152044,0.0143951667077839,-0.0306803849458694,-0.0608785226941108,0.0539531223475933,-0.049437468623626,-0.0143999606370925,0.0126964319319231,0.0401701023915084,219
1726740961026912500,0.047147243361175,0.2116299495533108,-1.2412065137863155,2.441475744767487,3.9231563175365327,8.649764275932311,0.2174595147371292,-0.555253267288208,-0.842078685760498,0.8001591350135495,0.0975380922700841,-0.2224209127202272,-0.5484165834783592,0.0344423688948154,-0.0260425470769405,0.0679588094353675,-0.1391118258312344,0.0737860612986609,0.092923782891035,-0.0769401788711547,0.0710134506225586,-0.0051546553749067,-0.0115867340937256,0.0369351755908923,0.1052734243790153,220
1726740961066624000,-0.4524900852441787,-1.069969072636962,-0.3121756056249141,2.5192846683740613,4.153850156261027,8.51875070862174,0.6429615020751953,-0.3537193536758423,-0.0931035205721855,0.7918772094005349,0.1032916457793124,-0.2345110379712235,-0.5543155865698669,-0.0110257808119058,-0.0018175805453211,0.0716133937239646,-0.1464985750816762,0.2161051952712237,0.0209153622567653,-0.0684941187500953,0.0687743201851844,0.0666760466303676,-0.0040259938687086,0.0753041285782586,0.1632831759429536,221
1726740961106387500,0.2263590243905782,0.1695978572487831,-1.8528344370633365,2.439285102855414,4.140114476375282,8.548667707979678,-0.9065420031547546,0.705304741859436,-0.1013260632753372,0.7927630418348462,0.1051318311571932,-0.2304051461206447,-0.5544253978276501,0.0303906351327896,0.0273275226354599,0.0647153407335281,-0.0620081278845667,0.1941828479290008,-0.0537614008039236,-0.0232739076018333,0.0487447418272495,0.0328746139043825,-0.0135507946833968,0.0957151763083878,0.163178984916117,222
1726740961146151200,-0.0342027138531208,-0.2821469625860452,0.545146741631627,2.0529636261761186,3.6757781782537697,8.856883177801967,-1.5484312772750854,1.6175307035446167,0.1132023110985755,0.8004324959942465,0.0963131074824246,-0.1978595675031784,-0.5575691294442474,0.000835939310491,0.0408299639821052,0.0951017439365387,-0.0618701807186007,0.1053325250219553,0.0105079500108957,-0.0094346459954977,0.0458881892263889,-0.0320231458909111,-0.0419654920697212,0.0688175065053161,0.1032264195881784,223
1726740961185913900,-0.0501421873934566,-0.1572983476459979,0.8940589635014533,1.4169320601351558,3.1154841363728045,9.19001856934726,-1.3143255710601809,1.9083106517791748,-0.0093581601977348,0.8102405268725822,0.0912131849658401,-0.1520512908967976,-0.558632957152802,-0.0499659888446331,0.0350237376987934,0.104828804731369,-0.0485251075856387,0.1140014230374246,-0.092679452741146,-0.0033005950972437,0.0608900934457778,0.0029251507486798,-0.0463931187987327,0.0681730802550911,0.0825122881250921,224
1726740961225677300,0.5393204466309398,0.1538552214547991,1.320522627085447,0.7242194064512848,2.861342786565422,9.351930548268555,-0.0862508788704872,1.7855547666549685,-0.3147639036178589,0.8147507294175772,0.1005350193195989,-0.1143544501027033,-0.5594613653197467,-0.0909275412559509,0.0233132857829332,0.0790434777736663,0.0467730032213032,0.0794786834497004,-0.0677905106782913,0.0025890045799314,0.0550594478845596,-0.050244638554356,-0.0330038890242576,0.015936079431785,0.0564181441240943,225
1726740961265440000,0.321936755856499,-0.6257856279671192,-0.2099637699067592,0.0949536630171351,3.001282587653398,9.335613035196063,0.6803790926933289,1.1094480752944946,-0.4297063648700714,0.8124236964108212,0.124590291348393,-0.0921599806828011,-0.5620956661184308,-0.129139631986618,0.0246002320200204,0.0625665634870529,0.1174620118200778,0.0890226472666487,-0.1748176377236843,-0.0089871920645236,0.0395018607378006,0.0391761366178281,-0.0155978742986917,0.0785466267639771,0.0370872540301992,226
1726740961305203700,0.0165638707826845,0.1709969103917479,-0.7847989628374576,-0.2194724614809267,3.235203279469907,9.2550349391371,0.4362059533596039,0.5950307250022888,-0.2732124626636505,0.8082273394261015,0.1436740122358607,-0.0865003410591878,-0.564485678904764,-0.1149455234408378,0.0207549463957548,0.0686191394925117,0.0951658627294003,0.0480241357935592,-0.0824094031393528,-0.0119999982416629,0.0457131676375865,-0.0078678809767792,-0.0013110726140439,0.0410205634746933,0.0252983379977871,227
1726740961344966100,0.4049096380975097,-0.0022907412856817,-0.166505736452341,-0.4325925217278301,3.3401071307510137,9.210153594881296,0.3314252197742462,0.2236449122428894,-0.3892539739608764,0.8045819104269522,0.1542296151554462,-0.0814006922007001,-0.5676575495222916,-0.0844802930951118,0.0137861995026469,0.0693130940198898,0.1353134564615786,0.2050013617264106,0.0228320095330476,-0.0099015478044748,0.0306127071380615,-0.007839830205118,-0.0116590522229671,0.0815241173379588,0.0285132380738155,228
1726740961384729900,-0.0798069290233775,0.0380026906579732,-0.3378723569393158,-0.4626293846057727,3.5015251886755228,9.148534466314317,0.4597792625427246,-0.2136519253253936,-0.372832179069519,0.7983046421526427,0.1614705234209537,-0.086497572119108,-0.5737204850156434,-0.0543205216526985,-0.0039303195662796,0.0478861592710018,-0.0164481537148356,0.0311927731811068,0.1021229883909225,-0.0028001372702419,0.0278377253562212,-0.0640824682069011,-0.0017458278452977,0.0334970726346829,0.0635186648782575,229
1726740961424492300,-0.3968948931418359,-0.2989280015170574,-0.1419394504725933,-0.4530467327462509,3.556388997763395,9.127827193850278,-0.1092392057180404,0.1549855470657348,-0.0246524848043918,0.7953684345383664,0.1631937683321666,-0.0893203516684996,-0.5768697230252308,-0.0697282403707504,0.0094320904463529,0.0388983264565467,0.1195497778795659,0.1326736916756723,-0.0409194548875093,-0.0081151677295565,0.0241065751761198,-0.0017140580685729,0.0040956540033221,0.0962350445971824,0.0428184706089785,230
1726740961464256000,0.1625410706050694,0.2730713834658265,-0.1568441741377115,-0.5125434257991611,3.498394781695306,9.147071408024429,-0.1581366062164306,-0.0330418348312377,-0.0774353221058845,0.7960073340086999,0.1625223388517792,-0.0849448986198066,-0.5768388826287809,-0.0552507638931274,0.0047456198371946,0.0174770560115575,0.0796599583007395,-0.028354910273524,0.0161889182567596,-0.0011408739956095,0.0245070606470108,-0.002365402540646,0.0211457815021276,0.0907260536510497,0.0551739253498148,231
1726740961504019700,-0.4115226264964789,-0.1883548724278807,0.0204237793475389,-0.4393167154163122,3.4287568895846605,9.177200588828324,-0.1598852723836898,-0.3845103681087494,0.009983854368329,0.7954431785062719,0.1570661987940086,-0.0861579599020909,-0.5789449368612155,-0.046212263405323,-0.0016547016566619,0.040162194520235,0.0602118921175599,0.0571045463525224,-0.0299514861494302,-0.0038765640929341,0.0269900597631931,-0.0650454588870052,0.0542004778981208,0.045485360863828,0.0836592936025932,232
1726740961543782100,0.292303140017204,0.4790110124230384,-0.510448353216052,-0.2290063788278959,3.3804420637488364,9.202747118017076,-0.1801204830408096,-0.725553572177887,-0.1038275882601738,0.7949449483001805,0.1483614154097155,-0.093698328025626,-0.580751324452977,-0.1044896841049194,0.0166770089417696,0.0550131797790527,0.0039675884567201,0.1674725721905008,-0.1663841558992862,-0.0082975765690207,0.0342532470822334,-0.0207146680359146,0.0744082108139991,0.0870968211700674,0.0154731323869316,233
1726740961583545900,1.0337562610704452,0.1918447603702545,0.6822749924302101,-0.0792180414858274,3.3565117375850675,9.21400793222189,0.0955651402473449,-0.2083462625741958,-0.4667502045631408,0.7910379651530238,0.1420347166206427,-0.1002122192449019,-0.5865514310376693,-0.151816725730896,0.0665082111954689,0.0949329584836959,-0.0499772060900926,0.1471758898213505,-0.466174911725521,-0.0290304124355316,0.0370885506272316,-0.0147727701318101,0.1069856062531471,0.0700528341536643,0.0304560495545272,234
1726740961623308500,-0.0448540543900802,0.2146750163376331,-0.7715384992480278,-0.099396686965879,3.410295934742689,9.194040664470196,0.0875480473041534,-0.5850185751914978,-0.7950742244720459,0.7826224572103894,0.1435896243935571,-0.1030358854915156,-0.5968816961029932,-0.1811889857053756,0.1187031865119934,0.111578993499279,-0.0183387897670269,-0.0602652297399938,-0.3771118959158658,-0.0464773923158645,0.0578233897686004,-0.0296016406652983,0.1487614661455154,0.0590985605807974,0.0544822989569976,235
