frame,pose_x,pose_y,pose_z,ori_x,ori_y,ori_z,ori_w,phone_acc_x,phone_acc_y,phone_acc_z,phone_gravity_x,phone_gravity_y,phone_gravity_z,phone_gyro_x,phone_gyro_y,phone_gyro_z,phone_ori_w,phone_ori_x,phone_ori_y,phone_ori_z,watch_gyro_x,watch_gyro_y,watch_gyro_z,watch_acc_x,watch_acc_y,watch_acc_z,headphone_gyro_x,headphone_gyro_y,headphone_gyro_z,headphone_acc_x,headphone_acc_y,headphone_acc_z
0,0.033603,0.181245,0.036716,0.051951,0.036577,-0.71395,0.697308,-1.2671652770377697,24.73837857642173,-5.1398856849312775,0.0247241434225812,9.719420629358291,-1.3048568559199571,-1.2464762926101685,-0.0903287306427955,0.2682807445526123,0.0310386642657932,0.0335714923396857,-0.7519322698011406,-0.6576530022066047,0.7288515567779541,0.6223766207695007,-1.222914218902588,16.662850943005083,-19.35031541852355,6.520082151734829,0.216767206788063,-0.3724349439144134,22.2907703202486,0.6228293180465698,2.960085192607343,0.4832860959263518
1,0.035301,0.167035,0.027989,0.038494,0.018241,-0.713967,0.698882,1.2624538844764233,2.4116063839435578,-1.6301099697828292,0.362610346224159,9.794033679533005,-0.3403179599931463,-1.6216458082199097,0.5740517377853394,0.5645726323127747,0.0534124563990789,0.0287284426333689,-0.7186974775151524,-0.6926729250341097,1.3977452516555786,1.835248708724976,-2.252027034759521,4.69338110383749,-2.961099630346894,-0.4886494861230254,-0.2416827976703643,-1.655988335609436,2.5643974832981824,0.4738053679466247,0.5573834881965071,0.8290946161597966
2,0.038821,0.105846,0.017189,0.021473,-0.00648,-0.722592,0.690911,0.6693288554869592,-12.208271581023933,-3.046503539127112,0.4593874070098623,9.786687408423424,0.4244036257816478,-2.239463329315185,-0.0356436073780059,0.1422805935144424,0.063531100456115,0.0284676970804458,-0.6910506695210749,-0.7194459536109371,2.930734634399414,3.294294834136963,-1.0922597646713257,-7.338018245020509,5.014979202324152,-5.481022012102604,-0.1177130937576294,-1.105389952659607,-11.523619922590257,0.1219934374094009,-3.705366676309704,-0.5448977353066206
3,0.040758,0.06346,0.016092,0.017598,-0.013059,-0.723357,0.690126,-0.1466289599956944,-18.19231910286545,0.9284316270940004,0.505908956220746,9.695595517134668,1.3819728288263082,-2.413907051086426,-0.2333732694387436,-0.0642098188400268,0.0629078275468012,0.0204805649657786,-0.6550721654347191,-0.7526642621167581,0.0858742147684097,-0.3888921737670898,-0.7145413160324097,-16.99876398257017,9.75441010967493,-13.481180224019289,-0.3322102725505829,0.7546496987342834,-6.687284053757787,-0.7671526074409485,-1.6937582660898565,-1.1968161679178475
4,0.041578,0.019263,0.017309,0.015347,-0.015009,-0.723366,0.690131,-0.408302678069286,-17.72200928329229,5.237751015877723,0.4376317214714363,9.63454454384446,1.7760627475500106,-0.0658228620886802,-0.2262536585330963,-0.4984312653541565,0.0580209582242953,0.0193095019329758,-0.6395882596585818,-0.7662815917097148,-0.8990863561630249,-0.8799724578857422,-0.0343628115952014,-11.067101312482356,6.287379311275481,-11.991436171782016,-0.2609982490539551,-0.1684190332889557,-8.915784279581905,-0.265380859375,-2.0845361376561224,0.864574291146174
5,0.043454,-0.05354,0.014059,-0.0026,-0.025842,-0.713228,0.700451,-1.019512120205909,-15.498081187689303,0.9838631530672312,0.2330167835130356,9.706956284582615,1.375173377944529,1.581924557685852,-0.052612692117691,-0.4715597927570343,0.0473934762913051,0.0254387684115848,-0.6551629864941647,-0.7535703663360948,-1.036648154258728,-0.3232956528663635,0.8611798286437988,-9.403670087856051,5.559325733488798,-7.519176191681623,-0.1651760041713714,0.1037018299102783,-10.089973605149984,0.1027161926031112,-2.158327496184409,1.1483485626731067
6,0.044136,-0.070254,0.012481,-0.018089,-0.037569,-0.709176,0.703798,-0.869986013996601,-9.774404849955438,-2.41844704361856,0.2328292250516824,9.794604757419227,0.4264711162380873,0.8437306880950928,-0.2330999821424484,0.4002084136009216,0.0393536785070323,0.0212571229752056,-0.6912337951221149,-0.7212455625164701,-0.7918307185173035,-0.1336638033390045,0.9516608119010924,-6.174770000183582,4.337580876019596,-4.724976265540719,-0.001910203252919,-0.0704193413257598,-9.709297879272698,0.012055991217494,-2.1345145127899943,-0.609922288402915
7,0.046049,-0.074821,0.01042,-0.022398,-0.044061,-0.708814,0.703662,0.2423365283863618,-4.579637235757708,-1.6032956126153468,0.3885357551952824,9.798846048250796,-0.0449623964356491,0.2360223978757858,-0.0464707538485527,-0.044696569442749,0.0418237300809111,0.0139525805531328,-0.7085885757441454,-0.7042430023117219,-0.7880932688713074,-0.1293702721595764,0.0649324879050254,-3.718898942577839,3.515606905519962,-3.145310242576897,-0.0145141873508691,-0.2477026581764221,-9.935567471814156,-0.4587578773498535,-2.462141808438301,-0.1889331655061803
8,0.052116,-0.065138,0.013134,-0.02207,-0.025891,-0.722935,0.690078,0.9456557336173952,4.403333743390441,-0.3715735510110854,0.378188073780015,9.799219557738304,-0.0514527220027521,-0.3155350089073181,0.4150055050849914,-0.3120595216751098,0.0433571775824635,0.0162635486200376,-0.7087727814675395,-0.7039153244848992,-0.6510475277900696,-0.7432349920272827,0.5120352506637573,0.0818973619639873,-0.1528589038938284,-0.6080974110633135,0.7665762901306152,0.2473665028810501,16.0441988201797,-1.6443296670913696,6.3481011987417935,1.5013099868685007
9,0.053557,-0.062662,0.016244,-0.014741,-0.019726,-0.724116,0.689238,0.9913277898594736,11.615652894121409,4.558612567907572,0.1554949149532243,9.802425075781343,-0.2421661585218273,1.8902665376663208,-0.1844132244586944,-0.5124509930610657,0.0375915342411688,0.0271902035383067,-0.7152675937731122,-0.6973089232637555,-1.132647156715393,-0.0990753173828125,-0.3928045332431793,13.223872519135474,-10.38200424836874,5.262223778355121,0.0403640866279602,-1.1616612672805786,13.288588444674014,0.4897901117801666,3.3842058001965283,2.3505082105107604
10,0.054397,-0.06789,0.016667,-0.01294,-0.020942,-0.723745,0.689629,0.2056556426503695,12.130423786711692,-2.5022294886767864,0.015508648941596,9.77293068574965,-0.8123921954229474,0.3843693435192108,0.1866436004638672,-0.3196864128112793,0.0326447053747283,0.0343045970348802,-0.7350127012885587,-0.676397744476456,-0.582737147808075,-0.8217726349830627,1.2747429609298706,5.711956089323759,-8.497703828939795,5.348480504572391,-0.0429427288472652,-1.7433948516845703,21.99530151927471,0.3323663771152496,5.822955042609572,-0.3788010545792057
11,0.054604,-0.084141,0.015788,-0.017036,-0.025929,-0.723515,0.689611,-1.4090769627206026,9.883163915359974,-0.3677215517580509,0.0024834976536047,9.757071437838674,-0.9848528947569428,0.7160470485687256,-0.1061159968376159,0.387392908334732,0.0309951892145088,0.0340926524148463,-0.7409799016484422,-0.6699446215698838,0.1491306871175766,0.0780832767486572,0.2308415025472641,7.734152821314335,-6.366763813635706,5.810018988668919,0.6319284439086914,-0.5299602150917053,5.043021639981865,-0.4178679585456848,0.5793486152345314,-0.5818643609151244
12,0.048524,-0.123061,0.006662,-0.043201,-0.045026,-0.711775,0.69963,0.6653134823657572,2.7609371234863995,-3.6897605263769626,0.2664798579799942,9.755799518206716,-0.961125543819368,-0.8646436929702759,0.6592448353767395,0.6405071020126343,0.0457073876694861,0.0302264900916161,-0.7403310914329166,-0.6700053068471078,1.619027018547058,0.7573496699333191,-0.1535182297229766,2.036972860839963,-2.770889193180204,1.2472475475162268,0.4862118065357208,-0.4569614827632904,-1.2387762178994717,-0.6239840984344482,-0.8211552014626562,-1.0549743326008318
13,0.043341,-0.121967,0.003828,-0.05813,-0.0657,-0.70706,0.701692,1.2678085433773696,-3.997434144407511,0.3893769187271594,0.4162130128024146,9.778084415251016,-0.6214647690933197,-0.5850048661231995,-0.0428872294723987,0.0814049318432807,0.055517146482636,0.0281933484864431,-0.728622685876645,-0.6820791433195766,1.2226450443267822,1.3230398893356323,-0.3799525797367096,-2.356893966025114,3.569581072291732,-2.550612119051814,0.1993657201528549,-0.1371620446443557,-4.693261276850104,-0.2497085183858871,-1.847534869350493,-0.4179565685341134
14,0.039157,-0.093263,0.008993,-0.0481,-0.051531,-0.709086,0.701589,0.1397575763888657,-7.829757221591472,1.979420251059532,0.4088139155270531,9.783574829360845,-0.533771215005964,0.027987016364932,-0.1162917539477348,-0.0126425987109541,0.0536228211026815,0.0263543937011859,-0.7256171197327704,-0.6854996596772952,-0.1568787693977356,0.3057959377765655,-0.0930798575282096,-6.301957871726155,6.930466202655434,-4.38613038739413,-0.0181800462305545,0.0803607031702995,-5.188543625116348,0.2333103567361831,-1.9661102492399511,-0.2890906259777955
15,0.035392,0.024938,0.026839,-0.031352,-0.008066,-0.719248,0.693999,0.6750953100591898,-7.883141605776548,2.127460941016674,0.4097772441338747,9.77725380964577,-0.6385669297374784,0.4895000457763672,0.0170673392713069,-0.0395744293928146,0.0525263387817782,0.0255481708488398,-0.7293182718835924,-0.6816767016454133,-0.7462368607521057,-0.4169946610927582,0.3681825697422027,-5.642976661121845,4.38910414250791,-4.437999398580193,-0.0459811091423034,0.0314760692417621,-4.64907814399153,0.5581635236740112,-1.7335405336409806,-0.3425308868022635
16,0.035322,0.087025,0.042186,0.004667,0.032615,-0.727057,0.685786,2.904550936912,-1.571105407628417,1.437918003410101,0.3183437728658318,9.76541139616072,-0.8401152649331838,0.6613861322402954,0.148873820900917,-0.5574109554290771,0.0504407421141378,0.0309962774704064,-0.7361203640059272,-0.6742565176042385,-1.4843170642852783,-1.1970865726470947,0.4434626698493957,-3.298629457458853,1.50545132445693,-1.100840303979814,0.1154837384819984,0.1408029645681381,-0.493448666565679,0.4888777136802673,-0.3535955573804676,-0.7329789053596556
17,0.03638,0.134037,0.055299,0.046694,0.073064,-0.732345,0.675391,1.1572745041895658,15.261460881525275,-0.8796049062132835,0.0734948050008155,9.701233815282585,-1.4321467265322805,2.0417075157165527,-0.0805133879184722,-0.425684779882431,0.0420512407607783,0.0429905129495059,-0.7557585439238598,-0.6520832263571255,-0.8245441913604736,-0.5369872450828552,-0.3687410652637481,12.571366057503225,-14.029722453308104,9.26862799568176,0.4760750234127044,0.747115969657898,9.99192122719884,-0.1122764125466346,1.969214352735132,-1.104223589742556
18,0.03428,0.172512,0.053732,0.051079,0.059931,-0.727379,0.681703,-0.6800573163807392,23.403669603073595,-12.659469872891902,0.0279364336997037,9.662052728495,-1.6776088030606506,-1.0858943462371826,0.1221369504928588,0.1285971403121948,0.0359030520350605,0.0404647793930167,-0.7641314332383023,-0.6427883537534368,0.7826101183891296,-0.1207442283630371,0.0733307600021362,9.73121218943894,-17.329346182501315,6.239511644685268,0.3841971457004547,-0.1048233956098556,24.342030649638176,-0.0021055974066257,6.549948882210254,-0.457976042374596
19,0.032705,0.163939,0.048298,0.037793,0.041472,-0.719569,0.69215,-1.1340152091551572,20.680709451282024,-3.187287974345684,0.0772745518683921,9.735376323381066,-1.177640488935262,-0.8399186730384827,0.571401059627533,0.1839780062437057,0.0468929654319417,0.0469802921059369,-0.746884066096161,-0.6616328162208357,1.321282148361206,0.4640467166900635,-0.4345446228981018,10.952520993578434,-17.08369618218541,9.4904891241312,0.1977677792310714,-0.7795048952102661,15.141076260256767,-0.1520803272724151,4.123054912763834,-0.5553518362384289
20,0.033877,0.140012,0.045172,0.028231,0.031833,-0.723318,0.689203,-0.8409170097701251,4.389905522018671,-5.163628964090347,0.2682538453825749,9.77553940694332,-0.7329897190146147,-2.095887899398804,0.6528751254081726,0.6284717321395874,0.0615981618050837,0.0463371274894529,-0.7315906949343504,-0.6773726332818893,2.7995851039886475,1.6280784606933594,-1.823312759399414,4.50033456646204,-1.5420271971821784,1.010558852291107,-0.1655395925045013,-1.066357970237732,-2.778834599226713,0.0759807005524635,-0.7601734209511428,0.843292360599339
21,0.034978,0.063815,0.048355,0.015727,0.01683,-0.730586,0.682432,-1.4645862301051615,-17.353627221798895,4.721486669859289,0.7439314573328941,9.624545127877592,1.7277441223219037,-2.140910387039185,-0.1801392138004303,0.5414947867393494,0.0884308351306042,0.024657823328204,-0.6413279615891595,-0.7617549111979843,-0.4240217804908752,-0.5613406896591187,-0.5958137512207031,-11.333465599524974,9.79743910406232,-16.508408569312095,-0.101451925933361,-0.6433295011520386,-6.285467924696206,0.0257342215627431,-0.4933258804362267,0.6215290665011852
22,0.033191,0.019731,0.053029,0.013391,0.022318,-0.719398,0.694111,0.066393722557649,-17.666393194532393,2.653161223900318,0.7628978044137358,9.622623219904304,1.730173395295441,1.5380187034606934,-0.4708069562911987,-0.6797606945037842,0.0834695100256159,0.0192050802036346,-0.6414178576109628,-0.7623956735396693,-1.914103627204895,-0.4218320548534393,0.2053219527006149,-10.099285038852692,7.164559036168456,-13.48585990626812,-0.0699745565652847,-0.2143176943063736,-9.613773558494447,0.1625277996063232,-2.997870733383298,-0.0322615212240489
23,0.03131,-0.017607,0.056107,0.013437,0.032305,-0.708238,0.705106,-1.46699504481256,-15.622439388763905,-2.964290535342693,0.4252180839696898,9.7324046140939,1.1268905449070037,1.2196084260940552,-0.1596428006887436,-0.6901172399520874,0.064216895564797,0.0282324770231983,-0.6646408793738525,-0.743862651134767,-1.5505791902542114,-0.5976855754852295,0.931831419467926,-10.572302363818885,6.2016153370112175,-8.01089061833322,-0.0894686877727508,0.6250011920928955,-9.48687560980916,-0.2411950677633285,-3.6747137638926506,-1.2626646046176553
24,0.030423,-0.054611,0.061516,0.017875,0.024618,-0.705485,0.708072,-1.751980737955868,-11.59681141552925,-3.636403030198813,0.4246951926067471,9.767042212232948,0.7712919771410525,0.7062431573867798,-0.0912198275327682,0.5639722943305969,0.0629110289708566,0.0287116730635001,-0.6781229180439615,-0.7316878163853512,-0.9567949175834656,-0.4066945612430572,1.170418620109558,-7.462482244557142,3.5444074680685995,-4.591474973067641,-0.0858714282512664,0.3289975821971893,-9.117319828361271,-0.6033090949058533,-3.03305895114243,-0.7343930830065161
25,0.031,-0.055975,0.059532,0.020349,0.027433,-0.704238,0.709142,0.2777355028193444,-7.506456995362043,-3.316853680935502,0.7025404394108802,9.7682293761909,0.5084546951808036,0.6017706990242004,-0.1176905184984207,0.4585175514221191,0.068984686051067,0.016159009705512,-0.6883421465396365,-0.7219176866414927,-0.0797773301601409,-0.0757434144616127,0.6381596922874451,-4.993204592889547,3.5832203060656784,-5.547580935159325,-0.1951327323913574,0.2576868534088135,-10.14563061044216,-0.492281973361969,-3.361092927895486,0.126632511815289
26,0.032975,-0.052399,0.053523,0.004907,-0.001048,-0.707476,0.706719,1.386561033399403,-3.36143107380867,-1.9343343241423367,0.6125973162984475,9.781482825517656,0.343087972695753,0.1482391655445099,0.1686198115348816,-0.8503891825675964,0.0672686077352271,0.0215999427466985,-0.6942915986524626,-0.7162175370025265,-0.5634700059890747,-0.4005855321884155,0.0779316425323486,-3.712250590604544,4.593609647008776,-5.314874003046751,-0.2757250368595123,0.0134511841461062,-9.400510747042295,-0.2631813585758209,-2.751757207208872,1.0017530300229789
27,0.033123,-0.050515,0.051859,0.015684,0.007818,-0.710448,0.703532,0.8804803738735616,5.423730099084973,2.241595269718766,0.2042426705799065,9.792617967516184,0.4830066944630816,-0.6595138311386108,0.7385349273681641,-1.0716620683670044,0.0602235959054118,0.0429872203189037,-0.6881319725596089,-0.7218029825394264,-1.0315743684768677,-1.29515278339386,-0.009084484539926,1.505440218541026,2.6247727492839097,1.631915557900071,0.3579863607883453,-0.4068130850791931,15.65590443599224,-1.1788078546524048,7.115181549537182,1.340364076500386
28,0.032042,-0.062645,0.043131,0.023995,-0.009537,-0.707131,0.706611,-0.3922049817599355,12.960975615942475,2.498464583185315,-0.0516203519209288,9.79995254818797,0.3587157134057954,1.15935480594635,-0.7801149487495422,-0.0846442654728889,0.047605800068374,0.0495423194452373,-0.6922832859402912,-0.7183475767415743,-0.5894440412521362,-0.6197603940963745,-0.9516880512237548,11.826383556747436,-11.129207932305336,6.278885039174557,-0.2235029190778732,-1.0359293222427368,11.66995848480463,0.1341019570827484,3.725678227454424,1.9423573254697024
29,0.030918,-0.081233,0.038971,0.014939,-0.017492,-0.704071,0.709757,-0.2057305162511765,12.206666483914852,-1.1769576212376356,-0.0486536156364018,9.799639828976987,0.3675674206422641,-1.6474723815917969,0.5339774489402771,-0.2066609412431717,0.0447255071845072,0.0465164234924848,-0.6921672475050644,-0.7188466517093497,0.7616129517555237,-1.289722919464111,0.248456984758377,5.905425820547342,-5.667987183737755,6.514263820844889,0.0985411629080772,-1.660396695137024,34.95370056272745,0.1418825536966323,10.218084436756373,2.560930976231396
30,0.028707,-0.10423,0.036794,0.012119,-0.019459,-0.697907,0.715821,-1.138383779628202,7.164842529284954,8.563607502958178,-0.10585277690324,9.79044354608655,0.5535125650472938,2.0030651092529297,-0.7591130137443542,0.1147010624408721,0.0448162031044563,0.0497633850202029,-0.68505643461504,-0.7254051925050394,-0.6313174962997437,0.2485442757606506,0.1474346220493316,8.638757144227624,-6.096645727017521,5.894170851561427,-0.1128822639584541,0.4228554368019104,-5.916193298277259,0.8360915780067444,-4.490435980521142,0.053895763206738
31,0.019408,-0.116997,0.030211,-0.003387,-0.043093,-0.67089,0.740296,-0.0077692417662503,-0.902864201247692,-3.593613689786196,0.0008858303657325,9.806600900161266,-0.0312076373900985,-0.3450044989585876,0.0133637944236397,0.3361811339855194,0.0405690873676274,0.0406345245858111,-0.7070643408382019,-0.7048142074220488,0.597510039806366,1.0221370458602903,-0.2212527990341186,0.1195025777369737,2.722345819285512,1.4496972885310648,-0.0025738852564245,0.1065714284777641,-0.1225599286141339,-0.5755524039268494,-0.5137877998370677,-1.913157096078992
32,0.017981,-0.083907,0.032606,-0.002298,-0.039477,-0.675485,0.736313,1.5034708181641996,-4.474143894150853,1.1806336794018746,0.0707167916548438,9.8001945402503,0.3486626310229301,-0.5053614377975464,-0.6154966354370117,-0.022972896695137,0.0407926521430246,0.0343635211760153,-0.6935721313402318,-0.7184098949432183,0.8529080152511597,0.9744160175323486,-0.0149911763146519,-1.9411843361675736,3.02352890625298,-2.223317854750156,-0.1701973974704742,0.2041721940040588,-3.271852801953256,-0.1772575378417968,-1.556789589767158,0.3284954202523454
33,0.019744,-0.025449,0.038136,0.01022,-0.032211,-0.685912,0.7269,0.1622362241732887,-6.8306959148705,1.2085159580618143,0.0135877067993977,9.804145908224582,0.2212708709387108,0.7858172655105591,-0.4209126830101013,-0.2805011570453644,0.0288876057981379,0.0272748839853703,-0.6985516490442204,-0.7144559967719468,-0.8443045616149902,0.3251480162143707,0.134036585688591,-5.565230573618412,5.177993589529395,-5.903530800580978,-0.3497580587863922,-0.1936638355255127,-5.30896331769824,0.2894637286663055,-1.3383153272770345,0.6748235073804855
34,0.026759,0.102731,0.063095,0.056588,0.018753,-0.716799,0.694727,0.1970127741253003,-7.283764676785468,-1.7068915961682796,-0.0972045654827728,9.805906488156316,-0.0717007566243177,0.5860602855682373,0.070329338312149,-0.2451640218496322,0.0236739936572776,0.0308772579694512,-0.7090150323904647,-0.704119221108444,-1.2824944257736206,-0.4231068193912506,-0.1888832747936248,-5.77085017684102,3.241525760489702,-4.449446383006871,-0.4339492619037628,-0.210318386554718,-7.327770407250523,0.4386212229728699,-1.986953276912868,-0.4928114646406843
35,0.027471,0.145381,0.074835,0.095219,0.044175,-0.722937,0.682894,1.660183328746259,17.367293343579767,1.435634860908985,-0.802161308787763,9.76724153419733,-0.3576464402064681,1.226565957069397,-0.2952626943588257,-1.5112305879592896,-0.0043181819499732,0.0544593990815048,-0.7178224485691119,-0.6940795573367943,-1.7998167276382446,-0.8374811410903931,-0.468422919511795,11.916057397931814,-11.157833138287067,4.373212745893001,-0.0594038255512714,0.1992989331483841,14.866423452818394,-0.1944960057735443,5.356328879985213,-1.712400861109048
36,0.026417,0.167874,0.075117,0.104181,0.044154,-0.722454,0.682097,-5.178347225272655,26.05055306187868,-7.243505147111415,-1.0150033375445753,9.726451258647442,-0.732328186365962,-0.0128307919949293,0.177648052573204,0.3333880305290222,-0.0135407658202005,0.0615535883260383,-0.7304447291898599,-0.6800576079572506,0.5409082770347595,-0.7217631340026855,-0.6432327032089233,11.827994499075412,-22.31316919906139,9.247903772082925,0.3293561339378357,0.4925476908683777,20.60381676573753,-0.2346663028001785,5.883681606251001,-0.076196154647693
37,0.024337,0.160601,0.058763,0.056895,0.002073,-0.713391,0.69845,-4.151963027340173,22.173311815559863,-3.051650838887692,-0.7763513063572347,9.76608593442142,-0.4372993842445313,-0.6965402364730835,-0.324744164943695,0.8927059769630432,-0.0050493480865,0.0520054477553299,-0.7208269531072378,-0.6911428527377076,0.6661232113838196,0.5602416396141052,-0.896803617477417,15.613099898010493,-16.368864489543437,9.184117820870876,0.0400791093707084,-0.6487147808074951,14.239931722408532,-0.2237722873687744,3.2714439288914203,-0.9157621151350438
38,0.02373,0.135386,0.052458,0.043465,-0.013036,-0.711126,0.701599,-1.280940266020596,2.7350866429150105,-6.142988375997543,-0.2805284397398122,9.802450794744493,-0.0606878664657007,-1.7841523885726929,0.3214965462684631,1.432418942451477,0.0140146776258321,0.0343822228088937,-0.7084575377124241,-0.7047762407877103,3.0061941146850586,2.907247543334961,-1.777753472328186,4.498134426069259,-4.037034333389998,0.1544827057033777,-0.2118759900331497,-0.9296420812606812,-2.5725419190481302,0.2217127382755279,-0.9423058386676012,2.109109291768074
39,0.023059,0.101261,0.048438,0.037574,-0.025184,-0.711412,0.701318,1.716789451456815,-14.790153867608309,-1.8116402568876744,0.2683029086886905,9.759038353997468,0.9271321618679912,-2.8873186111450195,-0.5435886979103088,1.2570253610610962,0.0356787516403151,0.0139686862749215,-0.6727066900084346,-0.738916535883913,5.135766506195068,3.6533613204956055,-0.4684004783630371,-7.80352154109478,6.567849280560016,-7.238787470939755,-0.3371971845626831,0.8628805875778198,-14.345773439061642,-0.0756449773907661,-6.579784048503637,0.6895720906358211
40,0.020674,0.017275,0.045539,0.025914,-0.030059,-0.709346,0.703742,0.6488657670423388,-18.94036566736698,4.516131855052709,0.6130280723985284,9.603576574128866,1.888357585865259,-1.4626314640045166,-0.4675058424472809,0.3340395092964172,0.0410436646920819,-0.0067156695606421,-0.6353545925438538,-0.7710997743323,-1.396619200706482,-0.4144572913646698,-0.4052625894546509,-16.384597480726242,11.186703843462466,-18.96704558449984,-0.1264124065637588,-0.3379511535167694,-4.285434801457822,-0.2303129434585571,-0.3313694778513163,1.44498355788216
41,0.019327,-0.024252,0.045357,0.026793,-0.019142,-0.707684,0.705761,-0.4837160848414525,-17.39968520861864,3.293367591407895,0.586666646630317,9.638881696265935,1.708269314262271,1.916677474975586,-0.0806217119097709,-0.530350923538208,0.0356904671054334,-0.0091197611022729,-0.6425101824419004,-0.7653912866236737,-1.7680704593658447,-0.4392181634902954,0.4249053597450256,-8.892899078556894,4.584192999365926,-11.556644240313767,0.0402465499937534,0.3733949065208435,-10.365235484397411,-0.0670715719461441,-4.143151067592203,0.9095057581540196
42,0.017723,-0.055866,0.041215,0.015847,-0.023265,-0.706183,0.707469,-0.3036608752578497,-14.56565888352394,-1.8117782040536403,0.3403220881789922,9.756007607999445,0.9353506127022206,1.7141849994659424,0.2828957736492157,-0.5640873312950134,0.0280157586639845,0.0020148519725008,-0.672537235317468,-0.7395300723003205,-1.005306839942932,-0.7398694753646851,1.1121835708618164,-9.9323853346467,6.757319128492474,-6.229058639732003,0.2293772101402282,0.5904601812362671,-9.394797045570613,-0.4446388483047485,-2.994227116183936,0.0625605832687113
43,0.0147,-0.074789,0.038852,0.000916,-0.041033,-0.706845,0.706177,0.1516540216160938,-10.16876131066084,-2.506441553413868,0.1896694438914768,9.796312730380892,0.4082232196249067,1.0564972162246704,-0.2603426873683929,-0.1794617623090744,0.0233978483875625,0.0090461326270099,-0.6921738039385847,-0.7212947055236426,-1.3883458375930786,-0.7397050857543945,1.1272993087768557,-6.822698486375808,6.012618367287517,-3.4811598615169523,0.2502191960811615,0.256039559841156,-9.198696381321549,-0.4943068623542785,-2.465601008981466,0.3902532997028902
44,0.009116,-0.075879,0.034207,-0.009088,-0.050492,-0.700668,0.711641,-0.0218476929371245,-6.8396291629105805,-1.464511995825171,0.1798650755726732,9.804548059284686,0.0941304917996749,0.589430034160614,-0.1401900798082351,-0.0098432237282395,0.0187536173615093,0.0056684958705378,-0.7036821362664756,-0.7102447181382874,-0.9199908375740052,-0.5526427030563354,0.7320115566253662,-4.287503132164478,5.018194072717428,-3.0798820771157738,0.1695663779973983,-0.0517422817647457,-9.48746948404908,-0.3737661242485046,-2.557712014184892,0.3265370892588049
45,0.006809,-0.065182,0.033077,-0.012138,-0.053968,-0.700166,0.711834,-0.0571515638320241,-4.148144345834851,-1.2385855176329612,0.1379558424628339,9.80534300905466,-0.0812190425773151,0.3272379040718078,0.2578969895839691,-0.1660490185022354,0.0187234587467073,0.00889210632025,-0.7099732031964111,-0.703923585986932,-0.2904197871685028,-0.2371937185525894,0.2580687999725342,-2.7543594986617563,2.9524171421974894,-2.9445830875709653,0.0341821871697902,-0.2607629895210266,-9.487457793611288,-0.2425543069839477,-2.957113775581121,0.4231074850238859
46,0.005591,-0.053336,0.033504,-0.012636,-0.048095,-0.701684,0.71075,0.4705297094015404,0.7089005490273237,-1.0909423025608065,0.0994399050530977,9.805535316756368,-0.1094508744604419,-0.4058501124382019,0.2601830065250397,-0.119092971086502,0.0194130549092937,0.0124222362499524,-0.7109332807239822,-0.7028817133759341,0.0836440846323967,-0.6623892188072205,-0.1950504183769226,-1.1935638881236317,1.891533877813816,-0.9655980130583048,0.5366588830947876,1.878817796707153,1.0138285216115417,-1.2176522016525269,0.0910830138625577,-0.3290564151359721
47,0.001958,-0.036214,0.034966,0.001112,-0.045993,-0.698095,0.714525,1.49974945955351,10.44399630190134,3.826923848488928,0.0199701561118126,9.806609083467722,0.019660172280611,0.8286616206169128,0.1755192577838897,-0.161863163113594,0.0245859187959841,0.0230989945001397,-0.7060198628032123,-0.7073880369799125,-1.6621227264404297,-1.52666175365448,0.7298805117607117,6.570142359933257,-7.911608406326175,2.381841944798827,-0.1398013532161712,-0.2718648612499237,9.07301190007925,0.8667768836021423,2.192643753414601,0.9957195220123976
48,-2.9e-05,-0.031926,0.03537,0.005523,-0.035297,-0.695462,0.717675,0.628657237880677,12.03167465866804,-3.695035251909494,0.029149796111416,9.79012556617856,-0.5682890592228621,0.9064894914627076,-0.0244831871241331,0.0110966796055436,0.0224351152113342,0.0216107012590856,-0.7269853198980739,-0.6859459680686425,-0.4276005327701568,-1.1159369945526123,0.3040527999401092,4.779394084426761,-8.127375894075632,5.787367596399784,0.6270974278450012,0.147869735956192,17.917312075161934,-0.0311051812022924,5.413761662778258,-0.4941540748886763
49,-0.001912,-0.029295,0.035114,0.005373,-0.013671,-0.689643,0.724,-0.4818019583158194,6.690860743200779,-1.0614555113136768,-0.1547564446108415,9.764038354241848,-0.8999945640955119,0.4816418588161468,-0.1983823776245117,-0.1796737611293792,0.0155588985585918,0.0287624244353151,-0.7382815689159639,-0.6736994848901021,-0.2538228929042816,-0.0652244612574577,0.4968451559543609,4.873929394167662,-3.7348505449473857,3.277538738635182,0.4388185143470764,-0.6097137331962585,3.957754752708971,0.0032960849348455,0.9910480961352586,-0.9380087259955704
50,-0.003479,-0.026231,0.031616,-0.00811,0.011921,-0.682103,0.731114,-0.4373057409200817,0.8851087643265724,-1.821709230959416,-0.1461313766039442,9.758464353501797,-0.9599044045265764,-0.167794719338417,0.309678167104721,0.0859339609742164,0.017005246922147,0.0298478943436238,-0.7403044017999673,-0.6713936183261686,0.8342389464378357,1.0839158296585083,-0.0554762184619903,2.2811083649396897,-1.9730454553306105,0.8158709774494171,0.390567272901535,0.0016563771059736,-1.565741834768653,-0.1477174460887909,-0.662498205749318,-0.3408176896762103
51,-0.003123,-0.025225,0.028508,-0.016242,0.001043,-0.678795,0.734147,0.705581560672447,-1.9103917230188845,-0.1109937656540423,-0.1445903668401763,9.769659116733074,-0.838606394740194,-0.3268676400184631,-0.1444510668516159,-0.1638590544462204,0.0193173335516833,0.031941797893117,-0.7360276828906839,-0.6759215389797166,0.8639244437217712,0.5507684946060181,-0.1529594361782074,-2.1739958976984024,2.269565226662159,-1.7873215159282088,0.1973987370729446,-0.0309526771306991,-2.661598797377944,-0.1131308898329734,-0.8946006691627204,-0.1457702790734358
52,-0.003577,-0.023625,0.028034,-0.022793,0.004479,-0.679005,0.733766,0.4626943030681461,-2.954110502111912,0.1382031865537166,-0.2575412761776708,9.776837045538423,-0.7193965163394809,-0.3648154139518738,-0.3841405212879181,-0.2553851902484894,0.0105889861272521,0.0306812095589017,-0.7319410342336821,-0.6805945573438454,-0.0931557193398475,0.0453942492604255,-0.3078689277172088,-1.8978923069298264,3.784131000944972,-2.24528068023324,0.0819853544235229,0.0416252538561821,-2.205616047712416,-0.0555445626378059,-0.5912856847330927,0.2510463429341092
53,-0.000748,-0.02269,0.029625,-0.027455,0.051068,-0.686968,0.724371,0.0081012176627293,-2.4778742150992152,0.6966589070916176,-0.3480778534049168,9.787820796367525,-0.4977908970210701,-0.7743478417396545,0.6662870049476624,-0.3910606205463409,0.0093820220682289,0.0356227717588463,-0.7239553100964629,-0.6888626238643271,0.1426757127046585,-0.2177081108093261,-0.0896772667765617,-1.414791394844651,1.9022627770990133,-2.3919568038389087,0.0013187103904783,-0.074043408036232,-0.7867922555465251,0.0714523196220398,-0.0330703944880981,0.5376218260195106
54,-0.00045,-0.022084,0.029024,-0.033288,0.049504,-0.68633,0.72484,-0.3563618072234094,-1.314970838177204,0.1948772782002575,-0.5235072663513943,9.791341956230998,-0.1610595816093497,-0.8921201825141907,0.9018227458000184,-0.3516300022602081,0.0163636987618445,0.0546618457431069,-0.7107909933356946,-0.7010852013455328,0.3201833963394165,-0.5509203672409058,-0.0978816002607345,-0.4138128563255071,0.1674041465967893,-0.3646241702646017,0.0737013444304466,-0.1012676507234573,0.0513198300378164,-0.1203946024179458,0.1340898420839104,-0.0636991771108936
55,-0.000144,-0.022492,0.027704,-0.040573,0.049161,-0.683868,0.726816,-0.2323408752791583,0.394801281863451,1.5598475160330534,-0.603834054530412,9.7880376539886,0.0095514170418638,0.0017250012606382,0.8563892841339111,-0.1906581223011016,0.0276059743437898,0.0710117866146949,-0.7031858498508574,-0.7069122238226097,0.2053321748971939,-0.22868512570858,-0.0902549028396606,0.987453286513686,-1.00674893861413,-0.6741083448484539,0.1480313092470169,0.0327850505709648,-0.1207963438745588,-0.5143835544586182,0.136217127303034,-0.1460547037716955
56,0.003052,-0.025161,0.026186,-0.051309,0.066908,-0.685284,0.723379,0.0046427112393081,-0.4123094660252332,0.4162134877264499,-0.719760819607228,9.778276722952723,-0.1940012442843988,0.8725453615188599,-0.1546864360570907,-0.2273106873035431,0.0266675408851869,0.0795082961516859,-0.7096264804515304,-0.6995695554572529,-0.3589109480381012,0.1446631103754043,-0.0259469542652368,0.1733311985582113,0.2338835746765136,0.5974836625903844,0.1820612400770187,0.0270611587911844,-0.2921850483291782,-0.6908236742019653,0.2276281127446331,0.3013592289856635
57,0.0044,-0.02749,0.026504,-0.050871,0.075044,-0.68921,0.718867,-0.9451193617183714,-1.1262672984421254,-0.9458616314530373,-0.6108125152409076,9.78729180405736,-0.0788558936425484,-1.1796720027923584,1.3231722116470337,0.413713276386261,0.0488618146069175,0.0932747790787999,-0.7037899878919034,-0.7025610638483512,1.662512183189392,0.0364200361073017,-0.1176035702228546,-0.1311234574258327,-0.4322545219451189,0.1041542019575834,0.0118178408592939,0.1437922418117523,-0.6454926373474299,-0.6431692838668823,-0.0160060588034102,0.2928722999409772
58,0.006041,-0.029462,0.024553,-0.054382,0.069961,-0.691166,0.717243,1.1764480642803012,0.2360176640957594,1.3503046018868683,-0.5264222404826432,9.790748666512966,0.1857255103049799,-0.0513429120182991,0.2443335056304931,0.0155740100890398,0.0649685576464424,0.1011047069659572,-0.6930429078079441,-0.7108082720397249,0.2230805456638336,0.253607839345932,-0.1856815665960312,0.735537796062231,1.2303121948063374,-1.6189584611713883,-0.0371280536055564,0.1664920449256897,-0.2548632343411445,-0.5151702165603638,0.1998920193560421,0.3651904623778537
59,0.006816,-0.031729,0.020678,-0.06401,0.064488,-0.694681,0.713556,0.3918873671781271,-0.7484650821745396,0.2855021182328462,-0.5594815929869189,9.790616564565896,0.0347225547424517,0.4222269654273987,0.2401638478040695,-0.1677983254194259,0.0655396300433582,0.1052989566476648,-0.6979554227470388,-0.7053190708190799,-0.3458153903484344,-1.36060989461e-05,-0.054151564836502,-0.95920977332592,0.0955599766135215,-0.4080860031113028,-0.0049475338310003,0.1389279663562774,-0.196219011665415,-0.4381924271583557,0.2613309507842175,0.4179452799551189
60,0.013173,-0.036829,0.017205,-0.074694,0.084864,-0.712929,0.692062,-0.2694403334870934,-0.4471493087381124,-0.535715480941534,-0.6280863061249256,9.786482241240144,-0.0263241076988168,-0.0542597435414791,0.5420002341270447,-0.090600810945034,0.0684727515591316,0.1136510875076113,-0.698874513985373,-0.702829632432662,0.1308906972408294,-0.0174237545579671,-0.0210427436977624,-0.2133662718266248,0.2425707390010356,0.3263394477948546,0.0615720711648464,0.0861507803201675,0.07016094787037,-0.3878689706325531,0.3023762970737181,0.3834816866761073
61,0.015363,-0.039739,0.017366,-0.073636,0.093444,-0.723251,0.68026,-0.4513889190692454,-0.5237462262064219,-0.6731476831227541,-0.6046036871960386,9.787959912577271,0.0262640686242491,-0.369259774684906,0.7540879249572754,0.1741965860128402,0.0784176675557138,0.1213279012051113,-0.6956582821616945,-0.7036972459767549,0.2996184527873993,0.1935935765504837,0.0072350334376096,-0.126613286525011,-0.2986462619662284,0.6428624349743127,0.0826978385448455,0.1361621618270874,0.0247948112057289,-0.3562942743301391,0.0644772762107662,0.1859401211700402
62,0.016783,-0.041465,0.016221,-0.079364,0.093245,-0.726053,0.676649,0.2791565120657905,0.0869488001346588,1.898005119654536,-0.5708003113914281,9.789881236028672,0.0529698485674336,0.6549659967422485,0.0404671803116798,0.0438981167972087,0.0852670795772621,0.1254128012346416,-0.6939531098844567,-0.7038681071780176,-0.5588680505752563,0.0674422904849052,0.1429638266563415,-0.010682722055912,-0.5502385118126869,0.4451560890942811,-0.0087718637660145,0.0869901925325393,0.0959142882102169,-0.3403210937976837,0.1408313065676018,-0.0063810370983963
63,0.019947,-0.04351,0.016362,-0.096949,0.099452,-0.726766,0.672697,-1.149960893240571,-0.5182587347060442,-1.4228537052690982,-0.4525082419553771,9.795191617396473,-0.1408592448872979,0.0101617202162742,0.860926628112793,0.4455580413341522,0.0930422274495904,0.1268628096671957,-0.7007764623838586,-0.6958170269079175,0.237415537238121,0.0521013140678405,0.1238163113594055,-0.2679272985756397,-1.0843600015610455,1.0607307041704654,0.0176288690418005,-0.0009474398102611,-0.0262408384457114,-0.3776926398277282,0.1850233351186849,-0.1341546418152749
64,0.02204,-0.044154,0.016996,-0.105288,0.105403,-0.731206,0.66569,-0.7262211016625165,-0.306761763882637,-0.4481061710715293,-0.1594840028556995,9.80530793774128,-0.0299859181419946,-0.4404198229312897,0.4902061223983764,1.0332273244857788,0.1140203204162604,0.1257203704032017,-0.6969384799681437,-0.6967571757900187,0.3840947449207306,0.0931917577981948,0.159803882241249,0.4312865536957979,0.1950765818983316,-0.1212777707159519,-0.0089349597692489,0.0577369146049022,-0.3141433255013078,-0.3957245349884033,-0.1042207461214624,-0.3673755147993564
65,0.023728,-0.043588,0.017757,-0.109768,0.11095,-0.733402,0.661637,0.5526295716676861,0.2006295398503541,-0.0835428093497641,0.2322197331175207,9.80174527682364,0.2054975660118274,-0.4288462400436401,0.2058489322662353,0.8587690591812134,0.1358057468738843,0.1166825287704045,-0.6898606582742627,-0.7014514639863377,0.5642349123954773,0.0379254147410392,0.1327614039182663,-0.7917302234053611,0.1365560038685798,1.3965356071859598,-0.0436674766242504,0.0999650582671165,-0.0989827906690537,-0.2697471678256988,0.051514215532178,-0.0490566800119588
66,0.024093,-0.040839,0.019208,-0.129332,0.112005,-0.729438,0.662306,0.6986825218737125,0.4113192859441041,0.3288040843427181,0.4390120699139311,9.795163560345769,0.1801135521747171,0.3290492296218872,0.3614315688610077,0.2730202376842499,0.1457610892765696,0.1122578545718088,-0.6915308663292404,-0.6985248952730954,-0.3863641619682312,-0.0402670726180076,0.0666150674223899,0.2182604736089706,0.6591290946424007,0.1271405252695083,-0.0235716216266155,0.0695452615618705,-0.0279031524846097,-0.1468157172203064,0.1741299294541589,0.0316309157199109
67,0.023736,-0.039911,0.018434,-0.137115,0.111589,-0.728176,0.662198,0.5370856002509594,0.0609638795286417,-0.2363070024311542,0.6959281816642731,9.78189842058122,0.0232231916745658,0.1268326789140701,0.6158623099327087,0.5420267581939697,0.1680836028093924,0.1185759431626573,-0.6962439891399789,-0.6877005100874692,0.4409255385398865,0.0824683755636215,-0.0354738123714923,0.7624491838634013,-0.7168786882996558,0.724791653381288,0.0544687733054161,0.1153256595134735,-0.0418650834408588,-0.1144828051328659,0.0905434818920679,-0.3701039899151772
68,0.022642,-0.03977,0.018011,-0.139412,0.106862,-0.723943,0.667122,0.5085617357518524,0.7487684490352868,-0.2890466589719057,0.8857614560816437,9.766414435723425,0.0542649618453113,-0.0929763466119766,0.4286958277225494,0.3216079175472259,0.1826898049747137,0.119397697287564,-0.6949657882030624,-0.6851212384183066,-0.3921224474906921,-0.1542821675539016,0.102008543908596,-0.6609528029382229,1.5810463714063168,0.2425362522095441,-0.0068246736191213,0.0900424942374229,-0.158522099020984,-0.1877076029777526,-0.0036945550854434,-0.3514647193642333
69,0.022693,-0.040221,0.016715,-0.136333,0.097342,-0.719607,0.673872,0.6653812869049608,0.7318009476214646,0.9868050517380236,0.9266131064299492,9.762734285905957,0.0286353186670807,0.3873730301856994,0.3512161672115326,-0.0399224236607551,0.1888453470623516,0.1231524071435667,-0.6952506668260632,-0.6824936411034871,-1.5176619291305542,0.0306886453181505,0.2520650923252105,0.0836725549429655,1.6324474728196858,-1.524689108890295,-0.0213574972003698,0.0499580167233943,-0.0349801188332494,-0.1808214485645294,0.0846420484290923,-0.2387573364590294
70,0.022803,-0.041124,0.015001,-0.14228,0.092654,-0.719937,0.672951,-0.0676512483380734,-0.241083715313673,0.4295604605555534,0.9493160096906124,9.759380883824823,-0.1537773339129984,0.4710089266300201,0.5314688682556152,0.2041695117950439,0.1949435339211107,0.1308184343749859,-0.7005190930396205,-0.6739113134874578,-3.16326642036438,0.060749128460884,0.3967768549919128,0.3495890982180833,2.1002122840851545,-2.730130481812358,-0.0068670082837343,0.0657580494880676,-0.1589097648980096,-0.1640752404928207,-0.0440735395708354,-0.2136049759533256
71,0.021087,-0.040341,0.015928,-0.150422,0.088618,-0.718206,0.673572,1.3171204174265263,-0.9209569072991608,0.839689075410366,0.9968754140492528,9.751670455577967,-0.2855800971061922,0.3555169403553009,0.1217160150408744,-0.0616328828036785,0.2000147479416848,0.1349801034730493,-0.7045146589624269,-0.6674081520776628,-1.4089916944503784,-0.0200133062899112,0.2465722560882568,0.7136041966736316,-1.613273401272297,-1.721478924447298,0.0421116910874843,0.0795591473579406,-0.2097858195239678,-0.1864475756883621,-0.0567772871595341,-0.2813357558010146
72,0.02068,-0.040511,0.017557,-0.159418,0.086871,-0.719067,0.670807,0.061799599700421,-0.3975935429304837,-0.4027180463373661,0.8785229561954736,9.758173846122622,-0.4202885551456362,0.2199757397174835,-0.3609980344772339,-0.402663916349411,0.1926618786498632,0.1381068123347847,-0.7087702460540317,-0.6644190973490254,0.5815936923027039,0.3409200012683868,-0.1067628338932991,0.2903711855739355,-2.861096118327976,-0.1774783813655376,0.0602124407887458,0.0822087079286575,-0.0718306985803414,-0.1317157447338104,-0.0383689529873663,-0.0580097606970928
73,0.02042,-0.040363,0.018775,-0.162391,0.086189,-0.719874,0.669315,-0.7917495126277208,-0.2276975795179605,0.0863080910783261,0.7984832047969103,9.762457222530244,-0.4767122704939916,0.136390134692192,-0.2637136578559875,0.1216965764760971,0.1846948581842315,0.1363857008997038,-0.7111290331143038,-0.664516596671518,-0.8099918961524963,0.0298747308552265,-0.1996557563543319,-0.7291752752929925,0.0916273133397102,-1.407353646059334,0.0305396970361471,0.0972241759300232,-0.0264091465006116,-0.1047169864177703,-0.0579979743611765,-0.1534440285717137
74,0.02033,-0.039998,0.019907,-0.163885,0.085845,-0.722412,0.666253,0.3601342384342104,-0.4478565802246332,0.8039490689873695,0.8893397529598325,9.748132929101583,-0.5944574101043865,0.4501005709171295,0.1103444471955299,0.2164500653743744,0.186315413353245,0.1334842237054211,-0.7158846658246495,-0.6595284208907699,-0.6338397860527039,0.1403807401657104,-0.1420336067676544,0.3174099991470575,0.5369429769098758,-1.337103759530187,0.0367013216018676,0.0782095938920974,-0.0833548764290753,-0.1752534359693527,-0.0044055540406552,-0.2290502545022405
75,0.020005,-0.038257,0.022848,-0.158209,0.084978,-0.722473,0.667669,0.250170838741213,0.2272065811306238,-1.021595721546933,0.9131118198219688,9.731025726956128,-0.80233703068085,0.4566666781902313,0.240186795592308,0.0455598719418048,0.1872666910096989,0.1363463593016014,-0.7227153484429449,-0.6511707774868365,0.8453313112258911,-0.0093168262392282,-0.1813618391752243,-0.2504939332157373,-0.1163157643944025,4.838200785921514,0.0587746016681194,0.0426875352859497,-0.0797584502391517,-0.2745078802108764,0.0461456788029288,-0.2953977815642952
76,0.015244,-0.035203,0.027664,-0.129558,0.055097,-0.718993,0.680609,-0.0528601411152631,0.0002495908468961,-0.4638729914586991,1.002909287386015,9.70659154292345,-0.9729481566254048,0.162246897816658,0.0511501431465148,0.0538090616464614,0.192938698080226,0.1390273047693507,-0.7282018666438456,-0.6427814956191781,1.901113748550415,0.2208196967840194,-0.2742706835269928,0.7892004126667976,-4.819543723985553,-0.3291238178163767,0.0568016096949577,0.0261177252978086,-0.1661824045157991,-0.2842746078968048,-0.0785510837433859,-0.2070919042648747
77,0.012223,-0.034721,0.027844,-0.128762,0.036138,-0.718844,0.682186,0.2973082182954996,0.3865308816462754,0.1073005371592938,1.0239918229032308,9.699942606428264,-1.0163486877389252,0.0687717646360397,0.1401674151420593,0.100189983844757,0.1951694537661571,0.1407671626292138,-0.7293860212702835,-0.6403824415828046,0.9840455055236816,0.1018260419368743,-0.2246194332838058,-0.3200450238257646,-0.0512350971966981,-0.8330895310148596,0.0677878558635711,0.0017361491918563,-0.10472088679648,-0.2689546644687652,0.0771822704750578,-0.2012216605246067
78,0.008938,-0.033439,0.02706,-0.133213,0.024613,-0.716569,0.684234,1.8114011874347924,0.0604898322761058,-0.4900607411604374,0.9890666399944572,9.706804893413183,-0.9849175574909896,-0.2143251597881317,-0.2415557354688644,-0.4140122234821319,0.1927211953297925,0.1400358155024751,-0.7284276142059112,-0.6423719142874774,0.0410532131791114,-0.0189546477049589,-0.1950251907110214,-0.1581517496049404,1.6786089200139045,-0.2344935232684016,0.088515855371952,-0.0255218017846345,-0.1419149370858445,-0.2714235186576843,0.0556661704127443,-0.2721603695681318
79,0.002312,-0.030723,0.028264,-0.135147,0.004193,-0.704012,0.697198,0.2850611695323139,-0.1803419541031122,-0.8214940049629658,0.8066946413684636,9.731559979963302,-0.9035284373100848,-0.0720102787017822,0.9402139186859132,-0.3987975120544433,0.1883946074975159,0.1473131824673864,-0.724131174217129,-0.6468696492167093,0.4795962274074554,-0.0613062605261802,-0.1426364928483963,-0.3998907139569521,-0.7863602208048105,0.254888368782401,0.1027838960289955,-0.0041647059842944,-0.1767834396376274,-0.2421876937150955,-0.0103143020187621,-0.125264255669387
80,-0.00099,-0.029628,0.028818,-0.135487,-0.011729,-0.697438,0.703623,-1.284816669062525,-0.219242470383644,0.7082277643322944,0.931671924189478,9.717938281846044,-0.9295417802929876,0.3892636597156524,1.9053964614868164,0.6699346899986267,0.213125303803923,0.1663412744491353,-0.7209188726202267,-0.6381098465409046,-0.3582443594932556,-0.3002455234527588,-0.0988949984312057,-0.3751864808112383,1.883774934250116,1.240780981850624,0.1140766218304634,0.0232654903084039,-0.1298952490714378,-0.1921889036893844,0.0359604031414492,-0.109582748078648
81,-0.004484,-0.028919,0.029746,-0.136481,-0.028544,-0.692337,0.707974,-0.0814654733527451,-0.4059568821281194,0.0120865975044667,1.1943201863836497,9.686931149163842,-0.9525591563303024,0.105093166232109,1.648120999336243,0.6557716131210327,0.2384705620768083,0.1761719521149583,-0.7193958891510011,-0.6281440152029241,-0.1760322153568267,-0.3777396976947784,0.0650092512369155,-0.474987163734436,-1.9610335304975508,-0.337670404626429,0.1029787734150886,0.0242947041988372,-0.1199455539978109,-0.1885684579610824,-0.0377853786624618,-0.1790549464998766
82,-0.01034,-0.027141,0.031965,-0.142408,-0.032129,-0.689468,0.709452,0.1162071894533932,-0.2898912931025028,0.2501543259978294,1.4183262909725307,9.661544778972864,-0.9018266748934984,0.0976423919200897,0.968072235584259,0.2476913332939148,0.2625643381635112,0.1860382502813188,-0.7151014859525664,-0.6205478301470281,-0.1316485106945037,-0.2488106340169906,-0.0512222833931446,0.0298223068118095,-0.2532844407171011,0.0083355744078755,0.0943811982870101,0.0596536323428154,-0.0976084244427736,-0.1659698635339737,-0.0677271037529921,-0.0873048744301777
83,-0.014218,-0.026394,0.034731,-0.141225,-0.031422,-0.68827,0.710882,-0.3813615161843597,-0.3353121510624885,-0.5663889246899634,1.5142679603800178,9.649505966132878,-0.8743218512438237,-0.0170639380812644,1.0348137617111206,0.2256320267915725,0.2786575029543969,0.1968344188435229,-0.7112202328761419,-0.61463170314488,-0.8609637022018433,-0.1618402153253555,0.0456455387175083,-0.0539893643409013,1.079909451892972,-0.0970534300416707,0.1059900596737861,0.0506503582000732,0.0015862856648658,-0.1467911154031753,-0.0469828511462779,-0.0357109812579117
84,-0.017233,-0.02479,0.038729,-0.138116,-0.035295,-0.686962,0.712574,-0.7649586824662983,0.1089174708366394,-2.1424936749756336,1.70558036743924,9.632489949402212,-0.6902962401919066,-0.5882177352905273,1.453243374824524,0.4992687106132507,0.3011427056445612,0.2037583512158329,-0.702622121765112,-0.6116516195934855,-0.8194780945777893,-0.2428576350212097,0.0158613454550504,-0.3105874596506357,-0.0353396089285612,0.8420601884558796,0.1304358690977096,0.0614334382116794,-0.0448543603507569,-0.1254973411560058,-0.0963726447032764,0.0734341243221424
85,-0.022025,-0.023581,0.049292,-0.125109,-0.048567,-0.686891,0.714262,-1.112906881609559,0.018950199663639,-2.9001100318551063,1.8974566919915377,9.617861120069026,-0.2584409101648256,-1.1888675689697266,1.3782185316085815,0.4410410821437835,0.3298191174816238,0.2100393939976349,-0.6848797502280108,-0.6148516563116936,-0.7210646867752075,-0.2984307706356048,-0.0324151739478111,-0.2094341930747032,-0.5488870972037315,0.6241288006708026,0.1637050211429596,0.0882901325821876,-0.021214543849451,-0.1133361682295799,-0.1152963764850981,0.1404732869101688
86,-0.022378,-0.024186,0.056804,-0.115248,-0.052651,-0.689493,0.713123,-1.4364244038514793,-0.679414342302084,-2.4055045599371194,2.087796600756794,9.57462111327946,0.3716305418953299,-1.5073835849761963,1.1307836771011353,0.5506277680397034,0.3581132279864443,0.2086595966657387,-0.6614478733064371,-0.6250622114903921,-0.0858376249670982,-0.2471573948860168,-0.0084975901991128,-0.4853735331922769,-0.669046677544713,0.5658059371702373,0.2193125039339065,0.083385095000267,0.0110286517000407,-0.1037492752075195,-0.0482210329054156,0.1795033478545024
87,-0.022343,-0.025134,0.063529,-0.109177,-0.05756,-0.690743,0.712489,-0.8822358392387628,-1.1127098977327343,-0.3190641960948705,2.286285475316644,9.474608833432198,1.08401148038432,-1.2965366840362549,2.311556100845337,0.9840063452720642,0.394988386528097,0.2109822532203265,-0.6326272864805457,-0.6318650626012906,-0.0580722987651824,-0.2838594019412994,0.008117139339447,-0.521284220007062,0.1128770221173763,0.2496351244293153,0.2564989030361175,0.079041376709938,-0.0470159633980132,-0.182398721575737,0.0029774848657601,-0.0085740159563836
88,-0.018846,-0.028992,0.076358,-0.098775,-0.077606,-0.691324,0.711542,-1.578962550869584,-1.3884738812834023,1.0793686230145394,2.729974998989701,9.264648570656776,1.6982047241047025,-0.5513021945953369,3.272704124450684,2.182467460632324,0.4521691145280679,0.2174399077791614,-0.6050913523897308,-0.618164534285547,-0.3928715884685516,-0.226780816912651,-0.0144785838201642,-0.1180038636118173,0.1903875472992658,0.1239775311939418,0.2122499942779541,0.1294836997985839,-0.1011487456644419,-0.2270106077194214,-0.0372712208785349,-0.0145275335163343
89,-0.016683,-0.031092,0.081915,-0.095824,-0.091246,-0.690432,0.711193,-1.2946607483372092,-1.3157663724690676,1.7116496043503284,3.418467550760508,8.91152077691853,2.251502331227064,-0.0537323057651519,3.98697280883789,3.221827745437622,0.5292803309239229,0.2271595779743417,-0.5775845012653953,-0.5784954494802964,-0.5617615580558777,-0.1905407309532165,-0.072369709610939,-0.0776578246980905,-0.0691997929543256,-0.0350491015493869,0.1931134909391403,0.1217761188745498,-0.0558269139324082,-0.2624062895774841,0.0328554959286702,-0.0996394279468804
90,-0.015038,-0.03254,0.087312,-0.092387,-0.100388,-0.69084,0.710019,3.551208380255103,0.8306003445476293,2.198809436437488,4.844059741082787,7.865888273158669,3.291393660986423,1.1470288038253784,3.698397874832153,2.7817535400390625,0.687117974134893,0.2490425366828483,-0.5197724848283515,-0.4423610032084781,-0.1988334059715271,-0.0017132353968918,-0.0172227714210748,0.3029208705455065,0.3268003433048725,-0.9980033221006392,0.1932492554187774,0.1301511824131012,-0.1163410084335133,-0.4371712505817413,0.0764002441187389,-0.1056832016231492
91,-0.012725,-0.03465,0.092815,-0.089701,-0.103594,-0.69229,0.708489,4.217641660431027,0.1609334892779588,2.7283269395217298,4.915639707171916,7.727662874773144,3.5057261474967,1.272538423538208,2.2001953125,0.3753824830055237,0.7243312787315053,0.2755187057923056,-0.4953253045548283,-0.3925386619191731,-0.4192858934402466,0.217787429690361,-0.0111196050420403,0.3768675657659769,0.090301617693901,-1.049516213325411,0.2065180242061615,0.2461078315973281,-0.2099815064928494,-0.4842521846294403,-0.0017669725690822,-0.004434416521425
92,-0.010522,-0.036233,0.104632,-0.079964,-0.110423,-0.694212,0.706741,2.79557004545033,0.7363648945361375,2.7702976570278404,4.56540295870006,7.9768831347912545,3.420060372909904,1.3893574476242063,1.2364749908447266,-0.8299821019172668,0.7310027686563128,0.3117062970860955,-0.4779797462990859,-0.3741783606378438,-0.6346493363380432,0.1683455258607864,0.0087320627644658,0.3087672584861516,0.7027624846637248,-0.21561799627617,0.1730182766914367,0.1433959454298019,-0.0096979065614228,-0.4797708690166473,0.0997425686609465,-0.2009993595434352
93,-0.010402,-0.037993,0.110152,-0.075264,-0.113101,-0.695348,0.705716,-0.7361369309991598,-0.8348638472110033,1.382955994644761,4.178549713231623,8.291604917767643,3.1558515103355047,1.1154298782348633,0.4576283097267151,-0.7171112895011902,0.7248511496834746,0.3450007426177674,-0.4691170863141801,-0.3680957728480398,-0.8459845185279846,0.3044723272323608,0.0066380193457007,0.3728255968987941,0.1698445254862308,-0.2057581349104642,0.1441589593887329,0.2300882786512375,-0.1455157197904773,-0.3905766904354095,-0.1830206169941462,-0.0892755534486379
94,-0.011576,-0.038128,0.114265,-0.074636,-0.114699,-0.694126,0.706727,-1.6310723850741982,-0.532860091510415,-0.3853600843012332,3.636515550662577,8.65653596202433,2.830288599871099,0.3871908187866211,0.0907572135329246,-0.4446367025375366,0.7111963515427308,0.3800860499828195,-0.4595976868604154,-0.3721618015751021,-0.1639720946550369,0.222410038113594,-0.0608859620988369,-0.0440174209028482,-0.2766349211663008,0.2556445939771831,0.1141548156738281,0.1560074687004089,0.0274917837882996,-0.2170410454273224,-0.0668768983981339,-0.0135233568758936
95,-0.012629,-0.037144,0.123167,-0.067139,-0.126893,-0.69337,0.706136,-0.5297054268717766,-0.1372165136039257,-1.360301679766178,3.485945634488761,8.769061686486005,2.668732594780624,0.5829595923423767,0.0608900338411331,-0.4310036897659302,0.7047095809355735,0.3910000519497827,-0.4594033747313272,-0.373432666918444,-0.2715137302875519,0.1729737222194671,-0.0406966730952262,-0.0554202739268541,-0.0778869572788476,0.1661743125408887,0.1219464689493179,0.139183908700943,-0.0158560901227989,-0.2115548551082611,-0.1436074750163592,-0.1019822008138988
96,-0.013152,-0.037653,0.12506,-0.062864,-0.135566,-0.693132,0.705151,-0.3769648886606097,0.0349573316127061,-0.7520992008931935,3.307916341242194,8.901399780398608,2.4480916557759045,0.7683276534080505,0.2373867034912109,-0.3587669432163238,0.6973346793614714,0.4060474552859903,-0.4585929887489435,-0.3722126449487254,-0.256746768951416,0.1600177586078643,-0.0787630975246429,-0.1246668286323547,-0.4295791652560233,-0.1124333700031042,0.1062352806329727,0.1237447038292884,-0.0198638804424554,-0.1899991482496261,-0.0869056825121399,-0.017527094358229
97,-0.013462,-0.036832,0.129112,-0.061069,-0.141626,-0.691188,0.706026,0.2828685548588633,1.013291492125392,-2.111874957089126,3.2310715864926576,9.004348698219657,2.1569161680817603,0.8024263381958008,-0.0787060558795929,-0.4333565235137939,0.6884943155250318,0.4186134554111843,-0.4634551286445074,-0.368711083937188,-0.1690661907196045,-0.1450479179620742,-0.0688563361763954,-0.0018926818788051,-0.633176907262206,0.4975082076221704,0.1003669053316116,0.1037031784653663,-0.0759307680100435,-0.1833244711160659,-0.1668122085856273,-0.1229186332581564
98,-0.013575,-0.034707,0.138233,-0.058213,-0.153935,-0.687087,0.707691,-1.2785071936547756,-0.1683861433714628,-1.0329548084944489,3.090169954635203,9.10234963824451,1.941254771055281,0.4334189295768738,0.3193718492984772,-0.0533456839621067,0.6819126830018482,0.4320718779869214,-0.4629659228015971,-0.3660213061276703,-0.0611546486616134,-0.0034880193416029,-0.2101366370916366,0.4756242925941943,0.1954834091335535,0.1999066324032843,0.086282305419445,0.1094941720366478,-0.129016402143985,-0.1754619032144546,-0.097538537544338,-0.1393680838809348
99,-0.013342,-0.033956,0.145619,-0.047323,-0.156596,-0.687414,0.707602,0.4053796667620539,0.270507962718606,-0.0584779079318046,3.0669606362223623,9.11715674675405,1.9082981117405,0.1614381670951843,0.6552234888076782,0.0005814312025904,0.684550871814804,0.438836762312437,-0.4583952077914692,-0.3587287499299822,-0.4019908010959625,0.0100338077172636,-0.1696608513593673,0.1140641860753297,0.3333265302032232,-0.1628342083327472,0.1121322363615036,0.0099739674478769,0.0082836044753319,-0.1606535017490387,0.0398619771572528,-0.1599431995989754
100,-0.012415,-0.03417,0.154205,-0.03591,-0.152914,-0.691225,0.705362,-0.245966226658225,0.6112491530925035,-0.4489626417703926,3.027728988291323,9.121928198939562,1.9477330271586768,0.1370716989040374,0.7837522625923157,0.0889812558889389,0.6906220920230259,0.4458556746209151,-0.4493394812051476,-0.3497826004680032,-0.2389153093099594,0.1203996241092681,-0.199888989329338,0.2402221300482749,-0.1271662442326545,0.0164144706409424,0.109955608844757,0.0294230040162801,-0.1491638853007927,-0.1201715618371963,-0.1264433915845118,-0.1458950927631929
101,-0.010026,-0.037443,0.168745,-0.020868,-0.143382,-0.69855,0.700738,0.5430865942314267,-0.025229718324542,-0.3665896251186728,2.936586243598163,9.135019151180982,2.024424929434061,-0.0786549001932144,0.7598673701286316,-0.1934702098369598,0.6964389355286473,0.4524035058028066,-0.4383082538788835,-0.3437875698503729,-0.4224409461021423,0.1330503225326538,-0.2008658349514007,0.1276852996706962,0.1524205124765634,-0.2397913374155759,0.078448437154293,0.0260045044124126,-0.0911230353456921,-0.0935555845499038,-0.0531407298886217,-0.2140742922318168
102,-0.009473,-0.040845,0.175083,-0.019122,-0.145503,-0.701255,0.697642,0.8665729906827211,-0.7832377048701047,0.5902113334998488,2.851172982467711,9.134064626935125,2.147109498208016,0.0886948779225349,1.018615961074829,0.0675185918807983,0.7043891468294203,0.4579474309001011,-0.425219981002042,-0.3366128081345089,-0.0970963984727859,0.252886414527893,-0.189807191491127,0.0881803877562284,-0.1726461389034986,-0.0385782985888421,0.049545768648386,0.0511176213622093,-0.1167368119512218,-0.0881400108337402,-0.0276131337292026,-0.1075427210178691
103,-0.009037,-0.04327,0.180318,-0.017034,-0.150796,-0.701844,0.695978,-0.2160936509639024,-0.6430658485919237,-0.057539165776968,2.7734005914792417,9.199194978493452,1.963024265923351,0.7546543478965759,0.8175554275512695,0.3485285937786102,0.7106107605388066,0.4827399572495193,-0.4085042842559357,-0.3084133917866178,0.3016437888145447,0.320545494556427,-0.0373384244740009,-0.3558750466197729,-0.2939882070273161,-0.2046598182797432,0.1063428074121475,0.0378456637263298,-0.0169823496397933,-0.209503948688507,0.1520302527836524,0.0817373856293037
104,-0.009207,-0.045635,0.188664,-0.008482,-0.148531,-0.70177,0.696696,-0.4585401790633797,-0.1836170302510261,-0.3971056132830679,2.825956708146632,9.217088947102429,1.797115034059435,0.551059365272522,0.6686868667602539,0.2944797277450561,0.7118615564549129,0.4944920705478713,-0.4047841718985044,-0.2913425915226381,0.5591418743133545,0.3225714266300201,0.0622328370809555,-0.283960149487853,0.0775689773708581,-1.012990317221731,0.1575649976730346,0.0875995978713035,-0.2147247737634927,-0.2499710768461227,-0.0720848240384599,0.0827314381679519
105,-0.011624,-0.047928,0.191892,-0.00517,-0.141125,-0.703745,0.696276,-0.1765317481651902,-0.3173036161631345,-0.3371903660245239,2.903228163875639,9.209816910272837,1.7090676250331105,0.350803792476654,0.5262559056282043,0.3083804249763489,0.714128991450805,0.5011028821493533,-0.4021911290880324,-0.2777731174096738,0.0846614092588424,0.3885403275489807,0.0895129293203353,0.0778162301301956,0.3537637535542249,-0.0137280811011791,0.1684492975473404,0.0887109562754631,-0.1346104775576852,-0.275927871465683,0.0061461043936928,-0.0192019938840647
106,-0.011343,-0.050263,0.192947,-0.008272,-0.132799,-0.705996,0.695605,-0.4038070106178522,0.2949959227651357,0.1368020875841379,2.980416617496312,9.19487127007544,1.6558565515883266,0.3544600903987884,0.8396803736686707,0.4043972790241241,0.717674325473336,0.5072137416818855,-0.3978806746949239,-0.2633796831502831,0.0675881505012512,0.2349796295166015,0.1601759791374206,0.1357084471285343,0.1678431225359439,0.3100916389577091,0.1441159844398498,0.0775132477283477,-0.1849910220179706,-0.2777930200099945,0.0076999867679434,-0.0953956437641289
107,-0.011383,-0.053664,0.193407,-0.017351,-0.125783,-0.706722,0.696004,-0.7071662725806236,0.491695721951127,-0.2584253107368946,3.0925393141150472,9.15589008977413,1.6662157407782971,0.1291026473045349,0.857752799987793,0.5080986618995667,0.7242636430591172,0.5117527074937703,-0.3913512533554122,-0.2457551495166983,-0.1014397516846656,0.1737979352474212,0.1565622687339782,0.3023410248309374,0.3910591727256775,0.3834995511263608,0.1087223142385482,0.0672065392136573,-0.181606530678831,-0.2695615589618683,-0.0140072496690088,-0.164280388553068
108,-0.009916,-0.0596,0.195822,-0.02137,-0.111799,-0.70549,0.69952,-0.3798331375733018,-0.0840349585145711,-0.1509276435703039,3.2268378944456577,9.089974140796064,1.769258328232169,-0.1123290210962295,0.7218837738037109,0.4941564798355102,0.7329089381392749,0.5113108922369751,-0.3851676279123042,-0.2303292301718902,0.3413075804710388,0.0369000993669033,0.1638691872358322,0.1436766495287418,-0.0231219323903322,0.9616945758789776,0.085719034075737,0.0593055263161659,-0.0864277262694667,-0.2472137212753296,-0.0001955967789806,-0.1679506745636463
109,-0.00926,-0.061838,0.196418,-0.02292,-0.114307,-0.703045,0.701524,-0.2826496514111757,0.0118541039228439,-0.3494719015792012,3.339745603962242,9.028800417909023,1.870089084855467,-0.0333090834319591,0.2408120185136795,0.3164039254188537,0.7396148104165472,0.5090218418466782,-0.3815085253244038,-0.2198131877439273,0.675068736076355,0.0261985585093498,0.2320405840873718,0.2097393135011196,0.3337286812633275,-0.0262286662340164,0.1027042046189308,0.0327508263289928,-0.0070887635301769,-0.1559895873069763,-0.0027226401717227,0.0058353990432835
110,-0.008319,-0.063857,0.197964,-0.020384,-0.109327,-0.701525,0.703914,-0.17983312779814,0.0887958893060684,-0.2885807950258255,3.4316078951016067,9.004381431445479,1.8208701497867703,0.2671847343444824,-0.2983258068561554,0.1787017583847046,0.7389358595304859,0.5083794023099835,-0.3856317480512991,-0.2163616613242617,0.4994761943817138,0.0784478634595871,0.3548557162284851,0.1446130535960197,0.4605073874831199,-0.594183452001214,0.1289152801036834,-0.0131288422271609,-0.052150695937965,-0.0752448588609695,0.0167818198157241,-0.0398049725732766
111,-0.005518,-0.068853,0.199923,-0.013024,-0.105971,-0.70445,0.701677,-0.6104132867902516,-0.0411193613737821,-0.4870692311942577,3.531937570334971,8.994834435421227,1.6699543427847323,0.3475266993045807,-0.0635036900639534,0.4037071168422699,0.7349714359017564,0.5107812803641028,-0.392375467871635,-0.2120399842472359,0.4203760325908661,0.0530992522835731,0.4802246689796448,-0.0256739549607038,0.7808551936477423,0.0650688306294381,0.1086070239543914,-0.0193024929612875,-0.0749833447918295,-0.0493415519595146,0.0324659098059055,-0.1230921723273117
112,-0.004227,-0.072038,0.199249,-0.011876,-0.107578,-0.705643,0.700252,0.5305430467396974,0.1917173345983028,-0.5335866522192955,3.689835929700732,8.944705838161706,1.596163568778336,0.081929326057434,0.3299552500247955,0.4181559085845947,0.7348589093621637,0.5106328579001297,-0.3973315879191933,-0.2033817083099722,0.0898545756936073,0.0745841488242149,0.3114953339099884,0.2612807001680136,0.8181289855092764,-0.1753309940733015,0.0734114050865173,-0.0052219438366591,-0.0876225620772223,-0.0305772256106138,-0.0373349337645107,-0.0138428791453537
113,-0.003147,-0.075512,0.197894,-0.0171,-0.107182,-0.705297,0.700554,-0.0149690210729837,0.1973614779651165,-0.2476116557776927,3.834767839987576,8.86514071853757,1.6953556182838976,-0.2139187306165695,0.4757493436336517,0.5784875750541687,0.7413229609945778,0.5073465189824826,-0.3951713915009691,-0.1920400983608616,-0.0483576208353042,0.1816470026969909,0.2587807774543762,0.4250988049715757,-0.5141588981717825,0.1185614974945783,0.0740918666124343,0.007912965491414,-0.0290063987354864,-0.0385473184287548,-0.0163995516330236,0.0356970486306818
114,-0.004118,-0.083281,0.201036,-0.010796,-0.10612,-0.694485,0.711556,0.1476864696919917,-0.0119406131625175,0.1108317800253629,3.98515421628803,8.770678474032879,1.834157939774543,-0.1790354251861572,0.3007502257823944,0.4729286134243011,0.7484520570715772,0.5014102774270384,-0.3937914508657686,-0.1825804207053037,0.4373603463172912,0.1131610423326492,0.2535313665866852,0.0055067807227373,-0.2744961555719376,0.7415063490778208,0.0822737663984298,-0.0218535009771585,0.0116282501445617,-0.089297778904438,0.0644164174355799,0.0441808130373246
115,-0.003496,-0.086273,0.201737,-0.008032,-0.101209,-0.692024,0.714699,-0.160670162166655,-0.1122878240525722,0.5296288545042276,4.152403172323107,8.68233266658187,1.882828739441186,0.1809154599905014,0.1798108518123626,0.5523807406425476,0.7526043552674224,0.4978959496011242,-0.3950975526092044,-0.1720008030681252,0.5892353653907776,0.1369295418262481,0.2686260342597961,0.0160766900539398,0.7546756272524595,0.0095008187949657,0.0906276628375053,-0.0257831774652004,-0.0297855161820887,-0.1194707080721855,0.0273436508717481,0.0551599881560076
116,-0.003421,-0.088207,0.203509,0.000663,-0.095655,-0.694965,0.712652,-0.4377539961442351,-0.0895639510691165,0.3466851934701204,4.31665996080488,8.62294816519916,1.7837053712576627,0.4567196667194366,-0.003185112029314,0.4813251793384552,0.7518046305305291,0.4995798518598399,-0.3993448481672293,-0.1604166052581994,-0.2151854783296585,-0.0122825223952531,0.3946557939052582,-0.2245119352191686,-0.0283843829631805,-0.8572995509028434,0.0850876346230506,-0.0286850668489933,-0.057021754306741,-0.1524864286184311,-0.0042838410568598,0.054468370896345
117,0.002126,-0.095131,0.207204,0.0253,-0.079278,-0.713813,0.695375,-0.0964727075442671,-0.0386497563898563,-0.0875461815059185,4.497015358911455,8.563952955394983,1.6142985065363349,0.3199847936630249,-0.1949463784694671,0.442949891090393,0.7479704005244368,0.5013466113292627,-0.4078544586171044,-0.1511511054366688,0.650333046913147,0.1554865092039108,0.3995060622692108,0.1168821661055087,-0.514976644295454,0.588899958640337,0.1051628962159156,-0.0420326553285121,0.0375337488388177,-0.1440520286560058,0.0445223747503012,0.0663684374193428
118,0.005169,-0.100483,0.208744,0.028821,-0.069273,-0.726619,0.682931,-0.1393663851141929,-0.1171194819927215,-0.3744476451426744,4.64869557441473,8.493682902860641,1.5547887713387607,0.024245411157608,0.191786840558052,0.5499604940414429,0.7474665274366095,0.5001198566113279,-0.4130471642290886,-0.1434084516984169,0.2221724092960357,0.1139650046825409,0.4729549288749695,-0.113797059571743,1.1633370921641588,-0.9858329918354748,0.1004387065768241,-0.0295916367322206,0.0027412769443559,-0.1325675398111343,0.0364181636961759,0.083189977324102
119,0.008018,-0.105012,0.208702,0.028344,-0.065206,-0.737209,0.671913,0.0675181234776973,0.2094862155228853,-0.6909405294448137,4.8404459344998,8.370733984062076,1.6344054750196635,-0.1916543096303939,0.3205684423446655,0.6308488249778748,0.7522284593368019,0.4944184284138956,-0.4149926836256875,-0.1322265666440733,0.0302178785204887,0.094638705253601,0.5645670294761658,-0.0823404295563697,0.2538257079869508,-0.0881453164428472,0.1000026986002922,-0.0218939911574125,-0.0856884522094856,-0.1424143016338348,0.0023228785731713,0.0855951387696899
120,0.009836,-0.109541,0.20737,0.024502,-0.062367,-0.74152,0.667576,-0.3637129006385803,0.2475911975115537,0.4339706782132387,5.227832848453521,8.05654762313664,1.982975897714496,-0.0304671078920364,0.4545268416404724,0.7824761867523193,0.7678051347638095,0.4769715020444058,-0.4139982496914811,-0.1076053551508024,0.884794294834137,-0.1269126385450363,0.2517831325531006,0.8392512685149908,-0.847220055437088,0.3797290926769375,0.141336441040039,0.0882787629961967,-0.0738046564012765,-0.1650418192148208,-0.0317650863264803,0.1155609822380356
121,0.010008,-0.111294,0.207242,0.027288,-0.056358,-0.738798,0.671012,0.0059849196285009,-0.0815127465605735,0.001467734465003,5.478831808581948,7.884365594613552,1.997391376557946,0.3241833746433258,0.2061162441968917,0.8870739340782166,0.770574408688142,0.4730416486294689,-0.417603851864288,-0.0897429390988806,0.8035047650337219,-0.2082428038120269,0.273758053779602,-0.2378209141254424,-0.1609784974634647,-0.235427004726231,0.1324355453252792,0.0677537620067596,-0.035551662510354,-0.220208391547203,0.0125081530930066,-0.1002198947159573
122,0.010242,-0.113049,0.207076,0.030711,-0.051138,-0.735186,0.675236,0.3798772689759731,0.2882400187641382,-0.1225970366209745,5.729676454931497,7.728744240269064,1.899394089794904,0.3342328369617462,-0.073788397014141,0.7102193236351013,0.7690554401690487,0.4718034163346395,-0.4249228074272447,-0.0734564139890252,0.8154090642929077,-0.1767582297325134,0.2545644044876098,-0.0693634590834379,-0.6339566594630479,0.0867149913787841,0.1042687594890594,0.0230018012225627,0.0124354177920031,-0.222178429365158,0.0611767687940737,0.0279327735880273
123,0.009302,-0.117155,0.20816,0.03083,-0.050459,-0.730903,0.679915,0.0682464377522468,0.1591664796054363,0.4414731627978384,5.9340177087813615,7.595354591476917,1.8078794430494307,0.2199805527925491,-0.0486020594835281,0.6199895143508911,0.7670323245973953,0.4699519794597698,-0.4323990463505833,-0.0619496393180829,0.5922364592552185,-0.0642161890864372,0.3334284126758575,0.0589028553456068,0.1972059951424598,-0.5430629210948944,0.1236953362822532,-0.0042745629325509,-0.0912906561307143,-0.2075581550598144,0.0423731334276963,0.0660419454113347
124,0.006996,-0.122885,0.205172,0.024983,-0.06108,-0.711954,0.699118,0.2463753919810056,0.3674690383017063,-0.338391266246885,6.164847741106152,7.436881939354539,1.690516507689655,0.1307075917720794,0.0177565477788448,0.2887163460254669,0.7643254622558528,0.4704255955620922,-0.4387566559856358,-0.0447108480613535,0.8473438620567322,-0.0051551582291722,0.3285844326019287,0.1316965811386704,-0.5738333224117755,0.4148381077200174,0.1808764040470123,0.0387166440486907,-0.1694789801094681,-0.2299440950155258,-0.0598343731752131,0.1276941314311232
125,0.005914,-0.127775,0.202488,0.016631,-0.07913,-0.707787,0.701783,-0.1766249794065952,0.191938868394494,-0.2744524625606834,6.256998786059022,7.366405550593138,1.6602461648494005,0.0218967571854591,-0.0860000327229499,0.2946664690971374,0.7635677954842763,0.4686046387864071,-0.4424485263572976,-0.0401645493126517,0.7653485536575317,0.0918673649430275,0.360258013010025,0.1216577099442482,0.4257347647875547,-0.5158703782647848,0.1790141463279724,0.0692661851644516,-0.1531716687705833,-0.2970201671123504,-0.0697415990802925,-0.0614399954406777
126,0.00621,-0.133451,0.198672,0.000113,-0.09283,-0.706689,0.701408,-0.1849322045028209,-0.0799783766001462,-0.0665812810190022,6.344015390732884,7.292659930902719,1.6555828492134808,0.0633810311555862,0.1787368953227996,0.3652794063091278,0.7636754418146326,0.4666153755159709,-0.4448132829934236,-0.034799970752614,0.1011266708374023,-0.0259685609489679,0.3003480136394501,-0.1979714265570044,0.7956155404061078,-0.1109276416152715,0.1401169896125793,0.0710396692156791,-0.1158498456493951,-0.3156061470508575,-0.0974776924688834,0.00239122938918
127,0.00833,-0.143302,0.197449,-0.009372,-0.088177,-0.715123,0.693352,-0.1729652878552675,0.2049246066957712,-0.2943897735655307,6.462682686689496,7.175501285943389,1.7077167949460446,0.0463942997157573,0.4086505472660064,0.5216670036315918,0.7658140820003081,0.4635116890903241,-0.4450703185840867,-0.0244567588064247,0.2662772834300995,-0.0414991043508052,0.4359969198703766,-0.10990472830832,-0.4408803114712238,0.0641138679921627,0.1174632832407951,0.0544061176478862,-0.1211965039069764,-0.3128847777843475,-0.1559318085331469,-0.0313769432421308
128,0.009627,-0.146876,0.200464,0.001996,-0.076405,-0.720998,0.688709,-0.4528945743918419,-0.1603431221693754,-0.1417202547639608,6.586689590108394,7.043223982307315,1.7829456389315426,0.0307927392423152,0.1926348358392715,0.5513607859611511,0.7685863801572601,0.4594629272748408,-0.4449594284401173,-0.0134114273327323,-0.2077776342630386,-0.1176509708166122,0.4098859429359436,-0.0491439701363444,1.0329910488516092,-0.6513070227146148,0.1029842346906662,0.0399173982441425,-0.2268286329300142,-0.3131101727485657,-0.1738897274901159,-0.0894908858329057
129,0.011039,-0.15037,0.202949,0.01081,-0.070761,-0.724976,0.685045,-0.7862310414671897,-0.4919137486159801,-0.1788144522748887,6.762158969739079,6.860341111549735,1.8382959163621069,-0.0658791586756706,0.2042011767625808,0.7879549860954285,0.770536228564227,0.4533502267595614,-0.4480475064715938,-0.0010205944933169,-0.2055565565824508,0.0096225626766681,0.5153190493583679,-0.0313069924116134,0.0771457835227251,-0.1147565522536635,0.0938952192664146,0.028883408755064,-0.1978502843953669,-0.3062246143817901,-0.1979937114540487,-0.1284028368229046
130,0.010542,-0.156213,0.203793,-0.001057,-0.069259,-0.72343,0.686914,-0.2574462365716695,-0.2547439918756485,-0.3928824426300823,6.96704616703391,6.642323799046873,1.8735465318329632,-0.075123406946659,-0.0327049866318702,0.7271178364753723,0.771628132210568,0.445187342645635,-0.4541849159041945,0.0106890870738444,-0.3691113889217376,-0.0863883346319198,0.5187085270881653,-0.1823106238275766,0.1967448073714971,-0.1680260778874159,0.0584013797342777,-0.0034643535036593,-0.2014186626677401,-0.2625319063663482,-0.2080413870094344,-0.0588404028349556
131,0.010645,-0.159324,0.204724,-0.003203,-0.067635,-0.723938,0.686534,0.6330699397563934,-0.3537409572005272,0.4876033380709588,7.136413138136267,6.4617983050704,1.867392977639288,0.1019245088100433,-0.1034067422151565,0.5081461668014526,0.7712399233312002,0.4391143170442932,-0.4603999010973819,0.0199879955360232,-0.3199547827243805,-0.0856803581118583,0.3459141552448272,0.2739443669080734,-0.6690986999928951,0.1951683518350124,0.0543772242963314,-0.0322554036974906,-0.1995923970886506,-0.2519314289093017,-0.1422622252867091,-0.0887992685732431
132,0.010253,-0.162386,0.204891,-0.004962,-0.065415,-0.725106,0.685505,0.4491390212506055,-0.1381377201020717,0.4774408404968678,7.262434303987026,6.340615811422467,1.795554360613972,0.2627998292446136,-0.0384619869291782,0.5010107159614563,0.7686498119295179,0.4369249444369955,-0.4664212696376057,0.0269302347723282,-0.0662340968847274,-0.006720564328134,0.1737596988677978,0.4963017544418573,-0.0687935502409935,-0.0068999886468052,0.0686312764883041,-0.0169374216347932,-0.3325885347848757,-0.2905632555484772,-0.1425954210301395,-0.1404973436391912
133,0.00888,-0.167754,0.204794,-0.012338,-0.065554,-0.719987,0.690775,0.5538438428282737,0.1415244399309158,0.5272755693763495,7.38607705026865,6.22660364779532,1.6869120534569024,0.3247265815734863,-0.2320863008499145,0.4198716878890991,0.7648193334098331,0.4352613977590696,-0.4738553949458434,0.0325582702888051,0.2514525353908539,-0.1374516785144806,0.2751070261001587,-0.2571478381469845,-0.5166840327352286,0.63285249761343,0.1017585545778274,-0.045206181704998,-0.2890649070146493,-0.3137416541576385,-0.0977443075158167,-0.1924354745387099
134,0.005367,-0.168645,0.20366,-0.015818,-0.066796,-0.710243,0.700602,0.1934112790346145,0.3464215740978718,0.5101857567571103,7.488234525451063,6.153087160685658,1.4954069003045558,0.518267035484314,-0.2980379164218902,0.2753064036369324,0.7582265295437196,0.4370216831405309,-0.4824598603519895,0.0365653318001804,-0.1253642439842224,-0.1862771213054657,0.2713445723056793,-0.3919432620838284,-0.1388929223835468,0.2970046322390437,0.1118500307202339,0.0042466595768928,-0.3057998417816124,-0.2821149528026581,-0.107852846412966,-0.2646323486834764
135,0.003456,-0.169581,0.203202,-0.01755,-0.069393,-0.70287,0.707708,0.0719008686065673,-0.0026525603353977,0.2440466567724943,7.580715825271606,6.083475864320993,1.301709643935412,0.431585431098938,-0.1463626772165298,0.3336343467235565,0.7514550383055276,0.439537978925571,-0.490344413553952,0.0410366081199536,0.0625574439764022,-0.0764495730400085,0.1991078108549118,0.1970338534459471,0.1132826803088188,0.3354565279692411,0.1003081575036048,-0.0073769837617874,-0.3203170822327956,-0.215146392583847,-0.1363043854613788,-0.2483912618480622
136,0.003019,-0.170893,0.201735,-0.023786,-0.075621,-0.699214,0.710504,-0.0764794285684823,-0.145709032139182,0.0917670140713453,7.67507694748938,5.999083762931823,1.128976338205114,0.5352541208267212,-0.2720381319522857,0.3714815974235534,0.7452169909213783,0.4418322715611834,-0.4972147104547612,0.0470476328456269,-0.1934996247291565,-0.3166172206401825,0.1501336693763733,0.0240884393349289,-0.569619504109025,0.6285469093739986,0.0671287551522255,0.0237908232957124,-0.3194101965209469,-0.1718787103891372,-0.2292997905502095,-0.2749616907244548
137,0.003162,-0.171621,0.200699,-0.028883,-0.078624,-0.697734,0.711443,-0.0136246207267045,0.0363800578922033,-0.1576935575086623,7.771884878337382,5.906626428508758,0.9380535149853676,0.3885501325130462,-0.1984312534332275,0.360787957906723,0.7382534966523923,0.4441731105818261,-0.5048592177734594,0.0530013463623398,0.124712161719799,-0.2627935111522674,-0.0783746764063835,0.8606436006337403,-0.405319753268361,0.3548001108646392,0.0437848009169101,0.0212058480829,-0.2606101439626887,-0.1647303104400634,-0.1766094895765185,-0.2260994418726302
138,0.003546,-0.172569,0.19994,-0.033958,-0.082028,-0.696644,0.711902,0.3419055579781532,0.0400631303191185,0.2461129416525364,7.874994539678096,5.780390743124484,0.861354963773489,0.1032023280858993,0.0729685053229332,0.2098124623298645,0.7352540711004176,0.4409161993944296,-0.5115427879372368,0.0576051913406973,0.3385134041309356,-0.183120310306549,-0.133170410990715,0.5790709308043122,0.675788553020358,-0.3319067265331745,0.0715621039271354,-0.0059280418790876,-0.2042035441459156,-0.1371966153383255,-0.0736967070813523,-0.1252781928631942
139,0.003777,-0.1731,0.199703,-0.037016,-0.084295,-0.695395,0.712706,0.1188788928806781,-0.0735375298976898,0.3098345954567194,7.92698483915627,5.7151744668483735,0.8185829398218541,0.2667233943939209,-0.0410102978348732,0.2156567573547363,0.7334171144358154,0.4406993739857391,-0.5138559603187886,0.0619311139216114,0.0323255062103271,-0.1139421463012695,-0.0960970148444175,0.0695493370443582,0.174613055062294,-0.1142640925616025,0.0341278240084648,-0.0033776813652366,-0.2288624585788697,-0.1304460614919662,-0.1237917902303393,-0.1786065268789418
140,0.00454,-0.175044,0.199403,-0.040686,-0.090568,-0.69601,0.711135,0.2278898872196674,-0.0195481655567884,-0.5096376944202929,7.969706375029682,5.665823283702135,0.7433716314930469,0.1237500384449958,-0.0703072473406791,0.1526535898447036,0.7305185381047669,0.4415331967828858,-0.5168626813206891,0.0651461100315075,-0.1997625827789306,0.0121417008340358,-0.0859782695770263,-0.0158224230319261,0.5392845715999603,-0.5663005888193845,-0.0118535729125142,0.0031377514824271,-0.2080355965894647,-0.1341639906167984,-0.0488743913807673,-0.1812200521118938
141,0.008587,-0.176612,0.197165,-0.041713,-0.094617,-0.707474,0.699134,0.0010953940212726,-0.0412584775835275,-0.6730705992985516,8.001822930258513,5.622291600489616,0.7287354956362396,-0.1153750941157341,-0.0510891638696193,0.164109855890274,0.7299090657370008,0.4398333993925764,-0.5190292951106055,0.0662415148944734,-0.1316367983818054,0.0729199945926666,0.0200466364622116,-0.0275154911741614,0.1326379536420106,0.085693247115612,-0.0281278956681489,-0.0014283376513049,-0.1958320216418244,-0.1153181418776512,-0.0368252443764358,-0.0193201152548426
142,0.013259,-0.180614,0.196701,-0.042031,-0.098283,-0.727862,0.677341,-0.073251698693633,-0.0471446130126714,-0.2473176412671804,8.04938489190042,5.549917853674292,0.7590786845169961,-0.2225780934095382,-0.0038477724883705,0.22930708527565,0.7308734602581941,0.4351641626616308,-0.5214689920063118,0.0672770301736477,-0.373642235994339,0.0433349311351776,0.143349602818489,-0.1195464168787002,0.4801759645491838,0.1456014801114797,-0.0041180965490639,0.0170523840934038,-0.1286405271694529,-0.1038711294531822,0.0296056729530217,-0.0010041800653736
143,0.015623,-0.181782,0.193891,-0.046304,-0.102645,-0.729029,0.675157,0.1414876150518655,-0.2063473329752683,0.306134498829767,8.092471169432997,5.480473730570077,0.8041764480024576,-0.1346544623374939,0.0821641609072685,0.1918638050556183,0.7323385054447262,0.4304361643017007,-0.5231855511057022,0.0684242480930934,-0.2952595353126526,0.0465788766741752,0.1159654408693313,0.0406970443084836,-0.0562251605689525,0.6331529418647289,0.0340479910373687,-0.0275239124894142,-0.0537089308311697,-0.1132899075746536,0.1042682293918449,-0.0008790940934472
144,0.016676,-0.181791,0.192961,-0.04696,-0.103021,-0.72925,0.674816,0.537155158355832,0.1897843207091093,-0.3210101425308734,8.154694109112024,5.382271130493283,0.8381574819289147,-0.0100956354290246,0.0080863637849688,0.058928545564413,0.7329535872248677,0.4274804749634849,-0.523952577421753,0.0742508012660163,-0.7580221891403198,0.2179674059152603,0.1947828233242035,-0.073289108094573,0.8215724039614201,-0.6363982073962688,0.0700079575181007,-0.0321624726057052,-0.1920236788674257,-0.1618978530168533,0.0859844486145302,-0.0831304474228993
145,0.017304,-0.182138,0.192995,-0.046231,-0.102976,-0.729168,0.674961,-0.353442851036787,0.0155143799960613,-0.446857705380395,8.179339305546879,5.342708350911736,0.8510288000702857,-0.0547342412173748,-0.0312732718884944,0.183832436800003,0.7331124116438347,0.4266421894389655,-0.5240095891861276,0.0770489145875791,-0.6784221529960632,0.2246811687946319,0.2259225696325302,-0.3033405572623014,-0.0150309803932905,-0.383973013857007,0.059720229357481,-0.0164460055530071,-0.1432375548585783,-0.122037649154663,0.0677790257364744,-0.1109450950735714
146,0.018078,-0.185606,0.192638,-0.045295,-0.103062,-0.723407,0.681182,-0.0633767858892679,-0.2425847675263881,-0.4952876089632511,8.218925466004013,5.27908723487258,0.8665389422826468,-0.2207344025373459,0.075342945754528,0.1478702574968338,0.7333138879437683,0.4244637721871758,-0.5250231570521694,0.0801995595203305,-0.4771486520767212,0.302317351102829,0.2859483957290649,-0.2391965863928198,-0.0291226341098546,-0.1732522881031036,0.0279115345329046,0.0138081349432468,-0.1202010996614582,-0.0911671072244644,0.0607190105226356,-0.1648399586645886
147,0.013949,-0.188227,0.192656,-0.044758,-0.104251,-0.697269,0.707774,0.621427432757616,0.1053150624305009,-0.0813828365705907,8.2426564702034,5.222981316769123,0.9744202019393444,-0.2119599431753158,0.2009736746549606,0.0905747413635253,0.7367379334912868,0.4204224085244085,-0.5230328811690826,0.0830601523708024,-1.0214862823486328,0.1345394104719162,0.2819249033927917,-0.3054036272719502,0.7295201432079076,0.0407166257917881,0.0237790793180465,0.0186543259769678,-0.1273658949906006,-0.0356706157326698,0.0001201038361323,-0.0289299816315644
148,0.012769,-0.185334,0.190229,-0.048318,-0.103641,-0.689979,0.71474,0.2784539532870054,-0.0122013099253177,0.1428760006703436,8.251937508767842,5.191459220302105,1.060510120222345,-0.132494106888771,0.1902107298374176,0.0650829523801803,0.739504503522897,0.4177273476999862,-0.5209922217625007,0.0848774662725954,-0.7183903455734253,-0.0880559533834457,0.2967926263809204,-0.3644064358606934,-0.3445657170981168,0.3607470365703106,0.0430026538670063,0.0185968466103076,-0.1292438998900819,-0.0652348175644874,0.0414693940875818,-0.1219382073860615
149,0.014287,-0.185242,0.189084,-0.046695,-0.106714,-0.694049,0.710442,0.6130991648733616,-0.1104834049791097,0.6445658778913319,8.2463459723711,5.195917953276634,1.0819529404193162,0.0593433491885662,-0.0782495960593223,-0.1052305102348327,0.7401888805415126,0.4178491808107251,-0.5198440281143604,0.0853510560622376,-0.9502395391464232,-0.1126917973160743,0.236920416355133,-0.0148693600907921,0.2890425673186779,-0.0668000383362174,0.0708222836256027,0.0157473962754011,-0.1277055935400538,-0.0613334886729717,-0.0228861691393889,-0.0243597077240934
150,0.015928,-0.18772,0.189973,-0.046145,-0.106989,-0.696009,0.708516,0.4234568829834461,0.0091518592268228,0.0602801350481808,8.222455393695832,5.247468107771873,1.0127714137740431,0.1209762468934059,-0.2035722434520721,-0.1773821413516998,0.7379848355058578,0.4215797762975207,-0.5202244894209558,0.0837582124297009,-1.0726070404052734,-0.220568299293518,0.1156038492918014,-0.1332242290973663,0.1610696828782558,-0.1646194843143224,0.0747608840465545,0.0197365581989288,-0.1922917004201561,-0.0630382597446441,-0.0672811181177385,-0.0920974516021087
151,0.017083,-0.189017,0.190233,-0.044844,-0.107133,-0.69789,0.706725,-0.9366016356766224,-0.3209948718965053,0.8106137875735759,8.183700423365831,5.313503299215435,0.9818950678646564,0.3762433528900146,0.1861121952533722,0.2160858809947967,0.7369344810749733,0.4263713323600441,-0.5178269695782659,0.0836079680943707,-0.4547946155071258,-0.1880368292331695,0.0997260808944702,-0.5663955736264586,0.50916532766819,-0.7457892870940268,0.0559260435402393,0.0394180938601493,-0.1285688593058847,-0.0336465388536453,-0.1006536190912593,-0.0145414638602756
152,0.018499,-0.187741,0.1895,-0.042455,-0.110879,-0.702351,0.701859,0.3978945717036724,0.109943891274929,-0.7156688010532408,8.21958480669558,5.267283399832248,0.9298002120334654,0.3126648962497711,-0.218248575925827,0.0424068942666053,0.7344148711916354,0.4289548033278849,-0.5182578131333876,0.0896736813221371,-0.6339311003684998,-0.0706738233566284,0.0018073779065161,1.0358332865402102,-0.9865589680224656,0.1702023990131914,0.0429856292903423,0.0776916295289993,-0.1867537208415567,-0.0209741368889808,-0.2519728831944987,-0.2186933486009016
153,0.019127,-0.187169,0.188659,-0.041356,-0.114898,-0.704611,0.699008,0.3460416348695754,0.1995394065260887,-0.988086396785453,8.206046110686659,5.294703906199336,0.8929168077290057,-0.184773102402687,-0.0379064939916133,-0.0774421691894531,0.7333832463447858,0.4301071801291031,-0.5191162922243754,0.0876077705532313,0.1094389259815216,-0.309175431728363,0.0740492194890976,-0.5659904999569058,-0.6996177568972111,0.8319329813908785,0.028785353526473,0.0879694074392318,-0.0309966090049012,0.010546195320785,-0.1370644648473709,-0.0701707751446403
154,0.019133,-0.187126,0.188117,-0.040415,-0.115007,-0.705612,0.698035,0.3143944507181644,0.220374689283967,-0.3162082221418619,8.197142673262952,5.294968110093474,0.969825202299282,-0.3059880137443542,0.153405487537384,-0.0279285293072462,0.736476639013271,0.4257296041836742,-0.5189479543264779,0.0839615378484601,-0.5197129249572754,-0.2238486111164093,0.020487455651164,-0.1449701964706182,0.6212175893992186,0.1709767443865537,0.0356105379760265,0.0651557371020317,-0.0541888826681068,0.0400604978203773,-0.1212558146124705,-0.0123833177120075
155,0.019138,-0.185186,0.188481,-0.038664,-0.112833,-0.706787,0.697299,0.0193202020198106,-0.1242266836494207,-0.2899620202511548,8.183214101153611,5.291513001203537,1.0978553698848932,-0.3245730102062225,0.1905234158039093,-0.012294789776206,0.7412111225453613,0.4205588169793348,-0.5168706189230547,0.0811243629250093,-1.0581470727920532,-0.3727305233478546,0.0595088936388492,-0.5924851236507296,0.3229185334354639,0.7571580917179584,0.0282964557409286,0.0463043041527271,-0.0480631115305004,0.0461799055337905,-0.106544887353247,0.0019219142523332
156,0.018483,-0.183885,0.188513,-0.038415,-0.10791,-0.70987,0.694957,0.2633037304282188,0.0943406639516353,0.0407234939239919,8.174609938937426,5.281689526325464,1.204111658688262,-0.3049077987670898,0.0357696339488029,-0.0499927960336208,0.7452091704302306,0.4152397697011911,-0.5159295732865793,0.0778192891807496,-1.6432944536209106,-0.5101019740104675,0.0493868142366409,-0.4987520702034235,0.2673708337366581,0.8639981717586517,0.0360881127417087,0.029480742290616,-0.0639827478592051,0.0516660884022712,-0.056258674679487,0.0531962823010282
157,0.018234,-0.183554,0.189094,-0.039295,-0.106007,-0.7104,0.694658,-0.0464554617047309,-0.041488779208064,0.3014126579396426,8.160105028244853,5.291523522597551,1.2581104484446346,-0.2236230224370956,0.0142557509243488,-0.0510360486805439,0.7475190358704499,0.4114856508455997,-0.51626909657375,0.0732190501439448,-1.6912521123886108,-0.8617929220199585,0.08783520758152,-0.3342337081760168,-0.3607370996981859,0.802480823065713,0.0523290000855922,0.0063458969816565,-0.081496790939616,0.0216266550123691,-0.0226240042219986,0.0004623505356983
158,0.01816,-0.183492,0.189337,-0.039766,-0.104941,-0.711205,0.69397,0.1688794798463583,0.028075755405426,0.3201804867736995,8.145883026146889,5.294982138618827,1.3334646723754704,-0.1906266808509826,0.1752350032329559,-0.0448898524045944,0.7503474448836962,0.4081773347653356,-0.5151732618059225,0.070473092246074,0.1583111435174942,-0.7179701328277588,0.3686458468437195,0.4279094784781336,0.7425467980414628,0.482490086710453,0.0655905157327652,0.017123294994235,-0.1280733400070574,0.0170676000416278,-0.0863959885574877,-0.0230043293260736
159,0.018595,-0.183864,0.18907,-0.04096,-0.104244,-0.712867,0.692298,0.1893909374773502,0.0388876567989587,0.0918466551788151,8.120884193968772,5.310956537342071,1.419642634268105,-0.105697214603424,0.1616191565990448,-0.1019582971930503,0.7534501336119651,0.4060078407464935,-0.5126168210346026,0.068517509015069,4.04344654083252,-0.4449157118797302,0.9015849828720092,1.0952335700139402,-1.0872831955313682,1.2028372548382729,0.1065543368458747,0.0010432236595079,-0.1688077115180902,0.0270898323506116,-0.0774562194450758,-0.0211657043056213
160,0.018005,-0.183875,0.189349,-0.042195,-0.100303,-0.713303,0.692357,-0.0322539178729057,0.2308756250321865,0.033281945746392,8.090088658210634,5.33893467759192,1.4888316135674715,-0.0558291375637054,0.1211203336715698,-0.0812346637248992,0.7559653496879104,0.4049625324349789,-0.5099961373169988,0.0665254683115853,4.508567333221436,0.51318359375,1.0848268270492554,1.149607403627783,-0.7107207501918077,-2.552598908954858,0.1514624804258346,-0.0103920279070734,-0.1089169045810587,0.0436677187681198,-0.0860064047180116,0.0004484179084684
161,0.017743,-0.183325,0.190015,-0.039649,-0.096773,-0.714669,0.6916,0.0364841027885675,0.1035486372798681,-0.004727613043785,8.072228007349372,5.35568064520955,1.5251953048467637,-0.0222997143864631,0.0581041201949119,-0.04266894236207,0.7573276932443204,0.4041949070992909,-0.5087859683567434,0.0649473324546211,1.679123044013977,0.8236909508705139,0.5204193592071533,0.7415338216066361,-0.4305301823705434,-2.625246796536445,0.0885360836982727,-0.0487610809504985,-0.0628720558041008,0.0703087821602821,-0.140629993575532,-0.1105562144869938
162,0.018666,-0.182914,0.189386,-0.03935,-0.097798,-0.716282,0.689802,0.020005846196413,-0.0306838920772075,-0.1415712016820907,8.05952693120837,5.367209754961729,1.551605903518945,-0.0141692366451025,0.0833302736282348,-0.014215936884284,0.7582926165924209,0.4037697179746467,-0.507799299788337,0.0640490160244853,-0.8967204093933105,0.885892927646637,-0.0901982486248016,0.5392854483827948,1.6616361579030752,-0.394316420955956,0.019003665074706,0.0102273989468812,-0.0779845267686527,0.0342721603810787,-0.0935834341098554,-0.0755298910249955
163,0.018501,-0.183558,0.188505,-0.039994,-0.100871,-0.7165,0.689096,0.0957031844764947,-0.1279413202583789,-0.1895868984408676,8.052662306135892,5.371242371478677,1.5731361828036603,-0.0563035793602466,0.0547614097595214,-0.0145358741283416,0.759083240481319,0.403041514548685,-0.5072966693792708,0.0632468441728975,-1.375624418258667,0.0440589897334575,-0.1177880614995956,-0.9624695057742296,-0.877418209823966,1.354524557669461,0.0171895697712898,-0.010311746969819,-0.057545326089696,0.0155842993408441,-0.0590450265955412,0.0597163362861145
164,0.019782,-0.18255,0.18797,-0.041076,-0.103406,-0.717849,0.68725,-0.0244908826559782,-0.0359019189864397,-0.1104553479284048,8.045814632198214,5.3719788690596815,1.6053354478798805,-0.1123157814145088,0.0370892733335495,-0.0245119836181402,0.7602770371403764,0.4015083235771251,-0.5068942051753236,0.061872572918624,-0.8577111959457397,-0.200496956706047,-0.4978850483894348,-0.4271764880284667,-0.2579547706156969,1.6687480357348918,0.051180750131607,0.0017024978296831,-0.0596271327658556,0.0215342082083225,-0.0263198059830348,0.1038901807265356
165,0.01779,-0.182396,0.18759,-0.041681,-0.101891,-0.716554,0.68879,0.1949246062070131,0.1275765785992145,0.01427183258906,8.024969412568211,5.364871667402983,1.7287068298742174,-0.0908982828259468,0.2669852077960968,-0.0170092917978763,0.7645994091750428,0.3969184574822357,-0.5042977463751669,0.0593920482547932,-1.1266624927520752,-0.3611673414707184,-0.0457403697073459,-0.5596386467121541,0.9012889147549868,0.6711404349535703,0.0106440484523773,0.0135014234110713,-0.019991653274279,0.0561846643686294,-0.0376534890612354,-0.0104196072904509
166,0.017588,-0.182478,0.18735,-0.041944,-0.100206,-0.716459,0.68912,-0.2548877842605114,-0.0292553205788135,-0.0935866307139396,8.009557323902845,5.364135169821977,1.8009515434823928,-0.1153549626469612,0.1300362348556518,0.0005781104555353,0.7670710057178539,0.3948638460038183,-0.5022544872233845,0.0585237546854719,-1.697296977043152,-0.1975244432687759,0.0107504064217209,0.2262535181894898,0.1586211206823587,-1.2667109573990103,0.0048669469542801,0.018917441368103,-0.1271863737052306,0.0622240379452705,-0.1562605472971685,0.0869296205101534
167,0.017217,-0.182717,0.186909,-0.042647,-0.099798,-0.716202,0.689403,-0.052904491713643,0.029963176587224,-0.2981485415771603,8.012129804739356,5.3403813692688935,1.859168170129508,-0.2065826952457428,0.0875565037131309,0.0722628533840179,0.769106607198673,0.3913337446974824,-0.5020624537331236,0.0571516494952791,-1.3655861616134644,-0.112590804696083,-0.0700089558959007,0.3394005894199013,-0.2200344975441694,0.5234627696225419,-0.0101214563474059,0.0408975891768932,-0.0494935735918814,0.0521773137152195,-0.0683106757946079,0.0337403068060288
168,0.019042,-0.183104,0.185615,-0.040999,-0.10374,-0.718257,0.686778,0.44791853954494,-0.018733926564455,-0.2459318859972059,8.01199302661717,5.313510313478112,1.9351905025802552,-0.2570021748542785,0.1809341162443161,0.0355581045150756,0.7717844164194788,0.3867275975949982,-0.501771367422304,0.0549188523668618,-0.2299122363328933,-0.2172804027795791,0.2387568205595016,-0.0370190864481031,0.6659785221457482,0.8626550135213881,0.0034301378764212,0.0166910346597433,-0.0303090902483323,0.0268428437411785,-0.0274175358085776,0.0604079535457771
169,0.022163,-0.182665,0.185172,-0.044916,-0.098614,-0.721452,0.683933,0.2054611977905034,-0.1577326474100351,-0.0593795329466462,8.006200414690374,5.284914918112754,2.034894885522127,-0.238559603691101,0.1838511526584625,0.0341258458793163,0.775194573301504,0.3819013461868577,-0.500400436060095,0.053141799069323,0.4800494909286499,-0.3816723227500915,0.3277918100357055,0.4187817307792604,0.6240238789916038,1.6413386352837085,0.0184290949255228,0.0197891965508461,-0.0902279405363369,0.0150414453819394,-0.0593708975490415,0.0355789295431924
170,0.022295,-0.182117,0.185849,-0.037415,-0.101609,-0.720337,0.685121,-0.0800017574757337,0.0255628958016633,-0.0541705661267042,8.002115775725246,5.253801402446627,2.1293451473280784,-0.26065793633461,0.1376817524433136,0.0427498444914817,0.7784235363940121,0.376971631616458,-0.4993255487351193,0.0512176410357221,2.960303544998169,0.2336582839488983,0.3576512336730957,0.6413796490706503,-2.60961025146544,-2.2642753035604954,0.0099944788962602,0.0233396403491497,-0.0440471949866041,0.024001557379961,-0.0996122933447826,0.0571860871561337
171,0.020339,-0.181461,0.18318,-0.041549,-0.102127,-0.71772,0.687548,-0.106167295345664,-0.0352612829953432,0.032126492100954,8.005087485012412,5.212123822668194,2.2187223436534405,-0.245305523276329,0.1002373695373535,0.0712703466415405,0.7814898811740104,0.371310120303293,-0.4990044461754579,0.0489589431059624,2.1315486431121826,0.7078262567520142,0.0473102144896984,1.338701988507062,-1.6936831550270317,-3.273354730948806,-0.0037030517123639,0.0202598851174116,-0.05533575114829,0.0187138449400663,-0.1410224360923748,0.008435000211338
172,0.017592,-0.181459,0.180682,-0.04582,-0.102464,-0.716891,0.688091,0.0303974763512611,0.0505143817067146,-0.0758342625327408,8.010228939554095,5.162708926635981,2.313664188368618,-0.3143574297428131,0.1339459121227264,0.0850860700011253,0.7847111796027199,0.3651964892206166,-0.4986656959948388,0.0468226615021566,0.0847764611244201,0.6760662794113159,-0.5178666114807129,-0.2915701861001551,3.241421715593338,1.4303892153404651,-0.0070533575490117,0.02771507948637,-0.0230165243706549,-0.0252851489931345,-0.0160708220021566,-0.0826095105550251
173,0.019,-0.180264,0.179225,-0.043721,-0.101439,-0.717505,0.687739,-0.0492120669364929,-0.240498024380207,0.2103710355333983,8.019808084282278,5.102821736428141,2.4112794900767502,-0.194086879491806,0.0616900213062763,0.1061750128865242,0.7879714365852469,0.3587581887081548,-0.498348796068618,0.0451886617339531,-2.8142025470733643,-0.7093394994735718,-0.4748998582363128,-3.4955122119963167,1.0808470250040292,5.46539891103506,-0.0130602903664112,0.0095377070829272,-0.0685938994830474,-0.027994429692626,0.012306844667514,0.0167173557277885
174,0.01961,-0.179504,0.178375,-0.041693,-0.101108,-0.717698,0.687712,0.7749497689962387,0.307213014781475,0.0003945522755384,8.027931184983252,5.056247616779804,2.4813448138192293,-0.2200111448764801,0.1897734254598617,0.0028566163964569,0.7902825660604319,0.3541588778834216,-0.4980543193850153,0.0443499676612115,0.1642864793539047,-0.8173563480377197,0.3130225241184234,-0.6048758186683059,-1.2062988665342331,-0.5659001913249493,-0.0058057052083313,0.0021377322264015,-0.1462106797846965,-0.0352627597749233,-0.017766760891088,-0.0601679068453609
175,0.024429,-0.178402,0.17557,-0.036321,-0.103841,-0.723783,0.681201,0.2935936547517776,0.3553653435319662,0.2172548036977648,7.996479815664887,5.055680630546808,2.582016142097116,-0.2021887898445129,0.1585447043180465,-0.0920783057808876,0.7936650792349151,0.350826745622876,-0.4952518653713065,0.0417382741962541,-0.7081574201583862,-0.5069718360900879,0.2102645188570022,0.9611799043551088,1.4593255330979824,-1.153939149221778,-0.0087924525141716,0.0068995142355561,-0.0853568821675609,-0.0310206096619367,-0.0383052401013905,-0.0586944139264291
176,0.02542,-0.177488,0.174819,-0.036277,-0.098994,-0.725043,0.680585,-0.1317336982786655,0.014879004701972,0.1777414162158966,7.984415868383645,5.056040111508965,2.6183865553781387,-0.156457170844078,-0.1403315663337707,-0.0660964101552963,0.7950537262151671,0.3474852956772862,-0.4957352192329314,0.0372843840676798,0.6506475806236267,0.0836359113454818,0.0452226959168911,0.8481770639009774,-2.9261522356063128,-0.2371826162219047,-0.0051195225678384,0.0159282982349395,-0.0932808618335518,-0.0349724255502224,-0.0782917843532282,-0.0398258737974101
177,0.021666,-0.176462,0.174591,-0.032747,-0.098793,-0.718917,0.68726,0.1082932014584541,0.038581367328763,0.3194800834193825,7.992339062598347,5.056878900420665,2.592467978006601,-0.0874971747398376,-0.1017230078577995,-0.0156231401488184,0.7943925939796413,0.3455546599391078,-0.498410362692718,0.0334603901891595,2.871565103530884,0.470465213060379,0.091658242046833,0.6692318248532712,-2.3039847981363533,-2.891436311534047,-0.0094060422852635,0.0491664744913578,-0.102535587779805,-0.0006633617449551,-0.1697998643605969,0.0005386700290313
178,0.019676,-0.176563,0.170225,-0.039036,-0.09842,-0.718089,0.687851,0.3699795598179102,0.1262047057241201,0.455221848295629,7.995661485019326,5.048713129621744,2.5981337486833334,0.0400753542780876,0.0408880040049552,0.0283029247075319,0.7946270232020626,0.3441572516431153,-0.4990870008468137,0.0321866248351433,1.6223279237747192,0.9151620268821716,-0.3118103444576263,0.7775136281348765,-1.4369021043658257,-2.2827380119681355,-0.0039598303847014,0.0218830108642578,-0.0484545539669226,-0.018359126523137,-0.022422695796506,-0.1164749004788696
179,0.019872,-0.176204,0.170179,-0.036813,-0.097467,-0.718696,0.687475,0.0377250427603721,-0.2479763974368572,-0.0924342458084225,7.982401021429895,5.095635624316334,2.546790222676098,0.077682115137577,-0.0691881626844406,-0.0630861073732376,0.7930916108041799,0.3460423030907102,-0.5004044026939499,0.029252612350055,-0.8694280385971069,-0.6181356310844421,-0.104823462665081,-3.05956117362082,0.2846294270515441,4.935692315119504,-0.0408252589404583,0.0142159182578325,-0.1590855233237147,-0.000638285302557,-0.0121940582006238,-0.0732080148155335
180,0.020629,-0.176487,0.171117,-0.034059,-0.095932,-0.718801,0.687722,-0.2163970178246498,-0.2270633732676505,-0.3066346303716302,7.974058725020289,5.120661344501376,2.5226176121890544,0.0035589777398854,-0.0718412920832634,-0.0284575261175632,0.7923629097285981,0.3471371883211746,-0.5008772928282978,0.0279061417493418,-0.9454911351203918,-0.5774102210998535,0.4304013252258301,-0.2722143282450735,2.8645775307029484,-2.5650837119966745,-0.0384814701974391,-0.0038189832121133,-0.1613231461826711,0.0095658563077449,0.0292797974329441,-0.0251415788167854
181,0.021528,-0.176173,0.170564,-0.031997,-0.097365,-0.720243,0.686109,0.7422825941473246,0.2884662287354469,-0.2915934208452701,7.961837541350722,5.132604880273342,2.5369053729996085,-0.1555724740028381,0.1147492304444313,-0.1341238617897033,0.7929073003086162,0.3460717442316081,-0.5008873789651961,0.0253805579671902,-1.2032140493392944,-0.5588325262069702,0.3308573067188263,0.2479530165612697,2.1628426355212924,0.7656519254274666,-0.0146957822144031,-0.008275993168354,-0.1860019891588017,0.0205246414989233,0.0023155600622849,0.0580344658800866
182,0.026183,-0.177172,0.172662,-0.029736,-0.097318,-0.724615,0.6816,-0.2929395747572183,-0.2538420745998621,0.1299985450491309,7.954384302735328,5.140556716060639,2.5441747794806955,-0.1354761868715286,-0.1839528679847717,-0.0909540802240371,0.7932737507492469,0.3435790971361636,-0.50223160781064,0.0208207531900766,-1.1456332206726074,-0.4948908388614654,0.0045082890428602,0.8483728787340223,-2.465366031181812,0.0440588488917797,0.0010268557816743,0.0084745241329073,-0.1533474180631339,0.0154897775501012,-0.0378621154267923,0.0789569702636916
183,0.026014,-0.176838,0.173033,-0.028836,-0.096345,-0.723,0.683489,-0.238933259281516,-0.0188075763225555,0.3316094971522688,7.9555954320907585,5.156914561143517,2.507015846170485,-0.0570337772369384,-0.1066387146711349,-0.0403450541198253,0.7921707564160011,0.3427188071580372,-0.504699497654677,0.0169652349293644,2.930061817169189,0.3089174330234527,0.1510575860738754,1.146601645940542,-4.802251812922954,-3.583983691653609,0.0043103089556097,0.0827080085873603,-0.1281493643853347,0.0423834286630153,-0.1442722682011779,0.1070702446679119
184,0.022293,-0.177381,0.173974,-0.032578,-0.091671,-0.718091,0.689116,0.2489642394304275,0.0775070180505514,0.301696297186613,7.957311588358879,5.154272522202134,2.5070015253841875,-0.0241781696677207,0.0551689192652702,-0.0010675170924514,0.79219863308421,0.3416713017911854,-0.5054099469807852,0.0155849345305922,1.570174217224121,0.7875367999076843,-0.3193133175373077,1.083660036598146,-0.8595020293831824,-2.852649192500114,0.01735495403409,0.0386363714933395,0.0231922713799169,-0.0104675786569714,-0.0158086559431219,-0.0577874551493441
185,0.021982,-0.177759,0.174708,-0.033128,-0.089547,-0.718429,0.689017,0.6473351964741945,-0.056541386911273,0.0373500719681382,7.943209997770189,5.1600809162199495,2.5395591023787856,0.035165898501873,0.0480363741517066,-0.0830452367663383,0.7932509296385718,0.3413881049538546,-0.5039570237664035,0.0153098729800198,-0.4185170233249664,0.5093868374824524,-0.6501684188842773,-1.282568451744318,4.321007926881313,1.2837846956662833,0.017267744988203,-0.0146603183820843,0.0617451158670941,-0.0145496577024459,0.0977325348796323,-0.0051298468731023
186,0.022011,-0.177698,0.174962,-0.032965,-0.088687,-0.718281,0.68929,-0.0894563990414142,-0.2688040814101696,-0.1714785564288496,7.930316613927483,5.193676311829686,2.5112118365556,0.0094287544488906,-0.1529946476221084,-0.0637701153755188,0.7923887004553365,0.3421503430661111,-0.5048732184399171,0.0125026669305381,-1.464837908744812,-0.6307341456413269,-0.181623488664627,-1.3746889554284512,-1.711396506372094,0.9503284016035496,-0.0079611046239733,-0.0042854091152548,-0.1139955321527551,0.0252830758690834,0.0088050322502618,-0.0243527436937671
187,0.021554,-0.178024,0.175205,-0.033454,-0.089291,-0.717105,0.690412,-0.1267535717785358,-0.0296060337126255,-0.1194040857985615,7.926015701863169,5.207366983529925,2.496397713783383,0.0534517914056777,0.0550987236201763,0.012547199614346,0.7919269656847041,0.3426096718410049,-0.505309558482713,0.011517710141982,-1.5153393745422363,-0.4536269009113312,-0.4311913847923279,-0.7185448679462075,2.540689859974384,3.0668887400299307,-0.0255320221185684,0.0155527414754033,-0.0754987926338333,0.0311094895005226,0.0413391187714179,0.0218750672845286
188,0.02363,-0.177573,0.177088,-0.027756,-0.087014,-0.718737,0.689258,0.2839180639117956,0.2953565727710723,-0.1903901776477694,7.928043408298492,5.190805724829435,2.524287591227889,-0.0859261825680732,0.0872170850634574,-0.014563038945198,0.7928133114032159,0.3416097810728428,-0.5045789362953889,0.0122385932421548,-0.9390023350715636,-0.539840042591095,0.6475112438201904,0.030374241606146,1.25585755495131,-1.9631974305331703,0.010427176952362,-0.0413476079702377,-0.0444024609979474,0.0078927129507064,0.0886478408711962,0.0817234484354965
189,0.022705,-0.17634,0.178211,-0.021381,-0.085587,-0.71681,0.691665,-0.1602028369158506,-0.1433089852601289,0.1924061936452984,7.916667443281412,5.191033688366413,2.559279701893032,-0.0718827843666076,-0.1353227943181991,-0.0326450802385807,0.7939708489417212,0.3396058154963154,-0.5041636050800095,0.0098540636346969,0.2047987431287765,-0.0417974293231964,0.1864770948886871,1.9413373347722,-1.8241893573373555,0.022721571428515,0.0089659662917256,-0.0136296870186924,-0.0621845347642432,-0.0044660242274403,-0.0309830576868727,0.0200225096368463
190,0.023158,-0.175949,0.178563,-0.020606,-0.083959,-0.718869,0.689749,-0.2721352716594934,-0.0838689542979002,0.3896352774024009,7.935974785819649,5.19129964582622,2.4982211298182606,0.1085039228200912,-0.1366601288318634,0.0604962557554245,0.7920231781848529,0.3396646311141036,-0.5072022350071129,0.0085560521399,2.3563387393951416,0.4652126729488373,0.0241136159747838,0.7138219310775399,-3.767500184139609,-3.23675606186986,-0.0335690155625343,0.0353107452392578,-0.0691735762342577,0.0050711873918771,-0.1234614440311212,0.0155355198238568
191,0.023373,-0.174249,0.181872,-0.014282,-0.079734,-0.720203,0.689019,0.0716390027999877,0.1690238567531108,0.1096235732793808,7.962104667854309,5.172290993973612,2.4541174919366835,0.064491681754589,-0.0328995995223522,0.0968490540981292,0.7905878098726714,0.3398835886382776,-0.5092680775457641,0.0098069858292169,1.6464003324508667,1.0393050909042358,-0.4787598550319671,1.334209353262931,-1.4435551325142382,-2.4751012432545423,-0.0476275570690631,0.0396522134542465,-0.0099858646488399,0.0028891116380691,-0.0303921631386154,-0.0734619895766023
192,0.022583,-0.174824,0.181116,-0.019359,-0.083342,-0.717794,0.690978,0.5804641387283802,0.2496072135090827,-0.1194876724287867,7.963692813828587,5.176700627109408,2.439618426463008,-0.026739802211523,0.0137614915147423,0.0033116927370429,0.7901316138022293,0.3397394453620002,-0.5100893933461563,0.0088231558326631,0.712652862071991,0.6694488525390625,-0.7296560406684875,-1.5928442150972784,2.8115064502507447,0.161694975169748,-0.0473912581801414,-0.0209274888038635,0.078683843277581,-0.0107748033478856,0.116465137136681,-0.0701150446357205
193,0.022382,-0.175641,0.179767,-0.027597,-0.084412,-0.717665,0.690702,-1.358904672449827,-0.2810094829887151,-0.2777501889318227,7.93936735086739,5.176254052385688,2.518573012973368,-0.3502969741821289,0.4257098138332367,0.2080923318862915,0.7927151263358477,0.3353376864474386,-0.5090551599163745,0.0037554975639225,0.1847544610500335,-0.1746954023838043,0.2129389196634292,0.2880750374607742,0.7045610585182904,-1.2139479199826717,-0.0786482617259025,-0.0028577758930623,-0.197370337125007,0.0062847533263266,0.0275303188505349,-0.1168986149168107
194,0.021869,-0.174184,0.183275,-0.021865,-0.075753,-0.720312,0.689154,-0.1876075611919164,-0.2460761167734861,0.0576198297977447,7.92970695759654,5.073684489271044,2.7473373449400067,-0.3883749842643738,0.357435792684555,0.1114415600895881,0.8000290844814135,0.3267174752669166,-0.5031704226344328,0.0053611354254595,0.1816622614860534,-0.175836831331253,0.3623688220977783,-0.3331200478456914,1.050749992904067,-0.5004606276869774,-0.1237121298909187,0.0084746582433581,-0.1269782199804205,-0.0444583632051944,0.0404990877507021,-0.1667897410254925
195,0.021629,-0.173123,0.18517,-0.018982,-0.070559,-0.720303,0.6898,0.0289753345936536,-0.0512152234524488,0.357952437415719,7.917679250672459,5.035793442294001,2.8498288743823763,-0.2118154615163803,-0.1093491911888122,-0.0585604757070541,0.8033009072283366,0.3214427362039355,-0.5013718563300128,0.0029144483353353,1.0070312023162842,-0.1038938239216804,0.4662061929702759,0.0325683906495571,1.4642501300185915,-0.6111553373292088,-0.1257632970809936,-0.0037465803325176,-0.0144330727240012,-0.0240911319851875,0.093059108841652,0.025885771080479
196,0.022394,-0.173763,0.185642,-0.020158,-0.069177,-0.721616,0.688533,0.2408580898642539,-0.0467465536057949,0.6858475902199744,7.931749277079104,5.04883237208724,2.786941917836666,0.0118069630116224,-0.34417524933815,-0.1047930717468261,0.8013068453449972,0.3203719196923122,-0.5052398815284562,-0.0013906428489059,1.1845333576202393,-0.3789242208003998,0.4330399334430694,0.1186328091651201,-2.4392612835884093,0.5556266345918178,-0.0794974043965339,0.0151601377874612,-0.1447720983489416,0.019632926210761,0.0076334180587116,0.0477329799604136
197,0.02653,-0.173296,0.188937,-0.011704,-0.065138,-0.726796,0.683657,0.4276993428587913,-0.1147048220664262,0.5386632248312234,7.937042707312107,5.0983846307635305,2.679593303751945,0.1250793933868408,-0.2044910639524459,-0.1132589131593704,0.7978719512708671,0.32282931146009,-0.5090776018922457,-0.0046531913945936,2.5328848361968994,-0.2292878031730651,0.3805347084999084,0.5346149723537266,-3.868217981907725,0.7567524335265159,-0.0384365916252136,0.025193266570568,-0.0758384911832865,0.0372802838683128,0.0183328452250745,0.0264453434752882
198,0.026021,-0.172079,0.190649,-0.008098,-0.064401,-0.725935,0.684693,0.1549228506863117,0.0864496184408664,-0.0145119249552488,7.930894706076383,5.134406376737356,2.6285312250345942,0.0562556907534599,0.0380793921649456,-0.0445256941020488,0.7962313200874653,0.3250623519372391,-0.510212373486921,-0.0057957141141417,0.6183655261993408,-0.2245061993598938,-0.0751024484634399,0.4378780609153211,0.3684153792411089,-1.2719964965865016,-0.029223633930087,0.0371239408850669,-0.0913467610989697,0.0663441866636276,-0.0386339697322575,0.0596121452592778
199,0.026591,-0.171572,0.192428,-0.005898,-0.060648,-0.727449,0.683451,-0.2071054578661918,0.1854857467323541,-0.4293558778941631,7.91404060190916,5.131587227663397,2.6842446366891264,-0.0777218788862228,0.206781655550003,0.0384419821202755,0.7980169216046195,0.3245272698067323,-0.5077633882033918,-0.0052384071515718,-0.868222713470459,0.4313961565494537,-0.4562457501888275,0.9139119572237132,-0.7756248917788267,-2.477106737858057,-0.0252231284976005,0.0110305678099393,-0.005134729685841,0.0480931587517261,0.0138043338083196,-0.0312309589001815
200,0.025546,-0.171445,0.194873,0.000923,-0.056544,-0.726729,0.684593,-0.1335936469316482,0.2854845825761556,-0.4341168086856603,7.907267162251472,5.108651757755875,2.747215179865062,-0.0770611464977264,0.0684610679745674,0.0376817546784877,0.8000303339161009,0.3227099699964491,-0.5057561505383726,-0.0045298418171222,-0.9332072734832764,0.4539964497089386,-0.6265515685081482,-0.1240820144817233,-0.812883486071229,-0.8007312759846449,-0.0298927910625934,-0.0357614122331142,-0.005134729685841,0.0217931661754846,0.0138043338083196,-0.0312309589001815
201,0.025167,-0.171527,0.195626,0.003865,-0.056635,-0.726612,0.684699,0.353413040420413,0.0209223765194416,-0.3872133109524845,7.9053867553323505,5.099228095850348,2.770042513222992,-0.1470289826393127,0.0155320046469569,-0.0429394133388996,0.8007487728677892,0.3209783169761979,-0.5057074830533863,-0.0058636189847206,0.1484515815973281,0.5080000758171082,-0.1125034838914871,0.3759223938703537,-0.776172588789463,-0.1253565644621849,-0.0399532355368137,-0.0011793681187555,-0.1496232281745411,0.0190552435815334,-0.0365630817423341,0.0055019407216605
202,0.025402,-0.171606,0.196344,0.004893,-0.056728,-0.726806,0.684478,-0.1329565180718898,-0.0213666131556034,-0.3884045665636658,7.898848293474316,5.094080211567879,2.798018315385282,-0.2273707091808319,-0.0488019548356533,0.0857100486755371,0.8016181701568178,0.3188222944576913,-0.5056610623557718,-0.0082111854138439,-1.4415839910507202,-0.5969598889350891,-0.5632888674736023,-1.1280272938519715,4.3902305161893365,1.4359475801199677,-0.0451672077178955,-0.0066364621743559,0.032610944299784,0.0278044734150171,0.130585176697513,0.037674693962757
203,0.02521,-0.172208,0.197092,0.004537,-0.056665,-0.727102,0.684171,0.2438537645488977,0.0861257933139801,-0.0750324446305632,7.893887456196546,5.030282569918036,2.924581040766835,-0.4135761559009552,0.5916280150413513,0.1939747929573059,0.8056316182730011,0.313137245653744,-0.5028249473273023,-0.0083523254087419,-0.8639459013938904,-0.4195521175861358,-0.2000905275344848,-1.2111704180933534,-0.048579614251852,1.7330992196142672,-0.1036343201994896,-0.0001451161224395,-0.0997700320566073,0.0153228240087628,0.0316230269576888,-0.1693130124254152
204,0.027573,-0.1737,0.197146,-0.003358,-0.053077,-0.732069,0.679151,-0.6682189945489168,0.3939093014597892,-1.123680789080262,7.878207656505704,4.890841950523853,3.191223267967999,-0.636955976486206,0.4348567724227905,0.3027039170265198,0.8140419957231937,0.3023414499076386,-0.4958654497735505,-0.0065439267013364,0.96370267868042,0.100594125688076,-0.0186654720455408,0.393259751509875,-1.339605513218045,1.196078501293063,-0.2213378548622131,0.0550017207860946,-0.1171563068717718,-0.0134484516456723,0.0160055016809841,-0.2291544272627681
205,0.027206,-0.172779,0.200462,0.003242,-0.047044,-0.733148,0.678433,-0.2855401121556759,-0.1239732934102416,-0.4550783481717109,7.87411132710278,4.703931431685388,3.470126426327228,-0.6631799936294556,0.4921662211418152,0.3333015441894531,0.8227384707952907,0.2883231741766271,-0.4898392960108148,-0.0053470293772893,-0.0350492745637893,-0.0376074239611625,0.0465916916728019,-0.2092404240682721,1.3161685235291718,-0.0525730678021907,-0.2443867623805999,0.1029172018170356,-0.1783460310455411,0.0118579510599374,-0.1109634618473239,0.0301989170052809
206,0.02636,-0.171384,0.203813,0.012278,-0.042131,-0.731215,0.680734,-0.1806885755836963,0.2697399009555578,-0.3499444875270128,7.881039665061235,4.498462342849374,3.717987965212762,-0.8028971552848816,0.1777233332395553,0.3441048264503479,0.8303873562838638,0.2734955324861128,-0.4854230724645743,-0.0046361837224867,1.501355767250061,0.2007437348365783,0.143332153558731,0.0955503320023417,-0.3070826664000749,-0.1904056674778461,-0.2065857499837875,0.0936012715101242,-0.0110965521373669,0.010262188501656,0.0539791626072954,0.0902905026448424
207,0.023674,-0.173047,0.201513,-0.001543,-0.053949,-0.724407,0.687256,0.5518669897973537,-0.176752112917602,0.6758975663527846,7.891883130636811,4.1529219355002045,4.079435551267862,-0.5059617757797241,0.2939092516899109,0.1006454974412918,0.8413592192678181,0.2457224847134055,-0.4812765649171726,-0.0103874150244045,2.004427433013916,0.0648976415395736,-0.0243367422372102,-0.2376915886573493,-1.543512467303872,1.5707126089185477,-0.0440775454044342,0.0850790739059448,0.0340451760706957,0.0703987851738929,-0.0321502109032589,0.2621128584095277
208,0.022464,-0.173557,0.199504,-0.007347,-0.064164,-0.72261,0.688233,0.549811226311326,-0.2594911864027381,0.5542652831107377,7.855333561396598,4.048165675996244,4.251645636841655,-0.329369306564331,0.3201801180839538,0.0790510326623916,0.8465604962795655,0.2379361913030637,-0.4760386169558484,-0.0104437446550737,4.493697166442871,-0.1111579164862632,-0.2119511067867279,0.0225740892492234,-3.010501082375645,-0.3193570415616035,-0.0082959197461605,0.0627480447292327,0.1006332978224381,0.0873860195279121,0.046144432127336,0.1594947799780406
209,0.020843,-0.173555,0.19749,-0.008429,-0.076512,-0.719054,0.690678,0.4933364748954773,-0.2120437910512089,0.6015864217340946,7.8205287899971,4.008050815489888,4.352615071283281,-0.1385118961334228,0.0915844067931175,-0.0783043056726455,0.8495882192380728,0.2344012522635328,-0.4723710858353472,-0.0110277084390922,4.616865158081055,0.2962530851364136,-0.0520105138421058,1.3091912318624557,-1.43739719440639,0.9546563478052617,-0.0115394461899995,0.0691329538822174,0.0640625442303018,0.0545552000403404,-0.0103662331353989,0.0729857092677848
210,0.023649,-0.171897,0.19891,-0.013545,-0.070247,-0.725559,0.684431,0.1538099210083484,-0.3391410617008805,0.5442652826219797,7.796435966747999,4.031448934473097,4.374173115357756,0.0330636911094188,-0.0011432452592998,-0.1083316504955291,0.8502109400372954,0.2347052885262771,-0.4710548416150433,-0.0127324733384604,1.850630640983581,0.2092286199331283,-0.1713032126426696,-0.6259295664824545,2.006235485009849,-2.481360888171196,-0.008316395804286,0.003791470080614,0.1669097872085869,0.0366491377353668,0.1419363543332088,0.0646618663968984
211,0.02477,-0.169052,0.205672,0.003327,-0.05406,-0.728216,0.683204,0.0485901356458663,-0.0897594736412167,0.1860775751456618,7.783740735825896,4.081940812087058,4.349886523102224,0.0974084660410881,-0.042450338602066,-0.1359688490629196,0.8494742723964263,0.2376487293417108,-0.4708933919965194,-0.0132611220475862,1.253730297088623,0.2631987035274505,-0.0545475706458091,-0.0289703661575913,1.0070122657254337,-0.910040961009264,0.0115811480209231,-0.0360485538840293,-0.0083073004447505,0.0162455849349498,0.1077700361008755,0.0401910036156419
212,0.024983,-0.166382,0.209247,0.015386,-0.0429,-0.728996,0.682999,0.0448147087603807,-0.0749132021650672,-0.0992097312927246,7.765071106669306,4.125154515391588,4.342482968847453,-0.046510424464941,0.0369252450764179,-0.1133314594626426,0.8492262930996889,0.2394541240735622,-0.4703793156926976,-0.0148254884111218,0.884565532207489,0.1998503506183624,0.3942793011665344,-0.1468522108249366,0.7033209953293204,0.3479658809304237,-0.004568466451019,0.0125438347458839,-0.1095121487941592,0.0456497222185134,-0.0105082936458347,0.0192336699472507
213,0.029238,-0.16674,0.208227,0.012195,-0.047447,-0.735988,0.675219,-0.1632908660590648,0.0796595199093222,-0.0794821175158023,7.734205428284406,4.12605497136265,4.3963773483812805,-0.0828429162502288,0.1975961923599243,-0.022051602602005,0.850834887479077,0.2388599984807073,-0.4677531840021621,-0.0152641111404987,-2.0972976684570312,-0.0610506497323513,0.3712744414806366,0.1879587127171456,3.7769600864022967,-2.1694225984334943,-0.0187687426805496,0.0228216126561164,-0.0189725587675638,0.077170044183731,0.0313653258695732,-0.0241304358627297
214,0.029293,-0.166287,0.210864,0.025233,-0.049484,-0.732299,0.678714,-0.0263771347939968,0.3024997225239872,-0.0551245058506727,7.67240977410674,4.122733133463561,4.506394304892421,-0.0932163074612617,0.05531532689929,-0.0650784894824028,0.8541174805265415,0.2376204143432034,-0.4623574051713584,-0.0156699976494862,-1.824429392814636,-0.2413570433855056,-0.2663767337799072,0.7887870095603168,-1.5494289978712796,0.2368254733473062,-0.0097553534433245,0.0429319813847541,-0.014261681087804,0.1517652422189712,-0.1269559442165307,0.0020260972876596
215,0.029106,-0.165774,0.212606,0.029323,-0.046614,-0.730879,0.680281,0.051466567865014,0.1028656234517693,-0.191267545004189,7.665942623919248,4.115118859067559,4.524323637075722,-0.1898113489151001,0.0009075439884327,-0.0108820041641592,0.8546206275985981,0.2361403204700303,-0.4621270850858858,-0.0173161806762093,0.0200046561658382,0.1245270445942878,-0.3226320445537567,0.2158591115556657,-2.250914302206039,1.3789046734273434,-0.0699410885572433,0.0875643342733383,0.0060135697634279,0.1842849999666214,-0.1473032881938386,0.0014456270936498
216,0.028342,-0.164826,0.215488,0.038474,-0.038861,-0.728983,0.682344,-0.2797831560641527,0.2312777760922908,-0.2781839041739702,7.658712672665715,4.058982253564894,4.586849066832661,-0.2716721892356872,0.2375638037919998,0.1589273959398269,0.8564809946562973,0.2322410041180929,-0.4606515951759007,-0.0174545989509042,-1.4765875339508057,0.0298826675862073,-0.6065995097160339,0.5579869339823722,0.7326420746207237,0.2134960356861353,-0.0998478680849075,0.0457638017833232,0.0499329924890305,0.1382105499505996,0.001561200885137,-0.0486329701405949
