time_imu,phone_acc_x,phone_acc_y,phone_acc_z,phone_gravity_x,phone_gravity_y,phone_gravity_z,phone_gyro_x,phone_gyro_y,phone_gyro_z,phone_ori_w,phone_ori_x,phone_ori_y,phone_ori_z,watch_gyro_x,watch_gyro_y,watch_gyro_z,watch_acc_x,watch_acc_y,watch_acc_z,headphone_gyro_x,headphone_gyro_y,headphone_gyro_z,headphone_acc_x,headphone_acc_y,headphone_acc_z,frame_imu
1733317719272460500,-0.8778485640652477,15.38747561763525,-4.3335400761961935,-0.4754740704685449,9.732789229497312,-1.1032432734683155,-1.1078561544418335,0.3073018193244934,-0.4767547845840454,0.2218050829255341,0.2823541619129437,-0.6903085398543838,-0.6281344438857079,1.680312156677246,1.3303804397583008,-1.3197624683380127,-1.18737530708313,1.0433200597763062,-0.8245590329170227,0.2730248272418976,0.2734008431434631,0.5474649554461241,0.0251525342464447,0.0542222963139414,0.1755745935708284,0
1733317719312460500,2.7109225079953667,11.915272969555854,-6.58852615788579,-0.8172587054807692,9.767065593108534,-0.3269756998717785,-3.023752212524414,0.0644399002194404,-1.378687858581543,0.2250330860675114,0.2885645542337937,-0.6583324532373026,-0.6577910480058108,2.8127975463867188,0.8113871216773987,-1.9363163709640503,-0.8249323964118958,0.8784822821617126,-0.5722920298576355,0.2880886197090149,0.0850674957036972,0.8932605066001414,-0.0581462532281875,0.289566298931837,0.531217292739451,1
1733317719352460500,3.223021843288839,-0.1730956362366676,-3.220650145721436,-1.461787100905925,9.64739993376434,0.980425506768748,-3.3463916778564453,-0.1541426330804824,-1.8116466999053955,0.2215831604185108,0.2940796304461961,-0.6029339773541805,-0.7077349019383903,2.369231939315796,0.1662038266658783,-2.3042690753936768,-0.0973384976387023,0.4725250899791717,0.2657720446586609,0.3079524338245392,-0.0001161694526672,0.4354091865837574,-0.0532336309552192,0.0650302521847188,0.672095470656082,2
1733317719392460500,0.752304221946001,-11.207856521606445,-0.5448042118042707,-2.0730057127296924,9.35983211517334,2.0655714710757134,-2.11714506149292,-0.3280543386936188,-1.3899664878845217,0.2113292774495138,0.2973502801593423,-0.5534148322228646,-0.7487688640514923,1.1025210618972778,0.1021002084016799,-1.6310136318206787,0.687986433506012,-0.1206825971603393,0.8889403939247131,0.2680051922798157,0.0173764061182737,-0.3110018856704235,0.0124877542257308,-0.3813014565601945,0.1469663387238979,3
1733317719432460500,-0.849519564551115,-17.6344899897933,0.3619894378468394,-2.3751712348632514,9.160963155254722,2.570159407825768,-0.6673538088798523,0.2043378949165344,-0.1649402529001236,0.2044047079877215,0.2986070957052187,-0.5289538110013787,-0.7676330661515631,0.4671757519245147,0.2407808154821396,-0.7034682631492615,1.2844674587249756,-0.3957038223743438,0.9761700630187988,0.1673856377601623,0.0721543952822685,-0.876616245791316,-0.041827879846096,-0.5863152028441428,-0.602002455189079,4
1733317719472460500,2.040283008301258,-18.45406800506711,-0.936402605973184,-2.326240907477587,9.149752609932422,2.6534941091164943,0.1161862984299659,0.0741040334105491,0.3501958847045898,0.2129267369548776,0.2997537084153694,-0.5242682146776412,-0.7680839139174966,-0.3253982961177826,0.3173891603946686,0.7613842487335205,1.4548842906951904,-0.7827849388122559,0.9571411609649658,0.0781234204769134,0.1125639677047729,-0.6167489195525646,-0.1003767848014831,-0.4233628480244427,-0.4077515104599297,5
1733317719512460500,-0.1293555709704756,-13.724347175347804,0.6844529209911823,-2.140646878065169,9.253773540899155,2.440429450584948,1.1276869773864746,-0.2905287146568298,0.6253259181976318,0.2141019182501052,0.294725983587325,-0.5373167789784582,-0.7606494936892955,-1.3600765466690063,0.4679330587387085,1.3294354677200315,1.0394024848937988,-0.6866552829742432,0.8756760954856873,-0.0111387968063354,0.1529735326766967,-0.3562620001107454,-0.1589256823062896,-0.2602798525623977,-0.2136548795096576,6
1733317719552460500,-0.2844661993138492,-5.8818467920392745,1.6195546734988688,-1.7748463574975728,9.477039859971404,1.790536824712902,2.321196794509888,-0.1541168093681335,1.204971194267273,0.2155766653204912,0.2891283347221035,-0.5701866668128371,-0.7381183229486752,-2.398421049118042,-0.3386242389678955,1.5532736778259275,0.5073325037956238,-0.3357739150524139,0.5008774995803833,-0.1357684433460235,0.0780989304184913,0.2001291891127824,-0.0035906434059143,-0.236390442930907,0.7661356903564185,7
1733317719592460500,0.8900681402996182,3.9707980664163824,-0.3629068449527025,-1.1604632902935146,9.710269354653358,0.7310154963321983,2.216740131378174,-0.2601158618927002,1.2690763473510742,0.2205807870899237,0.2802399362499719,-0.6198339771526374,-0.6990103983233221,-2.4602694511413574,-0.2474702596664428,1.4117926359176636,-0.4472336173057556,0.2814535498619079,-0.0318382978439331,-0.0815363526344299,0.0301838964223861,0.7180483166009187,0.0938338935375213,0.2889589806884527,0.5284599568553269,8
1733317719632460500,1.882260876425356,6.322895445814728,-3.6154771465480326,-0.7577344303011894,9.777214062157272,-0.0482504827621858,1.5139375925064087,-0.0484271720051765,0.7403457164764404,0.220306244712754,0.2727621861290778,-0.6542636164944106,-0.6700784619553093,-1.7086188793182373,-0.7240927815437317,1.1600223779678345,-0.3197376728057861,0.413568913936615,-0.3238256573677063,-0.0263911820948123,-0.0623763799667358,0.350723655205965,-0.1042383164167404,-0.0330490137733519,0.1654924677565693,9
1733317719672460500,2.367572304166853,7.042823584812879,-0.3734347417730838,-0.5297234739851207,9.776144971621036,-0.5628478545496239,1.3298395872116089,0.0157177913933992,0.3506844639778137,0.2224305322668736,0.2724591488979875,-0.6741389068015027,-0.6494825259882266,-1.1487611532211304,-0.731086254119873,0.6326136589050293,-0.3035891652107239,0.5267334580421448,-0.2890845537185669,0.0053300857543945,-0.1276133954524994,0.3951970031827688,-0.1136469319462776,0.0743576141089201,0.4532646498132496,10
1733317719712460500,0.482889351693727,4.769623801040649,-3.0068285313427445,-0.4999477462613955,9.74911317231059,-0.9355239965077488,0.4589636027812958,-0.2426649928092956,-0.0662961080670356,0.2149232550501065,0.2721088710292442,-0.6882261344480662,-0.6372671414783403,-0.8373467922210693,-0.4085800051689148,0.3267907500267029,-0.4697779417037964,0.2885427474975586,-0.2790846228599548,0.0253604017198085,-0.0909517928957939,0.0232084416300058,-0.0473771914839744,-0.2152318465027958,0.1375315709024667,11
1733317719752460500,-0.145239770659618,3.030490561959147,-0.7175672550857066,-0.535312051239796,9.743772395804523,-0.9709436118699608,-0.112683929502964,0.0335205011069774,-0.0907723680138588,0.2127356671220016,0.2731664793556401,-0.6891185836954262,-0.6365840405946183,-0.0351872481405735,-0.1667032986879348,0.1006461456418037,-0.2455640435218811,0.2610889077186584,-0.2042050659656524,0.0444456189870834,-0.0515938177704811,-0.012913257586956,-0.0498399883508682,-0.1688626748420298,-0.0038267186813056,12
1733317719792460800,-0.1409782407576218,0.9862158536732196,0.2406161708671599,-0.5347851047562435,9.751029819586872,-0.8954306902460754,-0.201314628124237,-0.0172655507922172,0.0638146549463272,0.2139328428196366,0.2724544279700306,-0.6866023929536449,-0.6392014099956553,0.0951670259237289,-0.0709611549973487,0.0763386711478233,-0.1247596144676208,0.1158894896507263,-0.1230632066726684,0.0543528124690055,-0.0345247313380241,-0.1121060377448797,-0.0740906894207,-0.1734019257068633,-0.1564472837746143,13
1733317719832460500,0.2455317442310974,-0.0625549481123685,0.6063841774046421,-0.517872256139107,9.755630006858706,-0.8543343444216996,0.0129138249903917,-0.0736086666584014,0.0300544295459985,0.2143722143199248,0.2706709773822111,-0.6857814155324539,-0.6406915851279872,-0.0895687341690063,-0.0483167245984077,0.1158197671175003,0.0137502551078796,-0.0238209962844848,0.0137712061405181,0.0642600059509277,-0.0174556486308574,-0.2112029563128948,-0.0983413904905319,-0.1778447304598987,-0.309069602433592,14
1733317719872460500,0.2560865655910223,-0.4617915820747613,0.0998738212246447,-0.4979008967341854,9.753986915826795,-0.8844238508023321,0.0843818858265876,-0.0061199087649583,0.0864721164107322,0.2139845206341394,0.2696268102333736,-0.687309572711316,-0.6396229269339929,-0.1115198358893394,-0.082030214369297,0.1252267211675644,0.046896755695343,0.000761330127716,0.0235634446144104,0.040918543934822,0.0185643136501312,-0.2484235566824674,-0.0784860625863075,-0.1323911392740905,-0.353573491679132,15
1733317719912460500,0.4326789944348856,0.2760492302328348,0.0579986730474978,-0.4717343359509482,9.753709852451086,-0.9016555561102926,0.0308751221746206,0.1221778616309166,0.038451250642538,0.2152537909975931,0.2695936572331427,-0.687961407470483,-0.6385093010020128,0.0296199768781662,-0.1444555073976516,0.0544805116951465,0.0156714916229248,0.0177140235900878,0.0046379268169403,0.0225400626659393,0.0589144453406333,-0.1520528482079506,-0.0617633983492851,-0.1566620955690741,-0.3396256303474307,16
1733317719952460500,0.592335887905769,1.944172996589541,-0.3698046416424214,-0.4570632749112323,9.7513513066262,-0.9341371452592312,0.146041601896286,-0.0049971845000982,-0.0283795818686485,0.2164045594461071,0.2706454012970301,-0.6887516282114363,-0.6368212200703156,-0.3357052505016327,-0.1064600273966789,-0.1236422806978225,-0.09401535987854,0.0598003268241882,-0.0131214559078216,-0.0060806740075349,0.0647125989198684,-0.1843821694046258,-0.047684259712696,-0.2285208785995841,-0.207101366212964,17
1733317719992460500,-0.1678316512938588,6.086377430981397,-2.252753208070993,-0.5264867570862174,9.747525026336312,-0.937520650217682,-0.3103625178337097,-0.1407686918973922,-0.2737227082252502,0.2133098472396043,0.2722927156974444,-0.6882273801698843,-0.6377292584123394,0.4346446990966797,0.2361545264720916,-0.5583242177963257,-0.3563078641891479,0.3140422701835632,-0.3107690215110779,-0.0347014144062995,0.0705107450485229,-0.2165145067244768,-0.033605121076107,-0.3003697247579693,-0.074599167779833,18
1733317720032460800,-2.160655354610085,13.300705583447217,-2.5463737508296966,-0.6426553680948913,9.765929867076872,-0.6196589617803693,-1.229457974433899,-0.40025794506073,-0.2138806134462356,0.2100812030270623,0.2688845271260305,-0.6777130125474565,-0.6513616504939826,0.9830353856086732,1.2973860502243042,-0.9389004111289978,-1.1877939701080322,0.6955493688583374,-0.613402247428894,-0.0707070380449295,0.2632443308830261,0.1427004979729652,-0.036592811346054,-0.1093958289381116,0.0522707238547503,19
1733317720072460500,2.9898402794018386,12.644598466974497,-4.554295289230346,-0.7567983184948563,9.776800805181264,0.1087117099983152,-2.675328731536865,-0.285438984632492,-0.5544065237045288,0.2106792579447188,0.2595668867173102,-0.6535153223846294,-0.6790854548650443,2.31683611869812,1.0551677942276,-1.54262375831604,-0.8537698984146118,1.0048130750656128,-0.6555449962615967,-0.0938569530844688,0.2224126756191253,0.1907727472245693,-0.1502579599618911,-0.0008329436928033,0.3261146991282701,20
1733317720112460500,3.109365945753455,1.977669023478031,-3.645212359598279,-1.1045214767105878,9.647827219265698,1.3674287551671265,-3.396772623062134,-0.6080638766288757,-1.053350806236267,0.20929805159606,0.2523938856906004,-0.6054567363312926,-0.7251991814411692,1.408759832382202,0.316675454378128,-2.222939729690552,-0.2932305335998535,0.5142875909805298,0.0508543848991394,-0.1170068681240081,0.1815810203552246,0.2401741992533206,-0.2639231085777282,0.1074020978376269,0.5998721651621163,21
1733317720152460500,3.0132775613516567,-8.962852320227027,-0.8036901257902384,-1.4739553853444751,9.360439433416724,2.525869015200436,-2.359337329864502,-0.0460115186870098,-1.100265622138977,0.204430498460749,0.2467327087478201,-0.5570812243149555,-0.7661538106591325,1.6756879091262815,0.1746776849031448,-1.9396014213562007,0.6838917136192322,0.1047227382659912,0.7786159515380859,-0.1786372363567352,0.1432384699583053,0.130320908871293,-0.1073153614997863,0.2534122318152338,0.3772285080328583,22
1733317720192460500,0.639071372128278,-17.044090147984026,-0.5282978981614113,-1.866997694711387,9.120479169175027,3.082461864475906,-0.7321924567222595,0.124797984957695,-0.811086118221283,0.1954703084921718,0.2522762322941368,-0.5283889534191176,-0.7867357891366847,0.737148106098175,-0.0728128030896186,-1.2240967750549316,1.266369104385376,-0.6167116761207581,0.9980770945549012,-0.1956242471933365,0.0914903432130813,-0.7259072134077549,-0.0877288728952407,-0.2439005263000726,-0.3952507791966199,23
1733317720232460500,0.0594046673879027,-19.48891257283092,-2.9309391776219007,-2.047490309331566,9.044358637046814,3.190261144937575,-0.0263810381293296,0.0107208285480737,-0.1503287106752395,0.1911484805034638,0.2576726201038422,-0.5205254795508175,-0.7912777265565963,-0.2600626945495605,0.3050288259983063,0.4851439297199249,1.4540085792541504,-0.8162683248519897,0.9568397998809814,-0.2651846408843994,0.2266068160533905,-1.5476760167241097,-0.2158771902322769,-0.8547213709779083,-0.9217036340132356,24
1733317720272460500,-1.2749294812984764,-14.42380944942236,0.1110319787725806,-1.9965978880926964,9.101949825271964,3.055898267199099,0.9101804494857788,-0.1474574506282806,0.3854700326919555,0.1880063226677114,0.2553094936312344,-0.5282136001240911,-0.7876936232965364,-1.086559534072876,0.462501585483551,1.309110164642334,1.1642731428146362,-0.7516753077507019,0.8738662004470825,-0.2300208061933517,0.2770842015743255,-0.6056973641842603,-0.1962562352418899,-0.4334486271005123,-0.1586661288678646,25
1733317720312460500,0.5758380863629281,-6.3824365990638725,1.8981950892686843,-1.686598165202141,9.343914415073394,2.452966860596836,2.313618421554565,-0.0409904867410659,0.9978048205375672,0.1920934462280526,0.25191575259762,-0.5580967151537084,-0.7669202577610952,-2.0104191303253174,0.0445784889161586,1.7215276956558228,0.5835701823234558,-0.3876844346523285,0.5922363996505737,-0.1265099346637725,0.0411706417798996,0.1918073509693145,-0.1132393330335617,0.0035360651716589,0.3870844238758087,26
1733317720352460500,0.8648262931458651,2.819408601677418,0.7267487787984311,-1.3515972720459102,9.584051789447663,1.5778201028361916,2.2986080646514893,0.17051662504673,0.8056731224060059,0.1939895714566726,0.2507809457350367,-0.5972122581997236,-0.7367594481262552,-2.094782590866089,-0.1850931644439697,1.624906301498413,-0.2152991294860839,0.1144018173217773,-0.0647584199905395,0.0321344286203384,-0.0316671729087829,0.5818067855089902,0.0480747073888778,0.2035067027218639,0.6461211445093155,27
1733317720392460500,0.5192337902832777,6.041552785348892,-2.342216036853194,-1.0610716265626252,9.722918408346176,0.7137095567442476,1.866376876831055,0.4174942672252655,0.7528706192970276,0.1983813410731478,0.2544501952922942,-0.631558419765855,-0.7050063470718054,-1.0900448560714722,-0.5871099233627319,1.228127360343933,-0.2308725714683532,0.5438423752784729,-0.3573145568370819,0.0764051228761673,-0.0816982984542846,0.5334978048920631,-0.0201903581619262,0.3203341429654509,0.4123926142640411,28
1733317720432460500,2.251941014905274,6.449550817915797,-0.2213017410010099,-0.7260862963017076,9.779694188535212,0.0273713494461379,1.79917311668396,0.054164882749319,0.8109076023101807,0.2047422792359647,0.2536594536555798,-0.6589850765740306,-0.6778466302011155,-1.0756826400756836,-0.2748869061470032,0.978871524333954,-0.3784557580947876,0.4838751554489136,-0.2994647622108459,0.1206758171319961,-0.1317294239997863,0.4852677347302436,-0.0884554162621498,0.4372195970065891,0.1787418254300951,29
1733317720472460500,0.7575546898201108,6.19663228790164,-2.88523979498148,-0.5615293192969635,9.780023858880996,-0.4540728609235957,0.5710538625717163,-0.0194535478949546,0.1565027981996536,0.2025151404828483,0.2514080584101355,-0.6781926431350107,-0.6601789453780711,-0.5827555060386658,-0.2425544261932373,0.5387557148933411,-0.4755001664161682,0.339944839477539,-0.3146901726722717,0.0799431353807449,-0.0490381494164466,-0.1705015280902385,-0.1293508261442184,-0.2100928761791437,-0.0189522454902529,30
1733317720512460500,0.0980749185765162,4.395680013766884,0.3804278885960578,-0.5052388749394565,9.773205411037802,-0.632118118924275,0.5044826865196228,0.1451896280050277,0.1215661615133285,0.2041773197420238,0.253447432540548,-0.6841004708989966,-0.6527500101758392,-0.3111048340797424,-0.1749508827924728,0.2030196487903595,-0.2853255271911621,0.283381700515747,-0.2383972406387329,0.0763283744454383,0.0038012266159057,-0.1826350334763526,-0.1499058008193969,-0.215834269375354,-0.1690127508372068,31
1733317720552460500,0.1635125825183466,2.314074814996123,-0.7028267820715903,-0.4744595961963757,9.766467627215384,-0.7492571093350648,0.0738629922270774,-0.0173588972538709,0.0201511792838573,0.2037686831821211,0.2536807676664,-0.6883658553834775,-0.648287656990708,-0.1079946085810661,-0.1126922518014907,0.0800797492265701,-0.2048922181129455,0.1290037035942077,-0.1741065979003906,0.0727136060595512,0.0566406100988388,-0.1944423756480217,-0.1704607903957367,-0.2214059320278465,-0.3191819772556424,32
1733317720592460500,0.3140618212303147,0.453123706972599,0.0957131213486194,-0.480758257949166,9.766974992215632,-0.7385565593615174,-0.0661056190729141,0.0940636843442916,-0.0381137505173683,0.2045667343278814,0.25471164114634,-0.6875884559346047,-0.6484571073008307,0.0365780182182788,-0.1521218866109848,0.0099135776981711,-0.0079675316810607,0.0454877018928527,-0.0536020994186401,0.070197157561779,0.0258432626724243,-0.0848363380253315,-0.1358472853899002,-0.1231830928806215,-0.2571057525709271,33
1733317720632460500,0.0056789589518681,-0.7312994278401136,0.594118643136695,-0.472099187207967,9.766566995936632,-0.7494417451869696,0.1611660569906234,0.1128717884421348,0.0586269050836563,0.2060144801580097,0.255903569591823,-0.6875494594341987,-0.6475701178831272,-0.0772662609815597,-0.1068979054689407,0.120190218091011,0.0432299971580505,-0.0178451538085937,0.056069791316986,0.0618400089442729,-0.001674773171544,-0.0262783505946397,-0.0371968001127243,-0.0492244880266487,-0.2068111510947346,34
1733317720672460500,-0.0200853411734104,-0.3286626300454139,0.3071241674542427,-0.4487292348733172,9.76017115741968,-0.8414795390237122,0.2497221678495407,0.161372423171997,0.0490522384643554,0.2072347255265966,0.2578226270181971,-0.6902398197017797,-0.6435450815492644,-0.145835742354393,-0.1121321395039558,0.1240661144256591,0.0165691971778869,-0.0558234453201293,0.0281583070755004,0.0513697266578674,-0.0225413348525762,-0.1153641627579927,0.0377677828073501,-0.0719775871045887,-0.1690671113729477,35
1733317720712460500,-0.2065640079332515,2.52286837207973,0.1274982526659965,-0.419968602476269,9.75369991557896,-0.9270116042282432,0.1501209884881973,0.1936015337705612,0.0250996518880128,0.2094662995395423,0.260326844600593,-0.6924553211058121,-0.639421161842088,0.2150910347700119,-0.3211743235588074,-0.2275905162096023,-0.1303863525390625,0.110413372516632,-0.1472108960151672,0.0484568662941455,-0.0051450747996568,-0.2931225301086902,0.0776198059320449,-0.1938795541334897,-0.0772650259882211,36
1733317720752460500,-1.4168293304130437,8.827397555598615,-1.9053823704242705,-0.4226659518014639,9.755349436351656,-0.9082532738748936,-0.310127317905426,0.1981724798679351,-0.0374183431267738,0.2116093316890329,0.2623620639738094,-0.6909950637207434,-0.6394635248384675,0.3477899730205536,0.1215255707502365,-0.6278176307678223,-0.5940291881561279,0.3516796231269836,-0.3314171135425567,0.0102664604783058,0.1152520403265953,-0.2485346158415079,0.0754616931080818,-0.2752069341897964,-0.1128992339491844,37
1733317720792460800,0.9619343029189854,14.7776006755054,-3.411847255837917,-0.4911746206864714,9.774040692818163,-0.6303131153289229,-1.2583242654800415,-0.0982457175850868,-0.3820292949676513,0.2146485711121471,0.2633924444582256,-0.6802657158012585,-0.6494529482827408,0.978634238243103,0.975991189479828,-0.8474530577659607,-1.005884885787964,0.90182763338089,-0.8391169309616089,0.0320835374295711,0.130494087934494,0.9283341580688952,-0.0242481753230094,0.4196769991185516,-0.157451200120151,38
1733317720832460500,3.703528354966641,9.200785462555288,-5.684639043331146,-0.7884381961226463,9.772514506164192,0.2161325764684937,-3.044447898864746,0.0095675056800246,-1.2198002338409424,0.215210213787781,0.2634614637933625,-0.6477409687885811,-0.681692225698702,2.3938684463500977,0.7831374406814575,-1.6452715396881104,-0.7674599885940552,0.9276753664016724,-0.4404377043247223,0.0826935023069381,-0.1086158156394958,1.02228436139822,-0.0934814140200614,0.5806864031769335,0.5347413752123713,39
1733317720872460500,2.143634369443357,-1.821947715890408,-3.2661288713485,-1.3267626905187964,9.591730653512478,1.5520299741499124,-3.574093580245972,-0.1502474099397659,-1.4129530191421509,0.2134875729415177,0.2655983370303523,-0.5918834517894092,-0.7304482295042759,3.100598096847534,0.1479095667600631,-2.1612708568573,-0.1275309324264526,0.4839433133602142,0.1023553013801574,0.1338040232658386,-0.1713514924049377,0.4436287333965301,0.0799285843968391,0.4621452908832579,0.7718161471456289,40
1733317720912460500,1.4355124035730955,-11.576063226532936,0.1321545540392398,-1.777284836690873,9.25548326742649,2.710660934449732,-2.132052659988404,-0.6062006950378418,-1.1348885297775269,0.2063486347007153,0.2621575197702821,-0.5413577327289499,-0.7717678293631535,1.68179190158844,0.4397704303264618,-1.478010654449463,0.5943866968154907,-0.257235437631607,0.8268731236457825,0.1469750106334686,-0.1469837129116058,-0.3667874857783317,0.1193796619772911,0.1436051186624914,-0.0224143686428666,41
1733317720952460500,1.0545581530153751,-17.44480094615221,-0.9454773083105684,-2.013435771777481,9.076915337258576,3.1186642277136443,-0.2490674406290054,0.0054677347652614,-0.3151013553142547,0.1982971870848316,0.2618819143772619,-0.5219293466952585,-0.7872012823517363,0.260231077671051,0.2846284210681915,-0.754660427570343,1.4632903337478638,-0.5056356191635132,1.1612577438354492,0.0825732573866844,-0.0683898627758026,-1.178625846710801,-0.0688637271523475,-0.2998706891946494,-0.7407733586281537,42
1733317720992460500,2.3333646218776702,-17.628246126967667,-2.0923311754465104,-2.0487540456570685,9.075409608870745,3.0999910914257165,0.2906349897384643,-0.0305105689913034,0.0326556004583835,0.1970774696306897,0.2634867288005835,-0.5220337072478316,-0.7869028854838549,-0.2322992533445358,0.4891097843647003,0.7885159850120544,1.4040119647979736,-0.7831804156303406,0.9562662839889526,0.0716808065772056,0.0553514286875724,-0.8674912745714187,-0.2380172610282898,-0.2458572863910347,-0.66677697904706,43
1733317721032460800,-0.7098283313967287,-12.62761927512288,1.4269392210170626,-1.990831433520466,9.175181650221347,2.8324954622656104,1.3470566272735596,0.1518011391162872,0.5074704885482788,0.1960701851439904,0.2649489316245674,-0.5342143685923754,-0.7784430894461725,-1.2233909368515017,0.4555021524429321,1.3251838684082031,1.034430742263794,-0.6859989166259766,0.8930072784423828,0.0607883520424366,0.1790927350521087,-0.5552057788312434,-0.4071707725524902,-0.1917570820868015,-0.5930918573722243,44
1733317721072460500,-0.8744716349780559,-3.7260920689523216,0.9587234511137008,-1.6427321354687212,9.450179325574636,2.0410617375887927,2.54190993309021,0.0794218331575393,1.203988790512085,0.2013250525811496,0.2646703562833086,-0.5708628679233309,-0.7506886401306984,-2.117114305496216,-0.2455752491950988,1.600134015083313,0.420934796333313,-0.334311842918396,0.4896715879440307,0.0617644228041172,0.0843366160988807,0.0742874714821577,-0.3421778082847595,0.1151236320003867,-0.2127221287041902,45
1733317721112460500,0.7752242020234466,3.883061915296316,2.027614226994664,-1.211418109244108,9.668270287835597,1.10789241444841,2.426657199859619,0.3853752613067627,1.1599496603012085,0.2081583260545026,0.2638983170935755,-0.6114498229500286,-0.7163497983531109,-2.23018217086792,-0.0767633318901062,1.5430254936218262,-0.3832785487174988,0.2659332156181335,-0.1659833192825317,0.0627404972910881,-0.010419487953186,0.705563513559103,-0.2771848440170288,0.4219339842651039,0.1672214835062623,46
1733317721152460500,-0.9411441744770854,6.128560622194409,-2.709309227579832,-0.7099572915386408,9.777468913701176,0.2597414896356873,1.7427898645401,0.5010943412780762,1.5030319690704346,0.2212931081720754,0.262997269790877,-0.6462115024013289,-0.6813755106605501,-1.5313348770141602,-0.3699245750904083,1.301490306854248,-0.5096759796142578,0.5748895406723022,-0.4765933156013489,-0.0012197345495224,0.1642442047595977,0.3534592176496982,-0.3178765773773193,-0.0196166276831179,0.0076478844046592,47
1733317721192460500,2.9916420681267977,6.631155339300632,-2.179454163104296,-0.2188573252572677,9.79411668164134,-0.4447403844328597,1.5886478424072266,0.0712612196803093,0.8350992202758789,0.2333835428454899,0.2593597194202183,-0.6748392283059967,-0.6502744076522444,-1.0858399868011477,-0.3184542059898376,0.860741376876831,-0.3441978096961975,0.3501090407371521,-0.4183100461959839,-0.0340586528182029,0.0193337053060531,0.3765320502012967,-0.2318404912948608,0.0079782123375684,0.1483347044676542,48
1733317721232460500,1.4801128850609062,5.282540005674958,-3.1256407887279987,-0.0260843327097478,9.77878525699675,-0.7383015616871416,0.0873340368270874,0.5106661319732666,0.2527251839637756,0.2377844991235943,0.2582454360720339,-0.686259569817052,-0.6370366941608334,0.1818678230047226,-0.0908720642328262,0.4042626023292541,-0.3977580666542053,0.475020170211792,-0.2437345385551452,-0.0918776839971542,0.1503089219331741,0.2250292370915412,-0.0353652983903884,-0.0381766589853912,0.0749319068655371,49
1733317721272460500,1.7562886642828583,3.102322456982732,-1.589007559543848,-0.0056783904129988,9.77967957548797,-0.7267839231770485,-0.0822522938251495,0.0960343927145004,-0.2389682978391647,0.2434796039929565,0.2626426869506146,-0.6841596942115796,-0.6353439750646633,-0.0423761866986751,-0.0843665525317192,-0.0383419021964073,-0.2116941809654235,0.0402302742004394,-0.0687789916992187,-0.0907401666045188,0.0643246099352836,0.0241699801385402,0.0053881593048572,-0.0665831807151436,0.0183916889980435,50
1733317721312460500,0.3425750912701711,1.3287521107703446,-0.2028757844071835,-0.1282940426861867,9.78483213594556,-0.6410798624064773,-0.2932755947113037,0.0116934152320027,-0.3358897864818573,0.2408009310214366,0.2660257598111082,-0.6796442248451662,-0.6397881843592729,0.1008824408054351,-0.074328139424324,-0.2392581105232238,-0.1192864775657653,0.1419032216072082,-0.0454408824443817,-0.0551630593836307,0.0640515983104705,-0.0302227043062448,-0.0415031239390373,-0.0669186962798237,-0.0267974060326814,51
1733317721352460500,-0.2496598204791545,-0.2062888807862997,0.1270282970666885,-0.2368119562786072,9.78878175035417,-0.5422726840326563,-0.2668216228485107,-0.0627616420388221,-0.1953569054603576,0.2387651106630917,0.2687539396346754,-0.674847784898545,-0.6444711299033192,-0.134983092546463,-0.0857754126191139,-0.222229778766632,-0.0199713706970214,-0.0040946006774902,-0.0108915865421295,-0.0003825835883617,0.0101069584488868,-0.0003296703457832,-0.085590049624443,0.0097173110898584,-0.0236456640034914,52
1733317721392460500,-0.075958053309191,-0.476719686615467,0.8189771267712116,-0.3036728214239701,9.792110602515937,-0.4390467393685132,-0.2171307057142257,0.0954725816845893,-0.1235088482499122,0.2379356278486443,0.2697518550039811,-0.6705364204801545,-0.6488463590615952,-0.0200913865119218,-0.0763168260455131,-0.0703837946057319,0.0768945217132568,0.0020991563796997,0.0073812007904052,0.0358138792216777,-0.0539555326104164,-0.0506453146100044,-0.1353388726711273,0.044412776895985,-0.1576487685188651,53
1733317721432460500,-0.2197321718630381,-0.3070090166419744,0.5256594028839842,-0.2827506823665462,9.794031925967335,-0.4090915268920361,0.0009548037778586,0.0343802496790885,0.1007225289940834,0.2397624895561123,0.2694153223659257,-0.669532110250555,-0.6493504407544672,-0.1090550795197486,-0.0801355838775634,0.0765206292271614,0.0335793495178222,0.0091447830200195,0.0044214129447937,0.0654808580875396,-0.0916860848665237,-0.1067202530533075,-0.1620689928531646,0.0623243542268872,-0.1377180333852768,54
1733317721472460500,0.3083432609204202,-0.034377485898137,0.6161562143564224,-0.2398094210615381,9.79419091592133,-0.4321023270580917,0.2852756679058075,-0.2833377420902252,0.1150502860546112,0.2396353240417859,0.266951402266661,-0.6713926099838878,-0.6484935514527375,-0.2614344954490661,-0.0916582867503166,0.0733025968074798,0.0408398509025573,-0.0547341108322143,0.031156450510025,0.1143633350729942,-0.098484382033348,-0.1365402217775583,-0.1726570576429367,0.0829820884607732,-0.0975470587775111,55
1733317721512460500,0.4101598502432927,0.1636807421594858,-0.5191689083535224,-0.1979738377097994,9.789465640965105,-0.5455027519950643,0.1647993773221969,-0.1121704280376434,0.0810782313346862,0.2365236210082135,0.2638081469603726,-0.6769181348143394,-0.6451695542435965,-0.2274038344621658,-0.0918687805533409,-0.0075798626057803,-0.0251044034957885,0.0147297978401184,0.0127710700035095,0.1059241145849227,-0.0599904507398605,-0.1145581070721149,-0.1593959331512451,0.0817916365671902,-0.1258282736271619,56
1733317721552460500,0.4397898128207773,-0.029758009403944,-0.3753717377176508,-0.1882490374332293,9.78807447886765,-0.5731804479936138,-0.0220906250178813,0.3013316690921783,-0.0770032852888107,0.2370333320774079,0.2643980454016552,-0.6777298454902125,-0.643887488169195,-0.0596872642636299,-0.0322450809180736,-0.0158715490251779,-0.0174095630645751,0.0192165970802307,0.0498053133487701,0.0974848866462707,-0.0214965194463729,-0.0921457842558622,-0.1461348235607147,0.0809640997018665,-0.1542579570367932,57
1733317721592460500,0.1757580238463357,-0.024496727874875,-0.4496995046775788,-0.2429451800703071,9.7905937682122,-0.5055870307900011,-0.3013538718223572,0.3838811218738556,-0.1784207224845886,0.2412093912371062,0.270752508111271,-0.672659531076931,-0.6450117628730614,0.0951305404305458,-0.0851163417100906,-0.0175389517098665,0.0079104304313659,0.0134958624839782,-0.0140731334686279,0.0936425998806953,-0.0320365875959396,-0.0235930570334196,-0.1323325634002685,0.1166167201023548,-0.0883291485771536,58
1733317721632460500,0.0807830988454632,0.1897539255708455,0.7351800686657428,-0.2848888999716378,9.793020703098176,-0.4312663146253675,-0.0266926083713769,0.3295373618602752,-0.0739185065031051,0.2451190291579234,0.275682402028751,-0.6678230877169881,-0.6464737577770782,-0.309260606765747,-0.0881726369261741,-0.0977471023797988,0.0044089555740356,-0.0052793622016906,0.0422164499759674,0.0898003131151199,-0.0425766520202159,0.0452618680059909,-0.1185303106904029,0.152463694031164,-0.0225271813675761,59
1733317721672460500,-0.310117613649182,-0.2994663461774587,0.0061912923881784,-0.2902282882382161,9.79232570657134,-0.4432833174923434,0.0248367208987474,0.4196735322475433,-0.0205382704734802,0.249412408185715,0.2808111339305298,-0.6661428269562009,-0.6443541206476054,-0.205532893538475,-0.0668429508805275,-0.0386004969477653,0.0227477550506591,0.0299431085586547,-0.0314738154411315,0.1267222613096237,-0.0607237294316291,-0.0342810397863388,-0.1097153723239898,0.0923428411979228,-0.0144695471182465,60
1733317721712460500,-0.2161095061201602,-0.1319195762395858,0.1760334067216143,-0.2863738047671504,9.791925893598794,-0.4545084758618846,-0.0137812634930014,0.4640181958675384,0.0052893655374646,0.2548978488142092,0.2865357796633121,-0.66413156140055,-0.6417582708811213,-0.3818717002868652,-0.0317234732210636,-0.0678778886795044,-0.0048996806144714,-0.0244635343551635,-0.014413833618164,0.1480900049209594,-0.0565758422017097,-0.1315688631057739,-0.1007650345563888,0.0105592418067157,-0.0304524214088916,61
1733317721752460500,0.0638012035801075,0.1943523592770099,0.23935122896526,-0.2707498634493909,9.79171254310906,-0.4684460349952802,-0.0038572424091398,0.3590935468673706,0.0778703242540359,0.261647295034688,0.2928661085256582,-0.6619014605315823,-0.638479915844714,-0.3123722374439239,-0.1508556604385376,-0.0508641526103019,0.0058647990226745,0.0025693178176879,-0.092686504125595,0.145581379532814,-0.0357395112514495,-0.1123994677335023,-0.0837308391928672,0.009370616544038,-0.1217968261539935,62
1733317721792460800,0.3957674234818667,0.2057943752676248,0.3354991980671882,-0.2172497256638482,9.792840670356156,-0.4727167345844209,-0.0174058079719543,-0.1302843987941742,0.1055693328380584,0.2639695807531248,0.2917823047525952,-0.662544287174817,-0.637352533961368,-0.1823926866054535,-0.1998899579048156,0.0310667306184768,-0.020868957042694,-0.0362908244132995,-0.0473779439926147,0.1314853131771087,-0.0288667939603328,-0.1091167928010225,-0.0611439421772956,-0.0427731199301779,-0.1377390761733055,63
1733317721832460500,0.0885909047858789,-0.0236094236463308,0.1415852667400613,-0.1650557385734282,9.795094002240896,-0.4463965176094323,-0.0482429154217243,-0.0784263536334037,0.1434423923492431,0.2636100271572603,0.2871163566341981,-0.6635692024496427,-0.6385529473613357,0.051029659807682,-0.1639363169670105,0.0564105063676834,-0.0120112299919128,0.023343026638031,0.0624234974384307,0.1054446101188659,-0.0118896253407001,-0.1180377658814191,-0.0468620769679546,-0.0719519412066787,-0.1742988745465874,64
1733317721872460500,0.130420524187712,-0.2154781494140625,-0.5756780004303902,-0.1233873010826762,9.798717453435064,-0.3745200527917594,-0.299287736415863,0.0090304752811789,0.1254657059907913,0.2665686730109864,0.2853039147700676,-0.6615866425191939,-0.640191968326216,-0.0161014385521411,-0.0782615765929222,0.0666371062397956,-0.0363943576812744,-0.0531644821166992,0.0437923073768615,0.0576470494270324,0.0098532419651746,-0.0813993493139743,-0.0392762646079063,-0.0841843403900042,-0.163605631096661,65
1733317721912460500,0.338436310965009,0.1211526830315589,0.4517384266266599,-0.069238216135418,9.80056804973781,-0.3383131595093757,0.0964501872658729,-0.3348484635353088,0.1550186425447464,0.2667755087609731,0.2808276719038322,-0.6621064791172977,-0.641546319775077,-0.0117852538824081,-0.0660741552710533,0.0862821862101554,-0.016973078250885,-0.0521057248115539,0.0687812566757202,0.0570295117795467,-0.026502413675189,-0.0458183328449726,-0.0305491313338279,0.025695509205386,-0.0610492197245359,66
1733317721952460500,-0.4849490607025101,-0.2236503499537706,-0.5278794170210138,-0.0366878977153799,9.798961783584952,-0.3865563083484769,0.0539906434714794,-0.1681810170412063,-0.0277443416416645,0.2633555881764477,0.2764440471481068,-0.6657984501499364,-0.641042216147385,0.0931805744767189,-0.0936031937599182,0.068167358636856,-0.0036002397537231,-0.035572350025177,0.0422717928886413,0.0772916674613952,-0.0041413996368646,-0.1952636289030313,-0.0378624089062213,-0.0300995893832296,-0.0972428151339292,67
1733317721992460500,0.3820525306558236,-0.2595166131049394,0.0481587584912776,-0.097890848980192,9.799362765601275,-0.3650908013956621,-0.1242877021431922,0.0550587587058544,-0.274720698595047,0.2617653612871664,0.2783473509382333,-0.6641816030900073,-0.6425452976274034,0.2458217740058899,-0.1407843977212906,0.1395579129457473,0.0079341530799865,-0.0299614071846008,-0.0367859899997711,0.0986803919076919,-0.0141592575237154,-0.0878530554980039,-0.05229252576828,0.07481229907386,-0.1384226745232939,68
1733317722032460800,-0.3858620790066197,-0.2370885081976652,0.1852139440536498,-0.1854543104144744,9.79788392522037,-0.3707646823136136,0.1878570914268493,0.3873912394046783,-0.1629633903503418,0.2612403028050865,0.283890978083978,-0.6620495834625557,-0.6425338824360186,0.1235113143920898,-0.1192114055156707,0.0598043724894523,0.0123339891433715,0.0254664421081542,0.0235647857189178,0.0646614283323288,0.0188874565064907,-0.1039624787777662,-0.0151551030576229,0.0096192575428634,-0.1588759722262621,69
1733317722072460500,-0.4922320207849144,0.546993246281147,-0.9756196408569812,-0.1604870424184016,9.794610602638125,-0.458507701565884,0.1177145764231681,1.584259867668152,0.3876025676727295,0.2734396018451959,0.2973821049812447,-0.6595007740271831,-0.6339190810493862,-0.0093503259122371,-0.2272081822156906,0.0195769909769296,0.0389953255653381,-0.0101965069770812,-0.0515343844890594,-0.0267933830618858,0.041880078613758,-0.084658058848977,-0.0023275977000594,0.0311233794730156,-0.2531348031133413,70
1733317722112460500,-0.0010901241911109,0.0512327591091394,-0.8434650868177413,0.1115225753011181,9.794771930679678,-0.4694553947009146,-0.0608872957527637,1.5966442823410034,0.5738849639892578,0.3038385187594181,0.3113294706041665,-0.6534596580459033,-0.6194728216805948,-0.0929421558976173,-0.2217396348714828,-0.0026908316649496,0.0064420700073242,0.0129134654998779,0.008179485797882,-0.038571760058403,0.060099683701992,-0.0896399389147758,0.0091571025550365,0.0371265654105693,-0.1300619656741619,71
1733317722152460500,0.8399521833259612,-0.0046072015345096,0.0052548152556642,0.284424552129209,9.792553670108315,-0.442046944097802,-0.0813750624656677,1.5111258029937744,0.2119173258543014,0.3282450182795158,0.3247776274367392,-0.645799979894103,-0.6080437604901213,-0.1240444108843803,-0.1420008689165115,-0.050435185432434,-0.0301790833473205,0.0163865089416503,0.0181844830513,-0.0503501407802104,0.0783192962408065,-0.094594930973649,0.0206418000161647,0.0431336238056421,-0.0069599021404981,72
1733317722192460500,-0.2010857591852545,-0.0409480964601039,-0.5232885090341791,0.3390515933191403,9.794925075414776,-0.3389237656883895,-0.3205436766147613,1.1323531866073608,0.0634367167949676,0.348938986674088,0.3394826701200922,-0.634059791313475,-0.6008005096187564,0.0171095114201307,-0.068969540297985,-0.0156491734087467,-0.0324422121047973,-0.0164848566055297,0.0264634191989898,-0.0363758616149425,0.0663119480013847,-0.0705266576439142,0.0097169987857341,0.0439137048000469,-0.0150999539762735,73
1733317722232460500,-0.4805705898899585,-0.1301718557894229,-0.2922387330114841,0.4082955542087554,9.79705916483402,-0.1458996867399197,-0.5420098900794983,0.5497773289680481,0.2061861902475357,0.3639172490765017,0.3436896178106101,-0.6239521300017926,-0.6001044312787914,0.1810936480760574,-0.0749718248844146,0.0256196353584527,-0.0098514556884765,0.0511023998260498,0.0136123001575469,-0.0224015805870294,0.0543046034872531,-0.0464063618659973,-0.0012078024446964,0.0447021517639979,-0.0232265618085861,74
1733317722272460500,-0.7620439640633762,0.1291641400516033,-0.3262240047216415,0.559883597916551,9.790613641956448,0.0288944102779729,-0.40265092253685,0.7073166966438293,0.5902625918388367,0.3791377049182889,0.3433588469299136,-0.6169533996585885,-0.5981036415446473,0.3222113847732544,0.0121660595759749,0.0673327222466468,0.0108230710029602,0.0205553174018859,0.0273181200027465,-0.0084272986277937,0.0422972589731216,-0.0222305365085601,-0.012132603675127,0.0454987820344045,-0.0313373875498771,75
1733317722312460500,0.3686665044579654,0.100935824432969,-0.4306219523072243,0.7977585437841713,9.770507257995009,0.2667687761902809,-0.6659424901008606,0.9550797939300536,0.5989608764648438,0.400228818194457,0.341113455600351,-0.6083092865110292,-0.5944900090878666,-0.0196157470345497,0.0338385440409183,0.051099494099617,-0.0004044771194458,-0.0004217028617858,0.039550095796585,0.0014010770246386,0.0507255457341671,-0.0796551359951496,-0.0067770048044621,0.0038867052402347,-0.0025762802287936,76
1733317722352460500,-0.0737989573128521,0.0744745184868574,0.0652777241397649,1.025344552686438,9.737563604292273,0.5467402944333851,-0.5557913184165955,0.8111426830291748,0.6532206535339355,0.4230839779246915,0.3394230444175085,-0.5974244718423296,-0.5906573048212285,0.1296680122613906,-0.0838617756962776,0.0580389611423015,0.0262388586997985,0.0639096498489379,-0.0812916159629821,0.0159159339964389,0.0529062859714031,-0.0553232432931661,-0.0081893252208828,0.035262963495776,-0.0391068525075912,77
1733317722392460500,0.3913673618920147,0.1321434481233358,-0.0281131648063659,1.263624535690993,9.692163789120317,0.7972505211967974,-0.5810142755508423,0.7535465359687805,0.6298805475234985,0.443877201294763,0.3358578297723417,-0.5886858718002498,-0.5861924222885072,-0.1160267069935798,-0.0612992085516452,0.0186643898487091,0.0043117403984069,-0.0390218496322631,0.0087189972400665,0.0028094071894884,0.0599032938480377,-0.1331704530835151,-0.0153795415535569,-0.0477216457156464,-0.0998079894468188,78
1733317722432460500,0.425873150344938,-0.0641401714771986,0.2585643538814038,1.4405565352201462,9.644387892466783,1.0396913502078502,-0.4609941840171814,0.5292653441429138,0.3844010531902313,0.4614274563871355,0.332839210865639,-0.5798349378889014,-0.5831759416301132,-0.1264460682868957,-0.0913931429386138,-0.0108701977878808,0.0127561092376708,0.0687199234962463,-0.0322606265544891,-0.019607862457633,0.0862103849649429,-0.0592781183987855,-0.0166359487920999,-0.0148215388936921,-0.0967436334401369,79
1733317722472460500,0.6723764064893126,-0.0614484481751918,-0.0027962065897881,1.5109858699694274,9.612518589997292,1.2193502174176274,-0.4255282878875732,0.256412923336029,0.0822393596172332,0.4707631649248458,0.3304421850308142,-0.5732699228537396,-0.5835681101643501,-0.0459592044353485,-0.0536785759031772,-0.1442104130983352,-0.0300981998443603,-0.0054293274879455,0.008888155221939,-0.0155774224549531,0.0547735504806041,-0.0360042103171348,-0.0107716312631964,-0.0223659263912588,-0.0283221313819289,80
1733317722512460500,0.1713235119976103,-0.2423100422382354,0.4330008102677762,1.5125485892415045,9.588075638136267,1.3969170077189803,-0.3861170709133148,0.1967607885599136,0.0114259142428636,0.4766729233164268,0.328755681244183,-0.566300939720893,-0.5865200696747594,0.1081179827451706,-0.0228864140808582,-0.1641947627067566,-0.0111395716667175,0.0389818549156188,0.0175691843032836,-0.0127551816403865,0.0540652573108673,-0.042917350706458,-0.0048422198742628,-0.0260673381924629,-0.0506184266030788,81
1733317722552460500,-0.0080360069394111,-0.3815314659237861,0.8244026589512825,1.5036638565182685,9.575864391338824,1.4873485354028642,-0.0218012426048517,-0.0350933484733104,-0.0318354368209838,0.4788418055146975,0.3276206451359503,-0.5628774641751748,-0.5886800487973142,-0.0434358566999435,-0.0065774810500442,-0.1736026555299759,0.025768756866455,0.0343804359436035,-0.0440191030502319,-0.0099329408258199,0.0533569678664207,-0.0497667782098054,0.0010871915146708,-0.0297676905477419,-0.0729065385177731,82
1733317722592460500,-0.4359118754088878,-0.3980827877521514,0.3989527024544775,1.5059702337644991,9.580894786721467,1.4522139475271103,0.1718248575925827,-0.1392729133367538,0.0205405745655298,0.4774657387884511,0.3276193120687216,-0.5644672512936078,-0.5882762528590098,-0.0790156871080398,0.0498828142881393,-0.1235522031784057,0.0204478502273559,0.052413523197174,0.0066209137439727,-0.0106788231059908,0.0479258969426155,-0.0284703076809644,-0.0132323959842324,-0.0136599112357944,-0.0266734873920679,83
1733317722632460500,-0.4103970565326512,-0.48796004255414,0.037918373375386,1.4749188235491513,9.59864496294558,1.3641859738536175,0.1121964156627655,-0.3367875516414642,-0.2041003853082656,0.4714707958141427,0.3273092534410495,-0.5686075343197878,-0.5892956303800522,-0.2278467267751693,0.0044291503727436,-0.0804647207260131,0.0155318975448608,0.0637655854225158,0.0743997693061828,-0.0086885718628764,0.0545869246125221,-0.0780301651418209,-0.0294447988271713,-0.0446100165011361,0.027842531171441,84
1733317722672460500,-0.1498918707817793,-0.4603898985832929,0.0926997648768127,1.4892980620354412,9.602948213097452,1.3174845745638013,0.116335891187191,-0.0860679596662521,0.1851937174797058,0.4691392024712048,0.3261125621773926,-0.5713821640585256,-0.5891361686475718,-0.1003404185175895,0.1133299618959426,-0.0850343704223632,-0.0201795697212219,-0.0375052094459533,0.0520398318767547,0.010187909938395,0.0556645169854164,-0.0333341143250465,-0.060003288090229,0.0098639164863154,0.0343628728508949,85
1733317722712460500,0.5216225120507181,-0.3962637556314468,0.3861708161622285,1.5761472011879083,9.599275662064551,1.240988633251935,0.2164916694164276,-0.0506948791444301,0.2133241891860962,0.4695055107137869,0.3244170268107901,-0.5757436795378166,-0.5855231808712119,-0.1614274829626083,0.0299830865114927,0.0054862042888998,-0.0160084962844848,-0.0775694251060485,0.0149250030517578,0.0381604209542274,0.0358629375696182,0.012678279787302,-0.0671567469835281,0.0310895868012681,0.0647314153686165,86
1733317722752460500,0.2651899825662374,-0.2178407868921756,-0.0086129300445318,1.6612443821065126,9.590391513863205,1.1979323855314403,0.0528079643845558,0.2653788030147552,0.3067515194416046,0.4721984213877778,0.3237383622102408,-0.5780276095428887,-0.5814690302783395,-0.2655368149280548,-0.1675728112459182,-0.0475662946701049,0.014513611793518,-0.0165358781814575,-0.0672380328178405,0.0378811657428741,0.0319246798753738,-0.0034235447078943,-0.0603647157549858,0.0129699562102556,0.0612488339498639,87
1733317722792460800,0.5001164904244244,0.1549906552255153,-0.3420652785845101,1.7972694939687848,9.56516764075756,1.203229980482906,0.0247026309370994,0.4611512124538421,0.4286324083805084,0.4808784913773216,0.3239880365056918,-0.5776539591881398,-0.5745462850551148,-0.3144676089286804,-0.2372965514659881,-0.0399439260363578,0.0301152467727661,-0.0730699300765991,-0.0205532312393188,0.0376019105315208,0.0279864203184843,-0.0194768538862466,-0.0535726845264434,-0.0051271337553858,0.0577291353911161,88
1733317722832460500,0.0258862825371325,0.1683890659809112,-0.3505623271644115,1.967436237146705,9.52184287829399,1.278315324344486,-0.0945824310183525,0.651115894317627,0.4030192196369171,0.4953954078004233,0.3251742838365791,-0.5736599504501373,-0.5654726875469689,-0.4502773880958557,-0.2938650250434875,-0.0327709689736366,0.0026445388793945,0.0194761157035827,-0.0170982182025909,0.0373226553201675,0.0240481607615947,-0.035481647747755,-0.0467806495726108,-0.0232015004325658,0.0541705661267042,89
1733317722872460500,-0.9701495388828216,0.1990121677815914,-1.1363245820760726,2.068938171029836,9.476106378513574,1.4468227560080589,-0.4488774240016937,0.9093505144119264,0.4983818531036377,0.5110213880195144,0.327515827801371,-0.5647707079433401,-0.5591284547507874,-0.2484862059354782,-0.2625645101070404,-0.0963797718286514,0.0481608510017395,-0.0587631464004516,-0.0662548542022705,0.0333568975329399,0.025475526228547,-0.0228507142335176,-0.0451232977211475,-0.014331453821808,0.0315317410781979,90
1733317722912460500,-1.4746969974920152,-0.2248182246893644,-0.2685587283469736,2.2921670807011423,9.379047687774897,1.7174994994223116,-0.4356648027896881,1.3932714462280271,1.0977381467819214,0.534815211497354,0.3260428611631257,-0.5532883021596915,-0.5491272067905514,-0.3703851997852325,-0.2745712697505951,-0.119859330356121,0.0314005613327026,0.0231739282608032,0.0379617810249328,0.0315621607005596,0.0323741100728511,-0.0539624763339757,-0.0200434494763612,-0.0540618998541496,0.0311401114121079,91
1733317722952460500,-1.0003539768800138,-0.2828945660829544,-0.155356858189404,2.673452316778898,9.21012553783059,2.048572259349376,-0.4852296411991119,2.0703673362731934,1.5545101165771484,0.5710013114342526,0.3246137278135753,-0.5386815455188615,-0.5276417108218803,-0.5562067627906799,-0.2758766412734985,-0.0957499369978904,0.0392849445343017,-0.00457763671875,-0.0197061151266098,0.0244311764836311,0.0430274680256843,-0.0277396553188562,-0.0170645974576473,-0.0143573371817357,-0.0183943193465471,92
1733317722992460500,-0.3929503932997584,-0.7979062816917896,-0.4650815635308623,3.078197485029697,8.954950753322244,2.550281279662251,-0.7159708142280579,2.3039979934692383,1.863566517829895,0.616450910261817,0.3221786028388873,-0.5159193593065163,-0.500016355575902,-0.4135771691799164,-0.1549323797225952,-0.0579146035015583,0.0235886573791503,0.047415554523468,0.0264982879161834,-0.0034731682389974,0.0178899243474006,-0.0629056612461805,-0.0200635101646184,-0.0645193069878965,-0.0607347469478845,93
1733317723032460800,-0.7492977336063981,-0.7325432904213667,1.030719889049232,3.604981763757765,8.62712515862286,2.957571163959801,0.0437825135886669,1.7945054769515991,2.436998128890991,0.660640808126185,0.315757973463121,-0.4995024902325854,-0.4629773966892947,-0.1344280838966369,-0.0284098610281944,-0.0112490328028798,0.0135111212730407,-0.0009012222290039,0.0155656337738037,-0.0341380089521408,0.0458179675042629,-0.0756517455726862,-0.0317510366439819,-0.0213038501176983,-0.0995753497347235,94
1733317723072460500,-0.0959463455826044,-0.8294827386945486,0.2674894916802645,4.228936669166385,8.270212585648894,3.144846424457431,0.2742761075496673,1.924410700798035,2.5113933086395264,0.6985917148780102,0.3105470998339306,-0.4931713244400963,-0.4151049558856525,-0.2685645818710327,0.0142373591661453,-0.0137368254363536,0.0102117657661437,0.0087229013442993,0.0084850043058395,-0.0444293171167373,0.0356750413775444,-0.0654997693926096,-0.0539137795567512,0.0204110842627473,-0.0549266451910138,95
1733317723112460500,-0.5820744965344667,-0.6339537368535995,-0.4939551913157105,4.862458152082562,7.800846184405684,3.4166765756905075,-0.1566647738218307,1.3165031671524048,2.7782106399536133,0.7342659996245094,0.2980300164889011,-0.4868018982939783,-0.367498919373383,-0.4177378118038177,0.0566904880106449,-0.0009481254965066,-0.0021032094955444,-0.0362078547477722,0.0372862815856933,-0.0504642911255359,0.05355766415596,-0.0734761550992727,-0.0814884603023529,0.0434069791206158,-0.0226399940922856,96
1733317723152460500,-0.3652700669527053,-0.8567740657240152,-0.312358560976386,5.575801067471504,7.153524431934953,3.729333242830634,-0.2660377919673919,1.1787409782409668,3.038973569869995,0.767123465370882,0.2740692118027159,-0.4845028229453819,-0.3188491838181736,-0.3984565138816833,0.0492025315761566,0.0246999133378267,-0.0053428411483764,0.0039542913436889,0.0352832674980163,-0.0564992688596248,0.0714402794837951,-0.0813186852931976,-0.1090631335973739,0.0663139535860158,0.0096299981325864,97
1733317723192460500,0.6210416483104229,-0.5759896236628294,-0.1196148059397935,6.142428404027223,6.438192388555407,4.121971501441299,-0.1833455711603164,1.4592212438583374,2.6862330436706543,0.7987706472153484,0.2507780197362864,-0.4763909314361984,-0.2685658434291062,-0.5157924890518188,0.0403825193643569,0.0443345345556736,0.0198903083801269,-0.0351866483688354,-0.0225592255592346,-0.0610416270792484,0.0786083713173866,-0.0450198759436607,-0.1047105565667152,0.0400693408641964,-0.0642182051494717,98
1733317723232460500,0.2712257555991411,-0.4128443035542964,0.0710860450923442,6.513342614346742,5.797703696975112,4.487025003033876,-0.1300840973854065,0.9553866386413574,2.2148101329803467,0.8235209167228384,0.2315403928834207,-0.4664916237111302,-0.2249177628400707,-0.3076488673686981,0.0644440203905105,0.1491961032152176,-0.0034920573234558,-0.0040490627288818,-0.0134442895650863,-0.053430113941431,0.0776678621768951,-0.0591623830646276,-0.0860280320048332,0.0245384207252878,-0.0434372829273343,99
1733317723272460500,0.3090852383941412,-0.6118593939453363,0.342428120547533,6.849278450265526,5.227281644311547,4.6833007315889,0.1293432265520095,0.6786358952522278,2.115180015563965,0.8392278610519258,0.214981996770788,-0.463681855261931,-0.1856840365316876,-0.2538050711154938,0.1106350049376487,0.24143847823143,-0.0050098896026611,-0.0617555379867553,-0.0202578902244567,-0.0458186008036136,0.0767273530364036,-0.073171619194746,-0.0673454999923706,0.008891637388058,-0.0226665898382663,100
1733317723312460500,-0.6212760415881872,-0.9620034956976772,0.4381698834687471,7.111207969731092,4.650719481457769,4.896111123098433,0.2166757434606552,1.1671929359436035,2.3241302967071533,0.8537103202235531,0.2002691120291378,-0.4585412592030182,-0.1442594213711699,-0.3150572478771209,0.0935066640377044,0.2868439853191376,-0.0041757225990295,0.0027316212654113,-0.0510033965110778,-0.0508207939565181,0.0967436358332634,-0.1001689317137002,-0.071799449622631,-0.0312720489623956,-0.0268327696070075,101
1733317723352460500,-0.3939589858204126,-0.3055582333117723,0.0022913258075714,7.292251934623718,3.973624522013962,5.215721554899216,0.2366636842489242,1.302817463874817,2.6572539806365967,0.8702213568994189,0.1850576167701622,-0.4470188883407027,-0.0929656117971265,-0.3380842506885528,0.0642478466033935,0.3012832403182983,-0.0268512964248657,-0.0379708409309387,-0.0362676307559013,-0.0528881810605526,0.1076663136482238,-0.0685229166060686,-0.0915076658129692,-0.0455974246698664,0.0055000587210059,102
1733317723392460500,-0.3712625853657722,-0.2772480846285819,0.1972515878498554,7.413507493507861,3.2035613560155034,5.563047384360432,-0.1099089756608009,1.0572279691696167,2.701408624649048,0.8842346629459701,0.1640361423213752,-0.435265044617075,-0.0420197364922265,-0.2023213803768158,-0.0277430601418018,0.3570334613323211,0.0114604830741882,-0.0092812776565551,-0.0896201729774475,-0.0335284247994422,0.1009599640965461,-0.039862639310956,-0.1566116213798523,-0.0840088194263167,-0.0246948807954788,103
1733317723432289500,-0.3868459389448165,-0.6474322271078825,0.3233019797950983,7.498373057627678,2.332351791573316,5.8740890175193545,0.0334855131804943,1.0528613328933716,3.05714750289917,0.8940694829053167,0.138539209172855,-0.4258071075222048,0.0116175484438265,-0.2068588733673095,-0.006774874869734,0.4880599081516266,-0.014917254447937,-0.0841786861419677,0.0260905027389526,-0.0286129675805568,0.0811249837279319,0.0371660023718141,-0.2119220942258834,-0.0189874515176634,0.0677238112507853,104
1733317723472289500,0.9428694638997316,0.0304638195857405,0.6417407374680042,7.445964240476488,1.4747406905032694,6.209117675465345,0.0464300140738487,1.3600343465805054,2.7120471000671387,0.9011021607909366,0.1144776999490304,-0.4126959782014487,0.0677623592328597,-0.3592265546321869,-0.1061856150627136,0.4129915237426758,-0.0049306154251098,-0.0346134901046752,-0.0096340179443359,-0.0196051467210054,0.0425325408577919,0.0053162265866994,-0.1902908086776733,-0.0037925698165316,0.020669863063097,105
1733317723512289500,0.4737409630656242,-0.0832464384853839,0.1500374167323112,7.204463176533579,0.6644388184230774,6.620016105648875,-0.3642214238643646,1.3520057201385498,2.5016534328460693,0.9077520424187072,0.0877009917908264,-0.3934229826249217,0.1162458864082463,-0.3401306271553039,-0.1658654659986496,0.2805897891521454,-0.0341013669967651,-0.0175524950027465,-0.0389136597514152,-0.0182214621454477,0.030492715537548,-0.0415443087875843,-0.1698306202888488,-0.0090741435024916,0.0010559387937188,106
1733317723552289500,-0.1454524270296096,0.0189849147839937,0.3637555707365274,6.850413591775298,-0.1032309587659779,7.016520099776983,-0.4585901200771332,1.450743556022644,2.248870372772217,0.912623069664025,0.0586060929830559,-0.3725887316160841,0.1576767663120296,-0.329470545053482,-0.1624662578105926,0.1462993919849395,-0.054616630077362,-0.0099506378173828,-0.0108496434986591,-0.0114082545042037,0.029997531324625,-0.0717927320569753,-0.1360503882169723,-0.0028258790672,-0.0051318099305033,107
1733317723592289500,-0.3512549856036901,0.1668154599886387,0.2679483413636684,6.485348692005872,-0.8186368619661778,7.310299047967791,-0.5170468688011169,0.6652504205703735,1.9165916442871087,0.9138665727881428,0.0297319276806749,-0.3555200389064974,0.1938283953091528,-0.3226895928382873,-0.1991745233535766,0.0999499931931495,-0.0602795481681823,0.0225445628166198,-0.0126239657402038,0.0150493402034044,0.0314185917377471,-0.1031681135296821,-0.1131285578012466,-0.0087819847348146,-0.0243985281974077,108
1733317723632289500,-0.043074002572894,-0.2545002462476491,0.913427680838108,6.250490719339251,-1.415904178392142,7.422733587014675,-0.4987875521183014,0.63406902551651,1.7764793634414673,0.9104638561604864,0.0059000882738123,-0.348584438292321,0.2225080437111812,-0.2244045883417129,-0.1345438659191131,-0.003312945831567,-0.1061485409736633,0.0333486795425415,-0.024821400642395,0.0395197570323944,0.0296531915664672,-0.1111065053135156,-0.0983209088444709,0.0144161227308446,-0.0445092960730195,109
1733317723672289500,0.0623357524037361,-0.6426685198374092,1.5857944427162407,5.965515839850903,-2.0015774300709364,7.521748087996244,-0.3174798488616943,0.3602557182312011,1.8641117811203003,0.9051018491906376,-0.0172554674644666,-0.3408809354028164,0.2535609385664712,-0.1311907470226287,-0.1327693462371826,-0.1132773980498313,-0.0518381595611572,0.0362194180488586,-0.0318502783775329,0.0449250414967536,0.0167253017425537,-0.0764525405615568,-0.0829650983214378,0.0244136070355307,-0.063024026928842,110
1733317723712289500,1.5158575676590202,-1.019566188480705,2.398786065337062,5.709394129881263,-2.413419716975838,7.599250429871678,0.2524435222148895,0.2910246551036834,1.6024508476257324,0.8982517511876902,-0.0314247748594198,-0.3340038012033474,0.283897382096463,-0.074951171875,-0.0708596408367157,-0.0810471549630165,-0.0136754512786865,-0.0152538418769836,-0.0189185142517089,0.0503303259611129,0.0037974109873175,-0.0416775797784328,-0.0676092877984047,0.0344687192619894,-0.0816381265059113,111
1733317723752289500,1.5877081673830746,-0.3373655764609575,1.4752987627774476,5.479675858190656,-2.599721310135722,7.706165328714251,0.5470848679542542,0.3428459465503692,1.2576762437820437,0.8918567313330795,-0.034693454515744,-0.3254094039445858,0.3122445242454722,-0.0747359916567802,-0.0763398334383964,-0.0324625074863433,0.0106481313705444,0.0062245726585388,-0.0228840708732604,0.0358746312558651,-0.0150869628414511,-0.034013913282752,-0.0635731443762779,0.0375420211935299,-0.1111380694955587,112
1733317723792289500,0.8735936830997466,-0.0600090630218386,0.6452116284489632,5.195407665666938,-2.700804726345837,7.866624186217784,0.4925023019313812,0.6392768621444702,1.2149293422698977,0.8875248621527956,-0.0366423971119645,-0.3123637572193564,0.3367281853665856,-0.0820034891366958,-0.0402798354625701,0.0807390809059143,0.0059971213340759,-0.0480535626411438,0.0030002002604305,0.0244514867663383,-0.022756453603506,-0.02987725186944,-0.0645705014467239,0.028450936260214,-0.0653898792773485,113
1733317723832289500,0.6884957666411996,0.4031409479245543,-0.5469716189712286,4.852734338186681,-2.790758261254429,8.051895997938514,0.3934580683708191,0.4713192880153656,1.00934636592865,0.8838410628708822,-0.040386097202564,-0.2963722667719224,0.3596631664329259,-0.1221122965216636,-0.0120739256963133,0.2050051689147949,0.0002970099449157,-0.0706349611282348,0.0426462292671203,0.0240732822567224,-0.0296318717300891,-0.067311787250638,-0.0569538287818431,0.0097509758974425,-0.024754209767282,114
1733317723872289500,2.2777830199092626,0.6135434015095234,-0.8547656485110521,4.745308567212522,-2.8211469697773457,8.105156463482976,0.1753633022308349,-0.060249213129282,0.2269052565097808,0.8802661265714379,-0.0400927987914566,-0.2917954784507063,0.3719938762541556,-0.0474047660827636,-0.0631869062781333,0.2217591106891632,0.0120912194252014,0.0187318325042724,-0.0213187932968139,0.021496258676052,-0.0277708433568477,-0.0526648377388715,-0.0500832721590995,0.0223852064804639,-0.0281470670759677,115
1733317723912289500,2.116937501175701,0.5858011158421635,-0.0368786550641059,4.5739583133384585,-2.815551049466431,8.204996309372783,-0.0363481640815734,1.1181505918502808,0.0697395429015159,0.8825803031991277,-0.0431532694769258,-0.2824878927741176,0.373350230625974,-0.0836983248591423,-0.1246201768517494,0.2382400929927826,0.0064723491668701,-0.009332001209259,-0.0132538070902228,0.0279119797050952,-0.0368165262043476,-0.0272685306757688,-0.048844788223505,0.0401003022580407,-0.0429039067029953,116
1733317723952289500,-0.1615454836964607,-0.0033422961652278,-0.4801613515019416,4.202508973228931,-2.8744880993425843,8.381326105225085,0.1174232512712478,0.5037362575531006,0.3648527562618255,0.8858912551917129,-0.0527782583684667,-0.2643591546364674,0.3775254237217962,-0.0987784788012504,-0.1270385384559631,0.2514118254184723,-0.0112118124961853,-0.0142097473144531,0.0001019239425659,0.0438816212117672,-0.0255701802670955,-0.0862099644660949,-0.0482943654060363,0.0102269799283356,-0.0400350732684135,117
1733317723992289500,-0.0230374689772725,-0.2196431601390242,-1.112069261741638,4.074475883033871,-2.851519019426405,8.452093001365661,-0.0082532037049531,0.1816446632146835,-0.0659484416246414,0.8872873447871971,-0.0539905091510293,-0.2571929727971505,0.3790224738249521,-0.0011081090196967,-0.1626288592815399,0.2142963409423828,0.0050073266029357,0.0273904204368591,-0.0258783102035522,0.0581358671188354,-0.0207019299268722,-0.0526011248528957,-0.0376353673636913,0.0143013920436846,-0.003929448403418,118
1733317724032289500,-0.0290159588649868,0.1921393594026565,-0.5459118807852268,4.011471145327389,-2.873046668362617,8.474909228807688,-0.0521148517727851,0.1811476647853851,0.1188630014657974,0.8878312344044941,-0.0563024996149406,-0.2544207577130248,0.3792831340043202,-0.0097436755895614,-0.2109493166208267,0.203110471367836,0.0010709762573242,0.0200419425964355,-0.0142468232661485,0.0601067580282688,-0.0212299637496471,-0.0216331551373004,-0.0223874691873788,0.0219576789505081,0.0011895020455121,119
1733317724072289500,-0.1652566131740808,0.3182452809274196,-0.4512169965684414,3.908141996017098,-2.931666030591726,8.50306681727767,-0.2303298264741897,0.3150588870048523,0.1628292798995971,0.8881622942939305,-0.0610136297090528,-0.250482715923171,0.3803989510730896,0.2077201902866363,-0.1487566083669662,0.257704347372055,0.023917019367218,0.0297673344612121,-0.0029001235961914,0.0516005158424377,-0.0372745841741561,0.0044160628765821,-0.0351472571492195,0.025316243547236,-0.0075900167375802,120
1733317724112289500,0.2375298222243785,0.4108116286829114,-0.1561877560555934,3.804780113480985,-3.0528128684043883,8.507312199762463,-0.2674300074577331,0.0985941663384437,0.0984456017613411,0.8876507802465022,-0.0686297426940402,-0.2480680119673009,0.3818747056139086,0.3490312695503235,-0.0749162659049034,0.3344103097915649,0.0016038417816162,-0.0141966938972473,0.0072988290339708,0.0579942762851715,-0.0504760593175888,-0.0378548066198825,-0.044199664145708,-0.0088215016111615,0.0787321759313345,121
1733317724152289500,0.6825929723381996,-0.1414107504233717,-0.440680404984951,3.81207173179388,-3.1470252298012373,8.469635672318935,-0.3847769796848297,0.0513449944555759,-0.1997188180685043,0.8880047442405961,-0.0739548514729729,-0.2503985608617265,0.3785220161503197,0.3687626123428345,-0.0511527769267559,0.3268325924873352,-0.0144685506820678,0.0247952342033386,0.0042433738708496,0.0872726291418075,-0.0423422455787658,-0.0141577046900987,-0.0533190034329891,0.0308069133853889,0.1078325982093811,122
1733317724192289500,-0.1133423015415668,-0.0159317286252975,-0.4117816427588462,3.853833482724428,-3.23509485065937,8.417393443906306,-0.2985312342643738,-0.224733754992485,-0.1209180206060409,0.888261378226532,-0.0785126106238795,-0.2542993156111273,0.3743785716263623,0.6628296971321106,-0.1909450441598892,0.4198694229125976,0.0319804549217224,0.003720998764038,-0.0250701922923326,0.0981223434209823,-0.0515378713607788,0.0148147072941064,-0.0631987825036048,0.0572233595597557,0.0552872951969504,123
1733317724466445300,0.0322547946557402,0.075174483449757,0.4034229797363281,4.426047971762716,-4.015581503255665,7.775318944439292,-0.3092698156833648,-0.1644790321588516,0.3998981118202209,0.8663562019335789,-0.1017267542772534,-0.305320674452349,0.3819134423445451,-0.0569370202720165,0.0086831245571374,0.5290477871894836,-0.0521268844604492,0.0558189153671264,0.0380074381828308,0.0816081836819648,-0.05271627753973,-0.1072464688844978,0.0249089207500219,-0.0114785988410701,-0.0256178636921802,124
1733317724506221300,0.7362588038131594,-0.0744470459580421,0.6669552582234144,4.384638979792594,-4.183341331422329,7.710057075455785,-0.3400130867958069,0.0075764972716569,0.3338828682899475,0.8621865136938306,-0.1090468202914587,-0.3082292701381717,0.3869598353229977,0.0699138715863227,0.0101785957813262,0.440768837928772,-0.044664055109024,0.0304923057556152,0.0043355077505111,0.0630046874284744,-0.0420083068311214,-0.0344048008800367,0.0069851325824856,0.0322747779978439,-0.1210382080727256,125
1733317724546221300,0.5146086877658963,-0.5714692236289381,1.292993984168768,4.357591690652072,-4.2883112336769695,7.667605004173517,-0.0584517121315002,-0.1903580427169799,0.0429964549839496,0.8601603620211115,-0.1141665862982758,-0.3098821235373865,0.3886686074414235,-0.1056409105658531,-0.0973533540964126,0.3587220311164856,-0.0311338305473327,0.0026320219039916,0.029097780585289,0.042400911450386,-0.0182071514427661,-0.0734592039644718,0.0218288041651248,0.0084270914703403,-0.0926730230003595,126
1733317724586221300,-0.0011874562188982,-0.1788891249462962,0.4963689744591713,4.485826733160018,-4.275223788566887,7.6006714025855056,0.0334169566631317,-0.4940546751022339,-0.0819840803742408,0.8579143030214764,-0.1103962661772105,-0.3166800971077061,0.3892420762192486,-0.1476328372955322,-0.0693874433636665,0.3886400461196899,8.26120376586914e-05,-0.0740824937820434,-0.0184054300189018,0.027504913508892,0.0101247075945138,-0.0890086552739143,0.0153713785111904,-0.0246363212919444,-0.0347615167796611,127
1733317724626221000,-0.2358089897811412,0.1863964318364858,-0.226275437760353,4.621537518376112,-4.267163523969054,7.523502822709083,-0.0261533632874488,-0.3198757171630859,0.0843156799674034,0.8553255048187869,-0.1066318592038645,-0.3240952970090709,0.3898848182897571,-0.3428092300891876,-0.0744886770844459,0.285725861787796,-0.0232675969600677,0.0087063908576965,-0.0391809418797493,0.0126089127734303,0.0384565666317939,-0.1045475851893425,0.0089139528572559,-0.0577016445959918,0.0231412216126918,128
1733317724666221000,-0.3417337085425853,0.1299959147006273,-0.288734524282813,4.626606492203474,-4.325385411313176,7.487051453146338,0.0286850258708,-0.0774901583790779,0.3969807922840118,0.8517302904145242,-0.1072649447097863,-0.32674279406029,0.3953338128710906,-0.1915081590414047,-0.0674847736954689,0.2187321037054062,-0.0266455709934234,-0.0029189586639404,-0.0555961802601814,0.0198750980198383,0.0391019843518734,-0.091241528892517,-0.0054112048819661,-0.0347555071639828,0.0479085831224918,129
1733317724706221300,0.2810676429167389,0.2291249819725751,-0.4922714760124683,4.532025589755177,-4.429901432320476,7.483789821001887,-0.1799123287200927,0.2567549347877502,0.5656024813652039,0.8478333866732203,-0.1114789007987881,-0.3255846704568494,0.4034175887732686,-0.2860998809337616,-0.1139946952462196,0.2363356649875641,-0.0012895166873931,-0.0383889079093933,0.0028212070465087,0.0365538187325,0.0608089193701744,-0.1146457853555679,0.0097555797547101,-0.0251614160284167,0.0389256507217884,130
1733317724746221300,0.1666653109282255,0.2703179931044578,-0.2646557295590639,4.34670380141288,-4.5809284446120255,7.502776261022687,-0.2245445996522903,0.1906969994306564,0.4196617603302002,0.8452462073132724,-0.1207373912268353,-0.32076059496348,0.4099927669916046,-0.1285142749547958,-0.0977265089750289,0.2223563343286514,0.0121088325977325,0.0361274480819702,-0.0024643614888191,0.0342913456261158,0.0654437318444252,-0.1094856261134147,0.0388253256678581,-0.03444954648735,-0.0391319869488477,131
1733317724786221300,0.7063000111401081,-0.0129570967286825,0.4823012861400842,4.272143065947294,-4.746865441265702,7.442206933769583,-0.4500824213027954,-0.0986357033252716,0.0915427058935165,0.8423770585881918,-0.1297471442705738,-0.3220539315903444,0.4121259051322661,-0.1385341584682464,-0.0745484381914138,0.2208907902240753,0.0126813203096389,0.0203322768211364,-0.0021414123475551,0.0320288725197315,0.070078544318676,-0.1041951184898614,0.0678950697183609,-0.0437423759542871,-0.1172737957715988,132
1733317724943756000,-0.0201528534516692,0.2200865199923515,-0.1090191776454448,4.178282878988981,-4.838052609622478,7.436772633761167,0.0407473072409629,-0.0589655451476573,-0.0903501361608505,0.8423154680476099,-0.1365196141290093,-0.3196756376931071,0.4119158183894682,0.0500032790005207,-0.049924474209547,0.1164231076836586,0.0180941671133041,-0.0012657642364501,-0.0181075297296047,0.0275343880057334,0.0565571524202823,-0.0613773648335132,-0.0054318029433488,-0.0342227086116676,0.0037744696167268,133
1733317724983532300,-0.3097302582994103,-0.0020057868644595,-0.391701562282443,4.180405862492322,-4.83458054959774,7.437837048122287,-0.0270600281655788,0.0059238104149699,0.1016630455851554,0.8422196407647177,-0.1362006035718316,-0.3197268139951766,0.4121774781071343,0.1570777893066406,-0.1005725786089897,0.2509911060333252,0.0396217256784439,-0.0054666996002197,-0.0482980608940124,0.0213774535804986,0.0389326177537441,-0.0594233355557545,-0.0340458825230598,-0.0176957323483366,-0.0332918871850939,134
1733317725023532000,0.1426771170973777,0.1508916954740881,-0.3275830181151628,4.140848928129673,-4.87135925141871,7.435967162597179,-0.0899278670549392,0.0917885079979896,0.1325687617063522,0.8414229452184006,-0.1383700657795898,-0.3189434107067763,0.4136860879269461,0.3720146119594574,-0.3501707911491394,0.4977455735206604,0.0478565990924835,0.0303786993026733,-0.0595831274986267,0.0090676862746477,0.0479078516364097,-0.0297223535686731,-0.0414836220443248,0.0203746795088052,-0.0110094697922468,135
1733317725063532000,0.1086406997218728,-0.1035515598893165,0.4336579590022563,4.069840039926767,-4.916191495835781,7.445659704571962,0.0021814694628119,0.1423766463994979,0.1894554197788238,0.8407706424879837,-0.1415429381824128,-0.316768995353582,0.4156052237113499,0.76815265417099,-0.4665169417858124,0.811080276966095,0.0420699268579483,-0.0178231000900268,-0.0524392202496528,0.0115648983046412,0.033615730702877,-0.0084697221815586,-0.0420783571898937,0.081804039391037,0.0118798228859901,136
1733317725103532000,0.2958607229009271,0.0085731825560331,0.2676034734487533,4.016694432933629,-4.941077515289187,7.458035786542296,0.0122951958328485,0.0090911583974957,0.0999579280614852,0.8398249498811499,-0.1430426519540432,-0.3150949003609851,0.418267774414266,1.92006516456604,-0.5762600302696228,0.92017263174057,0.032729759812355,0.0917118191719055,0.0167134404182434,0.0121141541749238,0.0413809418678283,-0.0253875392347574,-0.0295428559184074,0.0349692595125176,0.0173380882918834,137
1733317725143532000,0.2678179929822683,-0.0284054257512092,0.1795505114644765,4.0062805909469725,-4.923851070678234,7.475011471262574,0.1355506330728531,-0.0023868642747402,0.0283559616655111,0.8396507582546177,-0.1419469376086811,-0.3142157729982415,0.4196500933395078,1.1551061868667605,-0.0975966602563858,0.6490218639373779,-0.1073661670088768,-0.0950349569320678,0.1245016008615493,0.0160197950899601,0.043018139898777,-0.0452256276488304,-0.0201110728085041,-0.0185194435635581,0.0398179233863949,138
1733317725183532000,0.1892351623937487,0.2397013210445642,-0.2266846030831336,4.010494116988778,-4.888492757049202,7.495929756128787,0.0863169208168983,-4.5506079914e-05,-0.0099301245063543,0.8398719606363224,-0.1398280310105094,-0.3134677996271678,0.4204774038363927,-0.0359081663191318,0.2157782018184662,0.2979681193828583,-0.079349584877491,-0.0151740312576293,0.1854818612337112,0.025162037461996,0.0254949871450662,-0.0308078107178211,-0.0297804344445467,-0.0226611830107867,0.0417640890181064,139
1733317725223532300,0.1331096628069877,0.2576701084554195,-0.1237362697839736,4.005117976908386,-4.877731124538183,7.505808176064491,-0.0046399193815886,0.035854548215866,0.019465148448944,0.8400474822982096,-0.1393487695878839,-0.3128772948966315,0.4207255953694432,0.0166325382888317,0.2471050173044204,0.0873027741909027,-0.0673804879188537,0.0282533764839172,-0.0188793241977691,0.0343042761087417,0.0079718343913555,-0.0163590141266584,-0.0394497960805892,-0.0268036896429955,0.0436935957759618,140
1733317725263532300,-0.0355628962904214,0.0199453481808304,0.0982873557507991,3.984649189375341,-4.884065003734826,7.5125804466784,0.0176579225808382,0.0496186763048172,0.0428266786038875,0.8399790930206253,-0.1399537259146555,-0.3120543930442768,0.4212721246557344,-1.2112327814102173,-0.228348433971405,0.209569439291954,0.0223098397254943,-0.0346506834030151,-0.088168665766716,0.0470310039818286,-0.0094354767352342,-0.0117073889285325,-0.0423276722431182,-0.0100189609175547,0.02633388017416,141
1733317725303532000,0.0630254882335662,0.0116696872666478,0.0526221676409244,3.950255336864292,-4.893297234721482,7.524726811546087,0.0102954842150211,0.0840729996562004,0.1096456497907638,0.8397850424123069,-0.1408289559816399,-0.3106652859975771,0.4223924599704509,0.1779519170522689,-0.3926547765731811,0.3285034000873565,0.1209276020526886,0.0251808166503906,-0.1432515531778335,0.0539855659008026,-0.0188396535813808,-0.0370347224086523,-0.0510118938982486,-0.0314247370397672,0.010781506255269,142
1733317725343532000,0.0264370482876896,0.1293538174048066,-0.0736480045348405,3.89331998219937,-4.900698743149638,7.549542688372731,0.0334732420742511,0.0492417812347412,0.0725755169987678,0.839814411797239,-0.1420573520982465,-0.3080586945973407,0.4238292328138193,-1.3230829238891602,-0.1503148823976516,0.1495186239480972,-0.0151944309473037,-0.082044243812561,-0.0616582781076431,0.0620200596749782,-0.0162693224847316,-0.0379810633480548,-0.0484650209546089,-0.0319501126207411,0.053978842946887,143
1733317725383532000,0.6265317701593041,0.0572293691754341,-0.230294610273838,3.885640825873613,-4.901297585825621,7.553110025465488,0.020472589880228,0.0402927361428737,0.0554017573595047,0.839286615422152,-0.1418138801439287,-0.3078756182828822,0.4250877199026155,-1.4751288890838623,-0.1748764812946319,0.1609226018190384,0.0337441749870777,-0.0684905648231506,-0.0827912613749504,0.0687603056430816,-0.0294800177216529,-0.0222545019060373,-0.0572581961750984,-0.0287703866060823,0.0315472309082746,144
1733317725423532000,-0.8227420322626828,-0.0308832140415906,0.3021528087824583,3.822826642303169,-4.923917121651768,7.570431162622571,-0.0547482334077358,0.0603974983096122,0.0869565829634666,0.8398832001387846,-0.1445013810663167,-0.3051799268549134,0.42494808565583,0.6018520593643188,-0.3140048682689667,0.4237573444843292,-0.1023793071508407,0.0613477230072021,0.2157228589057922,0.0679735019803047,-0.0270691849291324,-0.0398480262637138,-0.0710593238472938,-0.0596771276537328,0.0316927768588066,145
1733317725463532300,0.4164078412547707,0.0760363609760999,0.478178068730235,3.79065338845104,-4.939408120772242,7.576514866450428,0.0841317176818847,-0.0098988711833953,0.1003822162747383,0.8388347012012916,-0.1451581860990274,-0.3043589005296067,0.4273770443597177,0.3166221976280212,-0.1802105754613876,0.211512804031372,-0.0630376413464546,0.1191588640213012,0.0276052355766296,0.086442694067955,-0.0220385566353797,-0.0231587572693824,-0.0704570710659027,-0.055554713961482,0.0493973603755235,146
1733317725503532300,0.3394733623951673,0.2285767004400491,-0.1759311519235372,3.798156019166112,-4.912831664013862,7.590025505408644,0.0777435377240181,-0.0648142099380493,-0.0279080457985401,0.8387567431333371,-0.1433485220437645,-0.3040848756677813,0.4283349177521938,0.2865068912506103,0.2602149844169616,-0.0393906533718109,-0.1203759610652923,-0.0161627531051635,0.1169403195381164,0.1049118936061859,-0.0170079283416271,-0.0064127896517515,-0.0698548257350921,-0.0513450969098135,0.0670341393530368,147
1733317725543532000,0.0112912093430757,0.2120113500863313,-0.1750625523954629,3.813745217964053,-4.897912619562447,7.591849798226356,0.0144601725041866,-0.031528539955616,0.0212826617062091,0.8386594299197151,-0.1421375674026646,-0.3045000771733981,0.4286338355634227,0.3583787083625793,0.4064508974552154,-0.2088152319192886,-0.085244283080101,0.0216690897941589,0.0498384833335876,0.1075128614902496,-0.0309194810688495,0.03205927208364,-0.0523824281990528,-0.0413421372789889,0.0342810397863388,148
1733317725583532000,0.0003428220883011,-0.0881543765321373,0.0338841494232416,3.811675133691728,-4.900763332818448,7.591049587759375,0.0219452641904354,-0.0058183041401207,0.0528763383626937,0.8382112443087575,-0.1420248068070178,-0.3046196552341766,0.4294621117718849,0.0027129943482577,0.2174182832241058,-0.0765522718429565,0.010014746338129,-0.0599820017814636,-0.0041711181402206,0.0881736725568771,-0.0296947490423917,0.0183270993292331,-0.0344681181013584,-0.0240979012830182,0.0262567232847213,149
1733317725623532000,0.3777335349455475,0.0327115985125303,-0.318157018122077,3.823940741024911,-4.898477559968829,7.586354707941412,0.0473262444138526,-0.1912909299135208,-0.0043665007688105,0.8375236751917704,-0.1412231365949958,-0.3053843166871463,0.4305234935011881,-1.1956112384796145,-0.5119531154632568,-0.5919856429100037,0.1568233519792556,-0.055684208869934,-0.227339506149292,0.0657135993242263,-0.0258777495473623,-0.0059019175201654,-0.0242015197873115,-0.0188203262062743,0.0901554872214794,150
1733317725663532000,0.0692827950626611,0.1213099194198846,-0.2489747608244419,3.841047066387534,-4.894899116960167,7.580020244222879,-0.0265441201627254,0.039272453635931,0.0385404825210571,0.837315430375082,-0.1406133449192076,-0.3061934192951973,0.4305536067622711,0.2626508474349975,-0.5627886652946472,-0.0632348656654357,0.0485447496175766,0.339704692363739,-0.2288612723350525,0.0680764764547348,-0.0263700205832719,-0.0068669631600379,-0.0438829027116298,0.0201753575444221,0.1257762511789798,151
1733317725703532300,-0.1903463385060429,0.2124859818607568,0.1809498568683862,3.816664028020203,-4.903325,7.586887207382917,-0.0209231711924076,0.0627683922648429,0.011052718386054,0.8376437844621076,-0.1417105661183584,-0.3051139236704153,0.4303213196049278,-0.1946727931499481,0.1820497959852218,0.1498469114303589,-0.2020235061645507,-0.2696296572685241,0.2446059584617614,0.0894774794578552,-0.0081164445728063,-0.0405897845417261,-0.0374464243650436,-0.0612975319297984,0.1550724882900714,152
1733317725743532300,0.0257104875788092,0.2092886471241712,0.3475444406479597,3.7922929723516106,-4.904467740294337,7.598361956599354,0.0542644299566745,0.0039477879181504,0.0493424758315086,0.8376212281212768,-0.1421106987239827,-0.3039669672897477,0.4310446419066801,0.5437333583831787,0.2503235936164856,0.2641196250915527,-0.0411089956760406,0.0008879899978637,0.0886725857853889,0.070599541068077,-0.0039461939595639,0.015897241833806,-0.0374352522194385,-0.077724898584932,0.0845949304848909,153
1733317725783532000,0.3307277458816766,0.1184235503286123,-0.0217640880405902,3.795229610325396,-4.897549046947062,7.601357046762108,0.0294979102909564,-0.0357879698276519,0.0187563896179199,0.8372150996748242,-0.1413560444180141,-0.3040676247912191,0.4320094894560177,0.5870286226272583,0.4422609806060791,0.0460695177316665,-0.0050389990210533,0.0319114327430725,0.050267107784748,0.0425534658133983,-0.019144183024764,0.0614390958249568,-0.036428265273571,-0.0547838391868397,0.1154056638121604,154
1733317725823532000,0.5004916073471307,0.3051628042533993,-0.2624877378702163,3.805779353651404,-4.901730424284935,7.593382999143004,-0.062214259058237,-0.007166079711169,0.0024087352212518,0.8367856495539271,-0.1411600649320797,-0.3048262558757555,0.4323708303281681,-0.3453134000301361,0.2002185732126236,-0.0633009821176529,0.0140734799206256,-0.0427284836769104,-0.0234345197677612,0.0145073868334293,-0.0343421697616577,0.1069949783414602,-0.0354212783277034,-0.0318264497084543,0.1462041221797466,155
1733317725863532000,0.1362497143983841,0.1341623867303133,0.2393950315743684,3.801313606414199,-4.921368021690845,7.582910704967379,-0.0510381311178207,0.0457431562244892,-0.0236077867448329,0.8369100514395187,-0.1425241089481831,-0.3050672772322051,0.4315116610046796,0.0811100676655769,0.0842204913496971,-0.239790990948677,0.0526901371777057,0.0434584021568298,-0.1517371535301208,0.016894232481718,-0.0420144386589527,0.0395499200999736,-0.0253121741116046,-0.0721298185242339,0.1965378866225481,156
1733317725903532000,0.0873293238848447,0.3492348779529333,0.1207417641431093,3.7984599705487487,-4.926349901756644,7.581105701372027,-0.0067887250334024,-0.0295949410647153,-0.0281330831348896,0.8370256809056039,-0.1429545332858158,-0.3050166889744574,0.4311807813209223,-0.4262516796588897,-0.4695305228233337,-0.2348297387361526,0.0681726112961769,-0.0246332287788391,-0.0756927654147148,0.0343630388379097,-0.0474057905375957,0.0858896464705467,-0.0229185484349727,-0.0318197277067229,0.1910351975530385,157
1733317725943532300,0.1924228525191545,0.373661463201046,0.2316647295832634,3.801853996901214,-4.928630121648311,7.577921810638904,-0.0006102453917264,0.0398878753185272,0.0066928593441843,0.8369947208932473,-0.1430255542555631,-0.3052494089731545,0.4310526385235266,-0.0034306519664824,-0.2669269442558288,0.0251429975032806,0.0573361665010452,0.09224534034729,-0.0129415392875671,0.0485231019556522,-0.0510472133755683,0.0423591323018074,-0.0177530851215124,-0.0438176605470478,0.1792594195634126,158
1733317725983532300,-0.1672875344797968,0.3018547026187181,0.360790875712037,3.8060251451060174,-4.9270033972293135,7.57688545332849,0.0212021637707948,-0.0269603915512561,0.0172064304351806,0.8369370695992029,-0.1428249517301002,-0.3054298444793075,0.4311031162368113,0.5835723876953125,0.0574341528117656,0.4119781851768493,-0.108897790312767,-0.0853438973426818,0.1205164864659309,0.0551300607621669,-0.0524618998169899,0.0691781656444072,-0.0074229948222637,-0.0246000421188771,0.1833259383499622,159
1733317726023532000,0.0979120926976203,0.2746966465801,0.3381669559717178,3.805384509114921,-4.918699679264426,7.582600323843955,0.0595195367932319,-0.0095336800441145,0.0384931378066539,0.8366416478489468,-0.1421113993578551,-0.3052856394770848,0.4320137025798655,0.0845514014363288,-0.1700163185596466,0.1505037099123001,0.0231139212846755,0.0075343251228332,-0.0758691281080246,0.0513029024004936,-0.0489212609827518,0.0717722737908363,0.0057569611817598,-0.0442238301951438,0.1599538305908441,160
1733317726063532000,0.1264423138722777,0.281681098639965,0.114102764520049,3.81067297091186,-4.902490010480583,7.590438177862762,0.0728846862912178,-0.0764753371477127,0.0496118813753128,0.8361985203221831,-0.1407228120981044,-0.3052743786199146,0.4333322243448656,0.1748352199792862,0.0223374180495739,-0.0017840918153524,-0.0638424009084701,0.0538049936294555,0.0862543061375618,0.0439470782876014,-0.0258427783846855,0.0285953953653573,0.0091451229527592,-0.0732448670940473,0.1539946299254894,161
1733317726103532000,0.3514744735732674,0.4194949936151504,-0.0204711256206035,3.820421626988053,-4.893659346032142,7.591236050242185,0.0370136424899101,-0.0548141971230506,0.0333673991262912,0.8356900377976256,-0.1396807064049741,-0.3056860942941741,0.4343587114065322,0.3450397253036499,0.3414463102817535,-0.1063320040702819,-0.0598690882325172,0.0262758135795593,0.1179587990045547,0.0666631162166595,-0.038334846496582,0.0506768787920475,0.0199818462133407,-0.0460217829952016,0.1726835483044385,162
1733317726143532000,0.2229889634355902,0.3075026453778147,0.1226578268975019,3.829196761856973,-4.887610421256721,7.590711734107137,0.0395692251622676,-0.0375715978443622,0.0203680321574211,0.8352709031837948,-0.1388869839096175,-0.3060912028164058,0.4351334329875354,0.100250206887722,0.3569515943527221,-0.0029462953098118,-0.0080871246755123,-0.0588828921318054,-0.0534228682518005,0.089379146695137,-0.0508269146084785,0.0727653764814138,0.0308185685425996,-0.0188336240792647,0.1913561000704765,163
1733317726183532000,0.1364376381859183,0.103203769364953,0.1374468152284622,3.8422766081824897,-4.873800214830041,7.592981432604789,0.0898486524820327,-0.1263570487499237,0.0294388141483068,0.834846016132807,-0.1375505742243802,-0.3065053411968676,0.4360808428765025,-0.7430541515350342,-0.5649829506874084,-0.5561242699623108,0.1078541129827499,-0.0073838233947753,-0.1314917206764221,0.0840769186615943,-0.0587588436901569,0.0871586434930563,0.0493231154978275,-0.006674984251894,0.1878308485537767,164
1733317726223532300,0.1370657069563865,0.1593184552967548,-0.0153624043047428,3.883846343672275,-4.843274728184938,7.591364645057916,0.0650961324572563,-0.0665206238627433,0.0260250084102153,0.8344317205525328,-0.1347855278542743,-0.3078652209313402,0.436778678452705,0.7873809337615967,-0.2833814322948456,-0.361950010061264,0.1273182332515716,0.2802232503890991,-0.4748553037643432,0.077988252043724,-0.0653500035405159,0.0516471851289272,0.0496400073170661,0.0376621701246127,0.2135024654269218,165
1733317726263532300,0.3934308702930807,0.4396244661912322,-0.0855886176973581,3.89323727235198,-4.834480888615548,7.592159010306,0.0127707552164793,-0.0114389704540371,-0.0403212010860443,0.8341986921299904,-0.1339472417208446,-0.308165134818651,0.4372698260552761,-0.0629411190748214,-0.3016737103462219,0.2613091170787811,0.0725487396121025,-0.4006880521774292,0.3076375126838684,0.1003801673650741,-0.0696628019213676,0.0482984592229127,0.0531695857644081,0.1063077267296612,0.2719265973448753,166
1733317726303532000,0.045302784538269,0.4365902130618691,0.3232674930036068,3.873107215254009,-4.820822365619242,7.611116808754205,0.0909944400191307,0.0526247359812259,0.0111137079074978,0.8345853408241134,-0.1336780078203376,-0.3067103572115005,0.4376370895986891,-0.2729686498641968,-0.3140204548835754,0.2204565703868866,0.0810523554682731,-0.2323094606399536,0.0473467707633972,0.1097751259803772,-0.0570037364959716,-0.0635457127153873,0.0576775968074798,0.078236757097207,0.2579854580149054,167
1733317726343532000,0.2027308960437774,0.341478856998682,-0.0854588538378477,3.885068871204554,-4.786613222025334,7.626594948393106,0.1193093284964561,-0.1298916637897491,0.0542346537113189,0.8340397524769168,-0.1310397784132232,-0.3065622934839855,0.4395745094292066,0.1062439158558845,-0.1467379480600357,0.0909580290317535,-0.038611851632595,0.0815378427505493,-0.0026866644620895,0.0600956305861473,-0.0295157618820667,-0.151968092533946,0.0455079935491085,0.0916573066191747,0.1915799719542265,168
1733317726383532000,0.5433180648997425,0.2668175837680697,-0.4882318452328443,3.913039412669837,-4.757142797391117,7.630733947893977,0.0832808911800384,-0.081799603998661,-0.0081248618662357,0.8334914099468161,-0.1284575166097683,-0.3073101324598375,0.4408528604380284,0.6475883722305298,0.4216578006744385,0.0146460141986608,-0.1492449194192886,0.0726686716079711,0.1064435243606567,0.0574575960636138,-0.0518762022256851,0.0541191282004117,0.0029600113630294,0.22904004363548,0.2520630822286009,169
1733317726423532000,0.320434023143351,0.0016568272963166,-0.4351759623497724,3.936306598749757,-4.738285244446993,7.630499554616212,0.0415472649037838,-0.0464375466108322,0.0222803428769111,0.8332467349172261,-0.12680185553631,-0.3080163624843105,0.4413015166804911,0.1439103186130523,0.3778218626976013,0.0807527974247932,-0.0577348470687866,-0.1541464328765869,-0.003482162952423,0.0548195615410804,-0.0742366462945938,0.2602221310257911,-0.0395879745483398,0.3664070350933819,0.3125508686780929,170
1733317726463532300,0.503130139157176,-0.0055664019554853,-0.3164835319519042,3.9297342346221207,-4.738244912436604,7.633911993408202,-0.0059480853378772,0.0460523217916488,0.0617651678621768,0.8329982856951474,-0.1267238796473423,-0.3077659333963035,0.4419673360610043,0.0937086790800094,0.3120440542697906,-0.1789991557598114,-0.0566607415676116,0.000487744808197,-0.041961446404457,0.0637173429131507,-0.0856396630406379,0.2374240237623453,-0.0648631602525711,0.4334988229177892,0.3609355448797345,171
1733317726503532300,0.819323163729906,-0.0997933763995766,-0.0792050541400909,3.9011443922147153,-4.749961361454427,7.6412909977436065,0.001915325410664,0.0382005088031291,0.0068410402163863,0.8329342900339958,-0.1278143549076561,-0.3067019336284551,0.4425132529639934,-0.3883860409259796,-0.2445611208677292,-0.4014027118682861,-0.0133968144655227,0.0525668263435363,-0.0648581832647323,0.0401286296546459,-0.0664322078227996,0.1601847167372703,-0.0753953233361244,0.4777127893060445,0.3603837562158704,172
1733317726543532000,0.822620451709628,0.248459797039628,-0.5451660308539867,3.914905791063607,-4.7342958825498815,7.643973953217268,-0.0033622472546994,0.0202209390699863,-0.0741419047117233,0.8334893346851456,-0.1270485792096303,-0.3067970589146793,0.4416218349353598,0.3012746572494507,-0.1011475548148155,-0.220775157213211,-0.003964215517044,0.0353238582611084,-0.1041430830955505,0.0139408186078071,-0.0378921777009964,0.1408820503741502,-0.0808514356613159,0.4940876951215788,0.3678556995317339,173
1733317726583532000,0.3301268573790788,0.6021089843034744,-0.3746411218881607,3.8941426967591046,-4.738990177845954,7.651667430329322,-0.097269132733345,0.1037164628505706,-0.0117073971778154,0.834427828349032,-0.128293354412558,-0.3056376025362523,0.4402917146660779,0.725789487361908,0.3352308273315429,0.2813464999198913,-0.0608948245644569,-0.1223667860031127,-0.0047382414340972,0.000408487394452,-0.0176374744623899,0.1475204654753208,-0.0963426828384399,0.4833484936380758,0.3723080027654767,174
1733317726623532000,0.5950289629146457,0.3212213741287589,-0.1833195086091756,3.862225755755603,-4.77069552192539,7.648140425246954,-0.0858890786767005,0.0766349509358406,0.0358583629131317,0.8346178856962528,-0.130817066866488,-0.304861018590669,0.4397266281127984,2.2022571563720703,0.608289361000061,0.3774347305297851,-0.1053047999739646,-0.0170924067497253,0.1242767721414566,-0.020918620750308,0.0185258742421865,0.1979822402119636,-0.0938114002346992,0.4662479404291137,0.4173582738474011,175
1733317726663532000,0.7352224465027452,0.445488389788568,-0.1834656390815973,3.835458160339296,-4.799643383990228,7.643498736920952,-0.1011594757437706,0.1063069179654121,-0.0008315804880112,0.8347883417128991,-0.1330880801727895,-0.3042656471610938,0.4391338193527499,7.038240432739258,0.8131555914878845,0.9424254298210144,-0.0731739476323127,0.3792935013771057,-0.1474699079990387,-0.0054081035777926,0.0196046959608793,0.2326274371355771,-0.1011056751012802,0.4599255690071731,0.4599380631625652,176
1733317726703532300,0.7342536014705896,0.6787555861324072,0.0932809257656335,3.797521520654857,-4.839279521068931,7.6374465972751375,-0.1174311637878418,0.1270716935396194,0.0526237599551677,0.8348448977255404,-0.1361016895011235,-0.3034384950627765,0.4386747011149131,6.7736921310424805,-0.1942415982484817,1.2362487316131592,-0.0562871322035789,0.3594900369644165,0.2700300812721252,0.0101024126634001,0.0206835176795721,0.2673328398138284,-0.1083999425172805,0.4535701355658471,0.5024737210750579,177
1733317726743532300,0.9040157093703748,0.8151271733447909,0.3332289150476455,3.731906600449979,-4.879883334136009,7.64395115686357,-0.0669021680951118,0.1870406419038772,0.104730799794197,0.8348781583421244,-0.1395849712765254,-0.3013021385154064,0.4389891291445014,3.928433656692505,-0.218375489115715,0.5803450345993042,-0.0853807553648948,-0.0288222432136535,0.2248405218124389,0.0347225181758403,0.012855339795351,0.2559896080225706,-0.0819517970085144,0.4044719773326068,0.5030681798368692,178
1733317726783532000,1.4359157236769795,0.8547919519960879,0.1682218927204608,3.679745328319072,-4.895605511663854,7.659171522349118,0.045846588909626,0.0254917163401842,0.0325188115239143,0.8347794557123749,-0.1412726820318237,-0.2992205814957602,0.4400596023496755,3.4698193073272705,0.049205407500267,0.6542660593986511,-0.1110076606273651,0.0393557548522949,-0.0410022139549255,0.051052413880825,-0.0210285894572734,0.2879927660048008,-0.025079172104597,0.4600179965309798,0.547955661572516,179
1733317726823532000,1.236450551430881,1.070536058869958,0.2025683989584445,3.687823713095486,-4.868488079896569,7.6725594117105,0.0989706069231033,0.0091174729168415,-0.0443362332880497,0.8352248492025178,-0.1398047752433276,-0.2987690989095903,0.4399899040652928,4.357027053833008,-0.6584469676017761,0.6787605881690979,-0.0814930573105812,-0.0580141544342041,0.0620696544647216,0.0984381437301635,-0.064163789153099,0.293977101111412,0.0103285089135169,0.5071667011968791,0.5686793006494641,180
1733317726863532000,0.8817445485904812,1.1522329298257827,0.2864338461250066,3.681603523406386,-4.833018414847553,7.697928830766678,0.1209043934941291,0.0044054272584617,0.0411109700798988,0.8356402930521709,-0.1380376812243568,-0.2974230127993365,0.4406703814455543,2.51770544052124,-0.8071218132972717,0.4986416697502136,-0.1047459989786148,-0.1094543784856796,0.0963245630264282,0.1579628586769104,-0.0849032029509544,0.2760200041383505,0.056721307337284,0.4879549279876053,0.5161643927752971,181
1733317726903532000,1.1782365551322698,0.908746245023608,0.5675134717404842,3.674959847608208,-4.799623217985034,7.721960863739252,0.1935653686523437,-0.0570010431110858,0.0986960753798484,0.8352136266382155,-0.1358465843038099,-0.2963701667020875,0.4428642926132379,1.039896845817566,-0.437385231256485,0.4604873359203338,-0.1278531700372696,-0.000600129365921,-0.0783963203430175,0.1687778383493423,-0.1027617007493972,0.471328056704998,0.1147969663143158,0.5040058625457808,0.3524491638243198,182
1733317726943532300,1.7317732317075132,0.9516106964990496,0.5176601842910051,3.678673607434332,-4.738189967378974,7.758047491642833,0.2726250290870666,-0.0447343699634075,0.0731212049722671,0.8346646128892617,-0.1317550004380337,-0.2951106077333111,0.4459657576012091,0.5870296955108643,-0.4115878343582153,0.4544753730297088,-0.0500942021608352,-0.1169380843639373,-0.0262384414672851,0.1827694773674011,-0.1540027111768722,0.9386188207179308,0.1367284506559372,0.5071181493474171,0.2113613617449998,183
1733317726983532300,1.2566437368929386,0.7781269377276301,1.3435533740609884,3.655060968917608,-4.659726086995005,7.816512540093064,0.3372451364994049,0.1418935805559158,0.151532232761383,0.8347581038367765,-0.1275694671367908,-0.2918814976351754,0.449121551456844,-0.0987257435917854,-0.2414722889661789,0.4603850841522217,-0.0244844853878021,-0.0545647256076335,-0.1010620594024658,0.1569927781820297,-0.1679831445217132,0.6963070249140262,0.1429782807826995,0.1268093936190009,0.0880351340666413,184
1733317727023532000,0.5886690724939108,0.0226566529661417,1.84594584659338,3.553000524368882,-4.5655046655088665,7.918506349146366,0.5237861275672913,0.0756752043962478,0.330631673336029,0.8343233972193906,-0.1235593357234015,-0.2846078593628995,0.4556708517782183,-0.9261488318443298,-0.0152783477678895,0.6379572153091431,0.0267478786408901,-0.0078178346157073,-0.1798223257064819,0.1312160789966583,-0.181963562965393,0.4544961643695831,0.1492281109094619,-0.2541062419613823,-0.0353366863191127,185
1733317727063532000,1.2078688923299312,-0.4538634194239974,1.3887503601372242,3.564971824930608,-4.38706269980818,8.013429196900129,0.7102988958358765,-0.1787204146385193,-0.0009563236380927,0.8334322883732727,-0.1126429090917777,-0.2806072062121117,0.4625601510450385,-1.4891458749771118,0.1402635723352432,0.4994648993015289,0.0571720190346241,-0.0432803630828857,-0.0226756930351257,0.1437426805496215,-0.2591058909893036,0.2007131264805793,0.212363138794899,-0.334739100414887,0.2465647770732641,186
1733317727103532000,0.7386211490303277,0.3006067483842373,-0.3734066116571426,3.698433369915187,-4.077459867280721,8.115805283269285,0.9661632180213928,-0.4158537685871124,-0.3881120979785919,0.8352489419757325,-0.0940841912986422,-0.278131696076196,0.4649195892302633,-1.498552680015564,0.4516362249851227,0.4206681549549103,0.0486693195998668,-0.0655726790428161,0.0118057131767272,0.156269297003746,-0.3362482190132141,-0.0517734418570995,0.2754981815814972,-0.4162358822213485,0.528287084506452,187
1733317727143532000,-0.5797185810580849,0.9005147155120968,-1.2786001326352356,3.919180984164774,-3.741683898098767,8.173751276281475,0.6731651425361633,-0.5426801443099976,-0.4481080770492553,0.8380320910652782,-0.0734543014297099,-0.2790325048062357,0.4630848292523014,-0.4075213968753814,0.205182284116745,0.4630202651023865,0.0778002142906189,-0.1193028539419174,0.0212669372558593,0.300402969121933,-0.4017703831195831,-0.1352940211087465,0.236019879579544,-0.4811593495633453,0.5360565494641661,188
1733317727183532000,-1.7727759809643029,1.0697285418793558,-0.6216431213349104,4.03469799939692,-3.561643265029788,8.197944637295603,0.231544554233551,0.0314242914319038,0.0646402612328529,0.8396319148652633,-0.0626724418172083,-0.27945182962483,0.4615159898910693,-0.8685523867607117,-0.1498629003763198,0.3138302564620971,0.040606964379549,0.0482914298772811,0.0390484929084777,0.4570585191249847,-0.4045335054397583,-0.1824485709935426,0.132378339767456,-0.6065944956870749,0.4681447504937648,189
1733317727223532300,-1.7855691193029284,0.8175321886599063,-0.3388251276195049,3.973869436685741,-3.5541046862185,8.230861987513304,0.0613491907715797,-0.0086412830278277,0.417184978723526,0.8374944571083074,-0.0620938094413633,-0.2765631884035563,0.4671832462895388,-1.2913202047348022,-0.0973055735230445,0.1933071762323379,-0.0169693492352962,0.1170114874839782,-0.0427654981613159,0.5793383121490479,-0.3977742195129394,-0.1470323896974325,0.1227810531854629,-0.6372277170229703,0.3953372884362935,190
1733317727263532300,-0.990107308153808,0.4335749568939209,0.5772065982371568,3.975377210900188,-3.596016074752808,8.211907696196436,0.1094475165009498,-0.2640578150749206,0.2831112444400787,0.8332756090439096,-0.0617997752135782,-0.2783702979479607,0.4736480729709562,-0.7814670205116272,-0.101161353290081,0.4337107241153717,0.0225651357322931,-0.1305906772613525,0.0180699825286865,0.609415590763092,-0.4810253977775574,-0.1531476577073335,0.198706105351448,-0.5495739834893495,0.4619903195172548,191
1733317727410173700,1.0141337881684305,1.8619445029750463,-1.291335695567727,4.258796093118191,-3.09211524348408,8.274773025432228,0.3818762302398681,-0.122122548520565,-0.8325988054275513,0.8312988571369612,-0.0289969280044989,-0.2779625319861562,0.4804564246326804,-0.796652615070343,-0.3124150037765503,0.0791460424661636,-0.0420249700546264,-0.2416239976882934,0.0559945106506347,0.4893209934234619,-0.6225854158401489,-0.2655216439397074,0.3113824129104614,-0.4640502477217465,0.5139765273422002,192
1733317727449953500,0.5125567236721515,0.8846516682088374,-0.8958575373560189,4.4206957970798015,-2.8248528385579585,8.285411323824524,0.1393229067325592,0.0397332236170768,-1.3376860618591309,0.8409761424305972,-0.0179581229878173,-0.2779192165672605,0.4638940199295174,-0.3836003541946411,-0.5385926365852356,0.1743183583021164,-0.019202597439289,-0.0601373314857482,-0.1285382509231567,0.4432005286216736,-0.5443440675735474,-0.3609248408226296,0.4617556035518646,-0.8018903098266571,0.4919275944782421,193
1733317727489953800,0.3257870746091008,-0.2613654558420181,0.8578197753846645,4.523368820568919,-2.5217443364858627,8.327683946886658,0.1585254669189453,0.1193187236785888,-1.390124797821045,0.8550498774003947,-0.0091833891190685,-0.274448435631893,0.439867392594745,-0.0531398840248584,-0.5473478436470032,0.1923775970935821,-0.0282181203365325,-0.1875723898410797,-0.1312011480331421,0.3024259209632873,-0.4419450163841247,0.2118009222060441,0.4944081008434295,-0.6657233783408999,0.1302136491045355,194
1733317727529953800,-0.3806155201226472,-0.5841004494041204,1.0915268244504928,4.6002463085442775,-2.215319841733575,8.372602700543403,0.2790081799030304,0.2719420492649078,-0.9891541004180908,0.866144402799198,0.0008162278901638,-0.2703985687667128,0.4203308019459971,0.2633001208305359,-0.4933589398860931,0.2267470955848693,-0.0393797904253006,-0.1129922270774841,-0.2314878702163696,0.1394808143377304,-0.3600290715694427,0.4173375233203172,0.5481442213058472,-0.4924133687011897,-0.0890825972929596,195
1733317727569953800,0.5115051687926053,-0.8731536842472851,1.483184547591209,4.404239752319455,-2.034155319201201,8.522633103013039,0.0421177931129932,1.0848252773284912,-0.2262942641973495,0.8758474165880966,0.0011183421495563,-0.2558620749452202,0.4091757309086147,0.2464332431554794,-0.5105252265930176,0.0416936762630939,-0.0738070979714393,-0.0785450637340545,-0.210977554321289,-0.0634752511978149,-0.2700926661491394,0.579186958399415,0.6216526627540588,-0.2723817207012325,-0.1587763112440705,196
1733317727609953500,1.736352083930373,-0.0224755973108112,1.094511977741122,3.999107922838628,-1.959623955960572,8.737127502086759,0.3098687827587127,1.1720826625823977,-0.1422760039567947,0.8828137834168888,-0.0053972639148092,-0.2334552260785184,0.4075652618140468,0.2906116247177124,-0.3973617851734161,-0.154950737953186,-0.1132729947566986,-0.0920220613479614,-0.1438538432121276,-0.2664313316345215,-0.180156260728836,0.7478285378366708,0.6951611042022705,-0.0522012388151139,-0.2308013907521963,197
1733317727649953500,2.82612738853842,0.442244147170335,0.2416951252102851,3.694031920085848,-1.7559126705773174,8.912983835208415,0.4228995144367218,0.6576803922653198,-0.7533364295959473,0.8905070286045087,-0.0042435843532176,-0.2134157532034485,0.4017870788737243,0.1231978610157966,-0.1299356967210769,-0.3177894651889801,-0.1702373921871185,-0.0739166140556335,-0.0288332104682922,-0.4364896416664123,-0.1589657962322235,0.4694020570784807,0.7481564879417419,0.1921496616009622,-0.2161462579339742,198
1733317727689953500,2.1847864640429613,0.5312254760459065,-0.844900088056922,3.657065586738288,-1.4939938186362385,8.975758563551306,0.1009826362133026,-0.0442400574684143,-1.2317057847976685,0.8997241730754089,0.0033728219214185,-0.2057967608426045,0.3848801728413435,0.1749175041913986,0.1595194488763809,-0.3343771696090698,-0.1600073277950287,-0.005679428577423,-0.014191448688507,-0.5436489582061768,-0.1727029532194137,-0.1734872659027576,0.783488392829895,0.3791528271589428,-0.1404556416556239,199
1733317727729953800,1.3804258916452523,-0.2298230472393334,-0.7456547009289264,3.7771333971425887,-1.316980862825364,8.95372617996335,-0.1455062478780746,-0.1292063146829605,-1.438525676727295,0.9093205611406296,0.0086601693463238,-0.2083555212186543,0.3600682310218819,0.0977827832102775,0.5364100933074951,-0.5039511919021606,-0.0625530704855918,0.0425910949707031,0.0839259624481201,-0.6341487169265747,-0.1863953173160553,-0.4505354440450668,0.7966781258583069,0.5527088474489749,-0.1061452296443283,200
1733317727769953800,-0.0528527615264058,-0.977893431007862,-1.077428740993142,3.879834477682412,-1.134690258872509,8.934749676814675,-0.0407846570014953,-0.1200235486030578,-1.285794377326965,0.9185907176576232,0.0135847756970063,-0.2104043824123772,0.3342703652144043,-0.0055422722361981,0.9210859537124634,-0.5622265934944153,-0.0438642725348472,0.0245216488838195,0.1950894594192505,-0.7783052921295166,-0.1286585032939911,-0.4251975891709327,0.9472537040710448,0.6734444741122424,-0.117592360201478,201
1733317727809953800,0.4044163746878504,-1.0204911213058978,-1.5534341418594122,3.936570802643895,-0.9430534421645104,8.932214020857215,0.1148286908864975,0.2778612375259399,-1.1914373636245728,0.9262268720816356,0.0189893360414897,-0.2102932083345154,0.3122819728060149,-0.4282232224941253,1.1174052953720093,-0.5979936718940735,-0.0712244138121604,0.0339132249355316,0.2554057836532593,-0.966545581817627,-0.0782534927129745,-0.9524182134896516,1.3258360624313354,0.7340835056006908,-0.034086686258018,202
1733317727849953500,0.1115747073471546,-0.5677523950628935,-2.519370008569956,3.766134156483412,-0.6642138505607843,9.030251201239228,0.308542788028717,0.6498969793319702,-1.2321897745132446,0.935929747943133,0.0250993234004622,-0.197371064035637,0.2906033155926848,-1.226584792137146,1.2540324926376345,-0.4983594417572021,-0.0594431087374687,-0.0249038934707641,0.1755782961845398,-1.1251096725463867,-0.0040796175599098,-1.279313833862543,1.616993069648743,0.6815551537230611,-0.211995641060546,203
1733317727889953500,0.0744692577898502,-1.0107707414761185,-3.627381519353389,3.79755366935879,-0.4492432853426784,9.030346478307246,-0.0363666787743568,-0.569990873336792,-1.214553952217102,0.9422605274325696,0.0318349272267046,-0.1963848666971285,0.2693783350956113,-1.32371985912323,1.1650676727294922,-0.4429593086242676,-0.0269834510982036,-0.1356965899467468,0.1537272930145263,-1.24211323261261,0.0517145618796348,-1.6034510954380037,1.6666876077651978,0.5817207146607339,-0.0982867346962913,204
1733317727929953500,0.4129170765295624,0.3703723950603976,-3.1047640049159524,4.0364074336633085,-0.3000427578259259,8.932399898818135,-0.4320722818374634,-0.9665221571922302,-1.777851939201355,0.9477182997597888,0.0363669243192535,-0.2079706320150485,0.2392814919302773,-1.3807491064071655,0.8919706344604492,-0.4921151995658874,-0.0057775806635618,-0.0074701309204101,0.0984463095664978,-1.240920066833496,0.1082460433244705,-1.549599678263068,1.6108342409133911,0.5064586990579962,0.1808431085582822,205
1733317727969953800,0.1904334322676062,0.3793731919113546,-2.103111512658,4.5207565922439095,-0.1932240128342062,8.700333602696656,-0.7796155214309692,-1.343811273574829,-1.9325270652771,0.950624465208508,0.0388724739982479,-0.234297589282767,0.1997664942057125,-1.2957892417907717,0.87944096326828,-0.3096160888671875,-0.0600527785718441,-0.0736722946166992,0.0910789966583252,-1.0955440998077393,0.1678736060857772,-1.0996282978415488,1.469606637954712,0.5826971584774553,0.3035048079133033,206
1733317728009953800,-1.256959670974314,0.3277478898206725,-0.2569990773260593,4.88267851781249,-0.1733218644742853,8.502928285589814,-0.8320136666297913,-0.6067293286323547,-1.269447684288025,0.9523022206362431,0.0345185992962867,-0.2554990542116671,0.1632455944021976,-1.390120267868042,0.8264157176017761,-0.1679157465696334,-0.0014852695167064,-0.0079908967018127,0.0809225440025329,-0.8727866411209106,0.1442549675703048,-0.5648737708866596,1.2434037923812866,0.7462696179568767,0.3326765418618917,207
1733317728049953800,-1.1464859106063845,0.0010873751115985,2.471517539548873,4.943539521488547,-0.1781087516909465,8.467589845705032,0.102174088358879,0.2621663212776184,-0.1843773871660232,0.954111597474614,0.030272478824326,-0.259531608066873,0.1462802253367831,-1.7595003843307495,0.5395565032958984,0.0222254376858472,0.015285886824131,-0.0159084796905517,-0.0257090926170349,-0.5957884788513184,0.1393563002347946,0.1660182451963424,1.054590940475464,0.9376645156677812,0.6155578100718557,208
1733317728089953500,-0.2400301146075129,0.4430304021771997,1.3007324694663285,4.79724304485023,-0.0990135693998076,8.552603878384827,-0.1199251413345336,0.0530841089785099,0.0886288955807685,0.9557146996931314,0.0341889627212435,-0.2505387407259767,0.1505682558994049,-2.012392282485962,0.0823252275586128,0.265497088432312,0.0392209887504577,-0.0415461659431457,-0.1365309357643127,-0.3208814561367035,0.0585838481783866,0.6727157214462757,0.941221296787262,1.0744463641814888,0.9348933704540132,209
1733317728129953500,-0.7501122648596763,2.32953761093542,2.4451398202329875,4.748578382663428,-0.2259320859490893,8.577315710315109,-0.4432837069034576,0.3374650776386261,0.0225520860403776,0.9566397639702297,0.0266959926857004,-0.2489295733662189,0.1488685250095628,-1.957828164100647,-0.3178810179233551,0.5816180109977722,0.0500494986772537,0.0042237639427185,-0.1695708036422729,-0.1223751902580261,0.1869582235813141,1.092830308264494,0.8041258454322815,0.741476611526683,0.7267725980654358,210
1733317728169953500,-0.972440426298976,2.125250863751769,3.3817677593946454,4.576611458195746,-0.4053161730717867,8.663759483537078,-0.4297429621219635,0.7768654823303223,0.1801817715167999,0.9589693859581624,0.0157969849325558,-0.2408768326073535,0.1486826198814906,-0.9090689420700072,-0.3883993625640869,1.1499502658843994,0.0454448387026786,0.0157545804977417,-0.1319081783294677,-0.0085115432739257,0.1687574386596679,0.9250105666041374,0.6297345757484436,0.3858651842791586,0.6565986993819475,211
1733317728209953500,-0.9150421302974224,2.2260127929225564,3.412547513061761,4.176243774376809,-0.5705719459956512,8.854593021038173,-0.3616038858890533,1.251369833946228,0.3426914811134338,0.963451155402626,0.0046443474172339,-0.2202721525172939,0.1523827470864053,-1.9449858665466309,-0.5532762408256531,1.871425986289978,0.0598810911178588,-0.2505823373794555,0.0078752040863037,0.1053521111607551,0.1505566537380218,0.7624456767320632,0.4553433060646057,0.0294346226684749,0.5879165005609392,212
1733317728249953800,-0.6746171711534261,1.4966194909647106,3.4576100591033696,3.8063825802415607,-0.7680340713236481,9.005107407632469,-0.4031370282173157,0.6442418694496155,0.2484143823385238,0.9667469622822176,-0.00777704345915,-0.2020069682730484,0.1566302723541926,-2.1267786026000977,-0.5615864992141724,2.792482376098633,0.1041717231273651,-0.2715229988098144,-0.0378461182117462,0.2035825252532959,0.2605384886264801,0.6954349182546138,0.3394350707530975,-0.2943421715641394,0.443455422656238,213
1733317728289953800,-1.5737731655329463,-0.4852232380013913,3.590530336818099,3.715237205199897,-0.7925322605032473,9.040978346958756,0.6346433162689209,-0.2191384136676788,0.4027662575244903,0.9667048393237164,-0.0085949407593261,-0.1973943124340079,0.1626142541228339,-1.5205382108688354,-0.4481174349784851,3.3899731636047363,0.1014244258403778,-0.2673025727272033,0.0934720039367675,0.3796365857124328,0.3291545510292053,0.4486392550349235,0.1736975461244583,-0.4980184221666306,0.2069537744358182,214
1733317728329953800,-1.803324556224048,-0.4572720953563228,0.8126549380123614,3.913214769236743,-0.4866419456928968,8.978881664007902,1.1690481901168823,-0.8054856061935425,0.4653523564338684,0.9628519039505384,0.0115629753940871,-0.2051115439706876,0.1752474097960785,-0.8480135798454285,-0.1417568325996399,3.9846017360687256,0.2339569926261901,-0.25314462184906,0.1437745690345764,0.5957012176513672,0.2698042690753937,0.2452881812661886,0.0042247474193573,-0.3990745752684771,-0.0041053894922137,215
1733317728369953500,-2.0546262986913324,-0.2917565572514198,-1.849423167315125,4.214495471359789,-0.2300297122599557,8.851864472857118,0.5898657441139221,-0.8720381855964661,0.5739086866378784,0.9570631009797896,0.0306689490304468,-0.218494715466483,0.1880153965216594,-1.2411770820617676,-0.0071644415147602,4.077544212341309,0.375883400440216,-0.3442457914352417,0.2652220427989959,0.7552736401557922,0.2061573415994644,-0.4463198721766471,-0.1059410497546196,-0.4246044455833733,-0.3214101746991276,216
1733317728409953500,-1.3372010824248195,0.3030702158883214,-2.365323356196284,4.43963752117604,-0.2423173670281656,8.740783101984858,0.163380280137062,-0.3152743279933929,0.8842293620109558,0.9510244489100208,0.0361661841319833,-0.2302956902146226,0.2029984703660227,-1.5355466604232788,0.0280103217810392,4.302343368530273,0.3449660539627075,-0.2505596280097961,0.3488198816776275,0.7710431814193726,0.1413623988628387,-0.999667455920577,-0.1286918669939041,-0.4612096174683421,-0.5762941595673561,217
1733317728449953500,-0.524176726578176,0.8905454754877835,-3.2826895455271003,4.418495364426076,-0.3409265934107825,8.74820302285254,0.3047337830066681,0.2344492077827453,0.9901893138885498,0.946947198891607,0.0354880882252976,-0.2295787139671107,0.2220927313511929,-1.86647367477417,0.227884292602539,4.279972553253174,0.2417314648628235,-0.1320739388465881,0.2615299522876739,0.6283857822418213,0.1140769720077514,-1.1659715323209765,-0.0842323079705238,-0.4699934836329892,-0.734165046404302,218
1733317728489953800,0.828247351680696,0.5579364824367686,-5.657983091595769,4.425678553928434,-0.4108427179409191,8.741565192273258,-0.0266265366226434,-0.4576506018638611,0.689054548740387,0.9423107853119626,0.0364654109522449,-0.2301618653732216,0.2403043596125861,-1.9687540531158447,0.5027675628662109,4.162538528442383,0.2627161145210266,-0.0658367872238159,0.1878591328859329,0.404777854681015,0.02956984937191,-1.077518172842264,0.010630190372467,-0.4227756227210164,-0.5824938909903168,219
1733317728529953800,1.1192857689917086,0.6129293612644076,-5.8740457628995175,4.664805874477326,-0.6434554324313998,8.602088917043805,-0.921394944190979,-0.8631725907325745,-0.0436383858323097,0.93774919493097,0.0288830850800426,-0.2461326668814092,0.2433329470585355,-1.74161696434021,0.5053152441978455,4.157371997833252,0.2681800127029419,0.1985826790332794,0.1328997015953064,0.1672651022672653,-0.0981726646423339,-0.9416641797631978,0.1436270028352737,-0.6524856380399316,-0.4546528162360191,220
1733317728569953800,1.0327905578434466,-0.9452947913505136,-6.481610674521327,5.015561386126279,-0.9679715372566132,8.371234334799647,-1.323532223701477,-1.2129247188568115,-0.3265036344528198,0.9340124806711618,0.0146384884850648,-0.2701324785709035,0.2333127203289076,-1.3823027610778809,0.2683387100696563,3.689920663833618,0.2835985422134399,0.320063829421997,-0.0006900951266288,-0.0255864411592483,-0.1135279536247253,-0.6569681172162294,0.2688786685466766,-0.8526815357133746,-0.1354173552274704,221
1733317728609953500,1.313582014167309,-2.5201582363381982,-6.614730858722329,5.4045478442311286,-1.4714248439535498,8.04960584117472,-2.4368741512298584,-0.7869577407836914,-0.7106903791427612,0.9301499329732152,-0.0122733545870092,-0.2990546486721875,0.2126893180662834,-1.7326900959014893,0.0334764085710048,2.865439176559448,0.2158671021461486,0.482004702091217,-0.0407440587878227,-0.1145291626453399,-0.1808507740497589,0.4021516446262598,0.4580238461494446,-0.7617758146464825,0.6151636961877346,222
1733317728649953500,0.6150912154734134,-4.179760550326109,-6.866902369761466,5.630632727855444,-2.175797540292889,7.728665329813957,-2.9633593559265137,-0.5816851854324341,-0.6906872391700745,0.9277409122255356,-0.0564759797595498,-0.3205591946541536,0.1826175203828555,-1.71135413646698,0.1982568353414535,1.916375994682312,0.1340059638023376,0.5487231016159058,-0.1355811357498169,-0.0142605379223823,-0.217642992734909,1.0695873798429965,0.5973802208900452,-0.4810214023973792,0.8899220098271965,223
1733317728689953500,0.4495680603176355,-5.568556503170728,-7.372395146396756,5.959260286587476,-2.979191751876473,7.195971827042103,-3.5060746669769287,-1.2162224054336548,-0.610912561416626,0.9188111307717196,-0.1082119294438814,-0.3484217381882952,0.1505938678108941,-0.9709458947181702,-0.0183432195335626,1.1091482639312744,0.1562596559524536,0.7072564363479614,-0.2079807519912719,0.1182764247059822,-0.2744599282741546,2.1017378862172365,0.6423717141151428,0.0242607271619141,1.204609306012094,224
1733317728842061600,1.3469804259002207,-10.394254658132793,-3.9960461971804495,7.623942388057708,-5.867312070730328,1.9027657581850883,-3.468708276748657,-4.33478593826294,1.9885903596878047,0.765745691570263,-0.3165129317404674,-0.5502776648427417,0.103186546748502,1.2894046306610107,0.0200736783444881,-1.7913429737091064,-0.0199350714683532,0.5367923378944397,-0.1274995654821396,-0.2096358686685562,-0.2291249930858612,-0.9588675357595086,-0.2887680530548095,0.5221702455939725,-1.2355296371936797,225
1733317728881839000,4.351602971631288,-11.375863310271502,-1.9104630346894265,7.158820784777403,-6.701706546863913,-0.0939320831507444,-3.62036395072937,-3.087202787399292,2.5808894634246826,0.6928394465187021,-0.3872302606075324,-0.5956860992625359,0.1232252165089389,1.0352357625961304,-0.0520506873726844,-2.2365307807922363,0.1070353984832763,0.4591153860092163,-0.0713868886232376,-0.5084997415542603,-0.0337975919246673,-0.0525290551305282,-0.2805128395557403,0.6653107058867812,-0.5078136573309079,226
1733317728921839000,5.250446246799826,-8.7896806961447,1.013283893340826,6.402133817702532,-7.201491467246413,-1.8225243467345835,-3.62445330619812,-2.139625310897827,2.1653711795806885,0.6241793978338847,-0.4569882443832253,-0.6197456163350045,0.1322013813114496,0.9844204783439636,-0.523586630821228,-2.751624345779419,0.2556607723236084,0.3685105741024017,-0.0860412716865539,-0.4941755533218384,-0.0261846296489238,-0.4656003267079591,-0.4051185250282287,0.5188927948258817,-0.5966989419534802,227
1733317728961838800,4.224970980405807,-5.368478751984238,3.997116164499521,5.6532057941913605,-7.351615393218398,-3.1883243316560983,-3.5246732234954834,-0.5218356251716614,2.0539255142211914,0.5670875522257771,-0.5223728882425416,-0.6242482438674612,0.1259064783671425,0.9493994116783142,-0.9254893660545348,-3.259075164794922,0.1637287139892578,0.1757455617189407,0.0193011611700058,-0.4476937055587768,-0.031085567548871,-0.8470750940084457,-0.4982504844665527,0.4371829182580113,-0.6280614639446139,228
1733317729001839000,4.0594940024793145,-3.2774136509507894,5.531477941620349,5.111945538604259,-7.244655486190319,-4.189678133228421,-3.140970230102539,0.1863923668861389,1.5738998651504517,0.5248223094384835,-0.5816817123209324,-0.6125851154054803,0.1046305048025613,1.1522680521011353,-0.9629718661308287,-3.376859426498413,0.2006313204765319,0.0495321750640869,0.0646064430475235,-0.3838410973548889,-0.0624029338359832,-0.9698375503242016,-0.5180063247680664,0.5474518037036061,-0.4676198498368263,229
1733317729041839000,3.7437802858561273,-2.420122867876291,6.249271991199255,4.766708790376782,-6.991633495801687,-4.95640251019299,-2.420421600341797,0.0673653408885002,1.0410226583480835,0.4904081446827132,-0.6259197823144342,-0.6007750330306685,0.082423433953764,1.3127470016479492,-0.8395506143569946,-2.975591897964477,0.1954768896102905,-0.0983075499534607,0.1552170515060424,-0.3348689675331116,-0.0814389884471893,-1.138028463384509,-0.4619695544242859,0.5515674223288893,-0.3743947459116578,230
1733317729081839000,3.015405805552005,-2.0105723451703787,6.260096752074361,4.511514716646075,-6.716741034388542,-5.540937843883038,-1.87753164768219,-0.1270168423652649,0.8468593955039978,0.4616499121524743,-0.6569929055800031,-0.5923424165922677,0.0661066353529671,1.4564306735992432,-0.7860961556434631,-2.4614572525024414,0.2065228819847107,-0.2389565110206604,0.2310451865196228,-0.2783857583999634,-0.0689188092947006,-0.8243710947692394,-0.3630018234252929,0.7305249363362789,-0.1714364708527922,231
1733317729121839000,3.0930165762379764,-1.685702093145251,6.324582960510254,4.225010435633361,-6.458323906958102,-6.050596508026123,-1.6723209619522097,-0.4191836416721344,0.8334144353866577,0.4339085102645951,-0.6821640923340531,-0.5857872614936711,0.0568228225131303,1.2889609336853027,-0.8050398826599121,-1.81268322467804,0.1991586685180664,-0.3213807940483093,0.2868373990058899,-0.2090533375740051,-0.0324222147464752,0.1032768346011638,-0.3117104172706604,0.9460155068404972,0.045362405771017,232
1733317729161839000,3.9787618849024176,-2.47821966753602,7.175232990396022,3.9141728006139394,-6.192531282323598,-6.51937078859508,-1.5200591087341309,-0.3170765936374664,0.8792197108268738,0.4062586102134101,-0.70507625764093,-0.5790188930805712,0.0505819681070397,1.0644530057907104,-0.5377615690231323,-1.009894847869873,0.2420504689216613,-0.3885382413864136,0.3496471345424652,-0.1361462175846099,-0.0270672142505645,0.5235293685853482,-0.284586101770401,1.0893832365505396,0.246738380074501,233
1733317729201838800,5.177102193647623,-2.833281644207239,8.258127011057734,3.6506180180341,-5.985310673645138,-6.857069542533159,-0.9372384548187256,-0.0561558753252029,0.7949867248535156,0.3850907702268735,-0.7248235368482415,-0.5694243579718035,0.0457357562145702,0.717427670955658,-0.3689703941345215,-0.3655624389648437,0.3407214283943176,-0.442216157913208,0.3437684178352356,-0.0980433374643325,0.033033113926649,1.5535896246820686,-0.2036173045635223,1.062688998631388,0.7530728682309389,234
1733317729241839000,5.863679851707816,-2.8891788879960774,8.686532456359267,3.5203938475355505,-5.933305176597833,-6.969441537737846,-0.0287046339362859,0.1697707921266555,0.4229612052440643,0.3777963768828558,-0.7355931379623118,-0.5605759255847401,0.0439011932423598,0.2193193286657333,0.1917549818754196,0.4774133861064911,0.2224012613296508,-0.5732409358024597,0.382989227771759,-0.0872232466936111,0.0945852696895599,1.4383862054437395,-0.1136439219117164,0.6384354123122989,0.7120110822632908,235
1733317729281839000,6.334857101765275,-3.4290473969638344,8.377914835476874,3.553045240293443,-6.114388888978958,-6.794149268239736,1.1673651933670044,0.409930408000946,-0.0083031933754682,0.389070658146496,-0.7341313870742697,-0.5544874357190928,0.0471031395827461,-0.2820841073989868,0.6090653538703918,1.410133719444275,0.3549287319183349,-0.5333450436592102,0.327402263879776,-0.0685526579618454,0.2715592384338379,1.009557566294074,-0.1762039363384246,0.1999105779260397,0.3887441737815738,236
