time_imu,phone_acc_x,phone_acc_y,phone_acc_z,phone_gravity_x,phone_gravity_y,phone_gravity_z,phone_gyro_x,phone_gyro_y,phone_gyro_z,phone_ori_w,phone_ori_x,phone_ori_y,phone_ori_z,watch_gyro_x,watch_gyro_y,watch_gyro_z,watch_acc_x,watch_acc_y,watch_acc_z,headphone_gyro_x,headphone_gyro_y,headphone_gyro_z,headphone_acc_x,headphone_acc_y,headphone_acc_z,frame_imu
1733406303535018000,-0.6323281814783811,13.826280778646469,-4.359280082130432,0.192094132021442,9.589311317411063,-2.044161457169801,-0.895622730255127,-0.2320391833782196,0.513109564781189,-0.2978051492037303,-0.3541771435932072,0.6919405875990761,0.5541560163929303,0.7668612003326416,1.3894232511520386,-0.8233400583267212,-1.2507195472717283,0.6386083960533142,-1.0556796789169312,0.2373525202274322,-0.0411678031086921,-0.3080874595284462,-0.2214944660663604,-0.1884405048847198,0.0496975123658776,0
1733406303575018000,2.835833082255721,12.423351086509228,-5.423019904989004,0.397536442448385,9.695929863655566,-1.4146705449439585,-2.30806040763855,-0.2692055702209472,0.3311390280723572,-0.3121648720432384,-0.3334391331806038,0.6789303860445374,0.5748260483565631,2.062555313110352,1.2121692895889282,-1.2887959480285645,-0.9553070068359376,0.8473137617111206,-0.4492154121398926,0.272829532623291,0.1670333743095398,0.7357908940404653,-0.3460376858711242,0.0687931849148124,-0.5015414086610078,1
1733406303615018000,1.3908451404593885,3.831276198479533,-4.322359341490269,0.3299873393105342,9.79652082017362,-0.2994977642290294,-3.293453931808472,-0.5607231855392456,-0.528771698474884,-0.323442869221149,-0.3118878631677266,0.6465261766915767,0.6165344443272232,1.7455925941467283,0.496903657913208,-1.8320597410202024,-0.3947375416755676,0.3531648516654968,0.1117834746837616,0.0882982090115547,-0.035438522696495,0.6974012498915195,-0.4966335296630859,0.1114954315658658,0.1794333148255944,2
1733406303655017700,0.5320777089610695,-5.993790917220712,-0.8394599428296089,0.0751515409655868,9.762563605514169,0.925800621003285,-2.7793970108032227,-0.603308916091919,-0.778018057346344,-0.3258817829621677,-0.2917818476845113,0.6063502755434896,0.6640812244332475,1.445725679397583,0.075728990137577,-1.694609761238098,0.3769304752349853,0.03268563747406,0.5379507541656494,0.0586231388151645,0.0480854362249374,0.3602157061725854,-0.3034022748470306,-0.0797565505430102,0.6789335730478168,3
1733406303695017700,0.2100608918719924,-12.295644744050502,-0.1595980028904974,-0.1859691098025068,9.638678867170212,1.7976807051181791,-1.7895841598510742,-0.2423596233129501,-0.6660559177398682,-0.3234700009531676,-0.2798615744051874,0.5744747986092694,0.6978705460324195,1.350168228149414,-0.0644214004278183,-0.8291547894477844,0.9476471543312072,-0.3129306435585022,0.720811128616333,0.0730719789862632,0.0914475843310356,-0.431750664076209,0.0736623331904411,-0.0818432936891913,0.3776417650088667,4
1733406303735018000,0.7345802761416882,-15.242496653336286,0.5105611659407615,-0.4071732721805572,9.494617017716168,2.420091303694248,-0.4120344221591949,-0.3046379685401916,-0.4320045411586761,-0.3194874779396696,-0.2721411870222177,0.5500444170934304,0.7220236111443655,0.2706730365753174,-0.1799381524324417,-0.5112884044647217,1.194772481918335,-0.5214053392410278,0.7471688985824585,0.082305684685707,0.1388230919837951,-0.9206845200985668,0.0884989798069,-0.1297434743095189,-0.2506383101224899,5
1733406303875781600,0.1605587742140516,6.039101885065436,1.524414968124032,-0.2388194053771905,9.72671604706347,1.2265228855259716,1.304855465888977,0.4779827892780304,1.099017858505249,-0.311436536093035,-0.289327680395705,0.5947724167164102,0.6823068636176238,-1.3709477186203003,-0.6756604313850403,1.3860596418380735,0.1995359063148498,0.1902564167976379,0.029267281293869,-0.0877386555075645,-0.0174259319901466,0.675909841312468,0.5620739459991455,0.0949975478246342,1.7927151916652917,6
1733406303915581200,0.7378999220836907,7.913746002876758,0.8603864110022783,0.0282446000331547,9.79017817314863,0.5674556771386414,1.9907464981079104,0.3802512288093567,0.4235046505928039,-0.3157501724044209,-0.2961937700474503,0.6191421985171853,0.6551595668432303,-1.234066605567932,-0.5112829208374023,1.1682124137878418,-0.9677247405052184,0.5370771288871765,-0.2147138118743896,0.0240648426115512,-0.1678492128849029,0.7949076843976974,0.6630642414093018,-0.1441904990687035,-0.0446549059556331,7
1733406303955581200,2.091252586429566,7.201838673248886,-1.9799322922348968,0.0032246682702054,9.806271814337371,-0.0862642793360631,1.2160778045654297,0.6170995235443115,-0.5108386874198914,-0.3127952984910604,-0.31534971579785,0.6363590268914797,0.6306829829830188,-0.7081089615821838,-0.7174896597862244,0.5630757808685303,-0.509091317653656,0.375643789768219,-0.1979520916938781,0.0418992862105369,-0.1271989196538925,0.542164510950446,0.4597624540328979,-0.1309076957833022,0.1916562520608306,8
1733406303995581200,0.3472997451718896,3.3069039493292567,-1.598271062451601,-0.190030660152994,9.79611223937273,-0.4128585147427395,0.4907296597957611,-0.2765418291091919,-0.3332670629024505,-0.302580061102035,-0.3281300787119005,0.6429467921534789,0.6224109295317859,-0.7344191074371338,-0.433846652507782,0.3844804167747497,-0.3785132169723511,0.1856560707092285,-0.4136044681072235,0.0597337260842323,-0.086548626422882,0.2894499790757894,0.2564606666564941,-0.1176268469929695,0.4279913115426897,9
1733406304035581400,0.035021409824863,2.31320387738049,-0.2401076002905145,-0.2639670349088497,9.792479435828328,-0.4561560604058206,-0.155979573726654,-0.21771802008152,-0.1180435121059417,-0.2961544623956232,-0.3277611796626711,0.6448488931066154,0.6237268565264157,-0.1142930313944816,-0.3860344290733337,0.0458590872585773,-0.1677493453025818,0.2336096763610839,-0.2969552278518677,0.039029411971569,-0.0444030053913593,0.0340647666871547,0.1925798952579498,-0.1644442738778889,0.1249129123479127,10
1733406304075581400,-0.7613692066069692,0.8155740403294562,1.3966449127793312,-0.3037512569550424,9.792536134451629,-0.4293874420762061,0.1011553406715393,0.0569657757878303,-0.0657349154353141,-0.2940241929882474,-0.3273169759072951,0.644015733022998,0.6258251958621956,-0.1335375607013702,-0.130437433719635,0.0923623442649841,-0.1213550567626953,0.1159291267395019,-0.0717999339103698,0.0181643981486558,-0.0161905921995639,-0.0092383684664964,0.0719109922647476,-0.1270311466109007,-0.0391106518998742,11
1733406304115581200,0.0620177724957466,0.0879120922088623,1.0354840347111225,-0.3143068454999476,9.788469031143189,-0.5074128579776733,0.2612241804599762,0.2243476957082748,-0.0100860940292477,-0.2944256039980828,-0.3309535963512574,0.6452445833320372,0.6224489408186359,-0.0745727866888046,0.0075625604949891,0.136172741651535,-0.0720189809799194,0.020071804523468,-0.0267757773399353,0.0312625207006931,-0.0158651191741228,-0.0135094699144363,-0.0349880382418632,-0.0915289675317704,0.0194373986586928,12
1733406304155581200,0.5656727392446249,0.1582119553595781,0.5697674612123519,-0.3059018043187447,9.781315652257204,-0.6345605436403304,0.3442708551883697,0.2458085417747497,-0.0030376496724784,-0.2955835628066069,-0.3357834149937502,0.6477677671090748,0.6166658231465516,-0.0716781988739967,-0.1362246423959732,0.1801734864711761,0.0243101119995117,-0.008897840976715,-0.0468223690986633,0.0443606451153755,-0.0155396461486816,-0.0177712190121412,-0.1418870687484741,-0.0560196280594915,0.0779801885202527,13
1733406304195406000,0.8039046453237533,0.1594675083786249,0.1121265690762549,-0.330151882222481,9.77168039342761,-0.7587108010526746,0.2796926200389862,0.228802815079689,-0.1604085713624954,-0.2954784775902758,-0.3414291300810336,0.6496996501916475,0.6115627102744502,-0.0963055118918418,-0.1628686636686325,0.1835221350193023,0.006424069404602,-0.0285342335700988,-0.0194855034351348,0.1098790764808654,-0.0748241618275642,0.0300772382708149,-0.082341618835926,-0.0217100905477418,0.0735592120065353,14
1733406304235405800,0.0794935522252693,1.0241150839567184,-0.257850141197443,-0.389542776813358,9.76086556942463,-0.8626361626904457,0.2068883031606674,0.3534932434558868,-0.1694604754447937,-0.2949140159023838,-0.3483066285418152,0.6501266762076929,0.6074895095491356,-0.0910369828343391,-0.216335192322731,0.0292207896709442,-0.0149915814399719,0.0341212153434753,0.0183400809764862,0.0941582918167114,-0.0605931133031845,-0.1178390284389257,-0.0212663002312183,-0.145314625994116,-0.0453255808919668,15
1733406304275405800,-0.6041563087547197,4.5568110714435575,-0.3303694339632987,-0.4275948595710098,9.754678989744184,-0.9131182495627552,0.0446800738573074,0.3141801953315735,-0.0528893955051898,-0.2973142301606485,-0.3551518686321107,0.6484005129631444,0.6041921477033313,0.2510580420494079,-0.2031480818986892,-0.2961878180503845,-0.1600161790847778,0.151099681854248,-0.0984313488006591,0.075799360871315,-0.0350514501333236,0.0312538009196519,0.0449617020785808,-0.0846309516463428,-0.1093725211277604,16
1733406304315405800,-0.6030816287279128,12.6180342851758,-1.7647031491458416,-0.4111619764905422,9.762065008342264,-0.8386918080013245,-0.6024572253227234,-0.0242129974067211,0.0701282620429992,-0.3010086658064683,-0.3554238076497559,0.6453179824267454,0.6055017327167995,0.8654535412788391,0.0705245956778526,-1.2675718069076538,-0.7242448925971985,0.5037941336631775,-0.5729793906211853,0.0488287024199962,-0.0132985487580299,0.2658312030792236,0.0951622501015663,-0.1764754148680716,-0.0747021897628903,17
1733406304355405800,-0.8024501356665045,13.073195635455846,-3.5686920144975183,-0.3591867284510284,9.794422971111535,-0.3326594445966184,-2.0249955654144287,-0.6274727582931519,0.2344223856925964,-0.3075368000582097,-0.341568193251804,0.6326864004115305,0.6232658113496407,1.3651472330093384,1.05027437210083,-1.4801121950149536,-1.1951266527175903,0.7499129176139832,-0.7996048927307129,-0.0212103612720966,-0.0354291573166847,0.3859656489789486,0.1618319600820541,-0.0666400985341519,0.139069740255177,18
1733406304395406000,0.3532661792956292,3.700599900299311,-2.706158654594421,-0.2887722624773159,9.782345579826831,0.6266450943406671,-2.721299648284912,-0.4239862263202667,0.1109888777136802,-0.318523250168819,-0.3168102188964113,0.6063672779439344,0.6561195057200805,1.942279577255249,0.7560518383979797,-1.4322514533996582,-0.6735846996307373,0.590073823928833,-0.3150733411312103,-0.0912494212388992,-0.0575597696006298,0.5063333191126584,0.2285016775131225,0.0432431485947221,0.3527499003365635,19
1733406304435406000,0.6599409224819391,-6.9046198137372725,-1.5829174259752037,-0.282405430859141,9.655557521256805,1.6914042503096165,-2.4721691608428955,-0.0159652847796678,-0.1381427496671676,-0.3330460406846369,-0.2966105795719815,0.5707753897977974,0.6894331072477992,2.2694036960601807,0.5858942866325378,-1.3349255323410034,0.1173980832099914,0.2791810035705566,0.5350434184074402,-0.1325525641441345,-0.0916798561811447,-0.0075023384541273,0.3760709762573242,0.0520649721495807,0.4533887876495718,20
1733406304475405800,-0.1480679798228666,-13.057959487879277,-1.757478020197898,-0.3572580619433894,9.506910097578167,2.379371609162539,-1.160154104232788,-0.2235465198755264,-0.1836120337247848,-0.338827423349244,-0.2852006162072233,0.5452947977293852,0.7116952445127382,1.0112751722335815,0.4101118147373199,-0.8727420568466187,0.9982080459594728,-0.3081584274768829,0.875892698764801,-0.1189163923263549,-0.0544747747480869,-0.5280512299239635,0.4514815509319305,0.0787423319991677,0.3097641605690121,21
1733406304515405800,0.1636160428928211,-14.87998669874668,-2.207060839693248,-0.3159468312593176,9.431680961331724,2.6671961789935827,-0.4184313416481018,-0.3685161173343658,0.1830372661352157,-0.3400890054902996,-0.2754175493301362,0.5368016456270419,0.7213379990822157,0.013221250846982,0.2051044553518295,-0.3462117314338684,1.2647254467010498,-0.4311519563198089,0.7678946256637573,-0.047341451048851,0.0120219625532627,-0.847740279918909,0.3632091581821441,-0.031323139828816,0.0555129206463694,22
1733406304555405800,1.1134656845360993,-14.1089555644989,-1.181030277504027,-0.2280599830895662,9.422603920906782,2.707932386268676,0.2321225553750991,-0.0276326425373554,0.1343178302049636,-0.3408702776284373,-0.2698163054843861,0.5377109241270132,0.7224081391393707,-0.5755162835121155,0.4863010346889496,0.5829885005950928,1.188998103141785,-0.493097722530365,0.7680208683013916,0.0168362781405448,0.0406055897474288,-0.5444423927545547,0.1369569897651672,-0.0164607940007001,-0.1325391694426536,23
1733406304595405800,0.7291818511642515,-10.08723921175003,0.3191051126271486,-0.1960231602997519,9.475521272101998,2.519220663227141,0.7888157367706299,0.1860323846340179,0.1022864654660224,-0.3409518876678182,-0.2734886595738235,0.5447563210695997,0.7156790198291344,-1.1502970457077026,0.587729811668396,1.2575017213821411,0.9513510465621948,-0.5029674172401428,0.6252322196960449,0.0292227678000926,-0.0076477602124214,-0.1256903264611959,0.01312717795372,0.0405361546583473,0.1592412984073162,24
1733406304635406000,0.1833566988144069,-3.3519255788385864,0.6973373908750713,-0.136220753165381,9.5937583599478,2.027712572802604,1.750397801399231,0.2660991847515106,0.3448687791824341,-0.3393186113756807,-0.2831183368069129,0.562547277269853,0.6987469929063226,-1.756227731704712,-0.1292739063501358,1.3825076818466189,0.5781348347663879,-0.2421571612358093,0.3634941577911377,0.0211698208004236,-0.0117848832160234,0.2678448809891939,0.1974555402994156,-0.0585503886461257,0.6183399881362914,25
1733406304675406000,1.1700986952535808,3.930623292416334,-0.4130407029092311,-0.0078634005936619,9.718720372134449,1.310267482791841,1.8732494115829468,0.3037247955799103,0.3159558176994324,-0.3381538046437529,-0.2960992865804145,0.5878096281891726,0.6726493208387975,-1.9285342693328853,-0.6480772495269775,1.3000082969665527,-0.1215920448303222,0.2220884561538696,-0.0417348742485046,-0.0126572828739881,-0.1462388336658477,0.2669640065014362,0.2514541447162628,0.0287223096806555,0.3468875841744244,26
1733406304715405800,-0.1236862931624054,6.779232854136824,-0.7022668101012707,0.0186404669941868,9.79223393663466,0.5312309559386224,1.998540163040161,-0.1681806445121765,-0.1041371077299118,-0.3276313144744328,-0.3091702534250278,0.6142707173319213,0.6478757934533779,-1.7048383951187134,-0.8140986561775208,1.0042555332183838,-0.4517593383789062,0.3437846899032593,-0.1635593771934509,0.0138010904192924,-0.1035127788782119,0.0913116715192794,0.1871759593486786,-0.0841621650908142,0.1908363139800727,27
1733406304755405800,1.0930028152871876,6.218318050009012,-0.9771709619522094,-0.0786096272638998,9.804577285379173,-0.1856625098050572,1.6840165853500366,0.1143016219139099,-0.3660271465778351,-0.312165771826619,-0.3232452975904642,0.6363793135868667,0.6269660116564766,-1.5807092189788818,-0.3896981477737427,0.7195373177528381,-0.5384235382080078,0.4233813285827636,-0.2106770277023315,0.0305258370935916,-0.1384672075510025,0.0977332289993763,0.0909546762704849,-0.0322144626453518,0.1367724230982363,28
1733406304795405800,-0.5875598691429943,4.708713697525859,-2.5435540172338484,-0.1586829521385021,9.78353858900368,-0.6539019345786422,0.5864601731300354,-0.0493805482983589,0.0084403390064835,-0.302718338499848,-0.3341982234999082,0.6493468002425913,0.6123903397730656,-0.6070894002914429,-0.4025009870529175,0.2594900727272033,-0.37181556224823,0.3652236461639404,-0.4342688322067261,0.0488914474844932,-0.0722792297601699,-0.1330149702608585,0.0668760538101196,-0.1652927804660052,0.1129401504814624,29
1733406304835405800,0.1931310373211279,3.0645693571716546,-0.4592681280117481,-0.1286372118343599,9.77882558900714,-0.7269084263395518,-0.0065712477080523,0.0566222555935382,0.063963808119297,-0.3019751801574737,-0.3338635327139166,0.6523780769581149,0.6097121719631315,-0.0198219195008277,-0.1751509010791778,0.1842863410711288,-0.2433410882949829,0.2773770689964294,-0.1774934828281402,0.0547367334365844,-0.039928875863552,-0.0589320814400911,0.0427257940173149,-0.0763889738060533,-0.0377209511071443,30
1733406304875406000,0.2981057253487408,1.624062506312132,0.3341664881587028,-0.1279677972733508,9.780268189030885,-0.7073629641965031,-0.0744331553578376,-0.0098927952349185,-0.044321946799755,-0.3034606721606573,-0.3347471658971603,0.6511603551007407,0.6097918713942075,-0.0767978578805923,0.0444944277405738,0.0680698528885841,-0.1542584896087646,0.0929577350616455,-0.1269836723804474,0.0555763393640518,-0.0186699442565441,-0.1495546016514301,-0.0163039602339267,-0.0732674807846546,-0.1498378025069832,31
1733406304915406000,0.60363721678406,0.6495885283589363,1.3289011638522148,-0.185549806678202,9.77880454621911,-0.7147885110873728,0.1303469985723495,0.0078786583617329,-0.2597312927246094,-0.3006163918780544,-0.3357969979823295,0.6509104773042604,0.6108892195304113,-0.1540561467409134,0.1125397309660911,0.1839259564876556,-0.0530760288238525,0.0022876858711242,-0.027301400899887,0.0725150853395462,-0.0080427005887031,-0.1359972009420395,-0.0792296081781387,-0.020270634612441,-0.1929240800395608,32
1733406304955405800,0.0086461381943896,-0.2254839951217174,0.9885142668087036,-0.2791907431289553,9.769818691208958,-0.8019164671812206,0.2914316058158874,0.3554252982139587,-0.1942004263401031,-0.2987260609333189,-0.3429636767274537,0.6505861042347697,0.6081745808003509,-0.1543190032243728,0.0420508682727813,0.1614391356706619,0.0246464610099792,0.0229620337486267,0.0084183514118194,0.0653600096702575,0.0001460229977965,-0.2153413712918758,-0.0465155132114887,-0.0718085141479969,-0.1383282742381096,33
1733406304995405800,0.3036773880012333,0.6631359921962022,0.1773649841189384,-0.3114585433967411,9.756878545615075,-0.9363268373232334,0.3640090823173523,0.1715244501829147,-0.0327281728386879,-0.2989105371318861,-0.3499380065120631,0.6521370822162572,0.6024227367164774,-0.0699279680848121,-0.0604988895356655,0.1341129094362259,-0.0103262662887573,0.005410611629486,-0.0570377707481384,0.0582049340009689,0.0083347465842962,-0.2946048776209354,-0.0138014145195484,-0.1232636107709258,-0.0837882902771234,34
1733406305035405800,-0.2453648084326647,5.692927563726902,-0.7443958599742502,-0.2994659991175867,9.745784904670714,-1.0490114056084303,0.1175584271550178,-0.1722463071346283,0.0568988323211669,-0.2975874704189832,-0.3516234529599998,0.6556261475172586,0.5982952543904713,0.075083814561367,-0.0324427522718906,-0.1723383665084839,-0.2103257179260254,0.2092785239219665,-0.2671653926372528,0.0219850018620491,0.0712563171982765,0.3477449316561222,0.0497383885085582,-0.026852351090312,-0.1208066460728645,35
1733406305075405800,-1.0696275657229124,12.583970687532425,-1.5133505532741545,-0.2890818764157593,9.753930801725389,-0.9734764913484454,-0.5705302357673645,-0.1715031713247299,0.0518414303660392,-0.2966054842821286,-0.3472244164848265,0.6550333519865146,0.6019898049684601,0.6257991790771484,1.107365965843201,-0.6876842379570007,-0.9842309951782228,0.745863676071167,-0.6913834810256958,-0.014234934002161,0.1341778934001922,0.9902718510657548,0.1132781952619552,0.0695451723258942,-0.157870886836946,36
1733406305115406000,0.0498385100054554,12.287716289138793,-4.066996925455332,-0.2422722857774235,9.7944533662498,-0.4246753188624977,-2.3699629306793213,-0.2409513741731643,0.3104995489120483,-0.305863711044549,-0.3353296692105423,0.639692447564158,0.6203183738990171,2.275256395339966,0.9844762086868286,-0.6545326709747314,-0.8656167387962341,0.9101958870887756,-0.8493902683258057,-0.1065029948949813,0.0305986404418945,0.9383417573422193,0.1086780130863189,0.0023393296677619,0.0883615895420312,37
1733406305155406000,0.1716245042381808,2.8166449821829795,-2.953223782405257,-0.0854332718720193,9.777005387842657,0.7571422365617007,-3.290278196334839,0.1035317629575729,0.3729301393032074,-0.3278368001100386,-0.3087298013395056,0.6050474356871149,0.6566023067484363,3.057193756103516,0.3530251681804657,-1.203192949295044,-0.3942493796348572,0.592522144317627,-0.0145768225193023,-0.1681770980358123,-0.0330271571874618,0.5928495730489493,0.25809046626091,0.0121443921063095,0.4631831825636327,38
1733406305195406000,-0.2013663662249222,-7.804395985841751,-2.986773877568542,-0.0377545177333173,9.618453825265169,1.9116275484241545,-2.5481343269348145,0.7510828971862793,0.0462429635226726,-0.354407298746897,-0.293113391718715,0.5626887790312233,0.6869217191905015,2.7195379734039307,-0.0389749519526958,-1.6171963214874268,0.4206359386444092,0.0984493494033813,0.9103489518165588,-0.1467185020446777,-0.0527747832238674,-0.2269441308021545,0.3987874090671539,0.0359507996294647,0.3536256602577864,39
1733406305235405800,0.9176195065047592,-14.434534257054327,-2.569001762223244,-0.0742619717147201,9.451004085960983,2.6159879698038098,-1.0572848320007324,-0.478471040725708,-0.1722577512264251,-0.3674044592836317,-0.2837374535186514,0.5348969887976441,0.7059689977049155,0.6002240180969238,-0.3233940005302429,-1.1421847343444824,1.0460739135742188,-0.7463903427124023,1.2226769924163818,-0.0779745802283287,-0.0043645277619361,-0.7116238365113735,0.3017427623271942,0.0311358005631715,-0.1089532728023827,40
1733406305275405800,0.7825213002290576,-15.962956122732162,-2.3015195770666,-0.1429701178277377,9.41436450034976,2.74220173561722,0.2331081181764602,-1.1010711193084717,-0.6872937679290771,-0.3523437544279746,-0.2725157699643259,0.5347165403992639,0.7180996556104849,-1.067044019699097,0.2700237333774566,-0.3398674428462982,1.1270174980163574,-0.6923986077308655,0.9743418097496032,-0.0163078121840953,0.0169037003070116,-0.5709183117479085,-0.034354954957962,0.101905180921778,-0.3082870737537741,41
1733406305315405800,0.1408719856378622,-14.076687618100642,-2.170726082247496,-0.2649216322199441,9.447648930314182,2.6157483158290384,0.2769001424312591,0.0154392533004283,-0.2450912892818451,-0.3366715894216731,-0.2714287321393509,0.5412581633557435,0.7211229596798262,-1.2672241926193235,0.5752600431442261,0.5678375959396362,1.165258765220642,-0.4351031184196472,0.7021613717079163,0.0453589558601379,0.0381719283759593,-0.4301467360109091,-0.3704527020454407,0.1726810640864074,-0.5076449862331152,42
1733406305355405800,0.1369546843299642,-8.62061709190309,0.6944388929545879,-0.3055963002998381,9.484923891219497,2.472491353017092,0.6713961362838745,0.8663312792778015,0.3297821879386902,-0.3413560156688058,-0.2814428489199236,0.5428885268985497,0.7138193065882503,-1.1384960412979126,0.2608732283115387,0.91740882396698,0.8219560384750366,-0.2807221412658691,0.5080059170722961,0.015531001612544,0.0358960665762424,-0.2846674209743738,-0.4479612112045288,0.103883056866005,0.3214889390237629,43
1733406305395406000,0.2629438293409533,1.481178468465805,0.2092012611016631,-0.16807362508988,9.582126958864928,2.079655526007712,1.1785647869110107,0.4902465641498565,0.5579454898834229,-0.3504374797407523,-0.2923340951734469,0.555434835392862,0.6951448946956255,-1.9727674722671509,-0.7376725077629089,1.205696702003479,0.1854836344718933,-0.0396182537078857,0.066743791103363,0.0522285178303718,0.030266385525465,0.2586059280008077,-0.2063557207584381,0.149510543313995,0.6245061095505953,44
1733406305435406000,-0.2927422072879038,6.573929477256536,1.3901087890088557,-0.0331685736159677,9.681502694374322,1.5613431614182889,1.6486726999282837,-0.1907915920019149,0.4055256843566894,-0.3497302605950189,-0.2998193391700033,0.5748930462600511,0.6762359696873337,-2.1892669200897217,-0.6082613468170166,0.8959324359893799,-0.6470397114753723,0.4024989604949951,-0.2251018583774566,0.0555067136883735,0.080610416829586,0.2835515686869621,-0.1568474173545837,0.1144919830333441,0.1477669875822961,45
1733406305475405800,0.982598832219839,7.974885823494195,0.4158160128414631,0.1139455281317234,9.767195941489934,0.8713662893738597,1.499369978904724,-0.0338660664856433,0.0513205751776695,-0.3414267848681881,-0.3053235618741846,0.6019553183856772,0.6541062947407699,-1.5504436492919922,-0.538895845413208,0.5280002951622009,-0.6043426990509033,0.4321807622909546,-0.2256284356117248,0.0249660406261682,0.0517984256148338,0.1882061116069555,-0.2707297801971435,0.0908957111295312,-0.1598810576155781,46
1733406305515405800,0.3822809691168368,5.95472147411406,-0.7396113291114568,0.0417921460688114,9.799424724921584,0.3740466996589675,0.9547443389892578,-0.0951274707913398,-0.307818591594696,-0.3305023679845753,-0.3154969155204461,0.6175683129850047,0.6401868717376445,-0.976173460483551,-0.2697294056415558,0.0798445492982864,-0.4536642432212829,0.3583473563194275,-0.3714800775051117,7.80597329139e-05,0.1107235252857208,0.0191278943181037,-0.2750596404075622,-0.0987670290265232,0.0329772637113928,47
1733406305555405800,-0.2152523961004801,3.1344664847403765,-0.6696487350910901,-0.0689092810085741,9.804995803052186,0.1664179851036518,0.1931600272655487,0.100305825471878,-0.2045139819383621,-0.3233494981371938,-0.3222916082375648,0.6226099609726647,0.6355549094156902,-0.3555059134960174,-0.0484617203474044,-0.0837713479995727,-0.3423944115638733,0.2970474362373352,-0.2905010879039764,-0.017919335514307,0.0912155210971832,0.0227285491585731,-0.2320477962493896,-0.0487622042771428,-0.0531806783065199,48
1733406305595405800,0.0855244755531195,1.0636381160497663,-0.1608732835233211,-0.113656198929483,9.80483973570764,0.1502489679906051,-0.0545676872134208,-0.0756485238671302,-0.0838648900389671,-0.322290504301818,-0.3246220702391055,0.622061046796755,0.6354442319632949,-0.0988941043615341,-0.012856587767601,-0.2127752006053924,-0.1127741336822509,0.1399189233779907,-0.1796652674674987,-0.035916730761528,0.0717075169086456,0.0270756384521722,-0.189035952091217,0.0010864800624549,-0.1395201143711805,49
1733406305635406000,0.1289640600353944,-0.0423532870829105,0.4945651033749804,-0.1458728443987667,9.803960614785552,0.1773074452454224,-0.0624218769371509,-0.0190224945545196,-0.0586510188877582,-0.3203328423380056,-0.3238723315279348,0.6213425374563444,0.6375162259063716,-0.0666323080658912,-0.0161803737282753,-0.1052221730351448,0.0022172927856445,0.040004551410675,-0.0735501050949096,-0.0409720912575721,0.0492190867662429,-0.0253039526045322,-0.1576156169176101,-0.008950929827243,-0.0685384064361453,50
1733406305675406000,0.2403412263832986,-0.3626508243650198,0.4880529815346002,-0.1504089443252887,9.803586520776152,0.1935459930638782,-0.0055888006463646,0.2405732423067093,0.0134827680885791,-0.3222425625236094,-0.3254909876070026,0.6198286196813128,0.6372031571029773,0.0055801095440983,0.0095942858606576,-0.0369204804301261,0.0460078716278076,0.0247494578361511,0.0089668631553649,-0.0261354316025972,0.0378222800791263,-0.00656476534307,-0.1070785522460937,0.0292458220981061,0.0256949977487325,51
1733406305715405800,0.1871367105434648,-0.5681675517350435,0.4636941642930731,-0.1337158028734382,9.804397252637148,0.1620904224944301,0.1592665612697601,0.1267402321100235,0.1042244657874107,-0.324540712698464,-0.3277050048872449,0.6199557385865854,0.6347736007070678,-0.0385516658425331,-0.0336368083953857,0.0394260883331298,0.0445886850357055,-0.0135868787765502,0.0084666311740875,-0.0076191499829292,0.0279471762478351,-0.0301847103834152,-0.0607591122388839,0.0408459512598812,0.1049409684211015,52
1733406305755405800,0.3418335887204855,0.0523819291442632,-0.0141319857269525,-0.0890956029050052,9.805743406549096,0.0992756270026322,0.1264244318008422,0.287946492433548,0.0978725403547287,-0.3280549197330474,-0.3304073351984085,0.6211033281986104,0.6304297513883642,0.0027931118384003,-0.0347377061843872,0.0110221449285745,0.0172520279884338,0.0035366415977478,0.0245592594146728,0.0074188662692904,0.0264499690383672,-0.0146188924610614,-0.0401097163558006,0.0411984179593622,0.073235039819777,53
1733406305795405800,0.6808902600735426,0.1645814903914928,0.7743640780627727,-0.0711171023843111,9.806370598536729,0.0208103994783712,0.3100126087665558,0.2894096374511719,-0.0491336919367313,-0.3304129591649355,-0.3342340125032657,0.6222753327499663,0.6260098893125516,-0.123755507171154,-0.0529614500701427,-0.0257210228592157,-0.0010903477668762,-0.0231000781059265,0.0242071747779846,-0.0066868402063846,0.03577271848917,-0.0172615159243345,-0.0668431147933006,0.0228393160566687,0.0213546304568648,54
1733406305835405800,0.5650184035217389,0.4775865325778722,0.3856593595087528,-0.1319670412436593,9.804911047378182,-0.129181018121168,0.4608830511569977,0.1096159294247627,-0.2352959811687469,-0.3284861249452765,-0.3412787886093745,0.6245920165832306,0.6208948954858784,-0.1419299840927124,-0.065101258456707,-0.0279847104102373,-0.001370370388031,-0.0143813490867614,-0.0017082095146179,-0.0219332799315452,0.0490936487913131,0.0080588032931089,-0.0817171558737754,-0.0064897273454815,0.0736070880025625,55
1733406305875406000,0.2936362152518704,0.2305956390470266,0.3674094536015763,-0.2360256099401973,9.797816705203056,-0.3427193951116875,0.6247988343238831,-0.0283090081065893,-0.2581428289413452,-0.3218566560309158,-0.3485638990528762,0.6292670618001786,0.615576512951896,-0.1763651818037033,-0.0902150273323059,-0.0953100845217704,-0.0183219909667968,0.0254720449447631,-0.0184893608093261,-0.0250856354832649,0.0407865904271602,0.0248053554326295,-0.0751256421208381,-0.0231065886907279,0.0905477014094591,56
1733406305915406000,-0.0127105015564709,-0.2659942846864461,-0.0781412243008613,-0.3084119422424584,9.785040810260176,-0.5729326837776229,0.5177664756774902,-0.0546684600412845,-0.1070732325315475,-0.3146562542473681,-0.3538092194762136,0.6356339147828458,0.6097376987184017,-0.0715250670909881,-0.1149761900305748,-0.0866952985525131,0.0096109509468078,0.0304458737373352,-0.0558213591575622,-0.0282379928976297,0.0324795320630073,0.0416600441217422,-0.0685341209173202,-0.0397775183107703,0.1074704868987202,57
1733406305955405800,-0.2175374930966645,-0.3113946843802929,0.0629554186720401,-0.3298369345217943,9.773279060795902,-0.7379701377756893,0.3581834733486175,0.0060137291438877,0.0045814076438546,-0.3102474980590442,-0.3563597982810648,0.6408070684329196,0.6050788960404978,-0.0348259024322032,-0.1415574252605438,-0.0300495252013206,0.0204733610153198,0.0099537968635559,-0.0119072496891021,-0.0197096355259418,0.0201503671705722,0.0434480965822935,-0.055545762181282,-0.0331543738439679,0.1502230024322867,58
1733406305995405800,-0.1302394046002999,-0.2896867104411125,0.2708266002137214,-0.2977239229569211,9.763990423446891,-0.8638410084355622,0.2418009787797927,0.3155441582202911,0.0617882460355758,-0.3099286738215134,-0.3583606408533346,0.6446869667014736,0.599917089130688,-0.0119370985776185,-0.1001403033733367,0.043638277798891,0.0117142796516418,0.0117306113243103,0.0150355398654937,-0.0095548452809453,-0.0036696400493383,0.0340945773035287,-0.0476588793098926,-0.0011952741991728,0.1431999719277024,59
1733406306035405800,0.2342919910806231,-0.0998041900545358,-0.0669733490765094,-0.2733472960640676,9.760258251181243,-0.91270338515155,0.0426256731152534,0.4844038784503937,-0.006147070787847,-0.3157273587158047,-0.3647611380876749,0.6430273964132615,0.5947952024693222,0.0491962954401969,-0.0467789210379123,0.1118908375501632,-0.0081427097320556,-0.0379531383514404,0.0033828914165496,0.0026676394045352,-0.0130367344245314,0.0342038828969001,-0.0469642803072929,0.0322932269699871,0.1364464060142636,60
1733406306075405800,-0.1174172045639716,0.0547200167030096,0.2792611780166625,-0.2608668769364245,9.757017661824822,-0.9502361202102154,0.1270081996917724,0.2554250061511993,0.036410916596651,-0.3188440983618805,-0.3686902835873286,0.6422741097487371,0.5915149597582079,-0.0319385044276714,-0.0430808030068874,0.0563665255904197,-0.0098101496696472,-0.0159664154052734,-0.0139882862567901,0.0073704421520233,-0.0212497282773256,0.0464238975226879,-0.0423675514757633,0.05138546545282,0.1235159050315618,61
1733406306115406000,0.5073199189972132,0.2639198164999485,-0.0929657954018563,-0.2520379477873444,9.748780579355358,-1.0335058665059509,0.2660723328590393,0.3682149350643158,-0.113648883998394,-0.3226444287457254,-0.3753549904210765,0.641718603987712,0.585838199137455,-0.0574875399470329,-0.0677573382854461,0.0457278601825237,-0.0036925077438354,-0.0004681944847106,0.0122866928577423,0.0024409149773418,-0.0135171916335821,-0.0240764566361904,-0.0455275923013687,0.0242165226940065,0.0726379507094621,62
1733406306155406000,-0.1921448210290633,-0.0191588739782571,-0.1143698910236358,-0.2808597723197192,9.73438029808104,-1.1547066995281725,0.3345197141170501,0.2128806561231613,-0.0407281592488288,-0.3225011879059059,-0.3816971181386736,0.6427915424806715,0.580619785235919,-0.1419294476509094,-0.0572794452309608,0.0058647994883358,-0.0049613118171691,0.0170372724533081,0.001558780670166,-0.0103414617478847,0.0041421893984079,0.0124076461523771,-0.0511638857424259,0.0351553384028375,0.0889592631742358,63
1733406306195406000,0.1895605584232136,-0.5921288575589656,-0.1819054040275514,-0.2613866447605192,9.718225866615771,-1.2876862331494687,0.3115569949150085,0.1395697444677353,0.1346015483140945,-0.321824999705775,-0.3847768121818224,0.646220185707994,0.5751303447894027,-0.1924269795417785,-0.0708914995193481,-0.008751094341278,0.0254437923431396,0.0307424664497375,-0.0349986255168914,-0.0231238380074501,0.0218015722930431,0.0489484475642442,-0.0568001791834831,0.0460775683030486,0.1052621631994843,64
1733406306235405800,0.1057653908807318,-0.3842331260979175,0.0051204117536544,-0.1508064100771211,9.708152216368912,-1.3781947715923188,0.097135379910469,0.5297148823738098,0.1732062101364135,-0.3273089995841235,-0.3871670861845359,0.648359485612248,0.5679792765990093,-0.1392188817262649,-0.1739060282707214,0.1075930893421173,0.0891404151916503,0.0295900702476501,-0.0447444915771484,-0.0277899950742721,0.0147589556872844,0.0135743518441915,-0.0564296245574951,0.0576139115136116,0.1082639753639698,65
1733406306275405800,0.2275658976959995,0.0265010534346103,0.2872575835980475,-0.1169836445854511,9.701887895277142,-1.4248022089883683,0.3513010442256927,0.1336883157491684,0.0816367715597152,-0.3312196160693659,-0.3912488463479371,0.6477414878261138,0.5636034332595503,-0.601558268070221,-0.0928578376770019,-0.0362060219049453,-0.0030733346939086,-0.0572325587272644,0.0540586709976196,-0.0227199532091617,0.0149730909615755,-0.0579337180525064,-0.0637790486216545,0.0028390228182077,0.1317363286271691,66
1733406306315405800,0.0088749100155429,-0.2052735662639141,-1.3048362515233456,-0.0501748566871974,9.68870517309904,-1.5155328657492997,-0.1754557490348816,0.5707627534866333,0.0721442773938179,-0.3341650098654232,-0.3938686223045253,0.6497216165452864,0.5577302272418708,-0.4616730809211731,-0.2216130495071411,0.0965887084603309,0.0275537967681884,0.0379707813262939,-0.09700208902359,-0.0025672391057014,0.0262339692562818,-0.0121627314805984,-0.0578015632927417,0.01622786202766,0.1315185942232608,67
1733406306355405800,0.9600235739268362,0.0972293711304664,0.699442400330305,-0.0255367635632748,9.707325702416895,-1.3919649382695556,-0.1776488721370697,0.6891111731529236,-0.1679787039756775,-0.3452222076898418,-0.399943551251195,0.6411049945921137,0.5566427900384534,-0.4633048176765442,-0.1443013250827789,0.1192211210727691,-0.0145438313484191,-0.0610502958297729,0.0663076192140579,0.0188243333250284,0.0302034504711627,-0.0383288538724184,-0.0584935210645198,-0.0008868658371269,0.0841819657698273,68
1733406306395406000,-0.172548213220667,-3.03951382637e-05,-0.5458709642529487,-0.0204842453970806,9.707620301449298,-1.3899905694566663,0.0001946287229657,0.3082986176013946,0.0787370726466178,-0.3512928677950846,-0.4065204125498463,0.6368759293628738,0.5529227330372514,-0.5588571429252625,-0.0811745524406433,0.088910087943077,-0.0400424599647522,0.0161546468734741,0.0412145555019378,0.023568008095026,0.0338691212236881,-0.0162280812233686,-0.0597513914108276,0.0201634479109197,0.0439379259258508,69
1733406306435406000,0.7424407073184848,0.088962478044629,-0.6564893937885761,0.029838938286202,9.706763976880907,-1.395790195646137,0.004274817649275,-0.1067811474204063,0.1247178837656974,-0.3538881830854327,-0.4064587689639284,0.6371473625672385,0.5509969945128659,-0.3434314131736755,-0.0533124022185802,0.0227482412010431,-0.0091526508331298,-0.0086476802825927,-0.0136541277170181,0.0171296745538711,0.0272261761128902,0.0342512291699647,-0.0316232144832611,0.0314488851003348,0.0786275465130806,70
1733406306475405800,0.9974668771363794,0.6461655681729316,-0.1658778138123452,0.0776793515433091,9.712646605178714,-1.3523454600647091,-0.1617954224348068,-0.2335230857133865,0.1392300873994827,-0.3534837519845246,-0.4010130037787145,0.6388575755760072,0.5532619292570677,0.0389785468578338,-0.0683085545897483,0.0264716744422912,0.0141994953155517,0.0490596890449523,-0.0237942934036254,0.0156241729855537,0.0233672782778739,0.0036748891204595,-0.0114289093762636,0.0554523495655506,0.0560804914012551,71
1733406306515405800,-0.6476204431563616,0.0454173508286476,-0.7708335658490657,0.1481302496704273,9.713049340760708,-1.3435453368850052,-0.1253511607646942,0.5380202531814575,0.263896495103836,-0.3577740288076185,-0.4009723619735915,0.6385318424184168,0.5509047252872302,-0.7591231465339661,-0.1443638056516647,-0.0878772735595703,0.0619846582412719,-0.0203927159309387,0.0463682562112808,0.0141186714172363,0.0195083804428577,-0.0268891759693622,0.0087653938680887,0.0794527452908456,0.0335267142876982,72
1733406306555405800,0.9387634898856282,0.1155751751601695,0.4929812317170202,0.2387347775673493,9.72324690964818,-1.2537391014926136,-0.1509546339511871,0.2710726857185364,0.0767644718289375,-0.3672070299068886,-0.4021338624874564,0.6342012781450611,0.5488497791962935,-0.0248126834630966,-0.0324384905397892,-0.0794622153043747,-0.0558751225471496,0.1293395757675171,-0.0228275060653686,-0.0010756766423583,0.0415698885917663,-0.1019990697503089,-0.0331316441297531,0.0200735046051442,-0.0186728440269827,73
1733406306595405800,0.2052757399546913,0.1095464163899421,-0.2954009964346885,0.2687760791583918,9.728677118003368,-1.2045659783270208,-0.2190825194120407,0.6138760447502136,-0.052071239799261,-0.3738313017613776,-0.405710496529797,0.6299323493808443,0.5466574468175102,-0.0712172016501426,-0.0310080554336309,-0.0986716002225875,0.0063480138778686,0.0128546953201293,0.0340672731399536,-0.0063647739589214,0.0654890313744545,-0.0460118095904588,-0.0491738691926002,0.0377791110351681,0.0098588384523987,74
1733406306635406000,-0.3057800045699812,-0.1029331357300281,0.0598128097973763,0.2918637804855592,9.74154127575159,-1.0897681442148983,-0.2245301306247711,0.2112053781747818,0.0914718955755233,-0.3811093236025445,-0.4075937078154871,0.6240433327187851,0.5469854345426546,0.1109677851200103,0.0969162955880165,-0.1608120054006576,-0.0258532762527465,0.0586305856704711,0.0815190225839614,-0.0177760981023311,0.0618445947766304,-0.0539531239837408,-0.0601325668394565,0.0236086199287325,-0.0163426475137472,75
1733406306675406000,0.1452462004004046,0.2942541644871235,0.2601064687568694,0.3361378978295251,9.742686938655376,-1.0665035884834826,0.10406144708395,0.2714504897594452,0.076238676905632,-0.3854654078802654,-0.4087196543137646,0.6223542359540004,0.5450135906951792,-0.1308490931987762,0.1175217628479003,-0.1033656820654869,-0.001525342464447,-0.0659822225570678,0.0537420362234115,-0.017772888764739,0.0505322031676769,0.0060281742483377,-0.0729157924652099,0.0634578883014619,0.0145455349639058,76
1733406306715405800,-0.3436005253277718,-0.0878045401811599,-0.0774538265585899,0.4024080670727417,9.734192666554453,-1.1197966411232947,0.2068150341510772,1.0477796792984009,0.1438405215740203,-0.3919178797022785,-0.4142535725592159,0.6208765713571852,0.5378723138460425,-0.0917962491512298,0.0267130322754383,-0.1100125312805175,0.0285045504570007,0.0180743336677551,-0.0178254842758178,-0.0017044767737388,0.0238581597805023,0.0062561377853155,-0.0846385732293129,0.0479792372059077,0.0116612116992473,77
1733406306755405800,-0.7827086394947022,-0.1728495525211095,-0.0565152295567095,0.5914715992266312,9.719729841437935,-1.1607868962246923,0.2251601815223693,2.559633493423462,0.4545107185840606,-0.4176445746485778,-0.4342094528206113,0.608806875423551,0.5161293178233946,-0.0847268849611282,-0.0878599882125854,-0.1370727270841598,0.0267209410667419,0.0347726345062255,-0.0643249750137329,-0.0053821690380573,0.0139035861939191,-0.0101946462780237,-0.0988495647907257,0.0279793092936277,0.0124462245970964,78
1733406306795405800,-0.3317263284649699,-0.0081149173945188,0.7413805307410657,0.9435942710429428,9.689220136883854,-1.1828113157019018,0.3687377572059631,2.480816125869751,0.6903753280639648,-0.4513174389601266,-0.453917469729604,0.5952020871779997,0.4858045299553042,-0.0852994695305824,-0.0541080981492996,-0.09306151419878,0.0232826471328735,0.0114132761955261,0.0168568044900894,-0.015725553035736,0.0188462119549512,-0.0407388376235961,-0.1163870692253112,0.012886223449558,-0.0006780453920364,79
1733406306835405800,-0.2699640651002526,-0.0002536825001239,-0.7034079429604113,1.3349348910585046,9.63093102952242,-1.278093206026405,0.5798205733299255,2.558589220046997,0.7220815420150757,-0.481940865832358,-0.4737865995116228,0.5836873101634502,0.4500761124556476,-0.0989798605442047,-0.0520345643162727,-0.1007056534290313,-0.0007076263427734,0.0289598107337951,0.0347110778093338,-0.031531423330307,0.0341656468808651,-0.0669622431606054,-0.1476665139198303,-0.008075462166965,0.0272962954655289,80
1733406306875406000,-0.702890056566149,-0.358776613280177,-1.5854183028802276,1.824872809556872,9.53814402475357,-1.365284728875756,0.455256700515747,2.269893169403076,1.1238330602645874,-0.5121732868528912,-0.49009330622683,0.5739500822456557,0.4099612845981647,0.1069621220231056,-0.0357036329805851,-0.0375813469290733,0.000943124294281,-0.0105258226394653,-0.01797616481781,-0.0264498386532068,0.0296738073229789,-0.0114671504318714,-0.1994057893753051,0.013395342015475,0.0460042108058929,81
1733406306915406000,0.5540757518880068,-0.3271522254824638,-1.0793360359191897,2.3671492564491925,9.443224684131144,-1.1800424355104564,-0.3362614512443542,2.6693899631500244,1.0242276191711426,-0.5474339631647874,-0.4965287910638929,0.5600219450782108,0.374367029038589,-0.0260510519146919,-0.0905773714184761,-0.0135794058442115,0.0282270312309265,-0.0196041464805603,-0.0089504718780517,-0.0091094393283128,0.0235117059201002,-0.0320791458278894,-0.2396676689386367,-0.0041619419850409,0.0668041299894452,82
1733406306955405800,0.5729132849574089,-0.1537877091765403,0.8634393688321113,2.8148820641636845,9.36727366335094,-0.7078164070524275,-0.5044965744018555,2.34259295463562,0.7916106581687927,-0.5883348632914069,-0.4995232018401601,0.535317816143969,0.3431814290078066,-0.1842878311872482,-0.1217392906546592,0.0361434742808342,0.0109365582466125,-0.0095254182815551,0.024379551410675,-0.0006250208243727,0.0048342626541852,-0.0182885208845138,-0.2441542893648147,0.0168102650254964,0.0566129908427596,83
1733406306995405800,0.6398512704595923,-0.0833317786812782,1.7254279543340203,3.06801891310364,9.306246655458212,-0.3891645546181127,-0.0882978290319442,1.3366379737854004,0.408196747303009,-0.613598143376933,-0.501463719013438,0.5180501988046893,0.3219559051020739,-0.0106851458549499,-0.0831746906042099,0.0400757677853107,-0.015832245349884,-0.0035570263862609,-0.0039653778076171,-0.0072289374656975,-0.0073426002636551,-0.0193593649864196,-0.2307132929563522,0.0223810508951544,0.0146229841142892,84
1733406307035405800,-0.0702604079231619,0.0258025497764348,0.9593231705725191,3.248712749384344,9.248736131253835,-0.2777235383869149,0.0966201201081276,0.8654104471206665,0.5346101522445679,-0.6262978380411481,-0.5035819984673297,0.5104558065821162,0.3059265724126508,-0.0238867010921239,-0.0461081750690937,0.0227057635784149,-0.0151819586753845,0.0061497688293457,0.0208135694265365,-0.0107597485184669,-0.0248597525060176,-0.0326928938120603,-0.2079340815544128,0.0086534081853926,0.0043953123494982,85
1733406307075405800,0.2165674059554934,0.0475076011061668,1.1941887420237065,3.452546930494904,9.177501617601513,-0.1542071218986995,0.1336202174425125,1.2144670486450195,0.5098242163658142,-0.6401736783079649,-0.5060517872472379,0.5017708280723557,0.286906556359558,-0.1094807013869285,-0.0206142161041498,0.0215285141021013,-0.0130848288536071,-0.024786353111267,0.0153334736824035,-0.0063757710158824,-0.014410775154829,-0.0347065717220306,-0.1769454330205917,0.0026081366717815,0.0265282337024807,86
1733406307115406000,0.1949742905676365,0.3334837665915489,0.8721499140322208,3.61240489949584,9.11628054844141,-0.1197724259206093,0.3511608242988586,0.713919460773468,0.3514637649059295,-0.6491009653628907,-0.5104127346712529,0.4955658729176583,0.2693719980684214,-0.1052369549870491,0.0230470299720764,-0.0064610419794917,-0.0020429491996765,0.0133894681930542,0.031667485833168,-0.0019917939789593,-0.0039617987349629,-0.0362982248276472,-0.1459567844867706,-0.0034536475852131,0.048473231267929,87
1733406307155406000,-0.2495931849837303,0.0879226136028766,0.294240135961771,3.726871821153164,9.06930018607974,-0.1691436837404966,0.4904285967350006,0.5013265013694763,0.2963441610336303,-0.6530105752739598,-0.5159550743592389,0.4923558559487746,0.2548593945861166,-0.1048830226063728,0.0210878513753414,-0.0984243899583816,0.0048000812530517,0.0524452328681945,-0.0047269389033317,0.0054137469269335,0.0062193451449275,-0.0149228438436985,-0.1315506994724273,-0.0116219026021659,0.0413859033554792,88
1733406307195406000,-0.2852478512108325,-0.1223258184641599,-0.5940425456931814,3.8428812960773695,9.018430415064095,-0.2656249581837095,0.3143984377384186,0.5828807950019836,0.3286782801151275,-0.6542449298988473,-0.5210578376527378,0.4919774724970513,0.2417031993917201,0.0441112555563449,0.0342033877968788,-0.0747440904378891,0.0266913771629333,0.0296332240104675,0.0154085159301757,0.0082917213439941,0.0092939240857958,-0.0198965406030416,-0.1150655373930931,-0.0362757207348942,0.0423626394331455,89
1733406307235405800,0.0353004459619522,-0.0120277069240808,-0.570721291338466,3.9718446528598665,8.96319777266383,-0.2364235780155286,0.1883669793605804,0.643430769443512,0.3454116880893707,-0.6603724835600696,-0.5239797147994382,0.4873392106950124,0.2277143318183779,0.0798828303813934,0.0588753335177898,-0.016134375706315,0.0296385288238525,0.0181943178176879,0.0175838470458984,0.0067639839835464,0.0101067144423723,-0.0098912794172763,-0.1114813461899757,-0.0342499139957129,0.0623752076312899,90
1733406307275405800,0.1066436806857585,-0.1352145261317491,-0.6268810219883918,4.093384873904288,8.909964779648185,-0.1647019019007682,-0.0202010031789541,0.7049147486686707,0.3128033280372619,-0.6671165257943397,-0.5248670190505649,0.4826096482204837,0.2157733760783831,0.0106076253578066,0.0615092031657695,-0.0162061471492052,0.0209511518478393,0.0098306536674499,0.0145014375448226,0.0135091301053762,0.0030702860094606,-0.0025946926683187,-0.1188985109329223,-0.0076439388819038,0.0862257465571165,91
1733406307315405800,0.1178060029521584,-0.0941647228628397,-0.2391501169025897,4.20537400727123,8.85918677856922,-0.0046094271701032,-0.1591615229845047,0.8222610354423523,0.3199439644813537,-0.6766434356502089,-0.5237175294002706,0.475347204446466,0.204740452779603,0.0505800768733024,0.0517179332673549,-0.1136472821235656,0.0217857360839843,0.053996205329895,0.0268507674336433,0.0222796984016895,-0.0034540873020887,0.0055102878540754,-0.1333290487527847,0.0053565585970878,0.0732411772996187,92
1733406307355405800,0.0112976390838623,-0.210973239210248,0.4663730646461248,4.330138158798218,8.796432508492469,0.2075947392204776,-0.1065036281943321,0.879389762878418,0.3898287713527679,-0.6882343699615572,-0.5214582243855094,0.4663656652275423,0.1921405510639744,0.0495987012982368,0.1141508892178535,-0.1712347418069839,0.0122687220573425,0.0030182600021362,0.057603009045124,0.0275596026331186,0.0043603172525763,-0.0311480024576187,-0.1526576280593872,-0.0039972529426217,0.0836748930305242,93
1733406307395406000,0.0717085609048605,-0.3410048097461461,0.301497011754848,4.4560263459190725,8.728941857543587,0.3461345373174175,0.0049032857641577,0.6949597597122192,0.3817969262599945,-0.6968396720182614,-0.5205247281447124,0.4597891450209253,0.1790600836104227,-0.0838222131133079,0.1595388352870941,-0.2014206051826477,-0.0126487612724304,0.0070075392723083,0.0695448070764541,0.029913367703557,0.014340566471219,-0.0115817167222499,-0.1806138753890991,0.0096972181499004,0.0353296720564365,94
1733406307435406000,0.3554258415475487,-0.2644248434126377,0.3939566477328539,4.570344799016416,8.66403245525956,0.4657110570734366,-0.0405053608119487,0.5303496718406677,0.316620260477066,-0.7038217210508017,-0.5186733517297611,0.4552288414097428,0.1684628795353066,-0.0019941865466535,0.1754781752824783,-0.1366259753704071,0.0187622308731079,0.0060485005378723,0.0117561370134353,0.0104403849691152,0.0168190505355596,-0.0311088394910097,-0.1974673867225647,-0.0034478023663163,0.0272930805951356,95
1733406307475405800,0.3698839904889464,-0.10930793145895,0.2779284681081772,4.689662960097193,8.594957749989629,0.5515128060648218,0.1840827018022537,0.6128326654434204,0.2984215021133423,-0.7098939167527065,-0.5186651998913182,0.4504076847225047,0.1554671633442268,-0.0965393409132957,0.1730047762393951,-0.1178838387131691,0.026184856891632,-0.0208577513694763,0.0033859610557556,-0.0054692737758159,0.0181969869881868,-0.0007300678402185,-0.1970634758472442,0.0165011990763247,0.0612096709832549,96
1733406307515405800,0.4070420470163226,-0.002898059529066,-0.1869540657192468,4.781491933488845,8.540022044709325,0.612972469753772,0.2854330837726593,0.9481083154678344,0.3674091100692749,-0.7151440233989315,-0.5215312489920061,0.4435676475968937,0.1407902479223458,-0.143019750714302,0.1260320991277694,-0.0398307815194129,0.0469383597373962,-0.0122540593147277,0.0170172601938247,0.0018995027057826,0.0065086418762803,0.02771393635571,-0.1995318084955215,0.0179445297524333,0.0717582452654838,97
1733406307555405800,0.061839785580337,-0.1427262169361114,-0.3637438802987336,4.897150110757351,8.463774086809158,0.743524191706255,0.1945823580026626,1.253767013549805,0.4870620667934418,-0.72340480599488,-0.5242679644121045,0.4327053482459787,0.1208083734782832,-0.2727692127227783,0.033991452306509,-0.0614411383867263,0.0269691944122314,-0.0116757154464721,0.0002371072769165,0.0256441608071327,0.0255554132163524,-0.0397609325021505,-0.2145144641399383,-0.002262099713087,0.1342120710909366,98
1733406307595405800,0.4919441437542438,-0.3179705556392669,0.0352425782948732,5.020854816359281,8.367875087499618,0.9695739309519528,0.1617075055837631,1.6348724365234375,0.4690656065940857,-0.7348489051244333,-0.5253709463819426,0.4177928371742683,0.097116638243557,-0.3055489957332611,0.0546326525509357,-0.0164197999984025,-0.0092204809188842,-0.0043916702270507,0.0523848533630371,0.0444688126444816,0.0376015119254589,-0.0674503189384937,-0.2400338947772979,-0.0190684192158281,0.0555403931751847,99
1733406307635406000,-0.3251514070540666,0.3520177866697311,-0.3037573944348842,5.086469736564159,8.295389112481475,1.2184921392835677,0.2347797453403473,1.290764570236206,0.3631291091442108,-0.7461789371444012,-0.527707801059367,0.3992476262264828,0.0730942303970843,-0.3409671783447265,0.0392094887793064,0.002300890861079,0.0072482228279113,-0.0386183261871337,-0.0150033980607986,0.021894859150052,0.048258114606142,-0.0187122992545366,-0.2621437609195709,-0.0012957388989627,0.0076648355394601,100
1733406307675406000,-0.8598492353856563,0.6923842985123395,-0.5944127307124436,5.1644741827428335,8.230355207034945,1.3265893797785042,0.3233374357223511,0.690758228302002,0.4496465027332306,-0.7514074526042045,-0.5299760831436935,0.3892147399365263,0.0549910972271742,-0.2509795129299164,0.1108977943658828,0.0441130511462688,0.0210108757019042,-0.0087811350822448,0.0041064620018005,0.0148250227794051,0.0327424444258213,0.0212070386797189,-0.2445685267448425,0.0009513093754649,0.0398661464422941,101
1733406307715405800,-1.1919453470110892,0.107166827777028,-0.5008740307934582,5.3333150841444725,8.112575799828766,1.3828382134839892,0.4165902435779571,1.1862421035766602,0.8355034589767456,-0.7545712970758165,-0.5310747664052228,0.3839980025944945,0.0335743271830362,-0.2224474549293518,0.1289644539356231,0.030623810365796,0.0173029899597167,0.0389932990074157,0.0350461080670356,0.0077551859430968,0.0172267723828554,0.061981532138586,-0.2269932925701141,0.0031486732892692,0.0715560006916523,102
1733406307755405800,-0.9290215558111669,-0.2880254992306232,-1.3157220949359238,5.583049723425507,7.912809014287591,1.545116395369172,0.322429358959198,1.4345760345458984,1.1365852355957031,-0.7607752094821493,-0.5302132005886427,0.3742925982862068,0.0001814348692587,-0.0716385170817375,0.1099066138267517,0.0704158991575241,0.0262259840965271,0.0145472288131713,-0.0168454051017761,0.0152541752904653,0.0158835109323263,0.0143424136072397,-0.1929809302091598,0.0020575170516967,0.0686105948895215,103
1733406307795405800,0.2252203757494688,-0.0805751734495162,-1.9225623455449936,5.823879171717167,7.662262474101781,1.88215975413844,-0.4251043498516083,1.661139965057373,0.9283496737480164,-0.7713516679569842,-0.5212342141333753,0.3638013884820255,-0.0313033659550083,-0.147000104188919,0.0938912183046341,0.0600356273353099,0.0192428827285766,0.0084952712059021,0.0365954786539077,0.0246446728706359,0.0076398160308599,0.0116612116992473,-0.1749052852392196,0.0034307051010429,0.0641740737468004,104
1733406307835405800,-0.4061602957457303,-0.558987050935626,-1.393579095467925,5.956518294402956,7.3713885997027155,2.52049988938272,-0.8677737712860107,1.816242218017578,0.995783805847168,-0.7905132441018495,-0.5016978191594341,0.3461062875794644,-0.0599889396374285,-0.1922416239976883,0.0921300202608108,0.0330257155001163,0.0127555131912231,0.0122168660163879,0.006126046180725,0.0309466980397701,-0.0037380866706371,0.0114595516473054,-0.1676611304283142,0.0080672788605093,0.0535118099570274,105
1733406307875406000,-1.2542349221855402,-0.5146124871581792,1.3126540856674314,6.048922437334061,7.0207052765071385,3.2078973393931984,-0.4984412491321563,2.0595967769622803,1.2644401788711548,-0.8093231455981911,-0.479574530974563,0.3262683284569518,-0.0924834380098384,-0.0989708006381988,-0.0106512773782014,0.0105220032855868,0.0298817157745361,0.0456324815750122,-0.0067915245890617,0.0372487232089042,-0.0151159903034567,0.0115764560252428,-0.1604169756174087,0.0127716571591794,0.0426309349805116,106
1733406307915406000,-0.0298895268291234,-0.3426689435660839,-0.4301294926151633,6.223688637131453,6.624006052067876,3.6822035351261495,-0.8192819952964783,0.8507848978042603,1.10895037651062,-0.8204454273037269,-0.458666823540488,0.3191936882790949,-0.1208694688042891,0.0704318061470985,0.0269866976886987,0.0683617293834686,-0.0153106451034545,-0.0105320215225219,0.0126537606120109,0.0379954352974891,-0.0112287551164627,-0.0759171185106039,-0.1700034141540527,-0.0289304725386202,-0.0245873287677764,107
1733406307955405800,-0.1250713177800178,-1.787166909888387,-0.3967512468874454,6.210384334400296,6.254298879450559,4.2994498828068375,-1.470369815826416,1.5116509199142456,0.5830738544464111,-0.837170523582861,-0.4308303979615567,0.3085032054133136,-0.1354864522955504,-0.0308988057076931,-0.0120191834867,0.0826732888817787,-0.0125354528427124,-0.0145885348320007,-0.0209499523043632,0.0251426715403795,-0.0081812515854835,-0.0914040259778499,-0.1813775599002838,-0.0351912864990532,-0.0478401940613985,108
1733406307995405800,-1.2207675368696451,0.5924982753932476,0.907403598242998,6.208937058201432,5.825757825070619,4.866213705223799,-0.6729736924171448,0.400804340839386,1.0954351425170898,-0.8513001111496069,-0.4027279171943057,0.2995035436326477,-0.1529575873522967,-0.1024648696184158,0.0557248704135417,0.1433313190937042,-0.0303394198417663,-0.0380278229713439,0.0321479514241218,0.0382152162492275,-0.0187596920877695,-0.09931143810153,-0.1818260699510574,-0.033344343458116,-0.0690787969231605,109
1733406308035405800,-1.2132651984155178,-0.8163263200014829,1.812209581208229,6.450730383089184,5.432047845575213,5.005130008482933,-0.1208192855119705,0.4939509928226471,1.527302861213684,-0.8513776319131781,-0.38810078548095,0.3068992795590791,-0.1742035913070299,-0.1050928756594657,0.0545878075063228,0.1807466000318527,-0.0027813911437988,-0.0234212279319763,-0.0517585277557373,0.0512877590954303,-0.0293381325900554,-0.106823713427782,-0.1822745651006698,-0.0313840031705796,-0.0905798501133918,110
1733406308075405800,-1.5690169109165668,-1.350894968995452,0.7289706926316022,6.672107527413964,4.937109196180105,5.222864996913075,-0.1196230053901672,0.7537789940834045,2.1469743251800537,-0.8499592367849412,-0.372180110430428,0.308528724207562,-0.2094307966734783,-0.0582611858844757,0.0194756798446178,0.2397585958242416,-0.0040212273597717,-0.0524844527244567,-0.0676793977618217,0.0268674921244382,-0.0374795794486999,-0.1223106208950281,-0.1503930836915969,-0.0702652302287518,-0.02528933955729,111
1733406308115406000,-0.1235878012239933,-0.3106532183632254,0.3747632869631052,6.890648571529984,4.237143941019475,5.544001907628775,-0.4186623692512512,1.5352762937545776,2.544844388961792,-0.8464368770981991,-0.3491401527377015,0.3089267222042911,-0.2573130803814784,-0.1282567828893661,0.0612663216888904,0.2658068835735321,-0.0605905055999755,-0.0120340585708618,0.0020383670926094,0.0033578239381313,-0.0280623119324445,-0.0888327141851186,-0.1297250241041183,-0.0166632577702403,-0.1192605856746435,112
1733406308155406000,-1.5013590867072344,-1.54797353836596,-1.5987117919564249,6.846863205817342,3.316091756652296,6.188246152350306,-1.4964584112167358,1.6896843910217283,2.5916779041290283,-0.8493158866218276,-0.3074465145342703,0.29993980973434,-0.306880158927214,-0.158584862947464,0.0368628725409507,0.2131270468235016,-0.0403653383255004,-0.0056137442588806,-0.0040629506111145,-0.0112005090340971,-0.037113431841135,-0.117396545368433,-0.135401964187622,-0.05773118121773,-0.020015198546648,113
1733406308195406000,0.9210901782900096,-0.2204047921612858,1.878165277674794,6.689179073724151,2.238118241257965,6.812936386296153,-0.8983890414237976,1.894935250282288,2.8218111991882324,-0.8497195488863716,-0.2569237946189907,0.2943247940508651,-0.3540337014791414,-0.1100942939519882,0.0134426597505807,0.1730812191963195,-0.0083146095275878,-0.0090671181678771,-0.0109484195709228,-0.007741761393845,-0.0074444934725761,-0.0613128390967845,-0.0884738713502883,0.0063113751038908,0.0186263745367527,114
1733406308235405800,0.8838327530413865,-0.0994423710048198,0.5832821187585592,6.497341327616572,1.2925031319119036,7.230794134098291,-0.5445433259010315,1.2175151109695437,2.78525185585022,-0.8389071603501913,-0.2185037038143869,0.2891163139502464,-0.4060822388018317,-0.112397663295269,-0.0780405476689338,0.1312517523765564,0.0039049983024597,0.0038001537322998,-0.0434792041778564,-0.0209174156188964,-0.03727463260293,0.0163134214192628,-0.0874087437987327,0.0882604672551155,-0.0407142877042293,115
1733406308275405800,-0.1864542995035648,-2.0298188974320888,0.4008814785599708,6.21595190539956,0.4343826565476134,7.57255882230103,-0.9142770171165466,1.5394033193588257,2.548804521560669,-0.8267843192922877,-0.1816229289756549,0.2844645409129169,-0.4500231812900367,-0.1288695782423019,-0.0950837656855583,0.1479328572750091,0.0254152417182922,0.0012168288230895,-0.0438466072082519,-0.0398418828845024,-0.0289576053619384,0.0268885914474725,-0.0708977431058883,0.0991699838042259,-0.0325040932416915,116
1733406308315405800,-0.4188479278832673,-1.5301007586754858,2.797524686649441,5.566082222011685,-0.5408836408270523,8.055840351650119,-0.9092946648597716,2.4959895610809326,3.152003288269043,-0.8145569780505544,-0.1302731305121456,0.2688779797264863,-0.4972228601724961,-0.2872749269008636,-0.126145601272583,0.1936770975589752,-0.0149028301239013,0.0064148306846618,-0.0003974437713623,-0.0587663501501083,-0.0206405781209468,0.0375450100183486,-0.0543867349624633,0.1100473516494035,-0.0243675485372543,117
1733406308355405800,0.5456140668824315,-0.9078178781323134,3.385883378019929,4.708311838726699,-1.3765497808642684,8.491601420411467,-0.1069170236587524,1.794995665550232,3.1054258346557617,-0.7935403821516952,-0.0819974236718904,0.245611984980097,-0.550676610766846,-0.3008242845535278,-0.1562229543924331,0.1676224172115326,-0.0013944506645202,0.0245065689086914,-0.0365940295159816,-0.0577613525092601,-0.0216483660042285,-0.0911865838348865,-0.0699336677789688,0.0636994419723749,-0.0303039528489112,118
1733406308395406000,3.592460428097844,0.8254315636076033,2.373324876344204,4.062849742648005,-1.7949335983671246,8.743103069365024,0.2952682077884674,1.0385844707489014,2.133640050888061,-0.7690923874196997,-0.0559449955007598,0.2260441787130157,-0.5952067305932311,-0.1915598511695861,-0.1756447553634643,0.1791397780179977,-0.0038492083549499,-0.0006663799285888,-0.0244748555123806,-0.0421564988791942,-0.0202334523200988,-0.0374725293040275,-0.0916053652763366,0.0498044798716902,0.0040261867761611,119
1733406308435406000,3.3841344885259863,1.2870283537626266,2.28090261323452,3.684895258428156,-1.861936027407646,8.895230151852966,0.8257638216018677,0.6140971779823303,1.1901921033859253,-0.7522912215517175,-0.0477691153266787,0.2102084294553728,-0.6225659024797947,-0.162710890173912,-0.1709998399019241,0.1502686440944671,-0.0157024264335632,0.0077347755432128,0.002154529094696,-0.0416485853493213,-0.0149637199938297,-0.1371387721925973,-0.1153852194547653,0.0389142525449395,-0.1405284146308899,120
1733406308475405800,2.2531366544306275,1.1677103388123211,-0.6851993554443121,3.3718905085027218,-1.6811169573120772,9.053981620916725,0.7318649888038635,0.6806731224060059,0.8499220013618469,-0.7412622533734243,-0.0487036145327103,0.1897455330978968,-0.6419927791132134,-0.1794597804546356,-0.141269102692604,0.1221471354365348,-0.0266717672348022,-0.0094792246818542,0.0203513465821743,-0.0566551238298416,-0.0031457114964723,-0.1106780507683753,-0.1288387328386306,0.009234422943741,-0.0723638099431991,121
1733406308515405800,2.206236371567845,0.1094277584463357,-1.1148510014146569,3.099015232130885,-1.6068512592703104,9.164306620463728,0.1839581876993179,0.6446312665939331,0.2238083034753799,-0.7362487292663157,-0.0441577165999614,0.1755006796212169,-0.6520639936908881,-0.0922130346298217,-0.1350160539150238,0.0331372991204261,-0.0245203375816345,0.0381750464439392,-0.0068893432617187,-0.0379360429942607,0.0292599741369485,-0.1080108773857355,-0.0923652499914169,-0.0648741848401725,0.0444353540539741,122
1733406308555405800,0.6248752351239323,0.6722527801096438,-0.9522522092729806,2.88517403626889,-1.5467349364817142,9.244120746412872,0.1407154500484466,0.3253470957279205,-0.1441500931978225,-0.7377920482383342,-0.0390595721276952,0.1647888501668715,-0.6534384672446,0.0387473851442337,-0.1008029580116272,-0.0088391117751598,-0.0021262168884277,0.0222824811935424,0.0018067965283989,-0.0227849520742893,0.0046377107501029,0.0508762007564306,-0.0677906349301338,0.0503805261939764,0.0112087917566299,123
1733406308595405800,0.9675865565270184,0.1528118498817086,-1.5590449674785136,3.0054414608985183,-1.4513669753089546,9.221238467997312,0.0509846471250057,-0.5693051815032959,-0.8941690325737,-0.7436788065906674,-0.0452834263487485,0.1667246016470894,-0.6458281697792433,0.1557395160198211,-0.1198683679103851,-0.0488283410668373,0.008476972579956,0.0639377832412719,-0.0219038128852844,-0.021523093804717,-0.0176641158759593,0.0550993714094162,-0.0554801933467388,0.0113907241947948,0.0621709172308444,124
1733406308635406000,-1.6159911357983945,-0.0068754387274384,-1.0982511642694472,3.24075623742193,-1.362308635674417,9.154889388298988,-0.1770828664302826,-0.3863334953784942,-0.5380073189735413,-0.7524875089219385,-0.0541030127482321,0.1740787503426934,-0.6328759268806846,0.0631951987743377,-0.094865009188652,-0.007642553653568,0.000979721546173,-0.0002691149711608,0.0335690975189209,-0.0028467718511819,-0.0329785272479057,0.0857470231294632,-0.0400038249790668,0.068150503097102,0.0768862558037042,125
1733406308675406000,-1.177882042606175,0.0687748455405235,-0.5502297439843415,3.331017523105442,-1.4761163627706466,9.104712275722624,-0.5868965983390808,-0.0489795915782451,0.0215713810175657,-0.7548286206169018,-0.0517057248757835,0.1819763100521718,-0.6280485281461766,0.0863242223858833,-0.0724753960967063,0.0472553186118602,0.0059053897857666,-0.0090206861495971,0.0074983844533562,0.0139795839786529,-0.048466820269823,0.0085889646470546,-0.0350391194224357,0.090365038318932,0.0472463198214769,126
1733406308715405800,-0.260843477794528,0.0277025381788611,0.7582265977323055,3.2806802515313027,-1.716063475269824,9.080894762283563,-0.5082880854606628,0.3611900508403778,0.3181453943252563,-0.7537918626597773,-0.0406503275100174,0.1880180040855645,-0.628326938223582,0.0476135797798633,-0.0644630044698715,0.0672129094600677,0.0030919909477233,-0.0133607983589172,0.0160329341888427,0.009966816753149,-0.0585900135338306,-0.0090723642498254,-0.0528178066015243,0.0906667246792465,0.0524701919496059,127
1733406308755405800,0.2488824063658714,-0.6698099170021712,0.5859796872794628,3.048980742895603,-1.903657592458278,9.124154058295488,-0.2464213520288467,0.609920859336853,0.4537850618362427,-0.7506779014932463,-0.0265899291459683,0.1846363417908964,-0.6337863807964336,0.0555335544049739,-0.1026094332337379,0.0328524746000766,-0.0061774253845214,0.0170295238494873,-0.0030641546472907,0.0298169758170843,-0.0390259064733982,-0.0409767380326986,-0.0395328998565673,0.0626006869502365,0.0990659389078617,128
1733406308795405800,0.8060176919549703,-0.4187514817714691,0.2383317862570285,2.8267341222599147,-2.0166005194187164,9.171329066446424,-0.2075439989566803,0.4557804465293884,0.2156512290239334,-0.7484005509467544,-0.0155575400879107,0.1793050691077699,-0.6383605429333064,0.0441908873617649,-0.1668856739997863,-0.0156866312026977,0.0018584132194519,-0.0063446164131164,-0.0128918876871466,0.0430727899074554,-0.0282792523503303,-0.0485299298912286,-0.0396338105201721,0.0437521940954029,0.0855395178586244,129
1733406308835405800,1.3606772350803016,-0.3814890880867839,0.7794879969477653,2.676395676754415,-2.092469414873421,9.199394884979723,-0.0793807432055473,0.3377143740653991,-0.0388352759182453,-0.7486994370482107,-0.0075731456745791,0.1757954851756333,-0.6391305322766098,0.014213278889656,-0.1788684725761413,-0.0025067140813916,0.0094786882400512,-0.0325947403907775,0.0031595826148986,0.0386280678212642,-0.0053251776844263,-0.0662146396636962,-0.0409068688750267,0.0221291950259357,-0.0021533786416053,130
1733406308875406000,1.086599304920435,0.1930282710663974,0.3747136026024818,2.577277423137426,-2.0489834704987704,9.237407512509822,0.1956021189689636,0.2456618845462799,-0.249786376953125,-0.7516309112525299,-0.0053649168379655,0.1702777686555199,-0.6372030798590157,0.0252206567674875,-0.1428904384374618,-0.005380131304264,-0.0073925852775573,-0.0117207765579223,0.0145081281661987,0.0068021342158317,-0.0115249371156096,-0.0391138667702674,-0.0363928228616714,0.0303287950292229,0.0191390002340078,131
1733406308915406000,0.1090112865999341,-0.0888873669818043,-0.5388561170548201,2.5189243106290697,-1.9677317129619416,9.271107537537812,0.0257215648889541,0.2423960566520691,-0.27459317445755,-0.7559804677676835,-0.0056561193578718,0.1651455943055991,-0.6333945058842824,0.0578236058354377,-0.1069889962673187,0.0260075516998767,-0.0160844922065734,-0.0080987811088562,0.0129477381706237,-0.0250237956643104,-0.0177246965467929,-0.0119949736982584,-0.0318787768483161,0.0385263492058962,0.0404179351061582,132
1733406308955405800,-0.5132099268838763,0.0039262335330247,-0.4003314434617757,2.4950100588172672,-1.955649499371648,9.280126125773789,-0.0022794497199356,-0.0208151675760746,-0.1787136197090149,-0.7592311599917813,-0.0045432283928141,0.1637821608254089,-0.6298593976674902,0.1441925913095474,-0.0904687196016311,0.0318706333637237,0.0023161172866821,0.0189513564109802,-0.0231256484985351,-0.026143716648221,-0.0220060478895902,-0.0033487259060144,-0.0199029501527547,0.0529101908020675,0.0186941790759563,133
1733406308995405800,-0.8005749163791537,0.3968865637049079,-0.8560001587420701,2.531732062014937,-1.9430917772240937,9.272815510499475,-0.0524051189422607,-0.0539853610098362,0.1197508573532104,-0.7596149547377176,-0.0061171292615439,0.1648652659753461,-0.6291001965920718,-0.0301334112882614,-0.0662179738283157,0.0541369244456291,-0.0141265988349914,-0.039170503616333,0.0133289694786071,-0.0208890661597251,-0.0322517715394496,-0.0439057772219181,-0.0252847205847501,0.0988278193030506,-0.0310240838170051,134
1733406309035405800,-0.1177674245074391,0.4266502721972763,-0.777481917822361,2.456902446480095,-2.056353414744884,9.268518105566502,-0.4204806685447693,0.3244916498661041,0.3297907412052154,-0.7569158837145883,0.000173094692017,0.1656413773276697,-0.6321719144223584,-0.1190864592790603,-0.0729902312159538,0.0320127122104167,-0.0101740360260009,-0.0098657608032226,0.0095003843307495,-0.0104677816852927,-0.0325022563338279,-0.0911468363463878,-0.0451018512248992,0.0835265706010162,-0.019310265147686,135
1733406309075405800,-0.3099409784406423,0.2724664033100009,-0.478538134214282,2.341271595609933,-2.2806030457660555,9.245954976102707,-0.5750542879104614,0.1136016249656677,0.4005712568759918,-0.7529910568324953,0.011986300893702,0.1686529606858694,-0.6359379280447455,-0.1349080204963684,-0.0520941652357578,0.034016340970993,-0.0044972896575927,0.0096223950386047,0.0260992050170898,0.0158286318182945,-0.0287470519542694,-0.0325736513465642,-0.0418737083673477,0.1160867048788815,-0.0074105685174465,136
1733406309115406000,0.7893596948817372,-0.2947524693980813,0.7950520613044499,2.1798991303928195,-2.50092688164562,9.22842282654345,-0.3385774791240692,0.4360948204994201,0.3159335553646087,-0.7490407860116787,0.0251328384481772,0.1698520583972853,-0.6398878564498063,-0.1017221137881279,-0.057464376091957,0.0196562446653842,0.010457694530487,0.0026574730873107,-0.0034227380529046,0.0064062690362334,-0.0115134306252002,-0.0291243876755237,-0.0421797893941402,0.1004356198258697,0.0008691840499639,137
1733406309155406000,0.4216818361349403,-0.0500152000129222,0.544635869500041,2.059010358994454,-2.571186705046892,9.236875013068316,-0.0195791255682706,0.1778145432472229,0.1710341572761535,-0.7470085808863556,0.0313802021677149,0.1675282765784039,-0.6425945140574971,-0.0675710663199424,-0.0217757280915975,0.0025639447849243,-0.0013772845268249,0.0193716883659362,0.0086396923288702,-0.0030160928145051,0.0057201888412237,-0.0256593419134616,-0.0424858704209327,0.0847842425119131,0.0091360771358013,138
1733406309195406000,0.379809318306297,-0.3171165691584348,0.3472282143056392,1.9943409029461443,-2.5644547664433714,9.252921892505883,0.1084016859531402,0.0952679738402366,0.0326117202639579,-0.7461949363774552,0.0329954623636654,0.1647530994967789,-0.644174568555958,0.0276057831943035,-0.0077429455704987,-0.0097368638962507,-7.253885269165039e-05,0.0296998620033264,-0.00208973698318,-0.0124384546652436,0.0229538083076477,-0.0221790985822677,-0.0427919514477252,0.0691322806760668,0.0173883571743965,139
1733406309235405800,0.1090662316575646,0.2295586972147226,-0.0263064076453447,1.985860220979154,-2.499261871042848,9.272563581565022,0.2202273905277252,-0.0603641383349895,-0.0825717821717262,-0.7467774251728438,0.0307637663476568,0.1621247169043641,-0.6442769081626873,0.0125125851482152,-0.0139788445085287,-0.024030115455389,-0.0087250471115112,0.0106667280197143,0.0168315190821886,-0.0056413179263472,0.0125985546037554,0.0096299981325864,-0.0508357174694538,0.0892775353431701,0.0204535899639129,140
1733406309275405800,0.1294545013003051,0.1576350322544574,-0.7281751583397388,2.009465260711312,-2.438860155441612,9.283554931178688,-0.0141846127808094,0.057406261563301,-0.1106690913438797,-0.7481338841877458,0.0278798599954707,0.1609134302708954,-0.6431370997786472,-0.0432841032743454,-0.0281044095754623,0.0020302471239119,0.0036776661872863,-0.0176199078559875,-0.0019993782043457,0.006068511866033,-0.0017032688483595,-0.0019710078120231,-0.0571314096450805,0.0826250186514109,-0.0076005381315946,141
1733406309315405800,0.2235550728857517,0.1418161163538694,-0.6796440594047307,1.9686358221948144,-2.4933710594385863,9.277820771440863,-0.2880920171737671,0.2114714086055755,-0.005752507597208,-0.7484469774244906,0.0315030225779464,0.1611531773589722,-0.6425452406240857,-0.0083029493689537,-0.0220835357904434,0.0466730147600173,0.0109099745750427,-0.0018811225891113,0.0093016605824232,0.0153451133519411,-0.0048184692859649,-0.0013011457264423,-0.0275386068969964,0.0662477382156997,0.0190899003952741,142
1733406309355405800,0.4520307971693575,0.2827636331796646,-0.6254156256109475,1.87348720286116,-2.628333072113991,9.260253550568224,-0.4129827916622162,0.2508224546909332,-0.0659315288066864,-0.7484953527762174,0.040117017515236,0.1620157306150256,-0.6417913458186538,0.1275627464056015,-0.0791216269135475,0.0890530943870544,0.0210655331611633,0.0060811638832092,-0.0286225099116563,0.0075660804286599,-0.0173166394233703,-0.0055675709992647,-0.0040123742073774,0.0999235055852681,0.0133200848221778,143
1733406309395406000,-0.0142142571829259,0.0401847108721733,-0.3422176926672458,1.7938542786978184,-2.772866630733013,9.23383374567628,-0.3834385275840759,0.2067008018493652,-0.024464139714837,-0.7488246478088812,0.0487217187996578,0.1638038666737351,-0.6403562156152061,0.2946177721023559,-0.1434243470430374,0.0927541553974151,0.0283440947532653,0.0142525434494018,-0.0288590192794799,-0.0001036264002323,-0.0103959552943706,-0.0171440270245075,-0.0046799639239907,0.0832624397721141,0.0119774380415678,144
1733406309435406000,-0.0415481081798672,0.0988961352989077,-0.3110194213271141,1.7352961451366542,-2.910437072341144,9.202634889814258,-0.3920375108718872,0.1101715192198753,0.0019016081932932,-0.7481913564696401,0.0561424314172751,0.1662655489613948,-0.6398541659996412,0.3878792822360992,-0.1324434876441955,0.1501189768314361,0.0245586037635803,-0.0248834490776062,0.0275018215179443,0.0021696805488318,-0.0029486147686839,0.0133610013544559,0.00257772160694,0.1096961270589381,0.0768219583958387,145
1733406309475405800,0.1341850369535386,0.0977136475160718,-0.2739361836016178,1.7256608863070606,-3.064877692468464,9.154179778724908,-0.3567920327186584,-0.0539131015539169,-0.0038439691998064,-0.7468706903203833,0.0625270648528719,0.171339136218787,-0.639466497518379,0.8952074646949768,-0.2106189876794815,0.2015209943056106,0.0599834322929382,0.0156334638595581,-0.0085389018058776,0.0053230477496981,-0.0103542609140276,0.0119119715899229,0.0099683441221714,0.1127901475515216,0.0569376927524805,146
1733406309515405800,0.0939545872434973,0.2363619474887847,-0.5824982749044895,1.815271599127352,-3.184073103952408,9.095980103212597,-0.3494463860988617,-0.418240338563919,-0.1995714604854583,-0.7462407377981041,0.0644439502315508,0.1791118829502496,-0.6378797743533546,0.7759628295898438,-0.3014633655548095,0.1962942034006118,0.0266559720039367,0.0402391552925109,-0.0037500821053981,0.0021664025261998,-8.28597694635e-05,-0.0374339508593082,0.0095836017280817,0.0818974350292235,0.0382411755889654,147
1733406309555405800,0.0925378523133695,0.2783621833503246,-0.2296639111548662,1.9663259378172453,-3.306129457825422,9.020723494437336,-0.4586620330810547,-0.1113935559988021,-0.1788881570100784,-0.7468647271199053,0.0649226766821271,0.1893571790950444,-0.6341309003040748,0.831459641456604,-0.2595768868923187,0.2672810852527618,0.0058544278144836,0.0075762271881103,0.0315154828131198,0.0005116190295666,0.0206002984195947,-0.0412719215869903,0.002958936151117,0.0614967442963272,0.0376987392753362,148
1733406309595405800,-0.5933135372988879,-0.1673661526739597,0.0604185206055641,1.961898915155232,-3.4816964526116845,8.955396743524075,-0.4990637898445129,0.0553102046251297,0.1080429479479789,-0.7462752948867761,0.0723801565435025,0.1953534205298421,-0.6321956935093646,0.9710452556610109,-0.1450306475162506,0.3210049867630005,0.009877324104309,0.0007804632186889,0.0287681818008422,0.0008202609606087,0.0103285843506455,-0.0170277071684598,-0.0155129432678222,0.086892028446123,0.0350374111115932,149
1733406309635406000,0.092119042379409,0.1258642217233777,0.2345540212839841,1.9576170000523327,-3.643245735700429,8.891843432024121,-0.3380605578422546,-0.167797178030014,0.1588161140680313,-0.7428546273380835,0.0783987436298725,0.2012356471862877,-0.6336599517516035,0.9377506971359252,-0.1149351298809051,0.3086564242839813,-0.0039552450180053,0.0271412730216979,0.0251216143369674,0.0122000928968191,0.0228810012340545,-0.0102682960361242,-0.0173162762075662,0.0782762488573789,0.0396586411714553,150
1733406309675406000,-0.0483797077655792,0.0794306795895099,-0.0420230322152376,2.034818897676468,-3.7647055849850175,8.823655446460842,-0.3345197439193725,-0.3402023911476135,-0.0261279698461294,-0.7403521258720003,0.0803769319000472,0.2089457704681034,-0.6338454624888173,0.4541219472885132,-0.0942767709493637,0.3961662352085113,0.0107483863830566,-0.0839537382125854,0.0905510932207107,0.0273032933473587,0.013191083446145,-0.0386941800534725,-0.0170918181538581,0.073279755744338,-0.0096229838699102,151
1733406309715405800,-0.2877810229502618,-0.0215326173722744,-0.1763777266472578,2.21062423126325,-3.878471957157552,8.731608446404337,-0.3513297736644745,-0.5490230917930603,0.0297215059399604,-0.7374423616796604,0.0787366855527268,0.2204822298853423,-0.6335352957724277,-0.1667786091566085,-0.0640436112880706,0.4797189831733703,0.0146529674530029,-0.0475916266441345,0.0812848806381225,0.0251332968473434,0.0065236315131187,-0.0136678753465414,-0.0133497603237628,0.058895329626277,0.0115197574019432,152
1733406309755405800,0.0224400876060128,-0.1512412395641207,0.0601005406975746,2.349914336270839,-4.022750079710781,8.629355109632014,-0.4180667698383331,-0.3895473182201385,0.0101162074133753,-0.734556592649786,0.0796254982034772,0.2317004963028447,-0.6327726448074701,-0.2432827055454254,-0.096059113740921,0.5366878509521484,0.0182634592056274,-0.0208674073219299,0.0405648499727249,0.0282407868653535,0.002616970334202,-0.0243640414059162,0.0057664569467306,0.0767431210059672,0.0063368018060922,153
1733406309795405800,0.2797203199610114,-0.1043356960043311,0.0569090511798858,2.5384049639075994,-4.132802692057192,8.523311148405075,-0.2515033185482025,-0.631837785243988,-0.0909368768334388,-0.7320422533784828,0.0776108912581373,0.2437388587525699,-0.6314128337266398,-0.1390231400728225,-0.2060169428586959,0.4779914021492004,0.0352034270763397,0.0342006683349609,-0.0247164368629455,0.0347802266478538,0.014243820682168,-0.0457370843023061,0.0083557032048702,0.0615448212217539,0.0435474653035402,154
1733406309835405800,0.3189174811005592,-0.2097895823836326,-0.0373234762221574,2.70780233014822,-4.214545447981357,8.43064630871117,-0.3209870457649231,-0.2646374404430389,0.0105566000565886,-0.7300390646368259,0.0751699540639452,0.2539805900652888,-0.6299891635649117,0.1782293766736984,-0.2500213980674743,0.3652960658073425,-0.0073444843292236,0.0435651540756225,0.0014105513691902,0.0413196682929992,0.0258706696331501,-0.0671077891111373,0.0109449494630098,0.0463400186315178,0.0807470228850841,155
1733406309875406000,0.3441039448052644,0.2249590944647788,0.0987345149964094,2.779730379022657,-4.3358036372140045,8.345315465167165,-0.3334803283214569,-0.2761571109294891,0.0669957250356674,-0.7274826272916061,0.0773690791430879,0.2617658534046148,-0.6294931048572783,0.2311586439609527,-0.2718787491321563,0.3063071370124817,-0.0366819202899932,-0.0055156350135803,-0.0196686908602714,0.0596586838364601,0.0426165573298931,-0.1208534078240394,-0.0242721121758222,0.0013751608107239,0.0846031137913465,156
1733406309915406000,0.3207867821037769,0.0084606620922684,0.0582674800515174,2.882655039185285,-4.441624311079084,8.254251046407223,-0.3315558135509491,-0.3627040684223175,-0.1129878461360931,-0.7256893606067646,0.078251785059978,0.2702350380589145,-0.6278731445943502,-0.0547178499400615,-0.156076118350029,0.190361812710762,-0.0690872967243194,-0.0250353217124938,0.0498789548873901,0.0687948167324066,0.0422248803079128,-0.0408382063448429,-0.0588941723108291,-0.0011279811166226,0.0563525863409042,157
1733406309955405800,-0.2993438888415694,-0.386859967470169,0.95822134681046,2.9314693389758464,-4.543399801206588,8.181344215628505,-0.2406581491231918,0.0795841440558433,0.2156363725662231,-0.723951628712863,0.0806876717674583,0.2763277531939626,-0.6269183680490232,0.2307575792074203,-0.1235871985554695,0.0915236473083496,-0.0656714141368866,0.0496548414230346,-0.0462239906191825,0.0702676400542259,0.0473631806671619,0.003347556862235,-0.0535555742681026,-0.0119527419917285,0.0176373634994029,158
1733406309995405800,0.2588970199018716,-0.1032274425014853,0.5328688593387604,2.8710730302020906,-4.625470473910868,8.15673642859459,-0.1073754727840423,-0.041739385575056,0.2660853266716003,-0.7204283781265816,0.0848188203707782,0.2773588729050671,-0.6299689505669726,-0.0717370510101318,-0.1111637204885482,0.0483204461634159,-0.0279209911823272,-0.0100613832473754,-0.0300531387329101,0.0578280538320541,0.0268619116395711,0.0397363825827837,-0.0767632648348808,0.0071928341135382,0.0032061025649309,159
1733406310035405800,0.6458110556468367,-0.0987222400367259,0.3545926055938005,2.860198000444472,-4.680253618977964,8.12926039264798,-0.0940105468034744,-0.0745562687516212,0.0733629018068313,-0.7177249289165962,0.0865114880212112,0.2793543076753045,-0.6319396688824825,0.0175382364541292,-0.0745410472154617,0.0543413907289505,0.0029699206352233,0.0150302648544311,0.0002105236053466,0.0546713881194591,-0.0013645365834236,0.0494914683997631,-0.0628523156046867,0.0163118139840662,0.0464046083003282,160
1733406310075405800,0.1359632986724376,0.0115370007976889,0.2381272035956382,2.89180397580266,-4.69085450796932,8.111950361406803,0.0487523153424263,-0.1594485789537429,0.0250601209700107,-0.7166132895110346,0.0855231299370676,0.2812319938846127,-0.6325027352535407,-0.0090664774179458,-0.0963404029607772,0.0802111402153968,0.026301622390747,-0.0175268054008483,-0.0098059177398681,0.0329916551709175,-0.0161067061126232,0.0287929637640714,-0.0536264926195144,0.0304622121505439,0.0519148961544036,161
1733406310115406000,-0.1571446183890104,-0.0643140667393803,-0.3517459839910268,2.9638971521109343,-4.674259931521117,8.095491978558897,0.0430120974779129,-0.3196068406105041,-0.0144236432388424,-0.7152307552617678,0.0818802422251075,0.2837964274458294,-0.6334035438560548,-0.0195912886410951,-0.1175425127148628,0.0524979494512081,0.0107520520687103,0.0024771690368652,0.0010064244270324,0.0113119278103113,-0.0308488756418228,0.0081155019164085,-0.0444006696343421,0.0446389138020575,0.0574006340891122,162
1733406310155406000,-0.3006944266676902,0.1728106818154454,-0.6228840613067149,3.0884429847121235,-4.66807364410162,8.052390503457188,-0.0605540052056312,-0.4060660004615783,-0.0655176267027854,-0.7138110893797879,0.0770647821617663,0.2889694681416648,-0.6332704251527526,0.1292575746774673,-0.0389155633747577,0.0708574503660202,0.0074974000453948,0.0033058524131774,0.0105624198913574,0.0192587599158287,-0.0063562374562025,-0.0674777914673089,-0.0151804313063621,0.0102174426317214,0.0194189862191677,163
1733406310195406000,-0.2741863589704036,0.2581958858951926,-0.7028606843411922,3.230576496452093,-4.707969308899343,7.973003663009405,-0.2253209054470062,-0.3944689929485321,-0.00985889416188,-0.7116685939714377,0.0735234368352725,0.2967899175101009,-0.6324854501220432,0.2485602647066116,0.0191994030028581,0.076608806848526,-0.0037547647953033,-0.0021396279335021,0.0296827033162117,0.0090271420776844,-0.0051118931733071,-0.0435480498254299,-0.0094575947150588,0.0378229501768946,-0.0200847566515207,164
1733406310235405800,0.019601064787805,-0.0398676077470183,0.1783347059339284,3.2368124682322144,-4.812281331767141,7.907931763640046,-0.3382880985736847,0.294527918100357,0.2727269530296325,-0.7096689682918557,0.07728699291781,0.3013874882211764,-0.6321094781115918,-0.1318448632955551,-0.0663165673613548,0.0467137619853019,0.0044026374816894,-0.0727108120918273,0.0418129041790962,-0.0042163431644439,-0.004629660397768,-0.0175742351353168,0.0165037028491497,0.0284758606389164,0.0072831427454948,165
1733406310275405800,0.5940358602240682,-0.0031774609923362,0.453507737854123,3.0619100748345254,-4.9550645395874975,7.889387222167849,-0.262214183807373,0.2555710077285766,0.2566708326339721,-0.7071291859278209,0.0882679910662241,0.2999365918110964,-0.6342044176363194,-0.0139919929206371,-0.0761468783020973,-0.0020018452778458,0.0029667317867279,0.038885474205017,-0.0041770935058593,-0.0066988291218876,-0.0213688388466835,-0.0415694432288408,-0.0085105709731578,0.0360046487085521,-0.0758195033550262,166
1733406310315405800,0.4424880389288068,-0.2340542550683021,0.6621183395862579,3.0175822728082538,-5.0119408575415605,7.870517102003097,-0.0321185663342475,-0.0445289500057697,-0.0622229762375354,-0.7064874186272845,0.0920531860594646,0.3004022770597807,-0.6341611189020199,-0.0383862815797328,-0.075649507343769,0.0371491499245166,0.0208339095115661,-0.0033749938011169,0.0078617334365844,0.0040964419022202,-0.0342660173773765,-0.0406990901350975,-0.0165451578795909,0.0400207524821162,-0.0099023853331804,167
1733406310355405800,-0.0131122872903943,-0.1899403880536556,0.3913923502027988,3.0673651253700256,-4.977793673267961,7.872942283323407,0.1719346493482589,-0.1482864767313003,-0.0197121482342481,-0.7065880952475861,0.0889212674461738,0.3011389411010987,-0.6341463102020651,0.0222943760454654,-0.0924764275550842,0.0838210508227348,0.0300217866897583,0.0155430436134338,-0.0159395262598991,0.0162604115903377,-0.0326926335692405,-0.0854401491373777,-0.0024904422461986,0.0550384350024163,-0.0346305838763713,168
1733406310395406000,0.1481470729410648,0.0509323148578405,-0.2761860083550214,3.10781783952862,-4.930614573463798,7.886754535576701,0.08712899684906,-0.0850885957479476,-0.0050604972057044,-0.7061268215904885,0.0852016798240314,0.3010450133981979,-0.6352145570477361,0.0604449585080146,-0.1214086785912513,0.1485363990068435,0.0331913530826568,0.0003744959831237,-0.014029324054718,0.0030351234599947,-0.0183260217308998,-0.0764864428311586,0.0148365329951047,0.0306593421578407,-0.0334200390428304,169
1733406310435406000,-0.023663199660182,0.0659890142142772,-0.1832686552047729,3.126997171773016,-4.92277671944499,7.884068657493591,-0.0259740445762872,-0.0209609698504209,0.022626731544733,-0.705830176470486,0.0840913605985186,0.301584153033708,-0.6354363664711532,0.0297893099486827,-0.1599544286727905,0.1482061594724655,0.0247277915477752,0.0106890797615051,-0.0071679800748825,-0.0101901665329933,-0.0039594080299139,-0.067528060349822,0.0321635082364082,0.0062777650952339,-0.0322094942092895,170
1733406310475405800,0.1953235423967242,0.0773830994099378,-0.1077308914005756,3.1130142391279336,-4.94733891377151,7.874221217218041,-0.0879820212721824,0.0311343278735876,0.0449999161064624,-0.7052370359654978,0.0854089058923654,0.3020459438913726,-0.635699814268806,0.0644146651029586,-0.1387414932250976,0.2204490751028061,0.0307326018810272,0.024114191532135,0.0087159872055053,-0.0132389543578028,0.0020788433030247,-0.0820885006219148,0.0587089359760284,-0.0153806706137955,-0.0734913526684045,171
1733406310515405800,0.1329874977320432,-0.0363952554613351,-0.048238253468275,3.1027760459691285,-4.986340552338958,7.853634940785169,-0.1439947634935379,0.0086557082831859,-0.0093224756419658,-0.7049261145417284,0.0874311609188302,0.3032026723749313,-0.6352189934082385,-0.0995457768440246,-0.2667641043663025,0.3364880681037903,0.0553568303585052,-0.0224128365516662,0.0002434849739074,-0.0214306972920894,0.0139860641211271,-0.0810965669751167,0.0701345801353454,0.0060039165899157,-0.1329448276340961,172
1733406310555405800,0.1031549617871642,-0.1996025348901748,0.3552694819420576,3.106571931120753,-5.021403097891807,7.829757806113362,-0.0673602893948555,-0.0020124996080994,-0.0259815510362386,-0.705010359997261,0.0890236737412899,0.3047429024516057,-0.6341663753383884,0.0227175522595644,-0.3637149631977081,0.4688205420970917,0.0823011100292205,0.0050548315048217,-0.0419613718986511,-0.0455107316374778,-0.0076425299048423,-0.0256453133881092,0.1002554148435592,0.0254952373929321,-0.0513689527094364,173
1733406310595405800,0.1215150866031646,-0.0276969852209091,0.0598643938541412,3.127715841436386,-5.015239899086952,7.825289136266708,0.0618143901228904,-0.0832684785127639,-0.035768412053585,-0.7051260665943752,0.0881269115028952,0.3053767185155151,-0.6338580364352091,0.2549603879451751,-0.3354295790195465,0.6487236022949219,0.0279527306556701,-0.0228878855705261,0.0015281438827514,-0.052709124982357,0.0043069636449217,-0.1003571477621793,0.1219200566411018,-0.0190149354629218,0.0186526780217885,174
1733406310635406000,0.1285895550340414,-0.0185030404180288,-0.3081798139870166,3.151317081776261,-5.002886028948426,7.823727878299355,-0.0313266962766647,-0.0025227626319974,-0.0397314541041851,-0.7053053340541038,0.0868898339633776,0.3058611354864232,-0.6335958010058221,0.8179989457130432,-0.3401052355766296,0.5543249845504761,-0.0401681065559387,0.0497532486915588,0.0093796253204345,-0.0385585911571979,0.0248417928814888,-0.0489127917289733,0.1142522767186164,-0.0166359313718974,0.0332183789908885,175
1733406310675406000,-0.2115776348441839,0.1738145981609821,-0.0987999814480543,3.147018800060451,-5.01429180458188,7.818155046603083,-0.0426008105278015,0.0496648848056793,0.0418742634356021,-0.7055024463372116,0.0876635890274588,0.3061047796082935,-0.6331519635435185,2.370750665664673,-0.1750739961862564,0.4199614524841308,-0.0802519619464874,0.1150254607200622,0.0566781908273696,-0.0309282820671796,0.0275050513446331,-0.076655369657278,0.0923079848289489,-0.0433227166369557,0.0940624315321445,176
1733406310715405800,-0.10180120909065,0.1157154604136943,-0.1873141312032938,3.0996409628137944,-5.050314719599485,7.813893882027268,-0.1284829676151275,0.1368318051099777,0.1067147701978683,-0.704898459208189,0.0905682958249032,0.3056136164009973,-0.6336528216748558,2.4464986324310303,0.1340458840131759,0.4536828100681305,-0.0933991372585296,-0.0095666050910949,0.0545791089534759,-0.0115376506000757,0.0272563006728887,-0.0328524682879447,0.0713293701410293,-0.0169794841125607,0.1426864694476127,177
1733406310755405800,0.0098816348060965,0.2019037975698709,-0.0559895982474088,3.040929830648005,-5.106425898399949,7.800483780834078,-0.1387204080820083,0.092752031981945,0.0847551077604293,-0.7041385448227818,0.0947234546563442,0.3054725337174031,-0.6339582564501083,1.178467869758606,0.3367998898029327,0.130344346165657,-0.0626546740531921,-0.0348876118659973,0.08583864569664,-0.0019127614796161,-0.0018338952213525,0.065170683568716,0.0552289225161075,0.0471666787140071,0.1196416939467191,178
1733406310795405800,0.1581175550743937,-0.029700141736865,-0.025610242074728,3.006568126840889,-5.156439929369092,7.780878332132101,-0.1279898583889007,0.0621947422623634,0.0708758756518364,-0.7033265354059217,0.0978126518631347,0.3061344618796767,-0.6340711423517853,-0.0789789855480194,0.0011552079813554,-0.1079350039362907,0.0108788609504699,-0.0491561293601989,-0.0037001073360443,0.0120437247678637,-0.0150918010622262,0.0255851076334714,0.0410671196877956,0.0168844993054866,0.1119926404982805,179
1733406310835405800,0.2272203173950314,-0.1005249055445194,0.0001636661291122,2.972031650988757,-5.200686482852697,7.764681230568885,-0.1073104813694953,0.0565742030739784,0.0549924820661544,-0.7026282217350458,0.1006926628979843,0.3065492183062326,-0.6341940864447817,0.066945195198059,0.0563334561884403,-0.0710300505161285,0.0348669588565826,0.0218504667282104,-0.0865123569965362,0.0137878572568297,-0.029703177511692,0.1434621299952268,-0.0088921412825584,0.0961345616310834,0.0391734880030155,180
1733406310875406000,0.1685059703588485,-0.0735831226050853,0.0332043504655361,2.969693855690956,-5.229124641829729,7.746454669004678,-0.0679676532745361,0.0031461277976632,-0.0120811015367507,-0.7022622621199399,0.1019663768911199,0.3076419684968256,-0.6338667600472419,-0.5025262236595154,-0.3098127245903015,-0.0609644316136837,0.0468525886535644,-0.036929428577423,0.0307865142822265,-0.0013829721137881,-0.0287233814597129,0.0688140085071325,-0.0126258516684174,0.1027639166429638,0.1165641861975192,181
1733406310915406000,-0.0643409547463059,-0.0546662406891584,-0.0431184262365102,2.9459122903481125,-5.249837174990773,7.741524226865172,-0.0484374724328517,0.0571860782802104,0.0738069713115692,-0.7020763243339311,0.1036260476500949,0.3074959554388508,-0.6338743955164622,0.015976557508111,-0.3360812962055206,0.0863238871097564,0.0420242249965667,-0.0041411519050598,-0.0758614242076873,0.0141358282417058,-0.0340864136815071,0.0093289693593978,-0.0240064747631549,0.1183642213568091,0.0653822804927826,182
1733406310955405800,0.1418468037530779,0.0160223295181989,0.0454880779772996,2.912106759119033,-5.273090040284395,7.738509847480058,-0.0285627897828817,0.043914183974266,0.0382802858948707,-0.7015969455651686,0.1055836304821489,0.3070796069247622,-0.634283789162442,-0.2193302363157272,-0.3178982436656952,0.1246739327907562,0.0165697932243347,-0.0319220423698425,0.0436363816261291,0.0196393150836229,-0.01865129545331,-0.0768324797898531,-0.0338653214275836,0.0637133243672549,0.0527507624566555,183
1733406310995405800,0.1494099324837327,0.047923196169734,-0.2202759050846099,2.924296086345613,-5.270723895674943,7.735525278711319,0.0098745729774236,-0.0757115185260772,-0.0212534945458173,-0.7012955235116999,0.1049400667682335,0.3075476537526528,-0.6344972672094328,0.4104178845882416,-0.2931972146034241,0.2231735438108444,0.0332137644290924,0.0554881691932678,-0.0461906194686889,0.0151545666158199,-0.0058772023767232,-0.0416407548993825,-0.0490496829152107,0.0603203209280967,0.0680880323201418,184
1733406311035405800,0.2913449990421533,0.2344663430005311,-0.3264174814671278,2.9571377409785984,-5.277552280390262,7.718365469595789,-0.0773339495062828,-0.0826481655240058,-0.0633052587509155,-0.7011907420200276,0.104192338663243,0.3092197366324082,-0.6339232844238819,0.0983337461948394,-0.3550843298435211,0.1552652716636657,0.0121101140975952,0.0357499718666076,0.0321420431137084,0.0106698162853717,0.0068968897685408,-0.0064268181771039,-0.064234048128128,0.056934404816851,0.0834042593955993,185
1733406311075405800,-0.232726513595879,-0.050819502133131,-0.0796475372105836,2.98082081438303,-5.303513235598802,7.691413165262341,-0.1203447878360748,0.0542141683399677,0.0761139839887619,-0.7009516309513527,0.1046023746683142,0.311296332270321,-0.633103239862987,-0.1715816110372543,-0.2136794477701187,0.0753079280257225,-0.053598552942276,-0.0164824128150939,0.07951620221138,0.0149784721434116,-0.0006595393642783,0.0091395842671394,-0.0600705444812774,0.0674623747024685,0.0605839403003454,186
1733406311115406000,0.0655289954870939,0.0246942962735891,-0.1049672719061374,2.900138673427701,-5.368402764138579,7.677227988043427,-0.1766881942749023,0.1602464765310287,0.1750888228416443,-0.699501369912576,0.1095938078010737,0.3107402309595898,-0.6341352605311168,0.2688274681568146,0.2704549431800842,0.331130176782608,-0.0682896375656127,-0.0481818914413452,0.2155843079090118,0.0192871280014514,-0.00821596942842,0.0247492413312196,-0.0559070371091365,0.0780018888954073,0.0377232891947031,187
1733406311155406000,0.2048731687694787,0.0724772071897983,0.2783797190070152,2.845040471062064,-5.426809944921732,7.656752770769596,-0.0930730402469635,0.0470195300877094,0.0721657276153564,-0.698397070317148,0.1136552085337737,0.3109609895152651,-0.6345291918875912,-0.2870054244995117,-0.0511649884283542,0.2950145900249481,-0.0356650948524475,-0.0170190334320068,-0.0431663691997528,0.0099749695509672,-0.0280570667237043,0.0309551102340221,-0.0593970343470573,0.0790107736770063,0.058107905575633,188
1733406311195406000,0.237562555450201,0.2378378652602434,0.0269873756468296,2.834048536926508,-5.447919952967762,7.645830394738912,-0.044302150607109,-0.0270765759050846,0.0263524893671274,-0.6976266266020261,0.1146639119339023,0.3114856739471314,-0.6349377286377177,0.0293695945292711,0.1514932662248611,0.1397186666727066,-0.0748045444488525,0.0677564740180969,0.0297024846076965,0.0141169670969247,-0.0159835573285818,-0.0423152931600809,-0.0632583424448967,0.0389932360652834,0.1012099651992321,189
1733406311235405800,0.0647831455558538,0.1729869151651859,-0.0833142430245876,2.828160647931695,-5.47584431720376,7.62804222459197,-0.117263525724411,0.0276660546660423,0.0544193871319294,-0.6970530024010276,0.1159461689460646,0.3124653299360159,-0.634853571924436,0.4309175610542297,0.619523823261261,-0.3448617160320282,-0.0823787152767181,0.0533236265182495,0.0887414216995239,0.0216687433421611,-0.0050939144566655,-0.0005465279668569,-0.0802255496382713,0.0594281213287264,-0.01290565880239,190
1733406311275405800,0.1856815615653991,-0.0405254871338605,0.095986093071103,2.7953984882757066,-5.525992788207531,7.603915499073267,-0.0584484860301017,0.0130046466365456,0.0819778740406036,-0.6957559441838008,0.1188246984091338,0.3133510588477019,-0.6353073414063222,-0.0497257560491561,0.3201932311058044,0.0552664399147033,0.0218018591403961,-0.0398057699203491,-0.0666115581989288,0.0066483682021498,-0.0132302772253751,-0.0113888244986534,-0.0623629689216613,0.0805751734495162,0.0190495683848857,191
1733406311315405800,0.2479316815122962,-0.159950323459506,-0.0373667308419942,2.777591028906405,-5.550519911220669,7.59256934467256,-0.0602089762687683,0.0013769645011052,0.0544304363429546,-0.6948351998520581,0.1201512710116886,0.3137680263200533,-0.6358595966221255,0.6076755523681641,0.2476069033145904,0.003134926315397,0.085625022649765,-0.0055335164070129,-0.0568611323833465,-0.0083720069378614,-0.0213666409254074,-0.0221826057136058,-0.0445003882050514,0.1017299704853445,0.0509650480836629,192
1733406311355405800,0.5110965879917144,-0.0024532383710145,-0.2025046860724687,2.784521997213364,-5.570200763246417,7.5755983361274,-0.0675588101148605,-0.0507579520344734,-0.0325385406613349,-0.6941553080469842,0.1205739490228449,0.3149823975640037,-0.6359217490554381,-0.2271836251020431,-0.4086284041404724,0.1332068294286728,0.1832090616226196,-0.0168394446372985,-0.1578076481819152,-0.0247834809124469,0.0007991530001163,-0.0282891058951616,-0.0417108498513698,0.1189804535590112,0.0371896207094192,193
1733406311395406000,0.1702741490751504,0.1513210268020629,-0.1089782611131668,2.812601844272017,-5.583315680885315,7.555543390092253,-0.0775475651025772,-0.0056563545949757,-0.1033551096916198,-0.6948916423355365,0.1207067387767082,0.3165507345514912,-0.634311514449356,-0.4496475756168365,-0.4169149100780487,0.2215846478939056,0.0646997690200805,-0.0050815343856811,-0.0503295361995697,-0.0358085036277771,0.0240774508565664,-0.0295522576987743,-0.0393633320927619,0.0999248938247561,0.0573562104254961,194
1733406311435406000,-0.3484723691478371,0.132344523653388,-0.0571592265486717,2.821084133674204,-5.599504014620185,7.54038673749268,-0.0849617794156074,0.0697953999042511,-0.0129966707900166,-0.6956065959264861,0.1216080175187611,0.3174252245390289,-0.6329172545502227,-2.102782249450684,-0.5397056937217712,0.0957064032554626,-0.0479239821434021,-0.1182838678359985,0.1285859644412994,0.0045097544789314,0.0320677608251571,-0.0347264454662799,-0.0673523843288421,0.0560289804097264,0.1554261240333318,195
1733406311475405800,-0.3944283568978309,-0.020983166795969,0.1462935540288686,2.763041694550216,-5.639507523706555,7.532060223174095,-0.1174220517277717,0.1695418208837509,0.136511281132698,-0.6954332649310377,0.1253568257438712,0.3166345977753507,-0.6327721754913505,0.3743360340595245,0.0228574126958847,0.1792913228273391,-0.1050253510475158,0.27546226978302,-0.0233445167541503,0.0482754483819007,0.0155551582574844,-0.0082055182874202,-0.099898412823677,0.0095351594559848,0.0267214181870222,196
1733406311515405800,0.2754384048581123,0.039843934610486,0.3502653900444507,2.691127089679241,-5.673998991373181,7.532194663208722,0.0110614271834492,0.0617084763944149,0.1043945252895355,-0.6943772002185753,0.1288374151205796,0.3152235208626421,-0.6339364248951889,0.5443650484085083,0.3282261192798614,0.044170644134283,-0.0862331092357635,0.0345728397369384,0.1225883364677429,0.0330057293176651,-0.0053939577192068,-0.0226724350571632,-0.097497321665287,0.0069362290039658,-0.0871533827960491,197
1733406311555191600,0.5095630948141217,0.0363753817170858,-0.0717792880535125,2.680112066929042,-5.669782250460982,7.539294266080856,0.002150492509827,-0.0237215384840965,-0.0226262565702199,-0.6939659993750671,0.1287704247447198,0.3146762789412008,-0.634671781718478,0.7513864040374756,0.571569561958313,-0.0862948894500732,-0.0411921441555023,0.0381271243095397,0.1209917366504669,0.0094157066196203,-0.0003211773000657,-0.0163952316509326,-0.0595537424087524,0.0128977403574157,-0.076767150335526,198
1733406311793852200,0.11650690305233,0.1291618019640445,-0.0079366382181644,2.7037130150079727,-5.679370163017511,7.523634924656152,0.048423521220684,0.0251171197742223,-0.03520168364048,-0.6942694929807757,0.1286558601160966,0.3159890117860477,-0.6337101652173941,-1.5396722555160522,-0.716942310333252,-0.0465585961937904,0.0015794038772583,-0.0372461080551147,0.0806764960289001,-0.0099871000275015,0.0058108204975724,-0.0096380410167912,-0.0027633267454802,0.0562484957787673,0.0616870107379974,199
1733406311833629400,-0.2223345911800861,0.1926058078706264,-0.1386170280516147,2.744925315362215,-5.654527982705831,7.5274226265013215,0.0433382168412208,-0.1494970619678497,-0.0978380218148231,-0.6949348911849791,0.1264345702190037,0.3165794814741328,-0.6331328970357747,-1.961377739906311,-0.9167940020561218,-0.1014272421598434,-0.0281031131744384,0.1532236337661743,0.2581830024719238,-0.0044267331250011,0.0066075287759304,-0.0493096957918023,0.0119473114609718,-0.0365557615189813,0.0330626176070189,200
1733406311873629400,0.0283253462523221,0.2663192788571119,-0.1671475414872169,2.774985522583127,-5.643696207568049,7.524529243147373,-0.0013453271239995,-0.0676283240318298,0.0020860587246716,-0.6951132164626637,0.1250312798443146,0.3173688244280814,-0.6328206341177381,1.6932449340820312,0.3709077537059784,-0.0706090703606605,-0.0876997411251068,0.492802083492279,-0.03228360414505,0.0097556468099355,0.0007145926356315,-0.0248322434395551,0.007296921685338,-0.0005796995840966,0.024271102425456,201
1733406311913629200,0.31302257784307,0.0448749145150184,-0.134496733251214,2.788516035285592,-5.656584330713748,7.509834947362542,-0.0941981151700019,0.0455486215651035,-0.0283011756837368,-0.6950387494029804,0.1252181387948685,0.318473541916823,-0.6323101898478775,0.6057103872299194,0.4500133693218231,0.1782379746437072,-0.0094169080257415,-0.1831440925598144,0.1941489726305008,0.0096821151673793,-0.0118093267083168,0.0183206695884466,0.0134281180799007,0.0346148017853498,0.017982231414318,202
1733406311953629200,-0.0660983198076486,-0.2122311303168535,0.2850748327314854,2.744312151899934,-5.6828919074028725,7.5062559198319905,-0.0282966326922178,0.1310853809118271,0.110796645283699,-0.6949209724528225,0.1278782853589082,0.317702068681959,-0.6322953555932737,0.7713657021522522,0.3992253541946411,0.1943935006856918,-0.0079615712165832,0.0357347726821899,0.0380851626396179,0.0043075517751276,-0.0099311862140893,-0.0236807353168725,0.0095317680388689,0.0312654913574457,0.0472585947811603,203
1733406311993629200,0.3392138346761464,0.1507756678789854,0.1159954463988542,2.720874869950116,-5.685870630952715,7.512529593273997,0.0349109508097171,-0.0671375766396522,-0.0324178412556648,-0.6944327841544845,0.1285229419110817,0.3169376016254949,-0.6330841948798845,1.043967604637146,0.513268232345581,-0.063808225095272,-0.0027333796024322,0.0904139876365661,-0.0719143152236938,0.0065347272902727,0.0028015272691845,-0.0242436298966407,-0.0181637424975633,0.0462024367917329,0.0618605361074209,204
1733406312033629200,0.0630178894490003,0.148105571886897,-0.1040098250508308,2.772165496726334,-5.667338948962092,7.507779183876514,0.0166115704923868,-0.1065874099731445,-0.0684279352426529,-0.6947513826252697,0.1261305194995071,0.3182780077432408,-0.6325429823056846,0.1376643776893615,0.2568466961383819,-0.2071467339992523,0.0306200683116912,-0.0845805406570434,0.0553827285766601,0.0110194664448499,0.0109316306188702,0.0003816927939653,-0.0402210429310798,0.0615284546088427,0.0634656332165002,205
1733406312073629200,0.0629962621390819,0.0981347955375909,-0.1253098027110099,2.791341029578448,-5.670339884343743,7.498403452765941,-0.0221741013228893,-0.0465628094971179,0.0114049008116126,-0.694573447114693,0.1255895043556499,0.3192414599054247,-0.6323606246755864,0.0924268513917923,0.0339643396437168,-0.3976743519306183,0.0385833978652954,-0.0070391297340393,-0.1673773825168609,0.0008933832868933,0.008611362427473,0.0295925897091627,-0.0430444926023483,0.0675971800632774,0.0682867697626352,206
1733406312113629400,0.0799392136335372,-0.0160462949156761,0.1219125614881515,2.79504806740284,-5.674671776068211,7.49374364426136,-0.0121097471565008,0.0819368734955787,0.0251602511852979,-0.694432222034513,0.1256207030494684,0.3196010561742854,-0.63232790228259,-0.3668885231018066,-0.5059657692909241,-0.1464656144380569,0.078222632408142,-0.0928918719291687,-0.127817690372467,-0.000671470654197,-0.0042496481910347,0.0385503876686096,-0.0468106940388679,0.1143655071094632,0.0443324782013893,207
1733406312153629200,0.0888315451413393,-0.0970814870923757,0.1529945129722356,2.747100321313739,-5.685363850474357,7.503363120999932,0.0142374774441123,0.07359529286623,0.0977142304182052,-0.6938470999110816,0.1273758543876313,0.3181357192393356,-0.6333571437955686,0.1175300776958465,-0.4853736460208893,-0.0157541427761316,0.0540226697921752,-0.0396527051925659,-0.0011582970619201,0.0052655236795544,0.0049999598413705,0.005499766460061,-0.0313772782683372,0.0988913129933178,0.015966215416789,208
1733406312193629200,0.3292261091470718,0.1487801101475954,-0.2332575517326593,2.7766517022296786,-5.668761675241589,7.505046544042229,0.0618606135249137,-0.191224917769432,-0.1225350573658943,-0.6937407438428042,0.1255525519576822,0.3187250770190142,-0.6335413013251839,-0.0948330536484718,-0.2227452099323272,0.0124916760250926,-0.0043489336967468,0.0638588070869445,0.0572628080844879,0.0112025178968906,0.0142495669424533,-0.0275379952669143,-0.0159438624978065,0.0834209913346916,-0.0124140758931636,209
1733406312233629200,0.0109361122950911,-0.1755968054026365,-0.3717547527968883,2.8437004546299574,-5.6478498201161615,7.4957017925918095,-0.0210492145270109,-0.0144098401069641,0.0059452513232827,-0.6940851699141312,0.1225631045912475,0.3206303923454261,-0.6327877161295457,-0.3669833242893219,0.1322471797466278,0.0382921807467937,-0.0823145508766174,-0.0236458182334899,0.1351621448993683,0.0072169229388237,0.0136752827093005,-0.040207507225871,-0.0084962751716375,0.0908330942220985,-0.023224808242917,210
1733406312273629200,0.1298649817973375,0.0188221893697977,-0.0896329246520996,2.783429525801539,-5.682605491676926,7.492055545043945,-0.1258785724639892,0.2067612707614898,0.1000751480460167,-0.6937397073125522,0.1260373939527843,0.3195716450872377,-0.6330195546768667,-0.0588111281394958,-0.0549622289836406,0.2919848263263702,0.007845401763916,0.0177034139633178,-0.1084805130958557,0.0163088012486696,0.0147362574934959,-0.0362958867400884,0.0001058289781212,0.0927244609266519,-0.0011047463715076,211
1733406312313629200,0.0036342648491263,0.1498719970375299,0.4336521137833595,2.735781347180903,-5.707861513486504,7.490407777836919,0.0256647560745477,0.0044029639102518,0.0149423517286777,-0.6935709096720657,0.1287316648577024,0.3186277721303368,-0.6331381504787904,-0.0308231711387634,-0.0130914794281125,0.170639157295227,-0.0402101576328277,-0.0228695273399353,0.0857782959938049,0.0254006795585155,0.0157972332090139,-0.0323830972105264,0.0087079321965575,0.0946158276312053,0.0210153154999017,212
1733406312353629400,0.0838876589983701,0.0540507391393184,-0.0692377868771553,2.759376450040936,-5.685512319034338,7.498744813549518,0.0727329701185226,-0.089798130095005,-0.0131357377395033,-0.6934545509823216,0.1267986377299481,0.3187358210009521,-0.6336010820968478,0.1499135941267013,0.3781735002994537,-0.0468445494771003,-0.1100701689720153,0.0111604928970336,0.0858670175075531,0.0462884157896041,0.0160210821777582,-0.0284773219436407,-0.0056755747646093,0.091643533822149,-0.008649754923582,213
1733406312393629400,0.0298860196977853,0.0081616791456937,-0.2223883671939373,2.7657933313459155,-5.6803246872633695,7.500312501257658,-0.0263883154839277,0.0175808798521757,0.0493692755699157,-0.693053496285412,0.1261325075619353,0.3188746818846908,-0.6341029263257683,0.1316291242837906,0.5235521197319031,-0.0937553346157074,-0.0573206543922424,0.1268326640129089,0.027107685804367,0.047260895371437,0.0082812458276748,-0.0357756622582674,-0.0237839985638856,0.0866221985287964,-0.052139937081933,214
1733406312433629200,0.1898161771520972,-0.0124509007722139,0.0231394680470228,2.7478695521205663,-5.6923331049650905,7.497796134522557,0.003501511644572,1.09920511022e-05,0.0479830577969551,-0.6923985214126749,0.1269756557362661,0.318741229362108,-0.634716972972321,0.3758284747600555,0.5369900465011597,-0.3247724175453186,0.0194296836853027,-0.0454036593437194,-0.0725440084934234,0.0409280881285667,0.0108099980279803,-0.0138426473915576,-0.0230095796287059,0.1172196544315666,-0.0101800332307815,215
1733406312473629200,0.3539902557864785,-0.1596732600837946,-0.1642997508406639,2.7572745093256232,-5.687265884703398,7.498187764188647,0.0223703552037477,-0.055299662053585,-0.0415638536214828,-0.6921807391295053,0.126313209558566,0.3189730123359054,-0.634970005942845,0.0040088444948196,-0.1033844053745269,-0.3213028609752655,0.1117221117019653,-0.0409985184669494,-0.0958877205848693,0.0314185917377471,0.01171266566962,0.0082324062943458,-0.0136235365644097,0.1344079589892178,-0.0079255323022603,216
1733406312513629200,0.0839697843238711,-0.2383300326913595,-0.06283201148808,2.762137146925926,-5.67998624908924,7.501915260279178,-0.0027505962643772,0.0782660022377967,-0.0075275315903127,-0.692801356198791,0.1261043173662467,0.3187576792491932,-0.6344426407221643,0.4264194965362549,-0.3001140356063843,-0.1034803315997123,0.0794083774089813,0.0779356360435485,-0.1214534044265747,0.0189583674073219,0.0098882345482707,-0.0241068517744541,-0.0150683466345071,0.1214117723591625,-0.0107213005006313,217
1733406312553629200,0.2771852485254407,0.0604120908647775,-0.0428588985174894,2.751031231021881,-5.671223681440949,7.512618440601229,0.0482715331017971,-0.0131110493093729,-0.0908530503511428,-0.6936552026950026,0.1264421603216949,0.3177663102019883,-0.6339396749718696,0.3430473506450653,-0.2001113295555114,-0.0139523148536682,0.0690017342567443,-0.0522822737693786,0.0413985252380371,0.0101942447945475,0.008656564168632,-0.0122580085486173,-0.0054573938250541,0.1080880342751741,0.0176139826238155,218
1733406312593629400,0.1281952950194478,0.115352472320199,-0.0616097762167453,2.795274277374148,-5.638925339904427,7.520594826307892,0.0563810542225837,-0.0447175912559032,-0.1334426552057266,-0.6950819124158885,0.1241371625157822,0.3180351189664163,-0.6326963838455396,0.3903735876083374,0.0001256832620128,0.2408157289028167,0.0090826749801635,-0.0711976289749145,0.1377066969871521,0.0134874079376459,0.0069612660445272,-0.0063993456482887,0.0065182289108633,0.0787885822936892,0.0235994867742061,219
1733406312633629400,-0.060088557998836,0.0754360569953918,-0.0519184032857418,2.813270829574764,-5.618910725879669,7.52886055034995,0.0172443352639675,0.0429476872086524,-0.0348971188068389,-0.6962426784581829,0.1231480541333968,0.3177570005912247,-0.6317524925341736,0.4196433424949646,-0.245043009519577,0.3354686200618744,-0.0335142612457275,-0.0612108707427978,0.1267777979373932,0.0141880987212061,-0.0055626793764531,0.032516368201375,0.0184946991503238,0.0646194794267416,0.0252946002542972,220
1733406312673629200,-0.1618561570808291,0.1532727453917264,0.0518020834296941,2.805952323254943,-5.610555569988489,7.537816594743728,0.0273804031312465,0.0213105119764804,-0.0182965360581874,-0.6969150694428758,0.1232946675500733,0.3169806624872276,-0.6313723466764793,0.0533689372241497,-0.0840181708335876,-0.0673882365226745,-0.1332793533802032,0.1025214791297912,-0.17790487408638,0.0130644338205456,0.0036326884292066,-0.0092962361335754,0.0345079191029071,-0.0056742462441325,-0.0094184012085199,221
1733406312713629200,0.088766663211584,0.3027870150327682,-0.0229348853856325,2.81360429931283,-5.602202167662978,7.541177011087536,-0.0055025541223585,-0.0102999610826373,-0.0055288886651396,-0.6970421342521451,0.1226984487950683,0.3169417489180088,-0.6313678937121399,-0.1683205813169479,0.3020035922527313,-0.2561690807342529,-0.0943391919136047,0.0799756050109863,0.126383364200592,0.0033893678337335,-0.0125819761306047,0.0635755233317613,0.0807332247495651,0.0377460855484008,0.0212011934608221,222
1733406312753629200,0.2376458498194813,0.1628378615945577,0.1321440326452255,2.8062822858616707,-5.613386994022131,7.535585474690794,-0.0265772175043821,0.0160525199025869,0.0338066779077053,-0.6968221062129891,0.1233801735788125,0.3171267787123331,-0.6313849104364452,-0.1518878042697906,0.5005670785903931,-0.4569102525711059,0.018139898777008,-0.0908734798431396,0.0125536620616912,0.0108974808827042,-0.0448454767465591,0.0496224013030529,0.1677672415971756,0.0391353479497134,0.031393501651287,223
1733406312793629200,0.2814975587666034,-0.022255086427927,0.1031593457013368,2.808219391404092,-5.608457720926404,7.538533218580484,0.0637810602784156,-0.0665642097592353,-0.0059365322813391,-0.6965688641421157,0.1229442964464016,0.317059081052057,-0.6317831914309006,0.041132777929306,0.0570708326995372,-0.2201187312602996,0.0868014097213745,-0.0298126935958862,-0.144060343503952,0.0184055939316749,-0.0771089792251586,0.0360772755533456,0.2548012733459472,0.0403862247936427,0.0412584775835275,224
1733406312833629400,0.2981719224527478,0.0466577062785625,0.08095978885293,2.8445170317098496,-5.573073688334226,7.551155968788266,0.1080081388354301,-0.0323303826153278,-0.089624635875225,-0.6971697651893776,0.1203318455579827,0.3170464125625284,-0.6316297475555773,0.5098406076431274,-0.080294482409954,-0.0736254304647445,0.0309341549873352,0.1005722284317016,-0.1105172038078308,0.0102740321308374,-0.0934740602970123,0.0309042568296194,0.3555923104286194,0.0091522976182401,0.0158498955607414,225
1733406312873629400,0.2783864410087466,0.2772597750663757,0.2155138052493333,2.872682218964398,-5.528641841411591,7.573123470446467,0.1431075632572174,-0.0763233974575996,-0.1411208361387252,-0.6983845381542912,0.1178355631743652,0.3162166064506587,-0.6311741698979295,0.3077804446220398,0.0818501040339469,0.0207415502518415,0.05513197183609,-0.0411361455917358,0.0891949534416198,-0.0029083248227834,-0.0843615904450416,0.014791326418519,0.4883741438388824,-0.0026085750631988,0.0492331097245216,226
1733406312913629200,0.3948313847407698,0.4895452659189701,0.2047404823005199,2.9814418688908217,-5.43746168731749,7.59706490252614,0.2481647133827209,-0.2755634784698486,-0.3511558473110199,-0.7008399330726255,0.1111383559695252,0.3167108388614186,-0.6294170719291085,0.3115576207637787,0.2108567208051681,0.0440051928162574,-0.0091522336006164,-0.0267063975334167,0.0810462236404419,-0.0064240777865052,-0.0787230730056762,0.0029027357041835,0.6243325471878052,-0.0142427526250481,0.0661433279931545,227
1733406312953629200,0.4160039366289973,0.4613607894420623,-0.0473585480242967,3.1613819641947742,-5.324881602320075,7.60405753789246,0.1581180244684219,-0.2978944778442383,-0.4619098603725433,-0.7045027538822978,0.1018703161600557,0.3192544671141902,-0.6255996308285243,0.847141683101654,0.0916106924414634,0.1063719689846038,-0.0069805681705474,-0.0008478164672851,-0.0516605079174041,-0.0180499553680419,-0.0563512220978736,-0.050388709500432,0.6950443983078003,-0.0291945303022861,0.0553822800040245,228
1733406312993629200,0.1899444797068834,0.265011703389883,0.0325245515078306,3.333871451231837,-5.229688120931387,7.5964494009763,0.0831985101103782,-0.182683452963829,-0.4297395646572113,-0.7088551904621412,0.0941740910863165,0.3222112797286396,-0.6203510630339033,1.253407597541809,-0.0046086180955171,0.1981759965419769,0.007655382156372,-0.0766984224319458,0.0231191217899322,-0.0316144600510597,-0.0338969603180885,-0.0455301635533571,0.7111318111419678,-0.0266755332186818,0.0563572625160217,229
1733406313033629200,0.1809346592992544,0.2860515688091516,-0.1077186164408922,3.453313238692284,-5.157503174686432,7.5924413343787185,0.0200308822095394,-0.0922300964593887,-0.3786888420581817,-0.7130315326196327,0.0892208720831337,0.3239334038442003,-0.6153801374788443,1.9325417280197144,0.0090945707634091,0.3252550363540649,0.0030228197574615,0.0067819952964782,-0.0039049983024597,-0.0353829450905323,-0.027179529890418,-0.01516249781847,0.704761803150177,-0.0203553172212094,0.1624532461911439,230
1733406313073629200,0.1665481142893433,0.1078390279501676,0.0633650954514741,3.5497017750844355,-5.106632819148897,7.58236826865375,-0.011057173833251,-0.0282199885696172,-0.3751067519187927,-0.7176800423633334,0.086334569793325,0.3255044612047376,-0.6095314507215627,2.3075027465820312,-0.1656396389007568,0.1904634684324264,-0.0233347713947296,0.0918705463409423,-0.020400583744049,-0.0368221178650856,-0.0213214233517646,0.0138502461761236,0.6730054020881653,-0.0032387627255171,0.2037041249901056,231
1733406313113629400,0.3464978542044759,0.0955377647817134,0.1240180093348026,3.629971535846591,-5.050188462871313,7.582168946689367,0.0601378977298736,-0.0527605451643466,-0.3094424605369568,-0.7220354799044023,0.0835373317762244,0.3262491216760281,-0.6043573276819124,2.7246968746185303,-0.0525890886783599,0.2598840296268463,-0.0102663338184356,0.0739595293998718,0.0088680982589721,-0.0382612906396389,-0.0154633186757564,0.0487684148222208,0.6412490606307983,0.0141291361827403,0.241363409037888,232
1733406313153629200,0.9512690434545278,0.3674105861127376,-0.0220873286455869,3.715179629793763,-4.983879715183377,7.584771822664141,0.0241909995675086,-0.0807226449251174,-0.4169973134994507,-0.7263756804421938,0.0801468427829823,0.3268956047970484,-0.5992446579534026,2.0396440029144287,-0.1148867681622505,0.1558124125003814,-0.0131555199623107,-0.0307127833366394,0.0052847862243652,-0.0406677834689617,-0.0256076678633689,0.0232072725862264,0.6042033433914185,0.0030022505559027,0.2597448689028621,233
1733406313193629200,1.17306090606004,0.7140887653201818,0.1519394509613514,3.854463305060565,-4.91007681234777,7.5633753988921635,-0.0455737337470054,-0.1065230518579483,-0.6038331389427185,-0.7320772817572371,0.0757190603016016,0.3296085703301581,-0.5913440040373328,0.8957691192626953,-0.1411652415990829,0.0552641749382019,0.0003238916397094,-0.040663719177246,0.0231297612190246,-0.0468543693423271,-0.0353191122412681,0.1484048470944166,0.5898539423942566,0.079007558806613,0.2615767605051398,234
1733406313233629200,0.868109990991652,0.2594374103888869,0.1896153938829898,4.011572267614305,-4.833260406909883,7.531086409705876,-0.1458912491798401,-0.0491527691483497,-0.7257459163665771,-0.7396787166879162,0.071911265238585,0.3329417511557554,-0.580391215037143,-0.1041434630751609,-0.2081958800554275,0.0816795974969863,0.006725788116455,-0.0802631974220275,0.0074155926704406,-0.0552918091416358,-0.0791631862521171,0.2180517992943525,0.590211808681488,0.1488596051245927,0.3660542030677199,235
