time_imu,phone_acc_x,phone_acc_y,phone_acc_z,phone_gravity_x,phone_gravity_y,phone_gravity_z,phone_gyro_x,phone_gyro_y,phone_gyro_z,phone_ori_w,phone_ori_x,phone_ori_y,phone_ori_z,watch_gyro_x,watch_gyro_y,watch_gyro_z,watch_acc_x,watch_acc_y,watch_acc_z,headphone_gyro_x,headphone_gyro_y,headphone_gyro_z,headphone_acc_x,headphone_acc_y,headphone_acc_z,frame_imu
1724679512203763000,-3.077168726503849,25.130555355000496,-5.155329922300577,-0.0523522281257435,9.719296126195788,-1.304974344819784,-0.9262394309043884,-0.0849893242120742,0.6005315184593201,0.3885755247466599,0.4409548519405986,0.6099950772910596,0.5314828388961059,0.1309867054224014,0.8078404068946838,-0.2036091536283493,20.97211699416637,-18.398446071088312,1.6614917809963226,0.184697538614273,-0.0423639714717865,17.516407215726375,0.2900108695030212,-2.6984797905296087,1.6812172028161585,0
1724679512283256000,2.57233792090863,8.275871342062949,-1.7479145114302634,0.2709263159948401,9.802894446858764,-0.0152658954025071,-1.9661614894866943,0.0827980786561966,-0.2407799661159515,0.403244370790445,0.419772131777147,0.5697101907504207,0.5801857887121116,0.9513385891914368,1.4756959676742554,-0.4001590311527252,9.736888481509684,-7.753328061905503,-2.459285249963403,0.4294760823249817,0.9819621443748474,15.208907687467336,0.4356752634048462,-1.9688015341505407,2.592645672661066,1
1724679512323003600,0.7840856269363313,-5.634023539337515,2.510928343439102,0.0441583500437671,9.791554722198844,0.5421276495387778,-0.9409276843070984,-0.0566755197942256,-0.6237812042236328,0.4209072757468083,0.400769886394719,0.5583392166806573,0.5920117651637157,0.2148965150117874,0.898250937461853,-0.4883372783660888,-2.281612807330489,2.0795032580554484,-2.2100283111967145,0.157431498169899,2.130316972732544,-2.273818500192464,0.6393157243728638,0.6889994053144007,-0.2860389833222143,2
1724679512362750200,0.153090283230599,-14.328975448995829,1.19512156589441,-0.2051640049422159,9.759491358461975,0.9384112423818558,-1.091724514961243,0.0831440240144729,-0.6442831754684448,0.43644932928224,0.3850027188137702,0.5512959733299421,0.5977939728626201,0.5342257618904114,0.5959985256195068,-0.5315722227096558,-10.566611458700894,8.367508007752894,0.3892582607835531,0.2020021975040435,0.32298144698143,-14.012753782850504,0.6168850660324097,4.254614131258428,-2.190356373129785,3
1724679512402496800,-1.4597664087332785,-13.508791869044304,2.750280704915524,-0.3878092675516381,9.727149177783726,1.184290594474226,0.2520174980163574,-0.217500239610672,-0.1639386117458343,0.4477490627037053,0.3750969526364555,0.5467360064698396,0.5999189378566403,-0.205467477440834,-0.1860587000846862,-0.2250290215015411,-10.699010342890023,8.38340817219615,-3.110630266600847,-0.1644999980926513,0.8999903798103333,-4.26276908840239,-0.2893476188182831,-0.2960384175553918,-0.9537993656497448,4
1724679512442244400,-0.7644706797536462,-11.99730243346691,-3.365007178729772,-0.3361136036384851,9.758573659095168,0.909753376239538,0.625677227973938,-0.1683923602104187,0.2651945054531097,0.4431578855534655,0.3849932140707801,0.5526261951336707,0.5916042740266992,-0.2343800961971283,-0.3039934933185577,0.0648403391242027,-9.137033998134733,6.788842978525161,-3.08197875713408,-0.0449257977306842,0.1764928847551345,-9.83908161252737,0.3016815781593323,2.61361042701751,-1.305456721509248,5
1724679512481991200,-0.4134156737014651,-10.05700657057166,-1.782619329586625,-0.2131170463059097,9.77583751310706,0.7469779123567044,0.3835638463497162,-0.271625280380249,0.344315230846405,0.438638523864658,0.3944384807039036,0.5534735851646134,0.5879469238506533,-0.3720956146717071,-0.1406800150871276,0.1814208775758743,-7.21347007433176,6.813550134280324,-2.336228340745717,-0.0406362414360046,-0.0190420877188444,-9.752962248954177,0.0243214443325996,2.4595786799520254,-2.590657129192352,6
1724679512521737500,0.5604695080457255,-9.521524898386,-1.4467390232473611,-0.0626251820706762,9.788627436575291,0.5909616404104977,0.3418602645397186,-0.3663032650947571,0.3059547841548919,0.4350054236781829,0.4060106534055323,0.5522904037830467,0.5838672540695199,-0.3955961465835571,-0.0319878458976745,0.1116663068532943,-7.200760230362415,6.164857677978277,-1.6959074069477618,-0.0267958287149667,-0.0606326609849929,-9.441736491400002,-0.1184349432587623,2.724329978840053,-3.137679893828928,7
1724679512561595100,0.5986888005964458,-9.725736388376356,-1.0157260257959366,0.0163216857824649,9.794719323709607,0.4833150662925094,0.2406996488571167,-0.1750327050685882,0.0680714100599289,0.4334102207355911,0.4134711390558636,0.5517240305399309,0.5803428234350464,-0.2009864449501037,-0.0230628475546836,0.0128447860479354,-7.678139257669448,6.274441503769159,-1.830957682428509,0.0415658541023731,-0.08079244941473,-9.173194860318302,-0.3231815099716186,2.7826351605534554,-3.0901354678437114,8
1724679512601345800,0.7625106317270547,-9.688159229654072,-0.6470031880408526,0.0126118908870499,9.799041863083838,0.3860352436164393,0.229974940419197,-0.1143850535154342,-0.086494579911232,0.4333742374782697,0.4173499773228258,0.5532961921530124,0.5760808815902322,-0.3646608889102936,-0.0825691074132919,-0.1270206421613693,-7.868936554813384,6.377477515351772,-1.9047633617430924,0.0849874913692474,-0.0107984598726034,-9.053532708105443,-0.3120541274547577,2.660950270341337,-2.2278806326210496,9
1724679512641096400,0.4441592600766569,-8.18049315175712,-0.967449193882942,-0.0332543704695883,9.8021158637017,0.2963243583573028,0.1250126510858535,-0.0730773359537124,-0.1867139190435409,0.4336304617436682,0.4188348246624594,0.5562994262930716,0.5719029601984579,-0.3048308491706848,-0.177464872598648,-0.1553878337144851,-7.120057046619057,5.190910354247689,-0.9672679920971392,0.0549983531236648,0.055617518723011,-9.290290961435437,-0.2370708435773849,2.758326940988004,-1.7122041694931684,10
1724679512680848000,3.510875785344839,4.511098537060618,2.302948440825939,-0.2085232522422447,9.800541161730886,0.2762054802404716,0.1845791190862655,-0.3819447755813598,-0.8316739201545715,0.4400760528919754,0.41604767217815,0.5593047241214273,0.5660526522918317,-1.4193298816680908,-1.0248757600784302,-0.1282546073198318,-2.867519429373741,2.6958652241170404,-0.1753969719815999,-0.0834460705518722,-1.5480109453201294,6.713460113021731,-1.1726089715957642,-1.0514568259991706,1.5576155191972851,11
1724679512720598300,-1.107104625071585,14.166832583928109,-2.563727036690712,-0.3351028922259807,9.80092227000296,-0.0048021675550058,0.2428070902824401,-0.1933874040842056,0.04061034694314,0.4424012960781863,0.4235085355949264,0.5664674418660545,0.5513948797207483,0.1686512529850006,-0.6274407505989075,-0.2819430530071258,13.344033853042124,-12.746067959892748,2.557288528075814,0.1972837746143341,-1.6154640913009644,13.255500998586417,-0.7436727285385132,-2.9812910622432827,4.574184523309767,12
1724679512760352000,0.2014349014164879,17.076024916905165,2.7660195413172244,-0.3694779669713228,9.79963690636754,-0.0313924079560325,0.3902083337306976,-0.3556644320487976,-0.2586310803890228,0.4434017915602243,0.4237433993846987,0.5674875318600708,0.5493580658524724,-0.3158549964427948,-0.4187442660331726,0.0124935824424028,11.523921535885334,-7.578126977822184,0.9580880758196116,0.0614642575383186,-0.1843271255493164,17.458405108612777,0.0879324078559875,-3.848514625789225,5.479345603322982,13
1724679512800103400,-1.9141862929962568,12.391187185007333,1.245993748062849,-0.3917290348112583,9.796029237264394,-0.2339946338355541,0.4717319905757904,-0.1336706429719925,0.2500857710838318,0.44396374019768,0.4322497404644764,0.5701671401010174,0.5394124998680728,-0.708824872970581,-0.4496584236621856,0.1573033630847931,12.40057226846814,-9.900248321151732,1.4153075276732443,-0.1134349927306175,0.5920708775520325,14.095926571577786,0.1051033362746238,-2.826318234935403,3.495316981685161,14
1724679512879604500,1.0824177814520894,-3.77428706780076,-1.5581260990679262,-0.0099650798724265,9.79510627720058,-0.475598865891993,-0.0645209103822708,0.2427636086940765,0.4338515698909759,0.417517160665751,0.4376948554316281,0.5767772595012292,0.5490270746456641,0.9878427982330322,0.0817322731018066,0.4472213387489319,-0.465285269409418,0.8329916235983371,1.0591320368021726,-0.039670743048191,0.3609248995780945,-2.019079476752877,0.1399150788784027,0.9900388460274784,-1.0600648606728762,15
1724679512919356200,0.2219700321840122,-7.245441083610057,-0.8568811062950641,0.0984039587346371,9.794219557493925,-0.4837228799084201,0.0820859372615814,0.1157958731055259,0.1378464102745056,0.4130910371008365,0.4397997751149861,0.5755338050887406,0.5519899643832832,0.1396273225545883,-0.0342309735715389,0.2665321826934814,-5.103130948507785,5.808314522838592,-1.823629969888925,0.0711441561579704,0.1170601248741149,-4.891015261264145,0.0786113142967224,1.7240448294125497,-1.857931760202348,16
1724679512959106600,0.8699332608960568,-8.427340837424993,0.0716729416022077,0.1244084973565768,9.790688460758329,-0.5452762497628107,0.2889582514762878,0.0016270242631435,-0.0254327040165662,0.4096850901274811,0.4405106168750607,0.5777125129444382,0.5516853889954466,-0.1918275654315948,-0.3373220860958099,0.1229872032999992,-6.90846713681519,5.89207592510879,-1.6629413952827452,0.0149021372199058,0.3122278153896332,-5.524404057711362,-0.0601790733635425,1.664144633592665,-2.0650364874161777,17
1724679512998857000,0.2323656809268519,-7.712590393325686,0.3316333164192735,0.0787311804174911,9.780580323719978,-0.710216600061953,0.4712862074375152,-0.1053705140948295,-0.1699818670749664,0.4083055706889245,0.4437320175880966,0.5825056788655113,0.5450462821750248,-0.7294608950614929,-0.5994670987129211,0.135206252336502,-6.55288552018404,5.896389696654677,-0.7489642638683318,0.0550746321678161,0.1748317182064056,-6.439105996268987,-0.0664387792348861,1.7546235075496135,-2.086791953758896,18
1724679513078359000,1.2966102749697863,1.158916353112459,-0.4572738123893737,0.0215472167197847,9.721683313593267,-1.287949706391245,0.7620033025741577,-0.183878019452095,-0.153643786907196,0.4008164791188512,0.4587416218697154,0.5960061099459427,0.5231434459504868,-0.5001795291900635,-0.5412845015525818,0.2215610593557357,-1.0268354488313198,1.2003817514449358,0.3952339011270552,-0.0878549143671989,-0.3942767381668091,-3.1753771717995405,-0.304282009601593,0.3709458110341802,-2.002980136475712,19
1724679513118109700,-0.46772236036323,14.354812485563754,-1.964631701119989,-0.1187072626408189,9.68476724912822,-1.5367378586024043,0.4439185857772827,-0.1202693358063697,-0.2573029994964599,0.3999303026789813,0.4610091657847971,0.6048325199429008,0.5115700174166895,-0.8629478812217712,-0.5583946704864502,0.3286048173904419,4.928963299125432,-5.489841278374195,-0.0049089609600603,-0.208271324634552,-0.8823864459991455,7.546854472202062,-0.3204798996448517,-1.9903740451417864,1.3892301064781845,20
1724679513197611800,-0.1502335694920737,25.32016022748947,-2.9173861608266827,0.0203480015644337,9.733644969543814,-1.1942058392889796,-0.7160536646842957,-0.4280933439731598,0.8471843004226685,0.4121479177203656,0.4670288445634734,0.5854670032701165,0.5188897185100374,0.9961217641830444,1.10503089427948,0.4813488125801086,20.993861208462715,-22.25375371801853,-2.063888340294361,-0.1825525909662246,0.0448429025709629,23.20447155733108,0.1087241992354393,-4.176216301847994,3.040806496529281,21
1724679513237362400,1.9496504050873216,6.621492607942223,-5.461430007404089,0.2218905554733239,9.778490657964348,-0.7087272382870317,-1.895159125328064,-0.0400020256638526,0.0945602431893348,0.4201087661231939,0.4646091412360632,0.5659270085391855,0.5360724644251917,1.2241029739379885,1.362286925315857,0.3406042158603668,10.575755719143151,-9.13647811781764,-2.1697499306917187,0.181128054857254,0.7891194224357605,11.481028150576352,0.3329157531261444,-2.0966370559468865,3.7818487352266894,22
1724679513277113900,-1.8622545918375253,-8.927239155054092,0.8726572790324687,0.1415715030761901,9.805613058167696,-0.0177770767891255,-1.4929101467132568,0.2608583867549896,-0.0729208961129188,0.4368385451425901,0.4456153078333165,0.5498485028758824,0.5552169186382863,0.9713194966316224,1.558806300163269,0.0902640745043754,-2.0391811845391987,3.4600463463395834,-3.532062365758419,-0.2702280282974243,1.4839040040969849,-4.0316307207807895,0.6158816814422607,0.5799170627722516,0.6943130746178329,23
1724679513316864500,0.6084317575842142,-14.019928204524517,1.8297598509460689,0.1835999329857528,9.787278944575784,0.588084842865169,-1.4844821691513062,0.0612635090947151,-0.0181747023016214,0.4474821490328309,0.4314743907238386,0.5327718715168476,0.5742331385748194,1.5135267972946167,0.9624234437942504,-0.3910765051841736,-10.850180563044548,10.870080026257035,-0.4263391604214906,-0.0279855616390705,-1.091754913330078,-10.81095446807146,0.645745575428009,3.287162307026982,-1.0557435634076595,24
1724679513356616000,0.4166050443273037,-13.379867382967472,2.548254157748818,0.1841900260997004,9.77345149475336,0.7849233929347247,0.2962706685066223,-0.4228399693965912,-0.0439039170742034,0.4537535148807342,0.4287565676208568,0.5254977161304482,0.578037823461553,-0.2047473639249801,0.1795374006032943,-0.2403944730758667,-10.731292317813637,10.39363974110484,-3.467062362581492,-0.2763794958591461,0.486167162656784,-8.460988840004802,0.3131706416606903,2.1968550874993205,-1.432985661574453,25
1724679513396366300,0.1709932205973193,-11.154501363515854,-0.7682464719653129,0.1867901803944259,9.78441887896955,0.63297378590554,0.4059478640556335,-0.3547369539737701,-0.0091039473190903,0.4553480289217653,0.4369688742928118,0.526104096493718,0.5700271280895125,-0.6718852519989014,-0.252133697271347,-0.1523815840482711,-8.93645589621067,7.973778739035129,-2.0969823622532187,-0.2891225814819336,-0.1278247982263565,-9.283505246818065,0.2219412922859192,2.3877342177078127,-2.6155285355985165,26
1724679513475868400,0.0658327094077132,-9.619470893353224,-2.032265121540428,0.2491542455771938,9.796942260456085,0.3581191722847521,0.0863596424460411,-0.0495221950113773,0.0435260906815528,0.4511458916429123,0.4485715300068387,0.5296457168082338,0.5610048863794147,0.079272374510765,-0.125756949186325,0.0224869605153799,-6.817280552980304,6.220172737964988,-1.842137832612544,-0.0630883425474166,-0.1063563525676727,-9.40261619488895,-0.1424086838960647,2.7267905237346888,-3.1070223052367565,27
1724679513515619000,-0.0777916619445197,-10.28437272617817,-0.8648895676404237,0.2447870998762547,9.797303494983913,0.3511836374005302,0.0315885730087757,0.0799439623951911,-0.0611340627074241,0.4508892244127237,0.4484024576413946,0.5301224888506768,0.5608960936294216,0.1695191711187362,-0.04339549690485,-0.1789544224739074,-6.81838763743937,7.538252063551544,-2.3713895243674514,-0.0300286840647459,-0.1051982343196868,-9.156571642297504,-0.1275161504745483,2.596005504482984,-2.731392464572191,28
1724679513555369700,0.792579972102493,-11.545668088269233,-0.2845733494827523,0.2117876791319809,9.79984441163838,0.2975917662109248,0.2642708718776703,0.1683025658130645,-0.1345752775669098,0.4488647969865838,0.4470820256650045,0.5338021217519907,0.5600832364740885,0.3280579447746277,-0.2248809784650802,-0.5558341145515442,-8.741257149237393,7.7228896690219635,-2.678774973106384,-0.1422102451324463,-0.0253494940698146,-9.30332053887844,-0.0686103329062461,2.118732129507512,-2.4669395641088485,29
1724679513594955300,0.3256058728232979,-8.541564597976206,-0.773992322140932,0.0469917742382502,9.805852712142467,0.1158862321370281,0.6297830939292908,-0.1054321452975273,-0.6589688658714294,0.4492400878866755,0.4465688472125627,0.542833041628091,0.5514452665163393,-0.479882538318634,-0.7319353222846985,-0.5895875692367554,-9.474538690805437,9.063516341981291,-2.912484360259771,-0.16563381254673,-0.3412288129329681,-9.82634020437598,-0.2151533812284469,2.835761478324234,-3.185370450286567,30
1724679513634699500,0.6032386459205299,7.497281170737743,3.368670961934328,-0.235280034003593,9.80322002555132,-0.1091151488332077,1.0155436992645264,-0.0356638021767139,-0.650513231754303,0.4521592711525186,0.4440218242687445,0.5553448875178673,0.538505954471427,-1.4615333080291748,-1.3678988218307495,-0.3589924871921539,-3.670029989990592,2.086793999585509,-0.5475813483674079,-0.4340354800224304,0.2037449032068252,11.032378374147417,-1.346912145614624,-4.174958995263278,2.791990433397889,31
1724679513674444000,-0.3849294377990067,16.200233431500195,-3.067643357789516,-0.3870511426607146,9.786281165710092,-0.4992682760972529,0.2147340178489685,0.447452574968338,-0.2480405271053314,0.4451499809681786,0.4461921953247083,0.5712863756486091,0.5257241304271305,-0.1389009803533554,-0.5579463839530945,-0.5719188451766968,14.656382526022195,-13.610490494543312,1.7485329355895518,0.1803226172924041,-0.5321229696273804,15.549473521274328,0.0230029001832008,-3.13755626744926,5.752057798087597,32
1724679513714189300,-2.0358333354160187,18.485483718550203,-0.3071686641830951,-0.5235681296931579,9.772980370110274,-0.6205845521926879,0.3503454923629761,-0.1076187863945961,-0.2261669039726257,0.4446215180046629,0.4433764553753768,0.5788422285612225,0.5202602917820952,-0.5758452415466309,-0.4004908204078674,-0.1247780546545982,14.441048168992996,-10.62458200163245,1.889899554610252,0.133821964263916,0.5126456618309021,17.511657390850782,0.1359146684408188,-2.954859566913545,3.272468303503096,33
1724679513753931800,-0.9519586331538856,12.297470790433882,-0.6795804195839912,-0.5279573776280507,9.779463886910676,-0.5037540066765621,-0.7009835839271545,0.4703166484832763,0.0874687805771827,0.4455604571892861,0.4385816496951785,0.5773477655118046,0.5251587680101871,0.4769286513328552,0.1391105502843856,-0.0818339213728904,13.070440199267864,-12.297176191401482,1.6354793878614902,0.1570386886596679,0.4972720146179199,11.155659885901212,-0.2241111844778061,-1.757112401755899,3.2124653779610988,34
1724679513793676000,-0.266453791956976,1.6743997778862714,-0.2877040121912956,-0.4558467021957039,9.793077986243366,-0.241265337224584,-0.7956686019897461,0.3500844836235046,0.1631490141153335,0.4448289814496828,0.4297618866899718,0.5723686131150023,0.5383549385801235,1.1640838384628296,0.5271137952804565,-0.1353916227817535,6.046482642966509,-4.899693365499377,0.8792278895944357,0.0822137743234634,0.11891970038414,3.0228324484214184,0.3507691323757171,-0.1158100798945873,1.5100268156789245,35
1724679513833421600,-0.389008377675712,-4.631151734417677,2.1384704108089205,-0.3937460371894761,9.798737327179312,0.0110734258484619,-0.3355970382690429,0.0169846508651971,0.1507533341646194,0.4464775036714264,0.4236024938926637,0.5656821895528874,0.5488374478179654,0.5905646681785583,0.4058163166046142,-0.0161646269261837,-1.1106319224148988,2.607346398186684,0.1385503925561904,0.1230234131217002,0.207260400056839,-1.3428225755684078,0.425694465637207,1.172834257697314,-0.1038059091097209,36
1724679513873165800,-0.4694636145399883,-8.146930489373206,1.7678233269929884,-0.323167064836435,9.801323836541176,-0.0003042682959638,0.3729808628559112,-0.0302259307354688,0.239701047539711,0.4446852645247017,0.4263401341216207,0.5641361567942829,0.5497631653652444,-0.1007274910807609,-0.0437993369996547,0.1448580920696258,-5.424582916522025,5.86410070746839,-1.225529052183032,0.0673811212182045,0.2780932188034057,-3.573120644594729,0.3213688135147095,1.3798447307564317,-1.070833434381336,37
1724679513912910300,0.65679919039011,-8.789786494606734,0.6034230260441079,-0.2191088888655416,9.8008860296458,-0.2549175766105763,0.8953419923782349,-0.0166837982833385,0.246721476316452,0.4363477057275469,0.4352368107377132,0.5688287067268464,0.5446130728791513,-0.416369616985321,-0.511604905128479,0.2864656150341034,-7.350740363949537,5.351752658110857,-1.5266817440122364,0.0254846792668104,0.4990693926811218,-5.346961332181095,0.089043453335762,1.5846866276048124,-1.8124084647811949,38
1724679513952655600,0.9950148078091442,-8.187067269450425,-1.175336742037535,-0.1381901170095894,9.785047240000962,-0.6357269570712,0.941644251346588,-0.0742783397436142,0.1666419953107834,0.4260022748878051,0.4464692655347786,0.577129317374239,0.5348916160250125,-0.7210895419120789,-0.7295731902122498,0.3498316705226898,-6.962840532037616,5.453977937832474,-1.3130255493283272,0.0313785783946514,0.3133420348167419,-6.951586732095479,-0.0471487008035182,2.007461373542994,-2.434388124594092,39
1724679513992400000,0.5316661690181121,-4.487701294860243,-1.1327648437678812,-0.0845490089839324,9.760780813750625,-0.9436062537416816,0.6996276378631592,-0.0258313864469528,0.0958500802516937,0.4182423376522909,0.4555856893571552,0.5835685137219172,0.5262725871527698,-0.6062348484992981,-0.7439581751823425,0.3846221566200256,-5.311993479174375,3.781980544912815,-0.5988742036333308,0.0979865118861198,0.0009464115137234,-6.213512111032009,-0.2621616721153259,1.6234084263175723,-2.914583378365636,40
1724679514071889700,-0.4038560373913497,16.39339921134114,-2.184177099972964,-0.3688726580219343,9.689332949608565,-1.4666811565577984,0.5713987946510315,-0.4654469192028045,-0.632892370223999,0.4141456674469273,0.4588743092348993,0.6035016935933606,0.5036898669624738,-1.5023249387741089,-0.978730320930481,0.1511884033679962,6.259606922730804,-5.926964867660403,-0.1394761290989816,0.4699950814247131,-0.5060391426086426,7.8518977417290206,-0.1031076237559318,-1.3172678630732,1.194266264239326,41
1724679514111634000,-1.0969735455490648,27.29466581850052,-1.5513690260231494,-0.5011559164747595,9.670761520129442,-1.5477753854453562,0.1036147996783256,-0.3598240315914154,0.0375359915196895,0.4184594306911344,0.4599013182759183,0.6061397175925514,0.4959608336542243,-0.1510867923498153,0.0931151583790779,0.1629734933376312,18.986849186122416,-19.215032503330708,0.979284593105316,0.0312963984906673,-0.0446078144013881,22.47632796317339,0.2938827872276306,-5.271987047478556,5.87379967918396,42
1724679514151379500,-1.2288025208957492,23.9836111792326,-5.782556981247663,-0.3205450457697734,9.687841249746084,-1.4877353427633642,-0.6986665725708008,0.3095613718032837,0.706364095211029,0.4166998864545315,0.4659847677579875,0.598925360148031,0.5005075200677941,0.9400052428245544,0.900047242641449,0.3147376477718353,21.09910320565701,-22.072841855072973,-2.006935742233693,0.3453279137611389,0.3564010858535766,20.798144575095176,0.3619503676891327,-3.5669989468440413,5.915885255241394,43
1724679514191123700,1.1998955753631888,12.871087839746474,-5.733058498585224,-0.1347751026680227,9.737209384027125,-1.1571543118759988,-1.5227161645889282,0.2609978318214416,0.4009047746658325,0.4171852732813595,0.4615972420872449,0.588155114129604,0.5166799376268708,1.4983960390090942,1.5114318132400513,0.0977492183446884,11.892588844060898,-9.794624046641587,-2.101224091476202,-0.0077031208202242,1.636545181274414,10.602470707589386,0.1959305852651596,-3.0064611593350765,3.139089468365908,44
1724679514230868200,-0.3968803166272118,-7.016158865249157,-5.362989506918192,-0.0488900638739345,9.799269826620815,-0.3772578071925789,-2.720435619354248,0.1623421609401703,0.1787327080965042,0.4308786742393735,0.4449636402120809,0.5667822805821771,0.5432392138347449,2.242031574249268,2.226003408432007,-0.1326148062944412,-0.1111912609875202,1.2227864754766224,-0.5275391522159799,-0.1402983963489532,1.206390142440796,-9.88333693383932,0.3810528218746185,2.258810462283343,-1.0679394665054975,45
1724679514270613500,1.3814895753540095,-16.81223135713339,2.6731232309550044,-0.0166451101921964,9.776121006223558,0.7730308566976338,-2.496323823928833,-0.1985055208206176,-0.2053328156471252,0.4554321961918416,0.4199341158408045,0.533143258681191,0.5761902442324115,1.1394938230514526,1.2882462739944458,-0.7152513265609741,-14.196743738067148,15.0052053160429,-4.7050516678869725,0.3209143579006195,-1.2879282236099243,-9.112656512725351,0.902880609035492,2.557581373542547,-0.6483350942317396,46
1724679514310357800,0.08222251139828,-16.70437303996086,4.23302276943624,-0.123522553968057,9.731260704755783,1.207351736588031,0.027366392314434,-0.2911271452903747,-0.3677210509777069,0.471203047803486,0.4097896804257399,0.5201101894936436,0.5826881947825784,-0.2878292202949524,0.1618449538946151,-0.3997692763805389,-13.410496329987048,11.277105998921394,-4.02121249487996,-0.0905968472361564,0.4961290657520294,-8.451279931417107,0.3976764976978302,2.435159547358006,-2.8526088604897257,47
1724679514350103000,-0.227401427849289,-13.403879542195796,1.4296324056237937,-0.1933793312600813,9.752422735249995,1.0115557543739675,0.9088895320892334,-0.4310782253742218,-0.0123645747080445,0.4736896693101697,0.4167980609971934,0.5241224932455757,0.5720079606449112,-0.8393027186393738,-0.3755196332931518,0.1160300225019455,-10.41924764509201,7.461449978899955,-1.8835240282289685,-0.1226232126355171,0.1850189417600631,-9.084501262342927,-0.0288089420646429,2.470773150922358,-3.339829775114357,48
1724679514389847600,1.0530645534567535,-10.23780152913928,-2.230651850900054,-0.1164827001928351,9.784251121187207,0.6521251341644674,0.7256925106048584,-0.1471801549196243,0.2188761979341507,0.4666247981247631,0.430274535856972,0.5306738120446888,0.561703227705841,-0.2372384667396545,-0.4360765218734741,0.2532621026039123,-8.053925457939505,5.14198937921226,-1.202188508605957,-0.0877765566110611,0.033780425786972,-9.382873383542895,0.0700438469648361,3.204068721015751,-3.541479890184104,49
1724679514429591800,0.4692447110923007,-8.57099001442492,-2.0869348693609235,-0.0909608670539222,9.79667162682116,0.4328406878026202,0.4292983412742615,-0.1425185650587082,-0.1307624876499176,0.463026023521139,0.4380743796498297,0.53481034465491,0.5546852433191625,-0.421755850315094,-0.4085578620433807,0.1307244747877121,-6.645954264503717,7.332638305547833,-1.9988747469834984,-0.1449712365865707,-0.106245718896389,-8.936125641342997,-0.0810366943478584,3.041291065175831,-3.913002587790787,50
1724679514469337300,-0.467659962651506,-8.990923983979224,-2.537366853031516,-0.1602196601864881,9.800014507508278,0.3231789744699374,0.0866262689232826,0.1165415272116661,-0.1614363938570022,0.4626424416050217,0.4388810575642899,0.5393569096499637,0.5499450578620402,-0.1421513557434082,-0.2311471402645111,-0.1531634926795959,-5.731058849200606,5.929101879689097,-2.344639464607835,-0.2291076481342315,-0.0600097514688968,-8.57123025292158,-0.3304936587810516,3.0255142348513004,-3.886731835980713,51
1724679514509081600,0.0895906381466425,-9.728555537450314,-0.925225670659542,-0.2107972798551432,9.799034264299271,0.323831775822863,0.0603332184255123,0.227626159787178,-0.156497523188591,0.4620120700743407,0.4354410382915726,0.542107255112679,0.5505048995840524,0.147378459572792,-0.0833651795983314,-0.278844267129898,-6.74697601365447,6.626483840358257,-2.45535550929904,-0.1913717091083526,-0.0351709797978401,-8.780096875241398,-0.3885304927825928,2.8976185073003173,-3.499256366960704,52
1724679514548825900,0.5938388763472437,-8.755190982043743,-0.7518845352292061,-0.3321227073714137,9.798615162104367,0.2173789598003961,0.3661179840564728,0.3744228184223175,-0.3900333940982818,0.459558555391486,0.4310800032334467,0.5505331852540736,0.5476215265547514,-0.3590101897716522,-0.1242927387356758,-0.0389177426695823,-7.587873880332708,6.767311530196666,-2.305190666794777,-0.2049718797206878,-0.1031333580613136,-9.539046526551246,-0.5874301791191101,3.3998601731851696,-3.555357608889043,53
1724679514588571600,2.036228179952502,4.348499744918942,3.812665021511912,-0.5310235237330198,9.79150503783822,0.1217568777360953,0.5500085353851318,-0.0175641626119613,-0.619647204875946,0.4604886902234711,0.4251306097467994,0.5595141565576515,0.54236338246277,-0.8284056186676025,-1.2352988719940186,0.1563863009214401,-3.5198441046983,2.0468699854761363,0.5191518841534852,-1.2938191890716553,1.0227506160736084,16.887645202296973,-2.001991033554077,-6.190597683912515,5.988765782535076,54
1724679514628316000,-1.3824869158282875,13.28126555444002,-2.536550275951624,-0.5581634230604395,9.780133164474368,-0.4559019760468974,1.0647071599960327,0.3648825287818908,0.2973381280899048,0.4472936915921989,0.4364349461383808,0.5768613947726041,0.5260074852372062,-0.2442769259214401,-0.8391014933586121,-0.1071350798010826,11.374550474107265,-11.569793644744156,0.7739081509888172,0.0005720554618164,-0.3057782649993896,16.287621792095898,-1.23927640914917,-3.729884739233553,5.557730573251843,55
1724679514668028000,-0.5585947636824101,16.946422385436296,1.8819278450787067,-0.4854267246842384,9.7682293761909,-0.7186447481241077,0.9677111506462096,-0.2536210119724273,0.0811532214283943,0.4370245282441097,0.4418589218543117,0.5842956253610903,0.5218897576636299,-0.6395904421806335,-1.018865704536438,0.1645226627588272,10.862508129698035,-8.718142815631628,1.7108195832669737,0.1539067476987838,0.1556652933359146,20.35091986303329,-0.5855738520622253,-5.080416427874565,4.711339662115275,56
1724679514707771100,-0.0064341977659612,13.659353017389774,-3.240376590454578,-0.3908538228793069,9.72436685358882,-1.2059549484673886,1.0526031255722046,0.2019653022289276,0.2390137612819671,0.4247883773648226,0.4572004596829015,0.5936786419471963,0.5080042757576808,-0.3031935393810272,-0.3066384494304657,0.3220740258693695,11.736325100159643,-11.922120058971643,-1.1763853743076325,-0.163571685552597,0.5435746312141418,10.914490830391644,-0.7665103673934937,-2.148164998610317,2.253231054715812,57
1724679514747513300,0.6495376749545335,6.200685947206616,-4.739088377523422,-0.349813554623723,9.710428929129243,-1.324975660971552,-0.4527149498462677,0.1061286777257919,0.017751932144165,0.4191361916193775,0.458958217326514,0.5974213895004472,0.5067245532640603,0.5993515253067017,0.2316791117191314,0.1011341661214828,7.122956275191902,-6.060846683883667,1.4382313071429729,-0.5094592571258545,0.5104237794876099,4.741063476988673,-0.373153418302536,-1.2650737115859985,1.964574125713855,58
1724679514787257300,0.6118818980380892,0.2299573411434888,0.0845242033362388,-0.342982977951318,9.74234148621857,-1.0674934032384304,-0.5989651679992676,-0.0494691133499145,-0.0328348763287067,0.4243574259170102,0.4528478999697252,0.5910632756409694,0.5152609191597368,0.7501117587089539,0.3838450014591217,-0.009128289297223,1.2110071903556583,-1.4170347898572682,-0.4820458500742912,-0.541531503200531,0.4644229710102081,-1.1619857506204396,0.1777997314929962,0.4002775213174521,0.1462685109191574,59
1724679514827000300,-0.1078877989953383,-3.1753000149101016,1.954129304067045,-0.3708024570407345,9.755162973868844,-0.9325524333510548,-0.1133234873414039,-0.1475835293531417,-0.0111002828925848,0.4300919628342201,0.451183620719523,0.5864983227503636,0.5171786819888109,0.3147831559181213,0.3906567692756653,-0.0720041915774345,-2.38112765904963,2.836684730648994,-0.7967723092257976,-0.3307139575481415,0.0615736693143844,-3.0242882001876827,0.2641920745372772,0.8937525279007852,-1.1517785371217877,60
1724679514866743600,0.9994554206050932,-4.164435555422306,2.4408709107421336,-0.3434440926570445,9.752952312082051,-0.9655932638179512,0.215572640299797,0.5620932579040527,0.0327166765928268,0.4266855641851432,0.4505583446350084,0.5884120437469641,0.5183704884278786,0.6333310604095459,0.0608553811907768,0.0074318451806902,-3.835558405843377,2.006192522650957,0.0046282534556929,-0.1897071450948715,0.0132221672683954,-2.422498803227395,0.2059590518474578,0.7403183814022689,-0.8363727904692292,61
1724679514906487800,-0.1273334905583411,-3.75311919208765,-0.3366401117306202,-0.3516563694788143,9.747152101370691,-1.0196744711607697,-0.0877130031585693,1.0468658208847046,-0.0703932046890258,0.4154236237603317,0.4398148136013205,0.5987919995307663,0.5248182866914511,0.9937214851379396,-0.2554177343845367,0.0384073369204998,-3.0983985615372656,1.835591041317582,0.3387415409892797,-0.1161683425307273,0.1269482672214508,-2.010267809265852,0.1055892705917358,0.6813816968522965,-0.6695938630986958,62
1724679514985975000,1.0628555143047125,0.4920809218764305,-0.1101694436591118,-0.2576555684734136,9.776499191886186,-0.7239103405021131,-0.2520219981670379,0.5527011752128601,-0.2760577499866485,0.4010214339931699,0.4160560847204779,0.6031637324844124,0.5497932026065252,0.4762130379676819,-0.4016213417053222,-0.0548784025013446,-0.40996553324759,1.5880594650387765,-1.1847387766331434,-0.2716766893863678,0.2042831480503082,-0.5697183248410002,-0.0047547118738293,0.1789804016926325,0.1202778820915613,63
1724679515025718300,-0.7025221731018274,0.1307458562850952,0.3120576052684337,-0.3795073396850377,9.770026196479796,-0.7569296897895633,0.3431146442890167,0.1213928014039993,-0.2986194491386413,0.4004538432828357,0.4093185822192667,0.6091395342151095,0.5486747674631033,-0.3112679719924927,-0.1309701949357986,-0.1313991397619247,0.8946282878220081,0.6019114159047603,-0.6199959386497735,-0.3234547674655914,0.133491039276123,-0.333527824928984,0.0052917599678039,0.2782391597588546,-0.0006045195023441,64
1724679515065461500,-1.5332788041897116,-0.2871867103189229,-0.5638029267847537,-0.4262258727727457,9.754458624991774,-0.9161128282688558,0.3889752626419067,-0.0918016731739044,0.1079403162002563,0.3981083852462009,0.4107636546974287,0.6148023866388127,0.5429558099700798,-0.2639750242233276,0.0562845431268215,-0.0978210717439651,1.0573124201595785,-0.1330284142643213,0.2807130938580259,-0.3141668140888214,0.0080547332763671,-0.2914427968608215,-0.0314427278935909,0.2587882074988447,-0.1604435320702381,65
1724679515105205500,0.1279861092481762,0.1879547671943902,0.4606967725753784,-0.3398731388350948,9.743642631945011,-1.0565540760729462,0.3297776579856872,0.0182899590581655,0.2217838317155838,0.3944097323028248,0.4182559293803882,0.6155739126755215,0.5390470747258366,-0.2260579764842987,0.2036733627319336,-0.0280295424163341,0.5731096843123435,-0.0831488233298063,0.1109422363962046,-0.314024955034256,0.0631801933050155,0.0006513446147786,-0.0667822808027267,-0.0055089915169548,-0.0123554524575476,66
1724679515144948700,0.3387259780939668,-0.5964280160576104,-0.656693830319494,-0.2449031274713575,9.7337478453964,-1.1681371128570288,0.2152135223150253,-0.3045869469642639,0.3844034373760223,0.3908649454346762,0.4252154100732068,0.6154269036712338,0.5363451399925783,-0.5372083783149719,0.2285013198852539,-0.092502012848854,0.0151022920638322,0.2424965047210454,0.5202742027143016,-0.2730042040348053,0.0686237215995788,-0.1607042105667293,-0.0266066584736108,0.1938503280390054,0.0758253531405003,67
1724679515184692700,1.0563701708734037,0.0747825615227222,0.8224400536414236,-0.1889207626823335,9.74263959238231,-1.1025615017492325,-0.3932769000530243,0.767910361289978,-0.1478916257619857,0.387252878062495,0.4216939289891618,0.6151334995680615,0.542051768067712,0.5377267599105835,-0.022673811763525,0.0690270960330963,-0.445641242262721,-0.5994236907422542,0.4260444883238524,-0.2150929719209671,0.0410941876471042,-0.2345325583708472,0.0114252818748354,0.0779834033906459,0.0716341439617797,68
1724679515224435700,0.0028428770094178,-0.271701556417346,1.1509949124634264,-0.2020106737441383,9.746904264089464,-1.0618103891659527,0.2034891992807388,0.1893761307001114,-0.0222358759492635,0.3831996481478403,0.4144781574926731,0.6183406198537683,0.5468279229681777,-0.2615635097026825,-0.0130765791982412,0.0929827019572258,-0.1654711327075958,1.1342553745865822,0.3121101391732692,-0.1533375829458236,-0.0038315714336931,-0.1847834436818957,0.0074403439648449,0.1081771190644241,0.0236788630201946,69
1724679515264179000,0.0158510463382117,-0.3589326806247234,0.2891349948424845,-0.2043944636081345,9.735224347689748,-1.1636174434754998,0.2794962525367737,0.5245792269706726,-0.0302892159670591,0.3771944022449304,0.4119411359162714,0.6242054779572203,0.5462566742804221,-0.1973022371530532,0.0294618271291255,0.1303981840610504,-0.3479781558901071,0.1100216326862573,0.0600017382319085,-0.1331106722354889,0.0107628013938665,-0.161187244843319,-0.0398766621947288,-0.0436619996278779,0.1074702129040844,70
1724679515303923200,0.4547512351091951,0.0001496376037597,-0.055543608045578,-0.1524832755144685,9.715670336914062,-1.323966045537591,0.4836477637290954,-0.2280806601047516,0.2954217195510864,0.3692312615413534,0.413117602387669,0.6299502595273678,0.5442102789276805,-0.5337100625038147,-0.0456410758197307,0.1131001487374305,-0.2162070482105016,0.0324514862716198,0.5140244581371546,-0.1840501427650451,0.0339650101959705,0.0017583542961423,-0.0436119511723518,-0.0715372868580278,0.2398349938942119,71
1724679515343666400,1.1636399475682526,-0.7304752519756555,-0.9413060139752925,-0.058715963604534,9.692871060606835,-1.4883600505329668,0.2922990322113037,-0.4505341947078705,0.1309017986059188,0.3688080117606787,0.4259639732827512,0.628044535361364,0.5367453344671387,-0.6258612871170044,-0.1290013194084167,-0.0600948669016361,-0.3585322831302881,-0.4114104713588953,0.9293389511972664,-0.2128290086984634,-0.0010869451798498,0.0156522917710535,-0.0159350093454122,-0.1349833933901507,0.2391642732921056,72
1724679515383410400,0.5161141969580203,-0.1630190633803606,-0.3042471507132053,-0.0464018820537021,9.68191595135033,-1.558441740888357,0.0976391583681106,0.3311233818531036,-0.0773528665304184,0.3676642917030075,0.4285666420705662,0.6291176741487801,0.5341952544093158,-0.5336381793022156,-0.0702052190899849,-0.106405109167099,0.389685546284914,0.1395212834149599,0.096404026222229,-0.2103427201509475,0.0272036474198102,-0.0534371327190427,0.0329544283449649,-0.1330326155154034,0.2643444716528058,73
1724679515423153700,-0.7235967445082963,0.7221879006236791,-0.0665206368729472,-0.0636465792739763,9.680617143711448,-1.5658753980204465,-0.028128083795309,0.1135235130786895,-0.0144382053986191,0.3644850064366067,0.4240287131494968,0.6324848450782584,0.5360159899287864,-0.462658017873764,-0.0201117452234029,0.028569022193551,0.1524684432715177,0.5087807122647762,-0.1731704185059294,-0.1789055913686752,-0.0207075774669647,-0.1714567099232226,0.0388712137937545,-0.0712706672445172,0.0450082859705667,74
1724679515462897000,0.651365986360237,0.636629093542695,-0.3651894029319286,-0.0715202809242997,9.675945060247182,-1.59416523456797,0.005715059582144,0.1071859002113342,-0.1137209683656692,0.3636427499217055,0.4237823701932809,0.6337888514861351,0.5352421839534293,0.2022012174129486,-0.0180555190891027,0.0940191373229026,0.7554752531975507,-0.924759222191572,0.6584662468194962,-0.1471773535013198,-0.0663079842925071,-0.1441008206244092,-0.0418475270271301,0.0099884287819731,-0.1011268534930422,75
1724679515502641000,0.3095587376574054,-0.0233902279376983,-0.4441865134097635,-0.1563299044726416,9.68190016925931,-1.5513808625914156,-0.1959016919136047,0.6151658296585083,-0.3687437176704407,0.3626873619486881,0.4151783055180223,0.6377502544270781,0.5379215322397787,-0.2823910415172577,0.0182454977184534,0.0502803102135658,-0.1707499498933553,0.5692606076687574,0.2840647789061069,-0.1259291917085647,-0.1199235245585441,-0.1084014567390549,-0.1601540297269821,0.0948796114002354,-0.1445188268407713,76
1724679515582128400,-0.2363632626630365,-0.6169377201229334,0.7723742194198071,-0.2128490064868703,9.685875502631069,-1.5195150672532618,-0.0061618080362677,0.6737353801727295,0.0441311933100223,0.3491922560089758,0.3940486826241695,0.6497686823895967,0.5482619853102433,0.3254064917564392,0.2018411606550216,-0.1346273571252823,0.720931178560853,-0.4531172772318124,-0.5187596699655056,-0.1132370233535766,-0.1661574989557266,-0.0044833856418845,-0.3028179705142975,-0.0193133247544523,-0.0435864090744406,77
1724679515621871400,0.4228431349992751,-0.0082844287425279,0.0334592020094394,-0.1695067448992282,9.684301385182142,-1.5349227720044551,-0.0310479383915662,0.4597669839859009,-0.0832636654376983,0.3419546367436744,0.3890369031090019,0.6533831701975291,0.5520940654797141,0.0479432083666324,0.0746926367282867,0.0544395670294761,-0.4653782083898782,1.1284820518821477,0.6130699387788773,-0.0888409242033958,-0.2088093161582946,-0.1846077035224996,-0.3265058696269989,0.1400565958680585,-0.1167180981175974,78
1724679515661614300,-0.4755848373666405,-0.3977472721874713,0.1370762283504009,-0.1736928532111458,9.689793552857637,-1.4993771191097796,-0.1118727922439575,0.5706347227096558,0.018476016819477,0.3367498079691047,0.3811483988004435,0.6566375400817656,0.556913514258385,-0.1655389815568924,0.0398283377289772,0.0689189061522483,-0.2333826394170522,-0.1670481727659702,-0.1277823120380751,-0.0364940166473388,-0.2853251993656158,-0.1041019511805381,-0.3422408401966095,0.1459478549968917,-0.1002547194341663,79
1724679515741098800,-0.6315742943711579,0.0851502262800932,-0.6714061001524328,0.3376861867174506,9.691720137006044,-1.458385475768894,0.0022293243091553,3.4941306114196777,0.8339716196060181,0.282948129550487,0.3522610131727183,0.6710209718632777,0.5878633303158237,-0.0433297120034694,-0.1738508194684982,0.0286427233368158,-0.3779349027365445,-0.1482674844503402,0.85993574462533,0.0235304124653339,-0.2696542739868164,0.1140435086134821,-0.3363373577594757,-0.0085676821137196,-0.10893674179269,80
1724679515780841700,-0.0736320763133466,-0.0514221442013978,0.7746409953080117,0.8589302939098328,9.669230657300352,-1.392345608150214,0.0524037331342697,2.345846652984619,0.9428441524505616,0.2326537894362514,0.3298532020415858,0.6798431692902184,0.6122764495849349,0.1828320473432541,-0.2327143996953964,-0.0669554397463798,0.0151198277205228,-1.307344581082463,0.2743114466547965,0.0510997511446476,-0.2179631441831588,0.0128748378307966,-0.2860349714756012,0.0055727026904642,0.0130401068285282,81
1724679515820584700,1.2048594813808795,0.1348982997894287,-0.250678203741461,1.267901920749247,9.632098904258012,-1.3362288763917982,-0.0320438183844089,1.896287202835083,0.5177182555198669,0.1940635948968053,0.3146604464825189,0.6849215384204876,0.6278620195821597,0.1198834478855133,0.0789818689227104,-0.0416991487145423,0.6340653805345297,0.1316729080021381,-1.145755258244276,0.0555956587195396,-0.1494739651679992,0.084130217316281,-0.215019479393959,-0.0851635241530835,-0.0466692597190383,82
1724679515860327700,0.2632718739852309,0.0030482816547155,0.0136310504674911,1.4933239565506575,9.618350364890691,-1.1948705868080258,-0.153889313340187,1.2602654695510864,0.3273349702358246,0.1685944018304467,0.299422040151758,0.6864895381683606,0.6408233095394444,0.2130568027496338,0.1563658714294433,0.0237392466515302,-0.0329009836047887,0.6129729081451892,-0.0966378167117945,0.0761411264538765,-0.0905564501881599,-0.0039398904531524,-0.2191030532121658,-0.050943671935494,-0.185338757743407,83
1724679515900072000,0.1144566925242543,-0.1794505582213401,-0.1426080704491585,1.672216296367347,9.604823359319568,-1.0589815954808146,-0.2204575538635254,1.1440589427947998,0.3372993469238281,0.1497873900488009,0.2888767936967179,0.685961539307169,0.6508230950217164,-0.0177378002554178,0.1134419962763786,0.0431516952812671,-0.1868365768194198,0.1538748029381036,0.3530278404951095,0.0846768021583557,-0.095832847058773,-0.0405305697343545,-0.2130506783723831,-0.0175638484553317,-0.1353434406078886,84
1724679515939815000,-0.0152053140468895,-0.1591945366561412,0.0108264413755387,1.865923343478143,9.58935749464035,-0.8561287535578012,-0.3462613224983215,1.4619604349136353,0.4251597821712494,0.1289851547848074,0.2764300857337444,0.6835472384262721,0.6631082178622181,0.2530039548873901,0.1268010586500167,-0.0014025922864675,0.1211830781698226,-0.4798205752402544,-0.3803331960499286,0.0794602781534195,-0.1060177460312843,-0.053581157999346,-0.170453131198883,-0.0550160313743632,-0.0079865840153361,85
1724679515979559000,-0.2064589766561985,-0.1133843871176242,-0.018399506978318,2.0850093081258234,9.56449427154064,-0.5861357911566272,-0.423817366361618,1.464515209197998,0.4556422233581543,0.1046328804072691,0.261764420308348,0.679237806397787,0.6776188163440149,0.3209465146064758,0.0723191201686859,0.0009272742317989,-0.2929758151143789,0.0025409166544675,0.5020768307119607,0.0658686384558677,-0.0864007920026779,-0.0258774484934168,-0.1379646211862564,-0.0603975965485442,-0.0189727265892783,86
1724679516019302000,0.3659691551327705,-0.0749573335677385,0.2786509371638297,2.291445050036907,9.530108602336048,-0.3109722211845219,-0.3639254868030548,1.375777244567871,0.4485770463943481,0.0822224634386931,0.2492520384023764,0.6735937887731636,0.6909300518977446,-0.0166456382721662,0.0640037730336189,-0.0491428822278976,-0.0488899953752756,0.2116904475688934,-0.1937637457340955,0.0540356636047363,-0.1003352552652359,-0.0534253326833946,-0.1182976588606834,-0.046267387220147,-0.0118791710070858,87
1724679516059045000,0.2074827667459845,-0.1316939507901668,-0.1220470015227794,2.452475569948554,9.49496889989376,-0.0365685068361228,-0.358009934425354,1.4836506843566897,0.3649528622627258,0.0589981735082408,0.2338827015494167,0.6687027418128576,0.7033170469594651,-0.1229353249073028,0.0080451108515262,-0.0422419011592865,-0.2438128480166196,0.0508960745006799,0.5255857165932655,0.0370988138020038,-0.0638074874877929,0.0110529344746377,-0.1445037126541137,-0.1167836924334056,-0.073538315348979,88
1724679516098788900,0.0922632731556892,-0.1678250023573637,-0.1207178170119412,2.5883444683358072,9.455381570392849,0.2580849911329336,-0.346869021654129,1.75077223777771,0.3896441161632538,0.0342378951738787,0.2161782245512664,0.6634065896068033,0.7155322435989891,-0.2292239516973495,0.0256735328584909,-0.050941914319992,-0.1467939047664404,0.1860199997395276,0.140754615469044,0.0352342575788497,-0.0529527813196182,-0.0659604731063824,-0.1588829606771469,-0.0748463657402433,-0.0294895540263736,89
1724679516178276000,-0.932275589171052,-0.0452864179253578,-0.0519306782454252,2.885644868651032,9.32117183738947,0.9793849116746336,-0.2848341166973114,2.195962905883789,0.7801499962806702,-0.0348624270369395,0.1680506187710053,0.6494799875079044,0.7407559435310557,-0.2099977880716323,-0.0167700108140707,-0.0961673185229301,-0.0249292740732431,0.0443716411679983,0.01939852566974,0.0071962396614253,-0.0723854079842567,-0.0864956221402157,-0.1627538353204727,-0.005562528927144,0.1018431759356986,90
1724679516218019300,-0.5179229268804192,-0.1466694016039371,-0.1251256783157587,3.101865068604052,9.21021964585483,1.3117518761307,-0.3069494664669037,1.7157597541809082,0.8203591704368591,-0.071065600563609,0.1502449556492539,0.6407384170488317,0.7495535390124952,-0.1881263107061386,0.0788244754076004,-0.0929967612028122,0.1262543900847434,0.1877443393141031,-0.4803910686045884,-0.0426258780062198,-0.0675129294395446,-0.0732331127241719,-0.2067347764968872,-0.0403688124345382,-0.0229764663549023,91
1724679516257762300,-0.6937330827727913,0.3531476674824952,-0.0963968658290803,3.3260081705108284,9.077015290501713,1.647989471475035,-0.5240944027900696,1.1376614570617676,0.8936412334442139,-0.1005620119294974,0.1402819316519764,0.6295211702161531,0.7575694693287889,-0.261111855506897,0.1403087675571441,-0.1091170012950897,0.1565039823979139,-0.0761725545763969,0.2332867778271436,-0.0530863739550113,-0.1298950463533401,-0.1584902791106142,-0.2514086365699768,0.0876921749810222,-0.0919932697084266,92
1724679516297506000,-0.1424517839089036,-0.0505786791145801,-0.0236526782661676,3.5663097955361005,8.917504527503251,1.9824092037424443,-0.4762177467346191,1.1286377906799316,0.8772508502006531,-0.1263360845103649,0.1358348732068611,0.6168258621720711,0.7649274869987661,-0.1193325966596603,0.135882169008255,-0.0999384820461273,0.1226677637696266,0.1859159548431634,0.0706254418432712,-0.0503847450017929,-0.151279017329216,-0.0394398062224267,-0.3015934824943542,0.0436766355080064,-0.162591558683291,93
1724679516337249300,-0.5018783855304122,-0.0121253220796585,-0.2250941190212965,3.7925589298114177,8.743180226254463,2.311640865847468,-0.5019282102584839,1.0552183389663696,0.9782100915908812,-0.1523658070582852,0.13140502280113,0.6040462235339829,0.7711326367172834,-0.023940835148096,0.0982917100191116,-0.129618227481842,-0.0989455273985862,-0.4212754472911357,0.0714566319704055,-0.0407586544752121,-0.1496686041355133,-0.0220815838913898,-0.3074624538421631,0.0685626686611445,-0.1059650416386779,94
1724679516376993300,-0.1485895560115575,-0.3032096243590116,0.13035451887995,4.022108274675905,8.539562025982141,2.6587404853373764,-0.4583594799041748,1.2589010000228882,1.030508279800415,-0.1801835817648781,0.1271392051212483,0.5901504720537939,0.7765898708232181,0.0974002406001091,0.0802629515528678,-0.1789895594120025,-0.1174760403454303,-0.1675777495980262,-0.0728705949881346,-0.0084658954292535,-0.162680298089981,-0.0006594714098406,-0.2710667550563812,0.0691433820253936,-0.1273638217645231,95
1724679516416736300,-0.0246402279987931,-0.2357014377534389,0.244175836110115,4.257438248768449,8.296976089411974,3.033937195281684,-0.3772998750209808,1.499299168586731,1.2431010007858276,-0.2132908895641433,0.1209680412301692,0.5750469485648529,0.7805091936684783,0.0350433886051178,0.0600353926420211,-0.2050153017044067,-0.0947714565843343,-0.3528817100226878,0.0436450804591178,0.0254868939518928,-0.1267608404159546,0.0101335614572628,-0.2321714758872985,0.0419908652449958,-0.0701498739205068,96
1724679516456480300,-0.1600040994733572,-0.4033844012916088,-0.2093222571328282,4.464329771623016,8.041934575894475,3.401092053067684,-0.2790710926055908,1.458227515220642,1.2082595825195312,-0.2492020293489642,0.1125412963073448,0.5602919116333804,0.7818604262426607,0.0704908668994903,0.0565352030098438,-0.188380941748619,-0.0483376221895217,0.0288514159530401,-0.0973088569743093,0.0272234473377466,-0.1106730923056602,-0.0462648984355386,-0.1865601688623428,0.0812692657940555,-0.0312518555577378,97
1724679516496223500,0.0151385324209928,-0.6852806039869785,0.0009185761496424,4.622280153436958,7.805336481562256,3.725805360965431,-0.2265545129776001,1.2743120193481443,0.9271857738494872,-0.2805544124520502,0.1052284164409908,0.5467757938508102,0.781826298578278,0.1450324803590774,0.0073649925179779,-0.1813654899597168,-0.0613607698917388,0.056160863161087,-0.0976981668191496,0.0074513591825962,-0.1025033369660377,-0.0161116346448019,-0.1868489980697631,0.0451030926811275,-0.0877672221117652,98
1724679516535966500,0.1783668546378612,-0.441532637900114,0.1333928636625409,4.656124555371702,7.648378325656056,3.999148254849017,-0.1879230439662933,1.0082600116729736,0.3979603350162506,-0.3027495145076749,0.0961686469401663,0.5355854445093807,0.7824592400312043,0.1438391208648681,0.0006588336545974,-0.1776571869850158,0.000234977799654,0.1017284361153841,-0.1158972558545414,-0.0033750957809388,-0.1058580949902534,-0.0032648475856665,-0.2009769082069397,0.0911793503765016,-0.0779420119343325,99
1724679516575710200,0.4506158158048987,-1.6532558675706386,0.2557075762107968,4.515407047909498,7.589229386594891,4.264395228299498,-0.1171769648790359,1.441765546798706,-0.0452286638319492,-0.3169148754654776,0.08113471539324,0.5253508439792142,0.7854861558353929,0.1282923817634582,-0.0090520102530717,-0.1246193349361419,0.0094721772223711,0.4268506170749664,-0.3314104674488305,0.0130632147192955,-0.0958057194948196,-0.0321952190887648,-0.2759034931659698,0.0497026360655669,-0.1723195372976362,100
1724679516615453400,1.577526672847569,-1.664866810387373,0.1843587885290384,4.0907457575723525,7.660396680229902,4.555711585769057,0.1751318126916885,2.055206060409546,-0.5960057377815247,-0.3314388248525229,0.0479305959330523,0.5151951126069967,0.7889391668929226,-0.0322264619171619,-0.0756574496626854,-0.0538381040096282,-0.4640829078823327,0.2497732177257537,0.161281864324212,0.0018766351277008,-0.1155062392354011,-0.0523906695731449,-0.3315059840679168,0.095980193053279,-0.0455570880929008,101
1724679516655197400,-0.0194070035204291,0.2279261275768279,-0.2350464809760451,3.668918229356408,7.726060115751624,4.797646072693169,-0.2467065751552581,0.543982982635498,-0.4247739017009735,-0.3350862502528802,0.0224998754350791,0.5048582766939167,0.7951911805769798,0.1010591611266136,-0.0992627590894699,0.0347741208970546,-0.2136088484108448,0.0550759905338287,-0.0592798719644546,-0.0460482574999332,-0.1460493206977844,-0.0700885904536349,-0.3976924121379852,0.0941004437212832,-0.0976133289467543,102
1724679516694940700,-1.048153838931024,-0.1131739592373371,1.6340706901073454,3.586905424319208,7.740951979935168,4.835511400707066,0.3502419292926788,0.2613797485828399,0.3703920543193817,-0.336957968936653,0.0167610141112875,0.5031665697355636,0.7956141912560228,0.0525962822139263,-0.1253591775894165,0.0623821802437305,-0.275537773579359,0.1251169104874133,-0.0705897860080003,-0.0540452040731906,-0.1217017173767089,-0.1289085578553378,-0.4294771254062652,0.1236598983458243,-0.009971191094449,103
1724679516774428700,0.0673477353468537,-0.4430167389780283,-0.6291314312636852,4.16245899465233,7.610060577699541,4.575075334669649,0.607903242111206,0.6922366619110107,1.6363067626953125,-0.389866088051199,0.014365057958311,0.5162651657896012,0.7624096853706337,0.0423873215913772,-0.1859842836856842,0.142605111002922,-0.2682423558741807,-0.0216425074875354,-0.3228010445356369,-0.2181161940097808,-0.1509644985198974,0.0228525751137523,-0.5122672915458679,0.0388149294894654,-0.0532171789585845,104
1724679516814564900,0.4315034113168716,-0.2707441095620393,0.2024655231058597,4.480350932097434,7.404866506412625,4.611376482106745,0.0861868858337402,1.071383714675903,1.4371352195739746,-0.4206576305421285,0.0161164353441002,0.514417628363266,0.7471023304515378,0.019854050129652,-0.1807162314653396,0.2022386938333511,-0.1726017152398824,0.1355897891849279,-0.134554600918293,-0.2941354215145111,-0.0941732227802276,-0.01727842595994,-0.5433711409568787,0.0417388769450364,0.0695554699576227,105
1724679516853785600,0.4025257386356592,0.335296368971467,-0.603019961668551,4.6954774915948505,7.154214752286673,4.789580547398328,0.0061536110006272,0.9652082324028016,1.353520154953003,-0.4519773169663215,0.0148428368173601,0.505548257582959,0.7347904996288618,-0.0584588646888732,-0.2039503902196884,0.2457255125045776,-0.0179465755790472,0.1163467440545558,-0.2641922037005424,-0.3399270176887512,-0.0686539933085441,-0.0278875827394309,-0.4905788898468017,0.0371364817330963,0.0116638317729521,106
1724679516893524000,0.9362620284587144,-0.0938221930354833,-0.2877414215922355,4.859202072896063,6.910562647789717,4.980226453372836,-0.1601816117763519,0.7378240823745728,0.9529989957809448,-0.4777859269523626,0.0149596868023698,0.4958380076359367,0.7250113112325626,-0.1616547554731369,-0.1855702698230743,0.2977606058120727,0.0905354264497756,0.4452911136507987,-0.205887314248085,-0.3504194021224975,-0.0542134568095207,-0.0598989308779826,-0.4732767939567566,0.0550842012397479,-0.1613334118483588,107
1724679516933263600,0.0829769738942384,-0.2730471258074045,-0.1930593968570232,4.927338912793994,6.734099580946564,5.152049585455655,-0.1533048748970031,0.5970391631126404,0.573261559009552,-0.4946051294347151,0.0144234571509388,0.4869399770090874,0.7197549447383774,-0.2130537629127502,-0.2238612025976181,0.3323273956775665,0.1427653799027204,0.2656634452968835,0.0205330484082922,-0.3400753736495971,-0.039606362581253,-0.1169007612081244,-0.4776518940925598,0.082498889787402,-0.2433694150980561,108
1724679516973002000,-0.9474959546566007,-0.8209779451996088,0.1231710371166467,4.953444244909286,6.601777853646874,5.296254058250785,0.1094978749752044,0.6979393362998962,0.6743056178092957,-0.5095362650293135,0.0115892562663198,0.479407837149334,0.7144274952287819,-0.3077680468559265,-0.2646529972553253,0.4104889035224914,0.2327513557761907,0.7172825929254293,0.0244528887331485,-0.2932701110839844,-0.0104283895343542,-0.1386625659600831,-0.4526751339435577,0.1049244282782543,-0.2174003496482968,109
1724679517012740400,-0.4718009349137544,-0.9813760124266148,0.1757669012725353,4.959582309272885,6.535474366655945,5.372196311202645,0.2586545646190643,0.974113404750824,0.6681090593338013,-0.5224567873155779,0.0063089264490223,0.4754517911833775,0.7077744111351015,-0.3503122925758362,-0.2212264239788055,0.4210987091064453,0.211592247891426,0.46444238884449,-0.0814368317801505,-0.2052379250526428,-0.0070979171432554,-0.0667920194265432,-0.3886208534240722,0.1128171451563015,-0.4323993372432887,110
1724679517052479700,-1.5273369930505751,-0.4169342032164335,-0.0878892958551645,4.900168581795692,6.418748852416873,5.564027043047547,-0.0318028777837753,1.0008679628372192,1.004483699798584,-0.5440999273274447,-0.0045923141220975,0.4650725504858226,0.6983135099162475,-0.3242226541042328,-0.2635890245437622,0.41050985455513,0.2674415608853102,0.1030149687945842,0.209336066462472,-0.06348417699337,-0.0330073535442352,-0.1207689718104433,-0.259426862001419,0.1618145098961889,-0.4422454623445868,111
1724679517092218000,-1.8705466193646192,-1.0364835671424866,1.2000438977926968,5.0873061873883,6.123862819766998,5.726081645309924,0.1229164823889732,0.8619937896728516,1.936179518699646,-0.5714210461483928,-0.0018433133505364,0.4561224446196312,0.6822220494731304,-0.2503934204578399,-0.2565093636512756,0.4005776047706604,0.3799000653296709,0.2121931363940238,-0.1395219410020858,0.0502291545271873,-0.0220154765993356,-0.0146132744293834,-0.1517989486455917,0.0890954202419146,-0.3893794760104269,112
1724679517131957800,-0.1482651463627815,-1.2716197722285985,0.9167115248143672,5.348919480511546,5.735459129986166,5.887609593349695,0.4381575584411621,1.3265970945358276,2.293254137039185,-0.6105324144883385,-0.0002957012860452,0.447007103598521,0.6537849098926818,-0.2546566128730774,-0.2592992484569549,0.3838958442211151,0.1365086575955152,-0.0900298150151968,0.0606932458937168,0.0801422819495201,0.0116407526656985,-0.0201076260704547,-0.1117006912827491,0.0751665193390101,-0.2795357754406519,113
1724679517171696000,-0.1655108801960945,-0.7196276947468518,0.6471826362609863,5.542588533699512,5.364079640242457,6.056133683887124,0.6290042400360107,1.2371081113815308,2.3500657081604004,-0.6514316982218379,-0.0036478473354327,0.4372754457257281,0.6200110788116938,-0.0351255796849727,-0.2630362510681152,0.3459775447845459,0.2521966454803943,0.0518102667361497,0.2250130896743387,0.0277757793664932,0.0054330648854374,-0.1237258488546591,-0.0835978463292121,0.1200915200734511,-0.1120297119725029,114
1724679517251174000,1.4180653019487857,0.6118047411486506,-0.0564110385298728,5.788780970329046,4.551889689393342,6.476164099553227,0.2367075383663177,1.135467290878296,2.0098438262939453,-0.7297216431555582,-0.0100198036440245,0.411955263303135,0.5456177730360556,0.1391117423772812,-0.2095780819654464,0.2611890137195587,0.6246808815956115,0.178458624574542,-0.2786043215431273,-0.1090584173798561,-0.0225008204579353,-0.1215598938592709,-0.0914514660835266,0.0313060790961608,-0.1465588539015501,115
1724679517290913500,1.3884271195322275,0.4901867786929011,1.207272680002451,5.780709892076254,4.159352845330536,6.7419257445275775,0.1498489528894424,1.5487323999404907,1.7497175931930542,-0.7591861956749654,-0.010187796317008,0.3951628369621786,0.5170869535742049,0.1131073012948036,-0.1882227808237075,0.2473641484975814,0.4901075759768485,0.4336182115137577,-0.0140298405267298,-0.1106328964233398,-0.0466300658881664,-0.18586241629133,-0.08505529910326,0.133701865679631,-0.2252966741223819,116
1724679517330652000,1.0798206045657397,0.8281424300014972,0.0602642068266868,5.556008571764827,3.809127202774584,7.126829901754856,0.0275218244642019,1.7144404649734497,1.6193275451660156,-0.7896927381918425,-0.0169820589829755,0.3692484295899736,0.4896454825212763,-0.0835711359977722,-0.0968241542577743,0.2350514978170395,0.5071738615900278,0.0545627803146839,0.1124900686264038,-0.0931384935975074,-0.033624842762947,-0.1753330581662245,-0.1223406493663787,0.0716793439435306,-0.2935870240815915,117
1724679517370390500,2.5416291866511105,1.1572861215621233,0.874788445842266,5.357739915826916,3.523378124043345,7.419623930561542,0.2310911864042282,1.2598516941070557,1.174767255783081,-0.8134581664559145,-0.0216366782264217,0.3481900700897952,0.4653830547263025,0.0303061585873365,-0.0838910490274429,0.1774780750274658,0.6594570114225149,-0.0849456436187028,0.3980395331323146,-0.1067708134651184,-0.0097975246608257,-0.1123612728812731,-0.1264622807502746,0.0208051090986118,-0.1933531921718269,118
1724679517410129700,2.2328063985854385,1.2108935008481143,0.0129617729038,5.030003752976656,3.4446313350647686,7.681403227901458,0.4238418042659759,1.802860736846924,0.7536576986312866,-0.8319607940993319,-0.0354079956227119,0.3272670077289716,0.4466360805419648,-0.1424672156572342,0.0300356838852167,0.0976324453949928,0.6476297955065965,0.2775900299340486,0.0411469800330698,-0.1228544563055038,-0.019126821309328,-0.1838803208297118,-0.1346027851104736,0.0766713435445446,-0.2591481268524192,119
1724679517449868300,0.2446174423977732,1.016555170096457,-1.4947159954309464,4.60872830568552,3.4076305149257182,7.957264826607703,0.1485263556241989,1.4186406135559082,0.6086258888244629,-0.8477116248124368,-0.0503953262210001,0.3029070866575662,0.4325421842835052,-0.0715933069586753,0.0168710928410291,0.109275184571743,0.1228121406763792,0.1885942341417074,0.2095252323590219,-0.1157905459403991,-0.0217635966837406,-0.1487762011574581,-0.1380398124456405,0.086064418515563,-0.2837548544404096,120
1724679517489608000,-0.0638888270646333,0.6168576406240462,0.2995879267305135,4.223065731306374,3.2865885987922545,8.217933532357215,-0.2891064882278442,1.5913362503051758,0.4961722493171692,-0.860794369455256,-0.058098900189446,0.2786153349747872,0.4219372147172699,0.0102264564484357,0.0913955569267273,0.0973960906267166,0.4225830227583647,0.1173152968257665,-0.1055658223211765,-0.1003174483776092,-0.035301249474287,-0.0939122824717313,-0.0481282398104667,0.1069316125153563,-0.1639747932026162,121
1724679517529346300,-0.8536775610134005,-0.3316407690733671,1.0113263295322656,3.7740050359889854,3.134203449890017,8.49140969723165,0.0265082214027643,1.38905668258667,0.6045277714729309,-0.8736292848633466,-0.0646725547212213,0.2507509653942255,0.4119627769321559,-0.0220233593136072,0.0505608767271041,0.0634393170475959,-0.0141729022592306,-0.4168032703131437,0.3998435138143599,-0.0781544148921966,-0.0127988122403621,-0.1026235126584302,-0.0043026395142078,0.1668093407751061,-0.2653625991867855,122
1724679517569085700,-0.4514434988006949,-0.1277940207421779,0.6605266864806413,3.38493908290714,3.083884883016348,8.67192174720466,0.1637049913406372,1.3950566053390503,0.7567646503448486,-0.8856814116347126,-0.0750638971247895,0.2285179550053849,0.3971314929817559,0.0285002682358026,0.0373340211808681,0.0846998691558837,-0.0598988806456327,-0.2210959892958402,0.1867804627180099,-0.0496657639741897,-0.0038246661424636,-0.0391562080746516,0.0162869691848754,0.1016774639799725,-0.1735916395926847,123
1724679517648562400,1.4652572612345218,-0.037266485337913,-1.2859651084452868,2.815425961782038,3.167834793595969,8.84356192393601,0.3228952288627624,0.3542638421058655,0.35244882106781,-0.9017283605011348,-0.0971285475870316,0.1991729894982096,0.3711901703796935,-0.0232151243835687,-0.0474301315844059,0.0852650552988052,-0.1671206534802913,-0.1781897445052862,-0.1631130252741277,-0.0001808905508369,-0.022420285269618,-0.1947493775042705,-0.0142484037205576,0.1617001262689009,-0.1862875098356045,124
1724679517688302000,1.3488374519437552,0.1887897567138075,-0.6820347539335488,2.678209740439057,3.161147278656065,8.888460219326614,-0.2432380020618438,0.5558481812477112,0.0424637869000434,-0.904864903102308,-0.1004832843518965,0.1916187976946848,0.3666125471247134,-0.2122968882322311,-0.0509491264820098,0.1288065463304519,-0.1038987658917903,0.0676782824754714,-0.1492494081597775,0.0098926518112421,-0.0271962117403745,-0.0890892005636822,-0.0464849807322025,0.1032386671483982,-0.1249586694520898,125
1724679517728040400,-0.5298191163793206,0.1943082278743386,0.7388093650788068,2.5614488626256584,3.0450466183170675,8.963094312289357,-0.2457600533962249,0.0923219323158264,8.25904426164e-05,-0.9066421135752676,-0.0969466265163246,0.183332304844127,0.3674108259119191,-0.0791617408394813,-0.0395997986197471,0.2045056372880935,-0.2103863792330026,0.3879746507138014,-0.1165770456790924,0.0363195799291133,-0.0555216148495674,-0.1195902925530448,-0.0681107267737388,0.2260455014619976,-0.2035922986460849,126
1724679517767779800,-1.0524483212545517,-0.0785103498741984,0.8691986630111932,2.52832400713712,3.039389615468681,8.974411825117468,0.2156261354684829,0.1985336393117904,0.2751435041427612,-0.9079659436823394,-0.0978129136268979,0.1812869582308886,0.3649184319589598,0.1128124892711639,-0.052788358181715,0.2361950576305389,0.2208738709777593,-0.2095814925909042,0.3084114307858049,0.0489804707467556,-0.0337328948080539,0.0160754593613673,-0.0543656125664711,0.0590348476948216,-0.0551669567529112,127
1724679517847387100,0.4160241026341915,-0.2590630241185426,-0.5940320608317852,2.488740769289434,3.087363372781873,8.969099105662107,0.0368990115821361,-0.0359004102647304,0.3438332676887512,-0.9134781426139568,-0.1037466331265499,0.1787172264379839,0.3505059138761898,0.369908720254898,-0.1182343214750289,0.1504881978034973,0.1050374145328998,-0.459080569550395,0.1646142236173153,0.0451591983437538,-0.0137140359729528,-0.0293261710250517,-0.0453904345631599,0.062536668103584,-0.0962370538911782,128
1724679517887130400,1.1010247206360102,0.1650456007719039,-0.710091804638505,2.5490853478759528,3.023731735348701,8.973828472271562,-0.1943859606981277,-0.0482746884226799,0.2482125163078308,-0.9158661452799588,-0.100689648321522,0.1797878692259113,0.3445681587932326,0.3423641622066498,-0.0759901404380798,0.0809926837682724,-0.0224286894291639,-0.4256646221607923,-0.0860803467370569,0.0406737402081489,0.0189038775861263,-0.0129028891732799,-0.0307976473122835,0.034930850031157,-0.0162550080462009,129
1724679517926874600,0.6221382113754749,-0.0207099028125405,-0.4229454263299703,2.5437445713698863,2.9260736174121496,9.007654754027724,-0.2819084227085113,0.032847836613655,0.0097901690751314,-0.917353301865951,-0.0962807513922625,0.1773906591906502,0.3431114965817459,0.3174513578414917,-0.0178653690963983,0.1357381492853164,-0.1025315691918134,0.1092190841317176,-0.5517756582520902,0.0310044307261705,0.0167760271579027,-0.0874667413278482,-0.0101920589804649,0.0460835779187269,-0.0177354661371035,130
1724679517966618000,-0.119539402616024,-0.6323129839092493,0.2743348275303841,2.5746435675024983,2.830040470328927,9.029532823836805,-0.2114031761884689,-0.0078453943133354,0.0423853360116481,-0.9175551120899328,-0.0908111935089287,0.1771306441302139,0.3441958357246694,-0.0273901615291833,-0.0242223870009183,0.0906048938632011,-0.0340565833806991,0.0375064315736293,0.1687562187928706,0.0184405352920293,0.0211005099117755,-0.0584603403090732,-0.0315622985363006,0.0296840262857032,-0.0534325159094296,131
1724679518006361300,0.056532034561038,0.2380707972332835,-0.2774585125088691,2.529804016561806,2.755878378792107,9.065076430904863,-0.2206956595182418,0.09418486058712,-0.0212893318384885,-0.9184621384788836,-0.0879560609824045,0.1734170190498817,0.3444089611344068,0.432265043258667,-0.1762634217739105,0.0945150777697563,-0.0906096607297658,-0.6646259384930133,0.5260522381264716,0.0194958578795194,-0.0282084383070468,-0.0970331087728496,-0.0193122420459985,0.1200943787508178,0.030414253956126,132
1724679518046105600,0.8460419515684247,0.1722305438399314,-0.5362006341099739,2.506588560669124,2.649186475050449,9.103252724564076,-0.3797864913940429,0.0140584800392389,-0.1050773486495018,-0.9189384400506684,-0.0828802379148604,0.170276666458336,0.3459609565819802,0.1813462823629379,-0.2405743449926376,0.0961323529481887,-0.1296311730414628,0.1842471448481082,0.0866097774386406,0.003275305731222,-0.0071787750348448,0.0357835144878714,-0.0310465972870588,-0.0366194744049571,-0.0337472708363551,133
1724679518125593000,0.9135068835541604,-0.0858032833613455,-0.4908668699115514,2.4898507763579487,2.361042902398109,9.18675693720281,-0.6194931268692017,-0.1035430431365966,-0.4753648340702057,-0.9156861315096178,-0.0665781607691988,0.1648426526238946,0.3604345739773502,1.5020695924758911,-0.3168675601482391,0.3525571525096893,-0.3012409546345472,-0.5700508812636137,0.008431070671603,0.0002290637930855,-0.0286684054881334,-0.0642663414404029,-0.0341398231685161,-0.0017421595007006,0.0641963540772674,134
1724679518165336600,-0.7146130814552307,-0.2814187944419682,0.0015343699604272,2.48332955789566,2.1708928171165285,9.235295634922384,-0.6050282120704651,-0.0860980749130249,-0.286462128162384,-0.9131771370143624,-0.0558410000609701,0.1612847179743627,0.3701033102073172,1.8260083198547363,-0.1897314041852951,0.4264127314090729,0.0450929411798715,0.0907066913634538,-0.0919172361969947,-0.0024691270664334,-0.0263236165046691,-0.0515554517248645,-0.0736707150936126,0.0587162969646742,-0.0585902274661697,135
1724679518205081000,-0.6935454512462019,0.0029236323617398,0.3570528582274913,2.4791712691724297,1.980223530266434,9.279159911090137,-0.5110356211662292,0.0086258351802825,-0.1336359977722168,-0.9121821658716875,-0.0458613016373628,0.1574523660762183,0.375538615048054,1.7183268070220947,-0.2459099292755127,0.4817054569721222,0.2587099728971719,0.0436450804591178,-0.0900233852744102,-0.0065193437039852,-0.053665142506361,-0.0688338776848046,-0.0943158641457557,0.1004551739097107,0.0109652447747415,136
1724679518244824000,-0.318224968791753,0.173568514445424,0.3478741109937429,2.443976621672511,1.8350168946914367,9.318265594553948,-0.3473216295242309,0.1000580191612243,-0.1152619048953056,-0.9118604468509856,-0.0390648948001802,0.1528875578594344,0.3789588514019298,1.6868057250976562,-0.3032354116439819,0.4128199517726898,0.2907645688056945,0.3027250557124614,0.2594394562155008,-0.0082192830741405,-0.0461241155862808,-0.0314640781028894,-0.1080344095826149,0.1108185460844542,-0.0584930096028139,137
1724679518284567600,-0.2087088014096021,0.1669603483520448,-0.7798813801795244,2.455068216790259,1.7138346933044493,9.338404127219318,-0.3989706039428711,-0.215654969215393,-0.099160723388195,-0.911156108975368,-0.0325799696616579,0.1510378422251249,0.3819957441600569,1.6874147653579712,-0.1962955594062805,0.4751270115375519,0.0551303510695695,0.2480459555417299,-0.7774168897621333,-0.0022140070796012,-0.0564415454864501,-0.0496774468253832,-0.0977658852934837,0.1000655900702346,0.0344179914384614,138
1724679518324312000,-0.3138011610001325,0.0498214310064911,-0.9804396083593367,2.569887312886119,1.5351400680169462,9.338597603964804,-0.5840340852737427,-0.3960249722003937,-0.0551133155822753,-0.9098465176662948,-0.0212603187956582,0.153009871845743,0.3851172139801186,1.543541669845581,0.119096852838993,0.5527735948562622,0.5999293021768332,0.3225590524733066,-1.1434792761363088,-0.0303408745676279,-0.0205751210451126,-0.0140217040276911,-0.0898586809635162,0.0141939199310843,0.007778209953173,139
1724679518364055000,-0.0870002380609512,0.0445461209520697,-0.8778583548069,2.7349869819328188,1.3081778170362115,9.326247825479507,-0.6652346849441528,-0.4789783954620361,0.0270060878247022,-0.908575769076678,-0.0067598138905379,0.1563585240999101,0.3872939090669823,1.114030361175537,0.2913815379142761,0.5624443292617798,0.3258025644391775,0.8888871138215064,-0.7098559500560164,-0.023366579785943,-0.0201746355742216,-0.1441569255926646,-0.1069088131189346,0.0909955365085043,-0.1075566490785218,140
1724679518443543000,0.6965572002828121,-0.1020492655675858,0.5344727874040603,2.8344413356363773,0.7236439446508884,9.36016412360668,-0.8245401382446289,0.2498209476470947,-0.0679692849516868,-0.90737821145526,0.0237565222948842,0.1489969316779923,0.3923015237754778,-0.1093476116657257,-0.1308803856372833,0.4369757771492004,-0.2375844750210642,-0.2213689610183238,0.7530228916093706,0.0042924969457089,-0.0475495532155036,-0.1129128971483558,-0.1067534759640693,0.1160698359424713,-0.1913201337079517,141
1724679518483287000,-0.5190034155935048,-0.3595784311823546,0.4515174408197402,2.7466584227651354,0.422575862365216,9.404662606024742,-0.7878492474555969,0.0940816849470138,0.0452744886279106,-0.90737915920523,0.0365403951578554,0.1384212597859766,0.3951803779764411,0.4656461477279663,-0.2909114956855774,0.4365594387054443,-0.0387716292038559,-0.3684276542007922,0.3376549147963523,0.0099131083115935,-0.1053301841020584,-0.1003777521587908,-0.091940052807331,0.1446488190291449,-0.1737097495470196,142
1724679518523030500,-0.3149801416516304,-0.2106456877563148,0.5559785167694091,2.8059973314404485,0.1714406355712562,9.395071770858763,-0.4579683542251587,-0.3946986496448517,0.0436575338244438,-0.9068378824791244,0.0497431728841314,0.1360524723679481,0.3958034171481095,0.1418904811143875,-0.2427859455347061,0.3671797811985016,0.1148445227980613,-0.3396662546187639,-0.6645625178679824,0.0239635221660137,-0.0539933592081069,-0.0283432540850597,-0.1035568863153457,0.0976557981153018,-0.252882052194979,143
1724679518562774800,-0.2162713456183672,0.0279109202325344,-0.1206733750820159,3.0055159874394533,0.0484042439852142,9.334608242067691,-0.2703242599964142,-0.5165586471557617,0.0903538689017295,-0.9054592560036137,0.0597424323781509,0.1431721423732766,0.3950647589093484,0.8844860792160034,-0.0738915130496025,0.3133495450019836,0.1584668069034814,-0.2800947062313556,-0.0445928827032446,0.0431715920567512,-0.0275230091065168,-0.1417354158004745,-0.0621892064809799,0.1007144824330229,-0.1563007697097025,144
1724679518602518000,0.2883575076639652,0.3559051860297098,-0.0979787281930446,3.0921055988729,-0.094637929865159,9.305928675550222,-0.3948890566825866,-0.0563035942614078,0.1805896461009979,-0.9055546267375416,0.0680633535739235,0.1445581526735152,0.3929898932628973,1.4817715883255005,-0.0140598183497786,0.3332224488258362,0.2968915272533893,-0.0227115980237722,-0.4439958131432533,0.0533713586628437,-0.0117074102163314,-0.1675131416629068,-0.0489199049770832,0.1300726331986486,-0.1855958925759419,145
1724679518642262500,1.3209654024168849,0.2760359140935354,1.3467384338378905,3.0656609518006444,-0.2386264583546668,9.312097719573972,-0.2156252264976501,0.2317198067903518,-0.0377226658165454,-0.9060974872829538,0.0741879711558548,0.1403969041332545,0.3921380719185819,0.2098756581544876,-0.1165230199694633,0.1488193273544311,0.5276867805257439,0.4276408906698227,0.0616208821326494,0.0640185847878456,-0.0022781393490731,-0.0433478739110985,-0.0620182156562805,0.0767305811848025,-0.0884588485045824,146
1724679518682005800,-0.4072095125377178,0.116609504910279,0.3399205216407776,3.038287207184732,-0.247542426466383,9.32083223017156,0.0383758805692195,-0.1508659273386001,-0.050003033131361,-0.9055827679334266,0.0742870253285109,0.1387488368603091,0.3938908620554978,0.080940842628479,-0.1559349298477172,-0.0114248655736446,0.2367018469676375,-0.109776133492589,0.1638414856791496,0.0479088760912418,-0.0101579101756215,-0.0702444157695863,-0.0802033692598342,0.0853518041336443,-0.0937207419550046,147
1724679518721749000,-0.2487017891019582,0.0188827056516893,0.3405412838876247,3.122342623965442,-0.2253825623075477,9.293576558977366,0.0895804464817047,-0.1619106382131576,-0.0129538811743259,-0.904775711924386,0.0750810965807228,0.1432560540690479,0.393981534597929,0.1858132034540176,-0.1027605533599853,0.0461617298424243,0.0543441691279411,0.0569476296246051,-0.1640273636400699,0.0135598592460155,-0.0188230853527784,-0.0462368505179882,-0.0342727415263652,0.0407657164973672,-0.0280369554817094,148
1724679518761496600,-0.0748138334438204,-0.1134586396639235,-0.4791191489726304,3.14986629844606,-0.186714302146621,9.285141908109187,0.1031054556369781,-0.0786387547850608,0.0880779027938842,-0.905102268402598,0.0736387773319897,0.145488251301303,0.392683560186872,-0.0956685468554496,-0.141994833946228,0.1899671703577041,-0.4998083012580871,0.3883002294063568,0.3038490913063287,0.0152067942544817,0.0003019300056621,-0.0575254021130967,-0.0022745225578546,0.0821758592449594,-0.0767880469930823,149
1724679518801239800,0.364614233392477,0.0518838068963959,-0.4351332922518253,3.1636908256590366,-0.1905978107827715,9.280361688095333,-0.0753495097160339,-0.0016210360918194,0.0326160937547683,-0.9054691564832842,0.0739375553303686,0.146172717308031,0.3915258135956921,-0.0884101018309593,-0.1625317931175232,0.245395541191101,-0.2523921680524945,0.0953115548104047,-0.0623836831986904,0.0363495834171772,-0.0087814927101135,-0.0167910306020639,0.0104114543646574,0.0911156374905258,-0.078626669730246,150
1724679518840984000,0.1155272443652152,0.0134836413534358,-0.2140501624375581,3.1208345574900505,-0.2440751704809255,9.293611045768856,-0.1420681178569793,0.157788872718811,0.0697813406586647,-0.906004192879881,0.0754884269665736,0.1430357221586879,0.3911502655752993,0.8458492159843445,-0.1586195528507232,0.4249378740787506,-0.2531865333005785,-0.7501905907928943,0.3255009511440992,0.0351614244282245,0.0430472642183303,0.0095102687557897,-0.0007150819292291,0.006996306323618,-0.0545795213869307,151
1724679518880727600,0.1587672511547803,-0.0758348105220124,0.2391156301110982,3.096897801585495,-0.2999051394535228,9.29998174984455,-0.1144483312964439,0.1478901654481887,0.0893943086266517,-0.9065991232328184,0.0774736277101941,0.1408215764558212,0.3901860598234793,1.1267104148864746,-0.2013084292411804,0.4953423738479614,-0.2478974869817495,0.087808047312498,0.2828793685138225,0.0287617016583681,0.0330849848687648,-0.0810012716407887,-0.0028956639580428,0.0083663725465827,-0.0080005143592774,152
1724679518920301000,0.1528100963160395,-0.0093090956151485,0.1139297460407018,3.090734310519695,-0.3183971835535019,9.30141733560562,-0.011086331680417,-0.0032021114602684,0.0383231937885284,-0.9070179441391008,0.0780838620189639,0.1402233848385546,0.389305431932203,0.9538694024086,-0.2128029614686966,0.6001860499382019,-0.0791290662944316,0.2510585813611746,-0.2697550985246896,0.0195976831018924,0.0223274137824773,-0.097288654436497,0.0031711845658719,0.0215899895657203,0.0446292280916823,153
1724679518960038000,0.0701619159847497,0.0392631755804643,-0.011915478721261,3.107541945196688,-0.3294104162054136,9.29543183145523,-0.0049820970743894,-0.0191500820219516,0.0301564894616603,-0.907144275551624,0.0788642428421316,0.1408733302655948,0.3886185445039008,1.2337028980255127,-0.0787906646728515,0.5989785194396973,0.173219847138226,0.400388726606965,-0.7338169636189937,0.0057778689078986,0.0468457788228988,0.0470801923072198,0.0314305424690246,-0.141664021931542,0.1547230903305113,154
1724679519039512800,0.1033016767814755,0.1239202845813706,-0.1827531068980693,3.118395932166278,-0.3337121685199439,9.291642960566282,-0.0147752556949853,0.0430982783436775,0.0325807221233844,-0.9075952256342288,0.0791000937178617,0.1414257121088198,0.3873148752111411,0.1945206671953201,-0.0394319146871566,0.5534167289733887,0.2269368242785334,0.2044838771909475,-0.1284510233461857,-0.022190872579813,0.0264810733497142,-0.0726016920859925,0.0228677000850439,-0.0690086451632436,0.1011724644667469,155
1724679519079250700,0.1618579106464981,0.1128285798657685,-0.3041735009551048,3.105628805051744,-0.3425223016370087,9.2955978356719,-0.0670699700713157,0.0627370551228523,0.0008846204727888,-0.9077213893917364,0.0792399685952476,0.1406323256565894,0.3872796475754378,-0.8311590552330017,-0.0152141917496919,0.3750673234462738,0.441394690734148,0.2231388933002948,-0.2467722823441028,-0.0163444932550191,0.020132977515459,-0.0371578761475742,0.0242150966078043,-0.0826218403136357,0.071995465254574,156
1724679519118987800,0.0297436886176466,0.1167950358113273,-0.1791378390103578,3.0819702815666794,-0.3705804117878898,9.302392902639507,-0.1197515577077865,0.1327003240585327,0.0094060571864247,-0.9077599615318752,0.0801233993480728,0.1388891673136148,0.3876362207608513,-1.2125107049942017,0.1455086469650268,0.2228628545999527,0.6249228736579417,0.1313730482727289,-0.0894584448680281,-0.0009501987369731,0.0197438579052686,-0.0800102330431342,-0.0104404278099536,-0.0201488896626047,-0.0249262418659403,157
1724679519198462700,0.1078667927399277,-0.2064334768887609,0.0205950442612171,3.028387744461,-0.44658495285362,9.316641792744395,-0.1087065935134887,0.0657713487744331,0.0572598353028297,-0.9082109380077236,0.08257706304916,0.1347757072294614,0.387517135685882,-0.9679230451583862,-0.0260783452540636,0.2632275223731994,-0.3896382000118494,-0.3068763301730156,1.1518132431089878,0.0170942321419715,-0.0079301465302705,-0.1534552623517811,-0.0209369771182537,0.0117407649001048,-0.0504399190978612,158
1724679519238199600,0.2167275649532675,-0.0756837116135284,0.1410159058868885,2.991951280206442,-0.4808185367690399,9.326704921597242,-0.1019588634371757,0.0631006956100463,0.0067156394943594,-0.9085442290015372,0.0834103717348486,0.13233705732682,0.3873978355327444,-1.0559881925582886,-0.2947724163532257,0.2266705930233001,-0.7155519697405397,0.839474555876851,1.5340119407698511,0.0090850759297609,-0.0371556505560874,-0.2158037463729269,-0.0615919791162014,0.0976095843533985,-0.1662441081077791,159
1724679519277937400,-0.270289643792808,0.0296942965179681,0.2323439440190792,2.978729979583621,-0.5079361146667972,9.329498936229944,-0.0462715215981006,0.0939205586910247,0.0545111298561096,-0.9086321916336692,0.0844168548388604,0.131155343707916,0.387375274902166,-2.0592589378356934,-0.0758499503135681,0.2340535372495651,-0.1697783283822238,1.1765572237432005,0.4399292943567037,0.0215399023145437,-0.0601046904921531,-0.1452558084789663,-0.1105088964104652,0.0933894459077157,-0.2200278120750561,160
1724679519317674500,0.1796884586304426,0.1159547855949029,-0.0527910944670438,2.977664688439667,-0.531498374703154,9.328526291805506,-0.0391569174826145,0.0776242092251777,0.0828851759433746,-0.909132637417215,0.0853393594449353,0.1307467288615725,0.3861352512786579,-2.07918119430542,-0.5462875366210938,0.1328223943710327,-0.3074202277913689,0.0582896918833255,-0.2315904953032732,0.0407545790076255,-0.0567456744611263,-0.1941977532371878,-0.1157706156373024,0.0664353834420209,-0.1883205682994797,161
1724679519357412400,-0.1443088099524378,0.0624066256828606,0.3029565263807773,2.9338530192419885,-0.5574078189201652,9.340887760728595,-0.0495376177132129,0.1019721999764442,0.0240564290434122,-0.909565251154911,0.0856124346575674,0.1281318594726757,0.3859321706830952,-0.560956597328186,-0.2517322301864624,0.2321599721908569,0.4638232340328395,-1.3687065200179815,0.628051088681072,0.0202767476439476,-0.0079995095729827,-0.0130107357452157,-0.1086830347776413,0.0088094955087144,-0.1456518951244652,162
1724679519397149400,0.0216463068798184,-0.0593083308739587,0.1932230629861354,2.9239699231311675,-0.5558519312476738,9.344079250246288,0.0429775938391685,-0.0722084119915962,0.0514780208468437,-0.910077424548403,0.0851876175162385,0.1277796060805685,0.3849344018135494,0.5456387400627136,-0.1054429411888122,0.2145319581031799,0.3357917512729764,-0.6787462337821721,-1.5523307106621562,-0.0163931753486394,0.0039928453043103,-0.0659966495314613,-0.0855899602174758,0.0292915837688604,-0.1724237283244729,163
1724679519436887300,0.1181847731366753,-0.1248234804987907,0.0013192659050226,2.960010373805463,-0.5292425220677629,9.334271557459235,0.0346693322062492,-0.0865303575992584,0.0246365517377853,-0.9100771858120672,0.0845904447733453,0.130111690935488,0.3842850346033428,1.3491709232330322,0.1064475253224372,0.2358181476593017,0.2066601983167231,-0.7271002225846052,-0.7558791578233242,-0.0281243231147527,0.0405942387878894,0.0048991108529036,-0.0434395782649517,-0.0615692113109165,-0.0910584456768818,164
1724679519476624100,0.1027957730859518,-0.2061865529229864,-0.1482978795886039,2.9750998063877225,-0.5294317975621671,9.329462111350894,-0.0063940621912479,-0.0828674584627151,-0.0096102505922317,-0.9100835368389926,0.0848719481119396,0.1308684516811264,0.3839508463309558,1.2951366901397705,0.2179971188306808,0.1733033657073974,0.1921517804928124,-0.9362900855094194,-0.5218409771069884,-0.0291105043143033,0.0279093477874994,-0.1284647778769023,0.0086603509262204,0.002273805563079,-0.14140114234481,165
1724679519516362200,-0.0434033806577324,-0.0781739575266838,-0.062714522588253,2.9872239594236016,-0.5399789470722899,9.324982920110225,-0.0239934530109167,0.0257550664246082,0.0099165830761194,-0.909993526048682,0.0856211865450892,0.1312524752007758,0.3838667442203215,0.2416210621595382,0.2568729519844055,0.2962731122970581,0.097840927157551,1.298077571043372,0.1990200588271021,-0.0075374222360551,0.0104726254940032,-0.1492636010819114,0.0197599902749061,0.0366876465536304,-0.1355727101859636,166
1724679519556099000,-0.0778013248220086,-0.0076232614200562,-0.0076391165763139,2.9967820613637564,-0.5566601423580199,9.320933936980364,-0.0166458245366811,-0.0513187274336814,0.0285995118319988,-0.9099730165624508,0.0865896079996908,0.1314034359024498,0.3836462757892689,0.3988138735294342,0.1726987659931183,-0.0658427029848098,-0.5197941275797784,0.0335451267272233,0.1295762279838323,0.0053353682160377,0.0016259674448519,-0.1046410904253832,0.0241465605795383,-0.0105573672267491,-0.0750396735223708,167
1724679519635574000,-0.3018719460144639,0.1212992518953978,-0.0212228207707405,3.02407923361212,-0.5721573154909536,9.311174174988269,-0.0490560084581375,0.0107539435848593,-0.0104633430019021,-0.9096829174391832,0.0879167995560062,0.1324117502452202,0.38368578737948,-0.6622336506843567,-0.2134374231100082,-0.075945071876049,-0.4387973677173256,-0.5053969150453805,-1.1079618264228104,-0.0114703057333827,0.0071391202509403,-0.1380030974043533,0.0097947902977466,0.0357810508194379,-0.0900365278837736,168
1724679519675310800,-0.1781985123336315,0.1044572400247678,0.1923345897138118,3.0299922570481894,-0.5873377873575315,9.308306510597466,-0.0062093157321214,0.0237664487212896,0.0220717191696167,-0.9096922306712044,0.0887376908524671,0.1324163055691714,0.383473130406332,-0.3459298014640808,-0.2225120514631271,0.0709789916872978,0.4191187076486647,1.2565110504239796,-0.3915276670202612,0.0027642943896353,0.000795287778601,-0.0452177548696286,-0.0082474322989583,-0.0282530984334414,-0.0417477863372769,169
1724679519715048700,-0.0738964263379573,0.0422949810244143,-0.2275993798404932,3.029987288612128,-0.58892111102622,9.30820772639811,-0.019618296995759,-0.0469332449138164,0.0431865379214286,-0.9099970845899252,0.0887070013434644,0.1324558035076937,0.3827427060730408,-0.2301259636878967,-0.1099301576614379,0.102804496884346,0.0322575711347162,-0.8721253641128539,0.3567410157993436,-0.0048455824144184,0.0162721425294876,-0.0677586862013442,-0.0268818251788616,-0.0495707487476291,0.0036842174961639,170
1724679519754784800,-0.015867431217432,-0.0635255832428112,-0.0478384404957294,3.0178970378458496,-0.6019128772094845,9.31130393884778,-0.0282645523548126,0.0412958078086376,0.0424633994698524,-0.9103151574907048,0.0889920756691262,0.1316663423065794,0.3821919723224815,0.9568798542022704,0.1655791848897934,0.0227677915245294,0.6945908686459064,-0.8614525789290666,-0.5146621715188026,-0.0203612726181745,0.0204923897981643,-0.0508398782008793,-0.0076236333698034,-0.0914341927872505,0.0752033944504102,171
1724679519794523000,-0.0344920521885156,-0.0208915429897606,-0.0081114102631807,2.9943235622957345,-0.6209042126011103,9.317665290573238,-0.0599246993660926,0.0256530120968818,0.0506266355514526,-0.9107472257138612,0.0893145734651659,0.1302082399343134,0.3815864105856527,-0.1804934293031692,0.4199374616146087,-0.2122629731893539,0.5491130149140954,0.2670160289496183,-0.6467223252728581,-0.022163925692439,0.0012645563110709,-0.1539227337330579,-0.0054566259495913,-0.0145051584293891,-0.0387621535560349,172
1724679519835501300,0.0380322090134024,-0.2591837278887629,0.1178261689573526,3.001107523347437,-0.6343024041607975,9.314580184039473,-0.0179292801767587,-0.0249920096248388,0.0470155999064445,-0.910844877601682,0.0900368094464406,0.1303148569874876,0.3811471978788679,1.1077500581741333,0.1934930980205536,0.020326804369688,-0.249011877964437,0.1897650314867496,0.7865598350301385,-0.0125598320737481,-0.023514661937952,-0.1529878001036588,-0.0166528616100549,0.0379866893712431,-0.0621176846396876,173
1724679519914976300,-0.0224532393485307,0.1973028796456754,-0.1231289515405893,3.034508565428853,-0.6566901770576834,9.302198841372132,-0.0765204578638076,0.0222614780068397,0.0138667551800608,-0.9112908575194928,0.0915422675860702,0.1316809447867082,0.3792481050372377,-0.3258021771907806,-0.1655014306306839,-0.0875075161457061,0.5530502082325518,-0.5701642785102129,-0.5551280374199151,-0.0498882159590721,0.0017324034124612,-0.0871550906959455,0.0037973867729306,0.0635808525274274,-0.0255206458288244,174
1724679519994510800,0.3283160085648298,0.237181666373834,0.1135416235059499,2.9864558976605533,-0.7242519935466348,9.312729003214836,-0.0451315641403198,0.0834562852978706,-0.0132277561351656,-0.9115979711495814,0.0937658177775492,0.1280270339242832,0.3792179789593006,1.3283082246780396,-0.0149436146020889,0.1978330761194229,0.3930493236295879,-1.694980793622136,0.4102840976774692,-0.0177460890263319,-0.0019264776492491,-0.1011288171212654,-0.0283352434635162,0.0604020626611076,-0.1510319076623767,175
1724679520034251300,-0.3697396135821938,-0.1715508179474622,0.2095955211162567,2.994682458736002,-0.7131065493497997,9.31094738049507,0.0409762300550937,-0.0844688042998313,0.0037957185413688,-0.9113776680630928,0.0934622241830194,0.1286025270214761,0.3796275869813256,1.391194224357605,0.2513203918933868,0.1994373053312301,0.2987305792488157,0.4408347187638282,-1.3280860480770469,0.0030789105221629,-0.00307122990489,-0.0761582611895631,-0.033491525799036,0.0278042655372642,-0.1054887567632831,176
1724679520073990400,0.0515533693656325,-0.0972406962420791,-0.0392506448924541,3.032477351862192,-0.6856631735637784,9.300770269873738,0.0617055930197238,-0.0758107602596283,0.023663992062211,-0.9114256106095175,0.0928287836266629,0.1310553094073764,0.3788281441045826,-0.0976635217666626,0.4728074669837951,-0.0502082146704196,0.5945541850097477,-0.4573644132822752,-0.9546505025863646,-0.0288391076028347,0.023525383323431,-0.0177178471403778,-0.0018471183720976,-0.0250105956811457,0.0844481332921888,177
1724679520113730300,0.0950990811035037,-0.1341151865877211,-0.2171609879344701,3.043100744946301,-0.6833550427518784,9.297470059284567,-0.0189392585307359,-0.0256873331964015,0.0105332396924495,-0.911469980611958,0.0928945281609194,0.1316494096058278,0.3784989395203882,0.3229446709156036,0.4537602663040161,-0.3884055614471435,-0.0011050386324524,0.5728992564320564,0.7104840188264846,-0.0502346158027648,0.0063927886076271,-0.115665967849316,0.0272572562098503,0.0657227781932568,0.0017135384777036,178
1724679520153469400,0.1544496802166104,-0.246884291351214,-0.214760941055417,3.060962857112288,-0.6931389893371611,9.290879574978351,0.0010486759711056,-0.0953133776783943,0.0065331775695085,-0.911458377978188,0.0936804267504705,0.1323666862122384,0.3780827045480541,-0.7222986221313477,-0.2949430644512176,-0.0691194534301757,-0.8448606328293681,1.2610545390725134,2.288801842051744,-0.0363089069724082,0.0045711304992437,-0.0636231207665754,0.0261987000703811,0.0563832417740719,-0.087878372602351,179
1724679520232948700,-0.09327829541713,0.0777455760467797,0.0973041899323463,3.0604423403695225,-0.7427350140899419,9.287218129861357,-0.0796015039086341,0.1087569743394851,0.030011935159564,-0.9114014845804612,0.0960358053457595,0.1313802542944808,0.3779733044798937,0.8123958706855774,-0.1221588030457496,0.1734618842601776,0.9615485915370284,0.9542571193546056,-1.8030919165119528,0.0125321159139275,-0.0035306157078593,-0.0653932813774095,0.0195860154926776,0.0411553049034206,-0.0514897067120065,180
1724679520272689200,-0.2281456155464053,0.0876345173764973,-0.0711632019817829,3.0471684327766297,-0.76908416489847,9.289438143998384,-0.0342945903539657,-0.0096862250939011,0.0715226233005523,-0.9117068454254592,0.0969380857436595,0.1302822982864763,0.3773861634789456,-0.7835749983787537,-0.3278409242630005,0.0544499531388282,-0.3481082120105624,1.2775427325367927,0.241324246071279,0.0149239571765065,0.0033745800610631,-0.0275478864732664,0.0247537977993488,0.0141302093283971,0.0070935550113703,181
1724679520312428300,0.1411617440983653,0.017344883358851,0.1136444993585348,3.0381884229853746,-0.7792995617035776,9.291527809754012,-0.000718449242413,0.0087899127975106,0.0399617999792099,-0.912171085778652,0.0971004197713771,0.1297514166964815,0.3764041870526963,0.2776975631713867,0.0298041496425867,0.1851874589920044,0.5052943314537406,-1.6136685380697249,0.0104208562493324,0.0127863492816686,-0.0098815513774752,-0.0708876364434138,0.0338598228991031,0.0272264017172274,0.0583539892911911,182
1724679520352168400,0.0903051248252391,-0.0719139472838491,0.03685235157907,3.0293396383583544,-0.7723413400635123,9.294997531691193,0.0319228880107402,-0.0258725807070732,0.0133795496076345,-0.9124491524141212,0.0965177175362464,0.1295042760355834,0.3759648800506561,0.3179661631584167,0.3317346572875976,-0.030144490301609,0.4634815809883177,-0.5364981557518244,-1.10871790548712,-0.0005110118072479,0.0079740630462765,-0.0197797275566495,0.0227991659194231,-0.0346049745110794,-0.0078823958426102,183
1724679520391907300,0.099412268127501,-0.0246642664615064,-0.0531552516043186,3.0407328467711805,-0.760783442608267,9.292229820543527,0.0064113326370716,0.0096911825239658,-0.0204480811953544,-0.9123529645906966,0.0962072556701163,0.1302777362316758,0.3760106303943352,-0.2544344961643219,0.4247894585132599,0.0204373262822628,0.298004603061825,-0.1854138505399227,-0.7272785017609595,0.0088649075478315,-0.0119037432596087,-0.0979200750746764,0.0073737720958888,0.0502298154445597,-0.0795197004466783,184
1724679520431646500,-0.1367240539118647,-0.0576814968571066,-0.0493184499204158,3.0332588576287027,-0.7588907607294618,9.294826851299405,0.0248245391994714,0.032503992319107,0.0129008265212178,-0.9123647972082598,0.0959805015072727,0.1299363396420836,0.376157805798729,0.6185015439987183,0.1683976054191589,-0.0487928092479705,-0.2065001854494214,-0.1331412269890308,0.3594268938824534,0.0203758887946605,-0.0232532266527414,-0.0542886030158027,0.0341891348361969,0.0315000695815891,-0.0020609288557345,185
1724679520471387000,-0.1598492011725902,-0.0802237296633422,-0.2172077496856451,3.0483035742864013,-0.7517612011104822,9.290483269137145,0.0217298306524753,-0.0616329982876777,0.0586621649563312,-0.9126010381660594,0.0958287463230098,0.1308969684325988,0.3752895169541313,-1.0871013402938845,-0.215829998254776,-0.1936663836240768,-0.6330727162353694,2.582553902235627,1.9758304098740216,0.0182920545339584,-0.010913603939116,-0.0391480841337004,0.0504066608846187,0.0380430797505774,-0.0338723539541708,186
1724679520511126000,0.2807151762172579,0.1355739340286701,-0.0372229384571313,3.0449808596044776,-0.7701870115738362,9.29006416694224,-0.0773299112915992,0.0910436287522316,0.0267766695469617,-0.9130556852695472,0.0964832904576259,0.1304972376652788,0.3741535777175183,-0.8256284594535828,-0.4214658439159393,0.0745282620191574,-0.8753316128082573,-1.7672230230122803,0.7080937626890837,0.0279776379466056,0.0169482100754976,0.012087596443243,0.0433887727558612,0.0254638924065977,-0.1072162290098611,187
1724679520550866200,-0.1260962769135832,0.1207732552599161,0.2080132203608751,3.004973843386769,-0.8070112330369651,9.299959538012745,-0.0612104386091232,0.0211485866457223,-0.0281526539474725,-0.9131667046978929,0.0974776939648802,0.1277971685848624,0.3745565096221168,-0.9906549453735352,-0.2719970345497131,-0.1955940425395965,0.3923199864417314,1.237539223450422,-0.6192354756712913,0.047154814004898,0.0204454343765974,-0.0653932813774095,0.0446032471954822,0.0411553049034206,-0.0514897067120065,188
1724679520590605300,-0.0761029964715242,-0.1079635311126708,0.1931856535851955,3.020971038463712,-0.8022819394927472,9.295184578695892,0.0961539968848228,-0.1372595876455307,0.0291093308478593,-0.91314826880272,0.0975445737389182,0.1286954590286883,0.3742763385439326,-1.6956392526626587,-0.1928629577159881,0.153008684515953,0.0783206725209951,-0.1308241822183132,-0.6334336585022509,0.0464433431625366,0.0603661872446537,-0.067135389504116,0.0602401047945022,-0.0145761881137848,-0.0118861350374121,189
1724679520630345500,-0.2231251570358872,0.1623253089625388,0.1613414855569601,3.044092970854044,-0.7572844945766032,9.291415581551194,0.0925862342119216,0.0703403428196907,0.058656096458435,-0.9132139324127148,0.0958015836588979,0.1307352461059755,0.3738592267221328,1.516938090324402,-0.0221505556255579,0.4117461740970611,-0.1821646394856274,-4.894793903020024,2.180738357695937,0.0417435579001903,0.0428628772497177,-0.05892781169035,0.0717780590057373,0.0034381023853871,-0.0417547503676032,190
1724679520670084400,0.3583972585737705,-0.1175787700675427,-0.0206271929651498,3.0569311173781752,-0.7401439016181975,9.288581234908104,0.0585767179727554,-0.0561330057680606,0.0334000140428543,-0.913747910650179,0.0950278303048092,0.131847869944544,0.3723582641621502,2.512415885925293,0.2772296071052551,0.1424447298049926,0.4993476980090141,0.5942354744493961,-2.529572838154435,0.0733412429690361,0.0194771271198987,-0.0882539827154017,0.0736381784081459,0.0659747664932161,-0.1379918088253587,191
1724679520709824800,-0.1061275478571653,-0.1269451488278806,-0.1277601184725761,3.0708970988884565,-0.7177590513307601,9.285730521652102,0.054478570818901,-0.1080651059746742,-0.0163478720933198,-0.9137139708778004,0.0942237885166889,0.1329712951385362,0.3722462371128733,-0.6934741735458374,0.2831014394760132,-0.0796314850449562,-0.1293184538304805,2.394299275311828,-1.3350564716115594,0.0770319625735282,0.0216729193925857,-0.0268965418584877,0.147241860628128,0.0086212172406201,-0.0052618968753551,192
1724679520749565000,-0.2011032948419451,-0.1477495980560779,-0.2151794587284326,3.123076783458888,-0.7087759727995843,9.269002674213052,0.0368309430778026,-0.135983794927597,0.0431822128593921,-0.9135819605843554,0.0947548059168775,0.1357715394935093,0.3714236657912912,-0.6413449048995972,0.2876201570034027,-0.129752978682518,0.1088061194166541,-2.1353303592175243,-0.2090069075733423,0.0653643757104873,0.0566865839064121,-0.0620287140148691,0.1929606795310974,0.0397316972745116,0.0161299215034523,193
1724679520829044200,0.3737327748715877,-0.0196728148497641,-0.0207733234375715,3.187043644195795,-0.7458730929199606,9.244285581585764,-0.1199966743588447,-0.0877348706126213,-0.0118778841570019,-0.9136031941706309,0.0976114640107773,0.1383640775131696,0.3696711102960339,-0.0329015739262104,-0.3709908723831177,-0.3822360932826996,-0.5875378765068948,1.7920307165324687,1.0995564016491175,0.0785769522190094,0.066290870308876,-0.0842742471631616,0.2205167859792709,0.1631800991609692,-0.2256617993740364,194
1724679520868784400,0.780230924269557,0.0419521589361131,0.4678302777171134,3.227213742020726,-0.7678441017094999,9.228536808311938,-0.0082890884950757,-0.331762433052063,-0.2621500194072723,-0.9123676259072808,0.0998093427973834,0.1396913097162132,0.37163128072185,1.380781888961792,-0.1979158818721771,-0.0583051554858684,-0.1334090841449797,-1.0897329267710447,0.3593468143835663,0.0856497585773468,0.0602376013994216,-0.0786159474068321,0.2519057095050812,0.1222232622719835,-0.1996788149967789,195
1724679520908523500,2.411647008214891,0.486705074056983,0.2907429414957762,3.508914422143996,-0.6237732652314006,9.136126820161936,0.4309011697769165,-1.2859821319580078,-1.0405375957489014,-0.906276402785163,0.1002518651725355,0.1553600386375162,0.3800997725535632,1.6817723512649536,-0.1968148201704025,-0.1818171143531799,-0.0722863607928156,-0.5962064822614193,0.2276496487230062,0.0882428213953971,0.0874579027295112,-0.046372747290763,0.2896269559860229,0.0551479141257237,-0.1606487540524452,196
1724679520948263700,0.9856620191827417,-0.2621455185701139,-0.1651420468837022,4.166959228681027,-0.1848219125287607,8.8753973241359,0.6116408109664917,-2.16274642944336,-1.7436310052871704,-0.8895822960575164,0.0983427236084148,0.1944463352750805,0.4014508737363096,1.614143967628479,-0.1468895971775055,-0.1473600715398788,0.1540741249024868,-0.575693855586648,-0.5120566651955246,0.0839406624436378,0.086162157356739,-0.0412380193173885,0.3361633419990539,0.0689522525006206,-0.1294177860191092,197
1724679520988002800,-0.0371463660895824,-0.3644598830809816,0.0857101982504129,4.938525492718815,0.3269007714720442,8.466078272098303,0.4606218636035919,-2.122516393661499,-1.7680290937423706,-0.8661602679523065,0.0996193579337756,0.2417149272933507,0.425929964533229,1.193557620048523,-0.1064130812883377,-0.2745656073093414,0.0860150264158844,-0.1999988407313823,-0.3128787854582071,0.0762704089283943,0.0991545841097831,-0.0690975518559804,0.3570468723773956,0.0655851780871627,-0.1145390553117729,198
1724679521027695000,0.5011281516849995,-0.5395451952975243,0.4446732740134,5.389655980047583,0.8328349717319011,8.150361048343777,0.4177727997303009,-0.2798581421375274,-2.0911800861358643,-0.8437237911054222,0.0963265064822815,0.2741686501829172,0.4513124663258361,1.3644779920578003,-0.0735756158828735,-0.2286368757486343,0.0527732665494084,-0.2324830602288246,-0.2495201197475194,0.0681910812854766,0.0946281552314758,-0.1172323312500491,0.3594527840614319,0.0418707642629742,-0.0990798578353598,199
1724679521067432700,0.5373474660575389,-1.1552538850821554,-0.603732201591134,5.332187541419267,1.4219080949820575,8.106561654105782,0.3640992045402527,0.0292668566107749,-2.2892799377441406,-0.8230822919820532,0.0792278572225289,0.283554813758237,0.485649244059418,1.199691653251648,-0.0457103140652179,-0.113080121576786,0.0001847089171409,0.4309726654410362,-0.4408037391036749,0.0654528439044952,0.0923833474516868,-0.0834028528898023,0.3777448832988739,0.0217782649797038,-0.0957607690157834,200
1724679521146908200,-1.9255121352612967,-0.3828358265206217,0.5420201340436935,5.281135399574041,2.047703805951774,8.005429430317879,-0.2141701281070709,-1.0008745193481443,-1.0153567790985107,-0.7785527420706388,0.0734371386367754,0.2940130517215606,0.5495624123112671,-0.0494145043194294,-0.0501917228102684,-0.0142710525542497,-0.2156532137200236,1.0362842451781034,-0.8862439058363437,0.1205238848924636,0.0881019309163093,-0.0570018303301418,0.475345641374588,0.0274146794144995,-0.0820360123828519,201
1724679521226384000,-0.3740414024293422,-0.555173045605421,-0.3902560396492481,6.183571730798483,2.527247025555372,7.179612812915444,0.5735089778900146,-2.447535991668701,-0.645788848400116,-0.7465584057980446,0.091188559786832,0.3544379469191171,0.555615782952527,0.6634039878845215,-0.0492000170052051,0.203998178243637,-0.2107265709728002,-0.0474088169068098,-0.3423661612272262,0.144570916891098,0.1214114800095558,-0.0415134889576351,0.5902245044708252,-0.0526829761837609,0.021301564545778,202
1724679521266122200,-0.8191969070017338,-0.4723872103691101,0.3007107932806014,6.769536220508813,2.8788594462946056,6.48505526201725,0.7536047101020813,-1.785568356513977,-0.7705312967300415,-0.7219981083571332,0.1035325898717405,0.3982903624852104,0.5562055496079659,-0.3284147381782532,-0.0807833522558212,0.1632228940725326,-0.0096440266579389,0.9306161315262316,-0.571439705273509,0.1476301252841949,0.1116454750299453,-0.1584821506030857,0.6328610181808472,0.0240577839017612,0.04772601136351,203
1724679521305859600,-0.3692261111021042,-0.6252995980158448,-1.1159428883045912,6.802595025023818,3.288998290282488,6.251205589610338,0.2499007582664489,-0.1899821162223816,-0.740528404712677,-0.7093795011194819,0.0926555374981061,0.4155624746918753,0.5616969686513248,-1.1819034814834597,-0.2787821292877197,0.1375570297241211,-0.1833133711293339,0.2486509356975555,0.0256453133881092,0.1530274003744125,0.0831889063119888,-0.1546220593751408,0.6735538840293884,0.0083765485931915,0.1068827775381039,204
1724679521345598000,-1.1898527586460113,0.2065548382461071,-0.8042325621038675,6.958381799063086,3.357214040635526,6.039902095532417,-0.6076077818870544,-0.9540523290634156,-0.444486141204834,-0.6947152946889464,0.1032737147647253,0.4258934453492832,0.5703682822540465,-1.59773850440979,-0.3361913561820984,0.123538814485073,0.0838312526360154,0.3417787167280912,-0.2261819142580032,0.1705550998449325,0.0628333091735839,-0.1612352121708914,0.6941168904304504,-0.0262892806973191,0.240759689257387,205
1724679521425073700,-1.887016108128428,-0.806771725192666,-1.8065204296559088,7.03170656299293,3.1919951291233297,6.044556643339991,-0.9979443550109864,-0.2678200006484985,-0.3371960818767547,-0.6746146040594194,0.1277455958064025,0.4189205539051233,0.5942069503478553,-2.129695177078247,-0.4283645451068878,0.4269241690635681,0.247100199124217,2.099931129056216,-1.014285763859749,0.2037433981895446,0.0282489750534296,-0.0602902819828595,0.7722105383872986,-0.0549364313660888,0.3924692952519282,206
1724679521464811000,-1.920961047828197,-1.245840895588696,-1.719919420045614,7.102761628425121,2.9654762379959223,6.07676789111495,-1.0005446672439575,-0.2130412012338638,0.1846729069948196,-0.6687127939827238,0.1444446023438226,0.4114691049864744,0.6022059900748549,-4.095203876495361,-0.6531018614768982,0.71686190366745,-0.1133010927483439,3.9744326235264538,-0.8944067540258168,0.226807951927185,0.0148674454540014,-0.1522684545868542,0.7166714668273926,0.0123373688115854,0.3279324891399592,207
1724679521504549400,-0.3065630264401435,-0.0287158068746328,-1.949737060457468,7.156224338543415,2.669520238026976,6.150812786012888,-1.112101674079895,-0.0632807686924934,-0.1099289581179618,-0.66565826642971,0.1616129458931713,0.4003461945102026,0.6086898098314363,-3.983862161636353,-0.8630353212356567,1.4347140789031982,-0.2216451476112008,3.649709671017528,0.2215600996762514,0.2430115938186645,-0.023096214979887,-0.085600536464015,0.6203850507736206,0.0006676364499871,0.3514964296767487,208
1724679521544286700,-1.536665962409973,-1.186163402608782,-3.235744254478812,7.253420976448059,2.4191772575892507,6.140509418663382,-1.216898798942566,-1.2041023969650269,-0.0342684872448444,-0.6568472288336114,0.1813402595051017,0.3924752999854891,0.61776259806607,-3.91066312789917,-0.9159271121025084,1.9089241027832031,-0.2926524283789098,3.825979261115193,-0.1157177254360169,0.2404456138610839,-0.0144712897017598,-0.0694689744176808,0.4852974712848663,-0.0213046173026785,0.3027592502430081,209
1724679521584024800,-1.309648181849718,-1.8004253276512026,-1.0647679968625303,7.664009025508163,2.1882857043355703,5.713559432867169,-0.7045956254005432,-2.132155418395996,-0.0346441455185413,-0.6378451141388922,0.2162531403986693,0.4023979747782454,0.6200516512432404,-3.707844495773315,-1.2932432889938354,2.483699321746826,-1.212163520783931,1.9986475140988824,0.0016048048481345,0.2376701235771179,-0.0315449088811874,-0.0249025641628308,0.3772636353969574,0.0124574720768956,0.3568624867545441,210
1724679521623762400,-1.0615303301155568,-2.440021454305947,-0.8856827648222446,8.220193293982744,2.0122076912872493,4.954778123861551,-0.2063577026128769,-2.6059117317199707,0.7246476411819458,-0.6200132359830313,0.2533916565403277,0.427982823268731,0.6068005646952244,-1.365127682685852,-2.135331392288208,2.706599473953247,-1.3301498487390575,0.1173451074421405,2.3165572794616223,0.2121698856353759,-0.0167860463261604,-0.1138477485793642,0.3479383587837219,0.0376795436678105,0.5042348855286837,211
1724679521663500800,-1.135393438705802,-2.611068049058318,-2.282967144548893,8.726060164627432,1.612686102903634,4.17438645607233,-1.274661898612976,-2.602404356002808,0.931178092956543,-0.6044808960867707,0.2981635140773389,0.4452684973090106,0.5894381904622272,0.8267346024513245,-2.068775653839112,3.146514654159546,-0.8476108083203434,-1.6024100619524717,-0.0495730092033743,0.1967927515506744,-0.0144299510866403,0.0207989168198429,0.3578126430511474,-0.0603122837521135,0.6663711016599089,212
1724679521742973400,-0.4578828841984271,-2.7188921717002987,0.4565288392409682,9.504971238470077,-0.0716997519773198,2.412622282987833,-0.745613694190979,-1.7192773818969729,2.6106319427490234,-0.5855427496158317,0.4151541056631365,0.452368836092832,0.5292911169537108,-1.318515419960022,-1.8786985874176023,3.079198122024536,-2.2069965422853826,-0.636168490293622,-1.4309624851837754,0.0940525904297828,0.0574810281395912,0.0157402132247458,0.2590815722942352,-0.1319928880709689,0.5050655276665463,213
1724679521782710800,0.5281488450795412,-2.8949136322557925,-1.426835468381643,9.578374912855027,-1.171937016596645,1.7469101566933094,-1.07502281665802,-1.8562651872634888,2.705653667449951,-0.5906114160051125,0.4662621608999812,0.4399226836433448,0.4901488485494973,-1.1836830377578735,-1.878096461296081,2.9005649089813232,-1.1658517053335904,-0.5332587354391813,0.3391778865799307,0.0392732843756675,0.0552732869982719,-0.1714167615053244,0.1692784428596496,-0.0509074361449107,0.4441990440977737,214
1724679521822449000,0.9938181453704832,-2.7225477715983986,0.5818587348919362,9.49263490398824,-2.246916903132945,1.0057960948687046,-1.412475824356079,-1.1767598390579224,2.6021299362182617,-0.5877991218928407,0.5204012192238427,0.4217834083793189,0.4536226332387504,-0.5872806310653687,-1.808864712715149,3.379944086074829,-1.8543465951919555,-1.6767811200648546,0.1434460556432604,0.0380168557167053,0.0082383416593074,-0.1492236617971677,0.0607147477567195,0.0570508753699483,0.2636180388080887,215
1724679521862186500,0.379737568244338,-3.4974890650272368,-0.1851105202117934,9.196469937443732,-3.35800782136172,0.5648904662931338,-1.7240569591522217,-0.617477536201477,3.203991174697876,-0.5903202677664668,0.5676625475191005,0.3859505583204672,0.4246449572891153,0.3492050468921661,-1.5850170850753784,3.7196857929229736,-1.950818425953388,-0.8109837899297475,-0.2721162746980786,0.0821713134646415,-0.0635893866419792,-0.2499329931310377,-0.0276187825947999,0.1610715643080882,0.2341978465237654,216
1724679521901924600,3.408445922961831,-3.455936280672252,0.9877730199873448,8.69589065181315,-4.53321567632258,0.0430803912144852,-1.9725537300109863,-0.4005993008613586,3.049366474151612,-0.5894721582386496,0.618562697471581,0.3393872428039534,0.3933436285905879,0.8038815259933472,-1.3436814546585083,3.671108484268189,-3.47237975821197,-2.180744202914834,0.292339563037455,0.1001301929354667,-0.1160652786493301,-0.1715289714418351,-0.0470110587775707,0.1111067793081514,0.4313394163941964,217
1724679521941662000,3.496943706104159,-3.100632604199648,0.9481085335969924,8.130497825488447,-5.466420070776343,-0.4285668464083224,-1.8479596376419067,-0.2303088754415512,2.66463589668274,-0.5848395380695234,0.6607523907270353,0.2919881941068472,0.3689336378797371,1.1779794692993164,-1.2585318088531494,3.2539758682250977,-3.818986041226983,-3.605598434351384,-0.0111222825169563,0.0734839811921119,-0.0862549617886543,-0.0590835502413334,0.0052114566788077,-0.0312089799638139,0.6343373293437063,218
1724679522021137700,4.856082187309861,-0.6873176627725363,2.276565460813045,6.8132567042917005,-6.926093978920578,-1.3338489955179391,-0.7906968593597412,-0.6530082821846008,2.283519744873047,-0.5790493776318657,0.7233950392720262,0.2114402715915764,0.3109574426730846,1.0988010168075562,-0.2177866846323013,0.8921996355056763,-0.3556599425643682,-3.264842923191189,0.1426455711816437,-0.003600753378123,-0.1361565291881561,-0.2730934309008531,0.1725264936685562,0.2292605362520553,0.551456765028648,219
1724679522060876000,5.446689534389972,0.1588023224681615,2.6539246094882487,6.204392985031008,-7.4050032845348115,-1.6857697515539825,-0.437351793050766,-0.6311521530151367,1.7179131507873535,-0.5791053169789901,0.7423678247617933,0.1866557053424002,0.2805114788089114,1.4253402948379517,0.1263511925935745,0.2900715172290802,0.1099509055376052,-2.847280358943343,0.5079202960431576,0.0049830982461571,-0.1925216168165207,-0.0599150874283397,0.1301906406879425,0.1564545354993082,0.231427541560214,220
1724679522100556800,5.498433165630698,1.692711095124483,3.3051571056619284,5.729324572753906,-7.73417854027748,-1.8782124778173863,-0.0031054755672812,-0.3828354477882385,1.1739193201065063,-0.5816973918448064,0.7529032756368648,0.1699965905606389,0.2566434252597191,1.764541745185852,0.1366859078407287,0.1836483478546142,0.40422143663764,-2.6148066510647534,0.1736252130687236,0.0345859304070472,-0.1978050470352172,-0.0647101168522611,0.0674482360482215,0.1196439315695781,0.1956263064692728,221
1724679522140293000,5.225722724431753,2.449213353282213,2.974802284745872,5.431169309175014,-7.946451171648502,-1.87795864918679,0.3350870311260223,-0.0534211136400699,0.6346172094345093,-0.5879904088193214,0.755012815131496,0.1603274631745475,0.2419052255396201,1.8207216262817385,0.0700610801577568,0.2230359762907028,1.0569944402515887,-2.256545293830335,0.1455190533918794,0.033020481467247,-0.1642890125513076,0.0110087254401529,0.0396283641457557,0.0250901911228429,0.3160077311336994,222
1724679522180028200,4.554712637859582,2.6582962487012147,2.0858264697276057,5.30101908069551,-8.072334974855185,-1.7049983297675848,0.4289400577545166,0.4062192738056183,0.2915599048137665,-0.5969187165991935,0.7506409338922247,0.1531956705733418,0.2382382752206227,1.6240341663360596,0.0446631498634815,0.2718444466590881,1.221114742872119,-2.313897558733076,0.1692898142129182,0.0238743964582681,-0.1208178251981735,-0.0934964682124555,0.0463051088154315,0.0001506308343145,0.3735798493321984,223
1724679522219764500,4.030121193000674,2.572780696240067,1.2127147249259054,5.2875125333905215,-8.123138110375404,-1.4923875524833798,0.3510522544384002,0.3735139667987823,-0.0652868822216987,-0.6044940327219988,0.7444108887714053,0.1481317529160376,0.2418601718365749,0.7434809803962708,-0.215157464146614,0.0874365270137786,0.8786521355330944,-1.9122607317611573,-0.3061269731104373,-0.0070803235284984,-0.0841589495539665,-0.0804096989558078,0.0588912852108478,-0.066535122056026,0.3891571750292554,224
1724679522259499500,3.767582601726055,2.077069893428684,0.8857857868053018,5.406997575470805,-8.072748816353082,-1.3287125094123184,0.4659952819347381,-0.128885805606842,-0.635029137134552,-0.6091522157450328,0.73779975951952,0.1529607866100733,0.2473621653692645,-0.2806669175624847,-0.2268553376197815,-0.2759669721126556,0.2986591214478015,-1.55779262932986,-0.8500012105882168,-0.0520348623394966,-0.0691689923405647,0.0220417290883255,0.0471194460988044,-0.1148243293934036,0.3789737807976082,225
1724679522338971100,2.0357424422621726,0.8806015160351991,0.3462929792821407,5.828761683061718,-7.754055207136273,-1.438947054196894,0.4892316162586212,-1.720101833343506,-0.919829249382019,-0.6096686511748809,0.7282288207985177,0.2074817323863275,0.2343892679172893,-0.5744809508323669,-0.3947014808654785,-0.4030540287494659,-0.3151899850100279,2.5481623878121376,-0.6957686802536249,-0.0976399928331375,-0.0816355794668197,-0.4732043719708919,0.1749416589736938,-0.1003868031149264,0.6507737926207482,226
1724679522378707200,2.696819748362899,0.7178665302932262,1.5827357857979834,6.101421855378151,-7.499890476453304,-1.6415430718146264,0.5282527804374695,-1.1207200288772583,-1.5238767862319946,-0.6046944154679786,0.7236023671615981,0.2451428487485334,0.2250537419345087,0.9588060975074768,-0.19730906188488,0.6658580899238586,0.3198877874374389,1.4916031241074204,0.7032142470192164,-0.0297751072794199,-0.1426768600940704,-0.3730866224551573,0.2214038521051406,-0.1295059848923701,0.2830363126412034,227
1724679522418442500,1.3147656709939242,-0.0385837054163217,1.1822891915239393,6.514422810798883,-7.140429388040304,-1.6573879989393054,0.6873803734779358,-0.5065792798995972,-1.4902781248092651,-0.6022342998445541,0.7113849044056203,0.2800621130586497,0.2298054323202812,0.5462917685508728,-0.1015075892210006,1.0310699939727783,0.0364046078115701,4.733842878085374,-0.931835517253354,0.1158956512808799,-0.1448920369148254,-0.3037372832286171,0.1451312452554702,-0.221087952119857,0.1271038465209305,228
1724679522458178600,2.090669964236021,-0.4358288733005523,0.3546129177294671,6.875466784489155,-6.818603326016664,-1.5508157760545611,0.5685789585113525,-0.113158605992794,-1.345561385154724,-0.6035073066683928,0.6967656055993675,0.3059203990050017,0.2381375315967182,-0.823807954788208,0.018136253580451,1.0109857320785522,-1.1834037286370993,4.2314445603340864,-1.0412040928583592,0.1959261894226074,-0.0805748552083969,0.2225098746817559,0.0782503262162208,-0.5866239765323699,0.4811368089379742,229
1724679522537650200,1.4060107070177792,-0.0846276637107133,0.3365035528041422,7.593493473780155,-6.079692838650941,-1.243606560665369,0.3939580619335174,0.184874877333641,-1.3419712781906128,-0.6034493867747153,0.6671211328886903,0.3440286116990134,0.2691513465552165,-0.2617097198963165,0.2362875938415527,2.014371871948242,-0.8240034305006265,2.291178069663793,0.1998217305988073,0.2340320646762848,0.0705167278647422,-0.5131389805395156,0.0528632327914238,-0.3809877144359052,0.7960507169529795,230
1724679522577385200,0.784428960481286,-0.0346820218026638,0.4069955775260925,7.927472330412268,-5.6638172045767305,-1.1165766561634838,0.4265549778938293,-0.0288579184561967,-1.459265947341919,-0.6017919675828475,0.6517182686693213,0.3635833674645208,0.2844588800187833,-0.6138325929641724,0.2179284542798996,2.318230390548706,-1.3316063311576842,1.4164277638748288,0.5517506699413061,0.232397973537445,0.0961648598313331,-0.4722045107459649,0.1241684779524803,-0.5310716371910646,1.0729730036932974,231
1724679522617121500,-0.7042804880112409,-0.9702461311250924,0.2732850262165069,8.235540500718354,-5.219363710793853,-1.0509517990864812,0.339729756116867,-0.0253120027482509,-1.3190521001815796,-0.598196773167646,0.6365293391438617,0.3852454141814292,0.2976188953665828,-1.0506892204284668,0.1272567808628082,2.496919631958008,-1.8459990380853413,0.2202165761128068,0.8669078486602753,0.1615436524152755,0.0961783602833747,-0.6138239720165729,0.193852886557579,-0.4678702078687027,1.1857883587513118,232
1724679522656856600,-1.8148031048327684,-0.8005196790605783,0.1545999754074961,8.462455405426025,-4.853388125920295,-1.0009504814684391,0.1917373836040496,-0.0493767112493515,-0.940945565700531,-0.5946244181483784,0.6245457048292039,0.4012193085652306,0.3088490374930965,-1.4227725267410278,0.0152658997103571,2.4465038776397705,-1.8473422693878407,-1.3221589961156248,1.148075225624442,0.1351486146450042,0.0476811043918132,-0.5846218794623389,0.1535026878118515,-0.4292593952497467,0.8731899246044457,233
1724679522696593000,-2.138181656995416,-1.2619947425320743,0.0612834668718278,8.611056651875376,-4.581952819223702,-1.0128291353106498,0.043552991002798,-0.1441957950592041,-0.6747656464576721,-0.5901963651338765,0.6172167083533567,0.4131385331784696,0.3162727928678812,-1.4924336671829224,-0.1370191872119903,2.267540216445923,-1.8966800085306168,-3.249137404537201,0.8013105371773243,0.1675434559583664,0.0702382400631904,-0.2917567581808194,0.0795797109603881,-0.5861791188417003,0.8620958452686667,234
1724679522736328200,-2.664593887540698,-1.400899355353415,0.2089819192625582,8.70351749342978,-4.392170252080262,-1.0620655329708009,-0.0305705517530441,-0.1482200175523758,-0.4322642982006073,-0.5856006858216325,0.613438779883311,0.4217145183997828,0.3208137210501535,-1.7881242036819458,-0.1738693416118621,1.888508915901184,-1.6897680274099112,-4.522608649851382,0.7337645027793943,0.1548180133104324,0.1498330384492874,-0.0955407330569345,0.164395272731781,-0.8137829191289842,1.1594991945017128,235
1724679522776066300,-2.914907788014412,-1.961611330385506,0.0910334390997886,8.753168536305427,-4.276929715701938,-1.122635225550085,-0.0762935578823089,-0.1690226644277572,-0.2102289497852325,-0.5815496821199779,0.6123514818187292,0.4269240315165972,0.323359811782543,-1.774906873703003,-0.2351801693439483,1.2604690790176392,-1.244457040014863,-6.116807640558481,-0.1268050097048282,0.1185594350099563,0.1990391016006469,0.2643195198746398,0.2874212265014648,-0.7536085825428366,1.1442166505001483,236
