time_imu,phone_acc_x,phone_acc_y,phone_acc_z,phone_gravity_x,phone_gravity_y,phone_gravity_z,phone_gyro_x,phone_gyro_y,phone_gyro_z,phone_ori_w,phone_ori_x,phone_ori_y,phone_ori_z,watch_gyro_x,watch_gyro_y,watch_gyro_z,watch_acc_x,watch_acc_y,watch_acc_z,headphone_gyro_x,headphone_gyro_y,headphone_gyro_z,headphone_acc_x,headphone_acc_y,headphone_acc_z,frame_imu
1724722423649329000,0.4680210510488599,21.460877831709382,-3.659861062675714,-0.1204129340475425,9.609874212968348,-1.9509506740309297,0.1302536875009536,0.563996434211731,0.0771829932928085,-0.348054088379136,-0.4176724108077396,-0.6519360061956507,-0.5285712807819885,-3.889968872070313,-0.2034868597984314,-1.1457794904708862,1.4867466239869591,-2.266516945007443,-0.7582640071332454,0.8359698057174683,-0.0102506587281823,17.951611819648743,0.5428467988967896,-3.2568867034897204,1.5745635852582751,0
1724722423689070300,0.1285413959102239,19.476762700831888,-4.78173655589968,-0.036664048765623,9.621317398002745,-1.8971888348355888,-0.5489775538444519,-0.3275494277477264,0.2613203227519989,-0.3448783564098687,-0.4170489922870666,-0.6502306118927368,-0.5332254064998042,-3.889968872070313,-0.2034868597984314,-1.1457794904708862,1.4867466239869591,-2.266516945007443,-0.7582640071332454,0.5006993412971497,0.4465157091617584,18.652548257929087,0.4634186625480652,-3.0233602716878054,0.4310483610257506,1
1724722423728811500,-1.0352307906024156,10.744641628730296,-3.236745540475845,0.0151511304660176,9.646025722801683,-1.767584695931524,-0.166291743516922,-0.7375736236572266,0.2684735655784607,-0.3557610509908163,-0.4278786227062149,-0.6379981365580936,-0.5322709950378254,-3.889968872070313,-0.2034868597984314,-1.1457794904708862,1.4867466239869591,-2.266516945007443,-0.7582640071332454,0.5942322611808777,1.554876446723938,9.619707624718547,-0.1846578568220138,-1.4644490135915575,-0.3616412819962948,2
1724722423768553700,0.7445546307325362,-3.04008958043158,-2.784278543846309,0.0286230916564585,9.6609532428205,-1.68390015828982,-0.2234387546777725,0.2507106065750122,-0.1119444817304611,-0.3568743625728846,-0.4263427917357293,-0.635678252985054,-0.5355236379606447,-3.889968872070313,-0.2034868597984314,-1.1457794904708862,1.4867466239869591,-2.266516945007443,-0.7582640071332454,0.3817048966884613,1.9525226354599,-8.261172370103,0.1478536427021026,1.678767471576482,0.025931962009496,3
1724722423808294700,0.7756452769797295,-12.130461196112632,-2.7281857774853706,0.0723510600594803,9.72428969669938,-1.2662398327559232,-2.0050323009490967,-0.1379920691251754,0.3104368150234222,-0.3642386591129252,-0.4193911240741663,-0.62343512294216,-0.5502454328526053,-3.889968872070313,-0.2034868597984314,-1.1457794904708862,1.4867466239869591,-2.266516945007443,-0.7582640071332454,0.6464799642562866,-1.4190478324890137,-11.30853924806118,0.4239676594734192,3.4571082470610737,0.3194385458325967,4
1724722423848032000,0.2971811761160381,-12.64272682788372,5.524345605522394,0.1931813610025681,9.784050045657157,-0.6367324077866972,-0.5869445204734802,-0.2941310107707977,0.1895201951265335,-0.3775382895426287,-0.4148329441941276,-0.6003148738149069,-0.5700881814914464,-3.889968872070313,-0.2034868597984314,-1.1457794904708862,1.4867466239869591,-2.266516945007443,-0.7582640071332454,0.0386489443480968,0.4015377163887024,-9.541466447174548,-0.1897677779197693,2.922113481609524,0.1537898098020814,5
1724722423931241000,0.2560080569947138,-10.085677369260788,-0.054381578528881,0.0592782736624125,9.767248548460008,-0.8762149715140461,0.1094249039888382,0.0673726350069046,-0.3325723111629486,-0.3754478262252296,-0.4143502022017091,-0.6107277948255417,-0.5606821777586353,-3.889968872070313,-0.2034868597984314,-1.1457794904708862,1.4867466239869591,-2.266516945007443,-0.7582640071332454,0.1329813152551651,0.1497360318899154,-9.323917336705328,-0.4830766916275024,3.082432053859532,-1.479911517269909,6
1724722423970982400,-0.1103909317895304,-10.193735592919587,1.17586748791337,-0.0310166585623752,9.766669871789215,-0.8840741605818271,0.1860155016183853,-0.0859885811805725,-0.1023251190781593,-0.3768741656140055,-0.4105827438606803,-0.6135935521433081,-0.5593662958146113,-3.889968872070313,-0.2034868597984314,-1.1457794904708862,1.4867466239869591,-2.266516945007443,-0.7582640071332454,0.2006586641073227,-0.1847953051328659,-9.911621948081256,-0.3936699032783508,3.389667280472815,-1.284152652195841,7
1724722424010723300,-0.1046494198623113,-10.539327145934104,0.0032863281942903,-0.0310718593483325,9.75776760340929,-0.977426617213711,0.1006851345300674,-0.3156492412090301,0.0944151431322097,-0.3778469511020573,-0.4156329893071253,-0.6140717435586884,-0.5544336423564594,-3.889968872070313,-0.2034868597984314,-1.1457794904708862,1.4867466239869591,-2.266516945007443,-0.7582640071332454,0.3109413385391235,-0.2577232718467712,-9.345739292412995,-0.4173924028873443,3.035465135501325,-1.0444294846456497,8
1724722424050464500,0.9037935179870576,-9.626066638356448,1.4995371319770812,-0.0483153783916728,9.753408239156007,-1.0193504268381743,0.2631327509880066,0.1178731471300125,-0.1978406757116317,-0.3789582804212999,-0.4175887320805285,-0.6144851984629878,-0.5517410737270313,-3.889968872070313,-0.2034868597984314,-1.1457794904708862,1.4867466239869591,-2.266516945007443,-0.7582640071332454,0.3782033324241638,-0.1903575360774994,-9.417585800483822,-0.4484812915325165,3.175204445581138,-0.7096781092710792,9
1724722424129948000,2.710795666745305,7.485676657661795,-0.3998176487207412,-0.2158876800630241,9.743447401633858,-1.0904229548618196,-0.2486182451248169,0.2082924246788025,-0.6280587911605835,-0.3783990382606859,-0.4094001079425603,-0.6228865479075589,-0.5488334226510797,-3.889968872070313,-0.2034868597984314,-1.1457794904708862,1.4867466239869591,-2.266516945007443,-0.7582640071332454,0.3912960290908813,0.3975943624973297,4.071159013570845,-1.619581699371338,-0.9073414927922188,-1.310813572367281,10
1724722424169689000,-0.1990285709271207,12.103016724348068,-0.6295405235212296,-0.3395170554064214,9.744072840055823,-1.052685344880819,-0.0712273865938186,0.1157777234911918,-0.1700020283460617,-0.3818063778453379,-0.4037276431911136,-0.6250408020295676,-0.5482260527143454,-3.889968872070313,-0.2034868597984314,-1.1457794904708862,1.4867466239869591,-2.266516945007443,-0.7582640071332454,1.048059105873108,1.676391839981079,16.16003235401511,-0.3695797026157379,-4.1108007036075,-1.6650956507071852,11
1724722424209430500,-0.8225637530863285,13.332888189649582,-0.1044400331616401,-0.3534381383290514,9.737639592137931,-1.1062775996629148,0.2952851951122284,-0.1684508621692657,-0.0389702208340168,-0.3807770556650283,-0.4039751434098422,-0.6270634281147709,-0.5464470762699623,-3.889968872070313,-0.2034868597984314,-1.1457794904708862,1.4867466239869591,-2.266516945007443,-0.7582640071332454,0.8881406784057617,1.2650071382522583,19.88749454227686,0.1301165223121643,-4.729553071936965,-1.7048993994377553,12
1724722424249172500,-1.6752752455465494,12.185878547430038,0.6987995723821222,-0.2851268003807403,9.710441788610815,-1.3402953951783478,0.8436586260795593,-0.1837993562221527,0.5868861675262451,-0.3746829784784822,-0.4115649521444468,-0.6316251545013267,-0.539700409879494,-3.889968872070313,-0.2034868597984314,-1.1457794904708862,1.4867466239869591,-2.266516945007443,-0.7582640071332454,0.519486129283905,1.066212773323059,7.861209175431727,0.0909920334815979,-1.7765211588419971,0.1153381241344381,13
1724722424288913700,-0.0645172839941689,6.160728615349531,-3.226182060885429,-0.0173346131265861,9.693225865393876,-1.4871025978177783,-0.2644686996936798,-0.1629733741283416,0.7032060027122498,-0.3670252782749852,-0.4265053883144434,-0.6276259122607408,-0.5380254554889988,-3.889968872070313,-0.2034868597984314,-1.1457794904708862,1.4867466239869591,-2.266516945007443,-0.7582640071332454,0.3222151100635528,0.811008870601654,-1.3059427514605224,0.0899948105216026,0.3581478503899649,-0.3547267899001017,14
1724722424328655000,1.0623512911096216,-2.067952520993352,-1.995279352840036,0.1898161771520972,9.727751235330103,-1.2268665843971074,-0.8608429431915283,-0.2073687016963958,0.3298834264278412,-0.3686558114143901,-0.4301303792239429,-0.6144433629529341,-0.5491266356157993,-3.889968872070313,-0.2034868597984314,-1.1457794904708862,1.4867466239869591,-2.266516945007443,-0.7582640071332454,0.2117945700883865,0.3897006213665008,-5.235933737322688,0.1696196943521499,1.4132067560017108,0.1627826973412185,15
1724722424368396000,0.6489265573188662,-6.5330597067296505,1.2688649205625055,0.213584682083968,9.757899705356358,-0.9529798659604042,-0.4453352391719818,-0.0344314873218536,-0.0473991893231868,-0.3763333448865887,-0.4281953312861276,-0.604348583087094,-0.5565831638462833,-3.889968872070313,-0.2034868597984314,-1.1457794904708862,1.4867466239869591,-2.266516945007443,-0.7582640071332454,0.0566255524754524,0.0281200855970382,-6.5854281918704505,0.3001347482204437,1.8567092326700687,-0.1432209233841858,16
1724722424408138200,0.3925240576464682,-10.001384636592864,1.924590928763151,0.1798397402020171,9.763909174904226,-0.8967303016025573,0.0843223482370376,0.209941029548645,-0.1603945195674896,-0.3769515818424991,-0.4243589139038108,-0.604681762319616,-0.5587369892026706,-3.889968872070313,-0.2034868597984314,-1.1457794904708862,1.4867466239869591,-2.266516945007443,-0.7582640071332454,-0.0715521797537803,0.1369692087173462,-5.144111193671822,0.2140158712863922,1.024547484024614,-0.1415817687418777,17
1724722424447879700,0.5508767366509885,-9.60047510098219,2.089755772000552,0.0675756166854407,9.751458858653905,-1.0367552967559546,0.7190999388694763,0.0038417077157646,-0.4264845550060272,-0.3758369763894217,-0.4221639225479706,-0.6120763286172447,-0.5530702693059127,-3.889968872070313,-0.2034868597984314,-1.1457794904708862,1.4867466239869591,-2.266516945007443,-0.7582640071332454,-0.0944581553339958,-0.2499231845140457,-6.574480096876621,0.4271236062049866,2.1768406196050343,-0.3893052417304367,18
1724722424527361800,-0.2325132727039977,6.048178340968489,-3.020833675819635,-0.1376901589976623,9.612743046402931,-1.935612088993192,0.9208003878593444,-0.3072887063026428,-0.2250041961669922,-0.3641861851400661,-0.4357058759124705,-0.6394131221122115,-0.5183432072283232,-3.889968872070313,-0.2034868597984314,-1.1457794904708862,1.4867466239869591,-2.266516945007443,-0.7582640071332454,-0.5225806832313538,-1.331928849220276,8.353629704526066,-0.3951707780361175,-1.607131537516415,-0.9214959826119244,19
1724722424567135000,-2.409633476435393,22.83343810454607,-4.495305047862232,-0.1473738235462456,9.567142740222812,-2.1490524489693343,0.2280797809362411,-0.0334033444523811,0.4043947458267212,-0.3617159903364421,-0.4421102330421458,-0.6435135773727749,-0.5095000298754762,-3.889968872070313,-0.2034868597984314,-1.1457794904708862,1.4867466239869591,-2.266516945007443,-0.7582640071332454,0.2804986834526062,-0.7189717888832092,18.27793402404785,-0.1538517028093338,-2.4533865473136305,-0.2585286980461329,20
1724722424606877200,1.5104694448798894,25.79427528456449,-7.622675144600867,-0.1869245838964358,9.606240824902056,-1.9635586650609969,-1.0172784328460691,-0.7050756216049194,-0.5595735907554626,-0.3711941124694005,-0.4424381988232967,-0.6358947022732928,-0.5119582099337959,-3.889968872070313,-0.2034868597984314,-1.1457794904708862,1.4867466239869591,-2.266516945007443,-0.7582640071332454,0.2937005758285522,0.2002273797988891,26.27556593235731,0.3767650127410888,-3.38659912507385,-0.1037416117018554,21
1724722424646619600,-0.8820916815277189,16.56854885749817,-1.3195159342609346,-0.3036365628005005,9.65379343419373,-1.6977764156900346,-0.4019546806812286,-0.3418914079666137,0.444797545671463,-0.3869102724696374,-0.4413953117769617,-0.6258855214854416,-0.5135541210079471,-3.889968872070313,-0.2034868597984314,-1.1457794904708862,1.4867466239869591,-2.266516945007443,-0.7582640071332454,0.6848699450492859,1.4869427680969238,9.519836799168589,-0.2015323489904403,-0.9864528772994876,0.8971553220815957,22
1724722424686361900,0.0750780738705769,-3.4372307034194467,-2.9226924505412577,-0.058617786759953,9.689238257062437,-1.5118180830098689,-0.6691684126853943,0.3204877376556396,0.4254751801490783,-0.3829795285474787,-0.4436463056584896,-0.6166516268656964,-0.5255904783756079,-3.889968872070313,-0.2034868597984314,-1.1457794904708862,1.4867466239869591,-2.266516945007443,-0.7582640071332454,0.2361177802085876,1.9260841608047483,-10.4968885186553,0.8078811764717102,1.6585821771599352,3.071870620095729,23
1724722424726105000,1.0612690488308667,-14.194489821660518,-4.599236839240789,0.0771738314402755,9.760577984654905,-0.9463326099656522,-2.3901429176330566,-0.2932922542095184,0.2836609184741974,-0.391954525140219,-0.4365351515261136,-0.5980690575478254,-0.5460056145583431,-3.889968872070313,-0.2034868597984314,-1.1457794904708862,1.4867466239869591,-2.266516945007443,-0.7582640071332454,-0.0529348216950893,-1.3944891691207886,-4.375842802135646,0.975441038608551,0.5469964246189222,1.737496723920852,24
1724722424765847800,1.2056471246272324,-13.32619424496889,6.71303399656415,0.1012878070752602,9.804023743149637,-0.2030504833869636,-0.5814739465713501,-0.3797703385353088,-0.042728416621685,-0.4118402928244468,-0.4264018657736437,-0.573178979732055,-0.5657161916126324,-3.889968872070313,-0.2034868597984314,-1.1457794904708862,1.4867466239869591,-2.266516945007443,-0.7582640071332454,0.1057530865073204,-0.0569881834089756,-11.792517527502774,0.4730552136898041,3.82323522310406,-1.5395099536642431,25
1724722424805590000,0.314877448462136,-11.31560611770749,3.017339403963089,0.0508366313644451,9.799628723061083,-0.3675561320632696,0.9170856475830078,-0.0084681687876582,-0.2799606919288635,-0.4119572073952475,-0.4306983482882603,-0.5772686374807041,-0.5581677378244293,-3.889968872070313,-0.2034868597984314,-1.1457794904708862,1.4867466239869591,-2.266516945007443,-0.7582640071332454,-0.1220737844705581,0.1930673569440841,-9.423431019380688,-0.525532603263855,2.549938165313005,-3.081226769722998,26
1724722424845329400,-0.0119648068888578,-10.023895743608474,-1.5022820467710494,-0.0794637233425863,9.787318692064284,-0.6103015700440854,0.1846693009138107,0.4585012793540954,-0.2867018282413482,-0.4075383370973828,-0.428972527621741,-0.5891513305691672,-0.5502688777588972,-3.889968872070313,-0.2034868597984314,-1.1457794904708862,1.4867466239869591,-2.266516945007443,-0.7582640071332454,0.0826713293790817,0.1502381861209869,-9.468992747116088,-0.6701022982597351,2.993666851952672,-1.2846741918519138,27
1724722424885072600,-0.333555881979689,-9.270518339473009,-0.265945696304366,-0.0752538916617864,9.787664729022978,-0.6052443597197532,-0.0333626121282577,0.5442436933517456,0.2536079585552215,-0.4010779919830642,-0.4220914446354476,-0.5938835638940104,-0.5552274268592648,-3.889968872070313,-0.2034868597984314,-1.1457794904708862,1.4867466239869591,-2.266516945007443,-0.7582640071332454,0.0518249943852424,0.0373033545911312,-9.978089101201297,-0.2473009675741195,3.2423134037360546,-1.0289555827904493,28
1724722424931024600,0.2909601279104128,-10.471478183066845,-0.2823147934336215,0.0847798220651224,9.789729844859242,-0.569571354118362,-0.1614805459976196,0.2887084484100342,0.1637046188116073,-0.3920567942623648,-0.4206829325688168,-0.5933514372940821,-0.5632508756929417,-3.889968872070313,-0.2034868597984314,-1.1457794904708862,1.4867466239869591,-2.266516945007443,-0.7582640071332454,0.0735314264893531,-0.0125872371718287,-9.650515435436368,-0.5029290914535522,2.886163631828129,-1.4393098961599171,29
1724722424970767000,0.6345408890917897,-9.77501859793961,0.6757751090168953,0.0832706139454152,9.789682498586178,-0.5705799466390162,0.2349972128868103,0.2642627954483032,-0.2162100076675415,-0.3885286583174707,-0.4169169414020532,-0.5960467643578267,-0.5656447266431428,-3.889968872070313,-0.2034868597984314,-1.1457794904708862,1.4867466239869591,-2.266516945007443,-0.7582640071332454,0.1634707748889923,-0.0107940658926963,-9.707313427457214,-0.5336652994155884,2.853157142022252,-0.3141288951171562,30
1724722425010509300,0.5270332485204562,-6.430424092641473,-1.1444739131968469,-0.0471452797329518,9.780659234175085,-0.7119295414596796,0.2795275151729584,0.2310004532337188,-0.4141436219215393,-0.3862345858249999,-0.4124579150388524,-0.6051254195386777,-0.5608247945916068,-3.889968872070313,-0.2034868597984314,-1.1457794904708862,1.4867466239869591,-2.266516945007443,-0.7582640071332454,0.5345599055290222,-2.8205690383911133,-7.016324284943938,-0.3879097700119018,3.85529391066581,-0.121750868120417,31
1724722425050252800,-0.3458424955682829,8.558793965196609,0.7956512693066149,-0.2494159287206828,9.780640529474615,-0.66875865438357,-0.212117001414299,0.2596356272697449,-0.3791688978672027,-0.3893522409687588,-0.4014366279169055,-0.6106929143742986,-0.5606314072463714,-3.889968872070313,-0.2034868597984314,-1.1457794904708862,1.4867466239869591,-2.266516945007443,-0.7582640071332454,0.8123392462730408,-3.901461362838745,0.5211371762191876,-0.1853456497192382,3.299052359046042,0.6498089661765843,32
1724722425129737500,1.425997410122305,16.580585332250593,1.2967232338249683,0.203107127211336,9.801571089300513,-0.2414792539699003,-0.4496258497238159,0.1441360712051391,0.4811235964298248,-0.3851653592843871,-0.4070540633627135,-0.588743581583869,-0.5825251135539791,-3.889968872070313,-0.2034868597984314,-1.1457794904708862,1.4867466239869591,-2.266516945007443,-0.7582640071332454,1.1506789922714231,1.0024222135543823,17.18907028132677,0.3528268039226532,-2.7886358622729777,-1.2205251794811338,33
1724722425169480000,1.6161182693094014,9.881054960381984,2.3335353022694587,0.2582422092549503,9.797637841504812,-0.3316830007798969,0.8962098956108093,-0.6527760624885559,-0.0201210733503103,-0.3840014288761971,-0.4128684939960534,-0.5886006570581344,-0.5793374538134729,-3.889968872070313,-0.2034868597984314,-1.1457794904708862,1.4867466239869591,-2.266516945007443,-0.7582640071332454,0.3727326989173889,0.9597681164741516,5.626037216758728,0.3904647827148437,-0.3237966314442455,1.4059588307000697,34
1724722425209223000,0.1281099730898626,0.3914157310783863,-0.0426023664731532,0.2254836663281545,9.785289232063294,-0.6063763594243675,0.1765340864658355,0.2206688821315765,-0.0599047467112541,-0.3837972192231217,-0.4221040860380751,-0.5939231684115205,-0.567259441025575,-3.889968872070313,-0.2034868597984314,-1.1457794904708862,1.4867466239869591,-2.266516945007443,-0.7582640071332454,0.1458692550659179,0.810954749584198,-1.3276364046134057,0.537818193435669,0.3604330387176945,0.0736479177698725,35
1724722425248965400,-0.7080811224032193,-5.474961689150333,0.4041817622143775,0.2293906471714377,9.78691771004796,-0.5779107279185205,-0.202693223953247,0.313328742980957,-0.0146639589220285,-0.3797404409597581,-0.4169074189392746,-0.5963668756084834,-0.5712546183370937,-3.889968872070313,-0.2034868597984314,-1.1457794904708862,1.4867466239869591,-2.266516945007443,-0.7582640071332454,0.1166138052940368,0.4376009404659271,-5.835154014447332,0.4855352342128753,1.3102077154286205,-0.0455734455726575,36
1724722425288707800,-0.3287102685794234,-8.526329034921526,0.7883014180004596,0.1931387822361663,9.791514390188455,-0.509226994727552,-0.0219466425478458,0.250454843044281,-0.1401312500238418,-0.3789369090215917,-0.4110161493611999,-0.5975191012148499,-0.5748420806103427,-3.889968872070313,-0.2034868597984314,-1.1457794904708862,1.4867466239869591,-2.266516945007443,-0.7582640071332454,0.052213467657566,0.3061478734016418,-8.043064456707238,0.3041893243789673,2.305460277516395,-0.7244954469136893,37
1724722425328451000,0.5649042025575414,-10.04583752630353,1.044678490970656,0.1517101083180401,9.78337433835268,-0.6580145575292408,0.8005407452583313,-0.1807580739259719,-0.1848052144050598,-0.3763895076195007,-0.4119540495705383,-0.6031942195408712,-0.5698961778210241,-3.889968872070313,-0.2034868597984314,-1.1457794904708862,1.4867466239869591,-2.266516945007443,-0.7582640071332454,-0.0066215675324201,-0.1502957195043563,-7.813563042637705,0.0850447788834571,2.453827569079399,-1.2536258503764868,38
1724722425368193300,0.5888378531895577,-8.847104711109399,-1.177969428628683,0.0227309488949249,9.7542078651011,-1.0125750874843449,0.850318193435669,-0.2123858332633972,-0.3819230198860168,-0.375868083687705,-0.4183375279253839,-0.6136942853080373,-0.5541626923993578,-3.889968872070313,-0.2034868597984314,-1.1457794904708862,1.4867466239869591,-2.266516945007443,-0.7582640071332454,0.0226710680872201,-0.4076381325721741,-5.7483227032125,-0.1390165835618972,1.532696328126639,-1.379848530148715,39
1724722425407935700,-0.1493075680878013,-2.7042279787927863,-0.1923392658889293,-0.1154014899605419,9.711308050051333,-1.3592533397570252,1.0756723880767822,-0.1739416569471359,-0.3616431355476379,-0.3734405037823713,-0.4219426735123089,-0.6255134004052996,-0.5396662042514339,-3.889968872070313,-0.2034868597984314,-1.1457794904708862,1.4867466239869591,-2.266516945007443,-0.7582640071332454,0.0827172026038169,0.2737804055213928,-5.115602892068028,0.0476491600275039,0.2467326627197675,-0.4984607591066509,40
1724722425447678200,-0.2745225869211368,8.163470705285668,-3.319917160159349,-0.2128470519918017,9.658667177709937,-1.683813941311091,0.1871810108423233,-0.5498855113983154,-0.1581984013319015,-0.3730152429209352,-0.4298018779557902,-0.6333411131847215,-0.5244130397983967,-3.889968872070313,-0.2034868597984314,-1.1457794904708862,1.4867466239869591,-2.266516945007443,-0.7582640071332454,-0.3166282176971435,-1.4871208667755127,5.759540847319364,-0.7629352807998657,-2.2001469686515627,-2.664448341590166,41
1724722425487421400,-0.0523302354896441,22.5403260958314,-0.0162450323581695,-0.3334356531335041,9.670365798810124,-1.5947531174585223,-0.0895102322101593,0.5135822892189026,0.0128235416486859,-0.3779842657999893,-0.4237913492091109,-0.6338064967186302,-0.5251839066778262,-3.889968872070313,-0.2034868597984314,-1.1457794904708862,1.4867466239869591,-2.266516945007443,-0.7582640071332454,1.034961819648743,-0.6893726587295532,17.953692717576025,-0.6437246203422546,-3.09466960414201,-1.8306074076861143,42
1724722425527164000,1.783070872746408,25.171111821794508,-3.5905905425727367,-0.2572163368059322,9.651653499555588,-1.7175035910755394,0.4661135077476501,-0.4252134263515472,0.0636616349220275,-0.373689065913447,-0.4292634855963583,-0.6350599753720583,-0.5222913040458722,-3.889968872070313,-0.2034868597984314,-1.1457794904708862,1.4867466239869591,-2.266516945007443,-0.7582640071332454,0.8028019070625305,-0.1908908635377884,23.439458709335327,0.424579918384552,-2.908781414088607,0.6916969007700682,43
1724722425566906000,-0.124422242754139,15.379229182815552,-4.919256728625297,-0.2736138563120737,9.63972983752787,-1.780766541326791,-0.5000399947166443,0.7527337670326233,0.0359539352357387,-0.3723245392051635,-0.4294581738868805,-0.6374633357941768,-0.5201736328645982,-3.889968872070313,-0.2034868597984314,-1.1457794904708862,1.4867466239869591,-2.266516945007443,-0.7582640071332454,0.8321278095245361,1.0413689613342283,14.355335048133131,0.3330691158771515,-1.68435213984102,1.077246077902615,44
1724722425606648600,-2.758798942413926,0.8061047857165337,-3.910970497441292,0.0662197633633855,9.719254040619733,-1.3046484738662838,-1.5825225114822388,-0.7626835107803345,1.3720505237579346,-0.3696123154149918,-0.4267743093769643,-0.6199856836733186,-0.5448561621555558,-3.889968872070313,-0.2034868597984314,-1.1457794904708862,1.4867466239869591,-2.266516945007443,-0.7582640071332454,0.4463485777378082,2.280632734298706,-5.433706718698144,0.5129056572914124,0.8244569464217871,1.847515580128133,45
1724722425765676000,-0.9183220287509262,-12.525807252377271,1.4236960013121365,0.1880905954685062,9.796715465962889,0.3991896164828911,-0.0164163652807474,0.3699844777584076,0.11115662753582,-0.4122394788353484,-0.406623582807255,-0.5606284475279976,-0.591955657356076,-3.889968872070313,-0.2034868597984314,-1.1457794904708862,1.4867466239869591,-2.266516945007443,-0.7582640071332454,0.1632540374994278,-0.0045813326723873,-9.636216860970857,-0.5544153451919556,2.342432894474268,-1.6711957211479544,46
1724722425805421300,-0.0662020541767589,-10.880304483151436,0.8949521129488944,0.2921546897235326,9.800070621609688,0.208924672649987,0.793383777141571,0.1522429436445236,0.2764301598072052,-0.4019029719286132,-0.4104909296439787,-0.5664318169433734,-0.5908690221271672,-3.889968872070313,-0.2034868597984314,-1.1457794904708862,1.4867466239869591,-2.266516945007443,-0.7582640071332454,0.0978567078709602,-0.061667688190937,-9.83102573184371,-0.1489098221063614,2.4088420337967573,-0.7757705107945948,47
1724722425845159400,0.0187957762869074,-10.723837325632571,-0.9440122041940688,0.3484149398721754,9.80042367283106,-0.0260879768384038,0.3349975347518921,0.1119595915079116,0.0305928010493516,-0.3940482694526965,-0.4157237036689567,-0.5731526138894089,-0.5859998159139213,-3.889968872070313,-0.2034868597984314,-1.1457794904708862,1.4867466239869591,-2.266516945007443,-0.7582640071332454,-0.0969727262854576,0.0176496617496013,-9.373628585335611,-0.1529087722301483,1.98429165648818,-1.7352043751999735,48
1724722425884904000,0.4155018688583746,-10.254910484850406,0.0439221438348293,0.3240071323897689,9.800611304357648,-0.115897803843813,0.4018729031085968,0.324485570192337,-0.2098571956157684,-0.3901190376089185,-0.4140915075567866,-0.578305600074076,-0.5847204931565527,-3.889968872070313,-0.2034868597984314,-1.1457794904708862,1.4867466239869591,-2.266516945007443,-0.7582640071332454,-0.2641319632530212,0.3389174342155456,-9.35861689416468,-0.4110721051692962,2.592754393732548,-1.686519985399395,49
1724722425932101000,0.474687742396444,-8.50534060742855,0.7618599857985973,0.1708487340927124,9.796413852667808,-0.4141013909433036,1.0134766101837158,0.6066631078720093,-0.488338828086853,-0.3832028458701772,-0.4101614851424795,-0.5940377520252913,-0.5762311364640713,-3.889968872070313,-0.2034868597984314,-1.1457794904708862,1.4867466239869591,-2.266516945007443,-0.7582640071332454,-0.4596413671970367,-0.5633339285850525,-10.012091908568143,-0.2916353046894073,4.006199342404305,-0.562233047119528,50
1724722425971845000,0.068359382907697,2.5336177296310662,-0.1474351983446628,0.025762400429137,9.77153250938952,-0.828800820844993,1.1065921783447266,0.4332203865051269,-0.441415399312973,-0.3724991320933792,-0.4070503103929909,-0.6136506540856278,-0.5647897743482923,-3.889968872070313,-0.2034868597984314,-1.1457794904708862,1.4867466239869591,-2.266516945007443,-0.7582640071332454,-0.4360541403293609,-0.8325986862182617,8.807759373670816,-0.9378121495246888,-2.481234046921134,0.1008757739419583,51
1724722426011589600,-1.433787917868048,14.659704948443174,-0.6244996798098087,-0.038646002663346,9.714764327985048,-1.3387453892573713,1.6899319887161257,0.2965797781944275,0.2674415409564972,-0.3589917330624915,-0.4093399879997019,-0.6330069428440769,-0.5503343633963645,-3.889968872070313,-0.2034868597984314,-1.1457794904708862,1.4867466239869591,-2.266516945007443,-0.7582640071332454,-0.0305159650743007,1.6388479471206665,6.179540283325315,0.3170902132987976,-0.3592942439461126,1.3247734163977205,52
1724722426051335000,0.6811553407505154,15.494980883586406,-9.892511589419842,0.1096792489893734,9.643688219764828,-1.7769769397854804,-0.3643922805786133,-0.415737509727478,0.2733372449874878,-0.3480263151303698,-0.42531558498214,-0.6400837928038186,-0.5369144635562322,-3.889968872070313,-0.2034868597984314,-1.1457794904708862,1.4867466239869591,-2.266516945007443,-0.7582640071332454,-0.503785252571106,0.883343517780304,24.18782208470106,-0.5943091511726379,-5.606850285729766,-1.3839547964237628,53
1724722426091079000,1.6145209171153605,13.625003004020453,-3.4708009645879265,0.1021216823498252,9.750634098267554,-1.0416702490653842,-2.4060726165771484,1.1017568111419678,-0.4917826354503631,-0.3585778912686835,-0.4054747918108111,-0.6234585746639167,-0.5641909737094619,-3.889968872070313,-0.2034868597984314,-1.1457794904708862,1.4867466239869591,-2.266516945007443,-0.7582640071332454,-0.3092143833637237,0.3048210442066192,12.05280629402399,-0.4553720355033874,-1.4853586767598983,0.4662922179622575,54
1724722426130823400,0.1480030522273387,8.510634037661552,4.650341588056087,0.0091166041087068,9.789145322969556,-0.5855863405803218,0.1959661990404129,0.0388722270727157,-0.0173181258141994,-0.3630125774433572,-0.3859518677553412,-0.617169141592047,-0.5816916486502605,-3.889968872070313,-0.2034868597984314,-1.1457794904708862,1.4867466239869591,-2.266516945007443,-0.7582640071332454,-0.2395098358392715,0.5669845342636108,5.618171305689216,-0.1625124514102935,-1.2768290313094854,-0.3593238718993962,55
1724722426170567400,0.6093243225097655,1.1123200216323137,0.2002010853052139,-0.0047884746730822,9.767381234928964,-0.8767129110988229,0.7383466362953186,-0.6490516066551208,-0.1151067018508911,-0.3623508123426965,-0.3960266192026525,-0.6227863473587222,-0.5692117238544361,-3.889968872070313,-0.2034868597984314,-1.1457794904708862,1.4867466239869591,-2.266516945007443,-0.7582640071332454,-0.2181242108345031,0.8244199752807617,-2.135615459769219,-0.1295954287052154,0.5200931470589713,-0.5894410797797143,56
1724722426210313000,0.8241537256915121,-2.318924008592963,-0.9565173193715512,-0.126992074975837,9.768480720603463,-0.85499573093988,-0.9016311168670654,0.5660256743431091,-0.5503689050674438,-0.3678167128810514,-0.393340516643799,-0.6235991407222179,-0.566672851482351,-3.889968872070313,-0.2034868597984314,-1.1457794904708862,1.4867466239869591,-2.266516945007443,-0.7582640071332454,-0.1433015167713165,0.2657118141651153,-4.693267998851836,-0.0288836602121591,1.234099019868672,0.0411354494254803,57
1724722426250057200,-0.0844553758837282,-5.130509369298816,-0.2636533110508695,-0.3849580428389832,9.79336790910065,-0.3348969943903386,-1.42814040184021,1.2568119764328003,-0.7123540043830872,-0.3728842944312317,-0.361712055958051,-0.621481603695838,-0.5864148796400247,-3.889968872070313,-0.2034868597984314,-1.1457794904708862,1.4867466239869591,-2.266516945007443,-0.7582640071332454,-0.2415256053209304,0.2058544754981994,-3.552552196079493,0.0360296405851841,0.6915897140685469,0.328316081630066,58
1724722426329546800,0.0038781931402161,-4.489546045944095,1.29951724845767,-0.2848977043326012,9.795845112869143,-0.3614398411400616,0.9123090505599976,0.3787060678005218,0.3151603639125824,-0.3652493976810109,-0.3610106188314764,-0.6229764326983297,-0.5900547381469506,-3.889968872070313,-0.2034868597984314,-1.1457794904708862,1.4867466239869591,-2.266516945007443,-0.7582640071332454,-0.2860805988311767,0.2505797445774078,-1.9130581657491623,-0.0865237042307853,0.2287332244423218,0.1312000663259998,59
1724722426369291000,0.0901769318683072,-1.6398241390675306,-0.4629705627262592,-0.2303874396564438,9.78624492535293,-0.5888325559599324,-0.0473479479551315,0.7405346035957336,0.1751888245344162,-0.3522817153957887,-0.3593064472588225,-0.6331832132381322,-0.5881118453112446,-3.889968872070313,-0.2034868597984314,-1.1457794904708862,1.4867466239869591,-2.266516945007443,-0.7582640071332454,-0.2648910582065582,0.0098552741110324,-0.5275372525198385,-0.236768439412117,0.0988855956385843,0.366059427232109,60
1724722426409035300,0.8960548865590244,0.9749959560006856,0.6595312457025051,-0.1038735675184521,9.7971170325011,-0.4196621303429826,-0.5092145204544067,0.5861403346061707,0.3171363174915313,-0.3413943430172608,-0.3496518830051267,-0.6317755726996561,-0.6017085523378353,-3.889968872070313,-0.2034868597984314,-1.1457794904708862,1.4867466239869591,-2.266516945007443,-0.7582640071332454,-0.251396507024765,0.1772444397211074,2.2602171142108736,-0.2031534910202026,-0.9697221803162246,0.7148345421861857,61
1724722426448779500,1.5175670019254088,1.5403578026652336,3.5911294717550275,0.1326365471362136,9.792297649520634,-0.5135334597498178,0.9927273392677308,-0.1415374428033828,0.6344691514968872,-0.3314262032818371,-0.3578394083696817,-0.6309785077629871,-0.60330245338932,-3.889968872070313,-0.2034868597984314,-1.1457794904708862,1.4867466239869591,-2.266516945007443,-0.7582640071332454,-0.1838031262159347,0.3337064683437347,0.2028130396355874,-0.0877055078744888,-0.0915676738406531,0.5562873269902542,62
1724722426488524800,0.8015756178542971,0.0849175865679979,-1.3860767570137975,0.3018520722702145,9.759589558139442,-0.910860606829077,0.7624308466911316,-0.3544417917728424,0.4704669713973999,-0.3210980488191684,-0.3723649132428621,-0.6385807201727041,-0.5919923936795269,-3.889968872070313,-0.2034868597984314,-1.1457794904708862,1.4867466239869591,-2.266516945007443,-0.7582640071332454,-0.2057664692401886,0.0899050012230873,-0.6022451413711533,-0.1444781571626663,0.1880549213669262,0.0922479020566213,63
1724722426528269000,0.9954283570460974,0.6116448744118214,-1.3149334287762642,0.4583008904147893,9.727714994972944,-1.1540872524555772,0.4041601419448852,-0.401429146528244,0.2611320316791534,-0.3176314977799572,-0.3879968006299094,-0.6389840036922837,-0.5833251390752584,-3.889968872070313,-0.2034868597984314,-1.1457794904708862,1.4867466239869591,-2.266516945007443,-0.7582640071332454,-0.2383883446455001,0.0335152484476566,-0.7483841989580542,-0.2459554225206375,0.3360809434778988,0.0185426965749822,64
1724722426568013300,-1.0260431294098495,0.0020358897417783,-0.88945395392403,0.5771301720000803,9.726502112051843,-1.1101531989872455,-0.380950391292572,0.4441729485988617,0.4081707298755646,-0.3137787886831723,-0.389918947351621,-0.636054458315614,-0.5873165414932814,-3.889968872070313,-0.2034868597984314,-1.1457794904708862,1.4867466239869591,-2.266516945007443,-0.7582640071332454,-0.3375943005084991,-0.0818331390619278,-0.1155736955891363,-0.2570269405841827,-0.119422279042378,0.1510775186360813,65
1724722426607758600,-0.5735182651132344,0.1438514215737581,-0.0326455475389957,0.7168711625803261,9.730135500118136,-0.9904271146927028,-0.2134763747453689,0.3187108039855957,0.2372664958238601,-0.3083582591676638,-0.3887313446400769,-0.6319696750006618,-0.5953297297389667,-3.889968872070313,-0.2034868597984314,-1.1457794904708862,1.4867466239869591,-2.266516945007443,-0.7582640071332454,-0.3583222925662994,0.0825153365731239,-0.0368181775981211,-0.2647776007652282,-0.1056281195682007,0.0674251890638144,66
1724722426647502800,0.0284484611753374,0.894302124607563,-0.4729997893095016,0.7249768006898463,9.73954454897642,-0.8866082091040909,-0.1738216876983642,-0.1026513427495956,-0.193282276391983,-0.3087508496146299,-0.3858454145446897,-0.6295456722758566,-0.5995569304982787,-3.889968872070313,-0.2034868597984314,-1.1457794904708862,1.4867466239869591,-2.266516945007443,-0.7582640071332454,-0.3014135062694549,0.0165669787675142,0.0208586887496407,-0.1882334053516388,0.009080225612584,0.256857933556009,67
1724722426687247400,0.9397446829427032,0.6045768357217312,0.2494318569421768,0.5597735982034355,9.754684834963085,-0.8385548837486654,-0.0972863957285881,-0.5261183977127075,-0.5264049172401428,-0.3196767535902042,-0.3849082541647252,-0.6281719804772039,-0.5958627485391987,-3.889968872070313,-0.2034868597984314,-1.1457794904708862,1.4867466239869591,-2.266516945007443,-0.7582640071332454,-0.2224468290805816,0.0026861175429075,0.0137898531918181,-0.0696732550859451,0.0349337064252351,0.1261889601657167,68
1724722426726987500,0.3434215520316734,0.2607657363831996,1.128387943857908,0.3501487779274582,9.765402628332376,-0.8274666496317833,0.0045591820962727,-0.2079842835664749,-0.4754871428012848,-0.3308002717750314,-0.3827819144185631,-0.6290207196179218,-0.5902390803117359,-3.889968872070313,-0.2034868597984314,-1.1457794904708862,1.4867466239869591,-2.266516945007443,-0.7582640071332454,-0.1012480780482292,-0.0699243694543838,-0.126826746612601,-0.0656547620892524,0.1563851052585989,-0.0541450343932257,69
1724722426766732800,-0.400581764961034,-0.3515174359321594,1.4390589901387691,0.2258049524380825,9.762675249195098,-0.899765504579991,0.3731752634048462,0.4001273214817047,-0.1278182417154312,-0.3317367733328833,-0.3784814584832845,-0.6345290070709586,-0.5865794712406538,-3.889968872070313,-0.2034868597984314,-1.1457794904708862,1.4867466239869591,-2.266516945007443,-0.7582640071332454,-0.0252898819744586,-0.1204000934958458,0.0265007429073564,-0.0894661545753479,0.0953921640322543,0.00340237348488,70
1724722426806477000,0.4907714467130601,-0.3055535571366548,0.6794190184772014,0.2039960571413859,9.749033092811704,-1.0416922417014836,0.3753160536289215,-0.0608676262199878,-0.1285376697778701,-0.3271149914759446,-0.3774101278724092,-0.6408378241872597,-0.58299591647967,-3.889968872070313,-0.2034868597984314,-1.1457794904708862,1.4867466239869591,-2.266516945007443,-0.7582640071332454,0.0021240008063614,-0.0837788060307502,0.1456871125683188,-0.1378006488084793,0.0369944200810161,0.0654158722351305,71
1724722426846213000,-0.3007377178201452,-0.3031792292207479,0.3138241034843027,0.1695055575891397,9.728252170589563,-1.2258652984000742,0.4278986752033233,-0.0483590811491012,-0.0449606850743293,-0.3250612909527927,-0.3799095870452688,-0.6466609916430213,-0.5760497816584982,-3.889968872070313,-0.2034868597984314,-1.1457794904708862,1.4867466239869591,-2.266516945007443,-0.7582640071332454,-0.0062886234372854,-0.0538387447595596,-0.068278490558057,-0.1414334923028946,0.1296916071249637,0.2651887404572218,72
1724722426885958100,0.4733589049454778,-0.3880062148958444,-0.8247324754275381,0.1789112089139409,9.721652918455003,-1.2758797677606344,-0.0469686985015869,2.084014654159546,0.0576292611658573,-0.3165569622231441,-0.3728817058231625,-0.6526951810410623,-0.5785672342220562,-3.889968872070313,-0.2034868597984314,-1.1457794904708862,1.4867466239869591,-2.266516945007443,-0.7582640071332454,-0.0508252158761024,-0.161836951971054,-0.2374177766846492,-0.0946200340986251,0.1665197101787663,0.3883126139638945,73
1724722426926944300,-0.8866149311058222,0.0490203437566757,0.1762789424479007,0.4588009854240342,9.72156699373722,-1.204588482419774,-0.1015451028943061,3.0774950981140137,0.5087935924530029,-0.2752150531709424,-0.343160231958631,-0.6660765546395064,-0.6023618561582026,-3.889968872070313,-0.2034868597984314,-1.1457794904708862,1.4867466239869591,-2.266516945007443,-0.7582640071332454,-0.0557751692831516,-0.2008284777402877,-0.0618846796014113,-0.0926385000348091,-0.0382848868665285,0.2884609863047488,74
1724722426966688500,-0.4606528603684157,0.173773681628704,0.696520813795179,0.7793808102462441,9.71263433021903,-1.1080238588083535,-0.0964028388261795,1.8503618240356443,0.4797789454460144,-0.234540036151833,-0.31772666330883,-0.6749394507936428,-0.6232957674483566,-3.889968872070313,-0.2034868597984314,-1.1457794904708862,1.4867466239869591,-2.266516945007443,-0.7582640071332454,-0.0299008172005414,-0.1932024508714676,-0.0106689298509329,-0.0897062569856643,-0.0739949137097923,0.3516214808285236,75
1724722427006433500,0.5933342147607356,0.0894406169503927,1.7506465667426585,0.9443417284093796,9.69685808441639,-1.117829871094972,0.4778341650962829,0.6328464150428772,0.0753683149814605,-0.2140505079698853,-0.3073799680863926,-0.6800816247182361,-0.6302292506837766,-3.889968872070313,-0.2034868597984314,-1.1457794904708862,1.4867466239869591,-2.266516945007443,-0.7582640071332454,-0.0205404069274663,-0.1865524351596832,0.1093725759266875,-0.0933281779289245,-0.146525709683774,0.2640974746217951,76
1724722427046177500,-0.557861042580381,-0.3059159607082605,-1.2376200336016714,0.9596379356101156,9.68415467018783,-1.2110498604536055,-0.1805111914873123,0.0684947818517685,0.0174981970340013,-0.2096151075593877,-0.3062665533541604,-0.6840666320400521,-0.6279452243615709,-3.889968872070313,-0.2034868597984314,-1.1457794904708862,1.4867466239869591,-2.266516945007443,-0.7582640071332454,0.0014198828721418,-0.1517981439828872,0.0461490261040627,-0.1381202191114425,-0.0696546788486652,0.4343352006766945,77
1724722427085921800,0.8739647814344614,0.6765414172142744,1.1280571775335817,1.0749152968674898,9.690800684073569,-1.0503959187693894,-0.1928727626800537,1.0769293308258057,0.1077539771795272,-0.2009563079375538,-0.3006302685369438,-0.6805708846061499,-0.6372293861466956,-3.889968872070313,-0.2034868597984314,-1.1457794904708862,1.4867466239869591,-2.266516945007443,-0.7582640071332454,-0.0721431747078895,-0.1745181530714035,-0.0729095798582304,-0.1298148334026336,0.0379952517036115,0.3652142085796221,78
1724722427125665800,0.1167940494306385,0.1190332066595554,0.7033084281086921,1.0876389501664787,9.69764251279235,-0.9711597388386726,-0.0114331357181072,0.4172070622444153,-0.0969973057508468,-0.1921568822245986,-0.2900704771584342,-0.6821836161297117,-0.6430865799972243,-3.889968872070313,-0.2034868597984314,-1.1457794904708862,1.4867466239869591,-2.266516945007443,-0.7582640071332454,-0.0898126065731048,-0.1482262462377548,-0.0404987498239846,-0.1840802878141403,0.066433771440247,0.124128027314227,79
1724722427165411300,0.7824315761189907,0.3223223211079836,1.0900608435511587,1.0720271011453122,9.695615975400806,-1.008059363625571,0.2538684606552124,0.6243277788162231,-0.1283344626426696,-0.1863432633217088,-0.2837255054129692,-0.6862190319365246,-0.6433346994449427,-3.889968872070313,-0.2034868597984314,-1.1457794904708862,1.4867466239869591,-2.266516945007443,-0.7582640071332454,-0.0861910507082939,-0.2211271673440933,-0.0827839172738604,-0.1695447862148285,0.2449083881683647,0.005206165224791,80
1724722427244899300,-0.2209817152664065,-0.1889151366591453,-0.2646424316860735,1.264404726283252,9.680579149788615,-0.9263230374421924,-0.0123506113886833,1.958118557929993,0.350352942943573,-0.1439353971693822,-0.2504953367331609,-0.6960469928009786,-0.6573076590074315,-3.889968872070313,-0.2034868597984314,-1.1457794904708862,1.4867466239869591,-2.266516945007443,-0.7582640071332454,0.0051720165647566,-0.1098231598734855,0.1089368331242352,-0.2114453762769699,-0.0628755675020162,-0.1369527937669772,81
1724722427324388900,0.2233104504749178,0.280916544008255,-0.4765992751061916,1.6890581255748869,9.645742814207075,-0.5264214002324268,-0.2468262016773224,2.7799530029296875,0.452238529920578,-0.0725844022477741,-0.1999401116560266,-0.6977563860537734,-0.6840259664503341,-3.889968872070313,-0.2034868597984314,-1.1457794904708862,1.4867466239869591,-2.266516945007443,-0.7582640071332454,0.0189479850232601,-0.1260590106248855,0.1615830574941821,-0.3194012343883514,-0.0603513782200636,-0.1056106843762099,82
1724722427364132900,-0.2690864054828882,-0.0634264702498912,-0.6713315736114979,1.8959462874285875,9.619134208744764,-0.2191614958356134,-0.4380459189414978,2.020688056945801,0.4938888251781463,-0.0350038491071012,-0.1732065435578406,-0.6936667930516922,-0.6982840561626819,-3.889968872070313,-0.2034868597984314,-1.1457794904708862,1.4867466239869591,-2.266516945007443,-0.7582640071332454,0.0135856689885258,-0.1024684607982635,-0.0348722676947363,-0.3152234852313995,-0.0585206967607606,-0.1093604470974765,83
1724722427403878000,0.4403701699919998,0.1189671556860208,-0.2157002494658343,2.1128964090913533,9.575605448141694,0.117687518538488,-0.4278026819229126,2.524099111557007,0.5416736602783203,0.0012007317027809,-0.1502852432150903,-0.6865959161870477,-0.7113360977351783,-3.889968872070313,-0.2034868597984314,-1.1457794904708862,1.4867466239869591,-2.266516945007443,-0.7582640071332454,0.0162986144423484,-0.0465123355388641,-0.0691692197195487,-0.3181690275669098,-0.0646741185236955,-0.1010017658086493,84
1724722427443622100,-0.4336250796459615,-0.3112327718168496,-0.5078314487159252,2.285839192853868,9.522325108852982,0.5202512967627495,-0.4782941043376922,2.4280924797058105,0.5642737746238708,0.0426543072486898,-0.1210058854204845,-0.6773714943219902,-0.7243660256642955,-3.889968872070313,-0.2034868597984314,-1.1457794904708862,1.4867466239869591,-2.266516945007443,-0.7582640071332454,-0.008857780136168,-0.0411416552960872,-0.1220273652405478,-0.3196073770523071,0.0050601569083111,-0.134881092926301,85
1724722427523110400,-0.2776251012474298,-0.3135655986785888,-1.1609138105399903,2.526977268703282,9.383848366054892,1.314591337340325,-0.836438000202179,1.3884457349777222,0.4542407393455505,0.1005383249585444,-0.0847359184658297,-0.6525291724574784,-0.7462690411975001,-3.889968872070313,-0.2034868597984314,-1.1457794904708862,1.4867466239869591,-2.266516945007443,-0.7582640071332454,-0.0596953108906745,-0.0434323772788047,0.0383090988591779,-0.3646194040775299,-0.1252803482876625,-0.2093510813685133,86
1724722427562855400,-1.4845347931563853,-0.6281459273576736,-0.6388309875011444,2.66906606451869,9.26133783867359,1.8094459617137908,-0.9391717314720154,1.6114583015441897,0.879653811454773,0.129948707957012,-0.0706838815319123,-0.6346240747971189,-0.7585310864542262,-3.889968872070313,-0.2034868597984314,-1.1457794904708862,1.4867466239869591,-2.266516945007443,-0.7582640071332454,0.0016688167816028,0.0243805404752492,-0.0064891605190787,-0.3227118849754333,-0.1099148113109171,-0.1294871431945823,87
1724722427602599700,-1.7667153657510877,-0.7720885343462228,-0.2390013560816645,2.984166617679596,9.049441054877638,2.317916146724671,-0.8595961332321167,1.7127608060836792,1.5593059062957764,0.1660102329493687,-0.0652467814867781,-0.614460757370932,-0.7685189203465758,-3.889968872070313,-0.2034868597984314,-1.1457794904708862,1.4867466239869591,-2.266516945007443,-0.7582640071332454,0.0332037061452865,0.0548443160951137,-0.0456372497901786,-0.2990290224552154,-0.0718717338436283,-0.1633594925821758,88
1724722427642343700,-1.0910007547497749,-1.107466736382246,0.2953916440844535,3.4183141137644646,8.736739964073896,2.855676723627746,-0.7468105554580688,2.0163140296936035,2.0639760494232178,0.2159076847721631,-0.0599605638408846,-0.5922885633391989,-0.7739398310501285,-3.889968872070313,-0.2034868597984314,-1.1457794904708862,1.4867466239869591,-2.266516945007443,-0.7582640071332454,0.0714000537991523,0.0420411042869091,-0.1871370576033368,-0.3438902199268341,0.1042163074083626,-0.1973708668479696,89
1724722427682089000,-0.9264905760288238,-1.3403484405398367,0.8680079919219017,3.944681043863296,8.34189192045927,3.3200492621064184,-0.2774531543254852,1.8869699239730835,2.210336685180664,0.2725910731369412,-0.0585658039752658,-0.5720967018121408,-0.7713427317850869,-3.889968872070313,-0.2034868597984314,-1.1457794904708862,1.4867466239869591,-2.266516945007443,-0.7582640071332454,0.0620185360312461,-0.0147655270993709,-0.0223932299567153,-0.3839645385742187,0.0510653849192895,-0.0981798676551785,90
1724722427721833000,-0.4529226314425468,-1.6544535529226063,0.3752162914276122,4.39647204092741,7.970956667351722,3.6476410480499264,-0.0597152970731258,1.327351689338684,2.067915916442871,0.3238634248756404,-0.0572232549935412,-0.5574473703337751,-0.7622929353553589,-3.889968872070313,-0.2034868597984314,-1.1457794904708862,1.4867466239869591,-2.266516945007443,-0.7582640071332454,0.0781341046094894,0.0548316463828086,-0.0097739366479218,-0.4430817663669586,-0.0418663027169881,-0.0709247809828724,91
1724722427801361200,-0.340725408282876,-1.0522586439013482,1.1403735652059317,5.226393171039224,7.28182172602415,3.97872885941565,0.546209454536438,0.7816863059997559,1.9045230150222776,0.4034593448031309,-0.0655014307265949,-0.541156952497155,-0.7349009149738852,-3.889968872070313,-0.2034868597984314,-1.1457794904708862,1.4867466239869591,-2.266516945007443,-0.7582640071332454,-0.0458262749016284,0.0553458742797374,-0.0794068603225052,-0.5539597868919373,-0.0082851690988667,0.0960077751799486,92
1724722427841097500,0.516640193593502,-0.3365840706944465,0.8124269744753837,5.64992545734644,7.014910326492786,3.878113645239174,0.8398327827453613,0.3911511301994324,1.7113903760910034,0.4368126542804631,-0.0700387869003552,-0.5453125737760632,-0.7119856069270154,-3.889968872070313,-0.2034868597984314,-1.1457794904708862,1.4867466239869591,-2.266516945007443,-0.7582640071332454,-0.0656455308198928,0.0148085374385118,-0.2233082402515225,-0.607989490032196,0.1812147548822686,-0.0257638457508408,93
1724722427880843300,0.0910953984200954,-0.3917839798688888,0.0588829816013574,6.0696349704951045,6.687487467375397,3.821968564169109,0.3089915215969085,0.6351332068443298,1.8566384315490725,0.4676612157750353,-0.0778384110429483,-0.5468775088830169,-0.690042957245561,-3.889968872070313,-0.2034868597984314,-1.1457794904708862,1.4867466239869591,-2.266516945007443,-0.7582640071332454,-0.0698888450860977,-0.0885263904929161,-0.2438951377389021,-0.651753306388855,0.1433701317296829,-0.0173982038566202,94
1724722427928042000,-0.5770137060135603,-0.5805225909173488,0.4899567693293094,6.489644343373179,6.117862118047476,4.077581155572831,-0.0542317852377891,0.905060887336731,1.9642858505249023,0.5117609515724348,-0.0866528859747567,-0.5334721152669913,-0.6678319482113916,-3.889968872070313,-0.2034868597984314,-1.1457794904708862,1.4867466239869591,-2.266516945007443,-0.7582640071332454,-0.1309448182582855,-0.0760327130556106,-0.1072745168020483,-0.7413175702095032,0.0519821527043357,-0.0288327637682086,95
1724722427967787500,1.7736293829232452,0.1675637210726737,0.2718497327163815,6.7902803178519004,5.658276521584392,4.248103726451099,0.1603299081325531,0.2696596384048462,1.349008083343506,0.5416080019926219,-0.0962698949799385,-0.523582942585594,-0.6505795590708519,-3.889968872070313,-0.2034868597984314,-1.1457794904708862,1.4867466239869591,-2.266516945007443,-0.7582640071332454,-0.2222858667373657,-0.0238565560430288,0.0750674976776354,-0.6993715167045593,-0.0890447495006024,0.1327368748386856,96
1724722428007533000,0.1130477025091648,0.3026695261329412,-0.0726943570718169,7.006708899858594,5.399420418214798,4.233517274954915,0.2720139026641845,0.1567647755146026,1.0249485969543457,0.5570841198122783,-0.1035528075283159,-0.5229029650973358,-0.6367939736707958,-3.889968872070313,-0.2034868597984314,-1.1457794904708862,1.4867466239869591,-2.266516945007443,-0.7582640071332454,-0.2417482882738113,0.0320528224110603,-0.0497852911140304,-0.6912528276443481,0.0739442338353255,-0.0949788979230914,97
1724722428047279600,0.8059072173178196,-0.2006505826383829,0.7643149777352809,7.162743511179089,5.158742361092568,4.272336834953725,0.6636284589767456,0.7621356844902039,1.119556188583374,0.5769743444327549,-0.1042329636861039,-0.5208713244717603,-0.6204265912685624,-3.889968872070313,-0.2034868597984314,-1.1457794904708862,1.4867466239869591,-2.266516945007443,-0.7582640071332454,-0.2672251760959625,-0.0204274244606494,-0.1742104656107723,-0.590144693851471,0.2169174432358704,-0.0613636788014555,98
1724722428126770700,-0.2483680271029472,0.0914750453874468,0.7767734772920608,7.32024118078947,4.617021794517338,4.611676634097099,0.3439940512180328,0.9678526520729064,1.4212565422058103,0.6247783912903787,-0.0980484264612884,-0.5052290845387672,-0.5871814258519857,-3.889968872070313,-0.2034868597984314,-1.1457794904708862,1.4867466239869591,-2.266516945007443,-0.7582640071332454,-0.1991468369960785,-0.0075804889202117,-0.1633015518498607,-0.5022587180137634,0.1781503623429685,-0.4072330395437776,99
1724722428166517200,0.0190682730853557,0.2573834004685282,0.8141492682233452,7.376021520200371,4.421783884577453,4.713014609590172,0.8871110081672668,0.8026096820831299,1.103407859802246,0.643296852303825,-0.0943501674820557,-0.500800527567112,-0.5713720187233832,-3.889968872070313,-0.2034868597984314,-1.1457794904708862,1.4867466239869591,-2.266516945007443,-0.7582640071332454,-0.1539577543735504,0.1014743819832801,-0.0875347376632969,-0.405366837978363,0.066223900682386,-0.4201411094989627,100
1724722428206262800,0.1139250698655843,0.7406225519806147,-0.9756506205171346,7.469559051075577,4.333588299252092,4.647158866366744,0.3451709747314453,-0.209620788693428,0.5955249071121216,0.6556133308628403,-0.089823213753611,-0.5049679466821688,-0.5541754036135378,-3.889968872070313,-0.2034868597984314,-1.1457794904708862,1.4867466239869591,-2.266516945007443,-0.7582640071332454,-0.0729869306087493,0.112169437110424,-0.4093664348432794,-0.3892223238945007,0.2858047361749224,-0.6463586795922368,101
1724722428246008300,0.1358779584765434,-0.0388251129567623,-1.0007534975916146,7.610561512959003,4.111062861675024,4.620487132540345,-0.5677880048751831,-0.2117795944213867,0.5909003615379333,0.6611563357249874,-0.0997876389488671,-0.5044434008548523,-0.546307266211729,-3.889968872070313,-0.2034868597984314,-1.1457794904708862,1.4867466239869591,-2.266516945007443,-0.7582640071332454,-0.014392839744687,0.0414408631622791,-0.3815747936088591,-0.3255251049995422,0.2834136945862323,-0.3914435689333826,102
1724722428285755000,-1.0013450337439775,0.017486264590919,-0.5483756405502558,7.668747744467854,3.707442605800927,4.859584350211918,-1.2878854274749756,0.2457045465707779,0.9832138419151306,0.6690089278977034,-0.117372458608108,-0.4883173695333282,-0.547902271148066,-3.889968872070313,-0.2034868597984314,-1.1457794904708862,1.4867466239869591,-2.266516945007443,-0.7582640071332454,-0.056593008339405,0.0233478415757417,-0.2083834053801372,-0.2729593813419342,0.1355150525814387,-0.3163690387267619,103
1724722428325500400,-1.3664233775168655,0.9743512283563612,2.3267133472949264,7.811613662135601,3.100579997229576,5.053263632532954,0.1764041036367416,0.2172023952007293,1.8610687255859373,0.6855305228986888,-0.1389222182812496,-0.4722879115765461,-0.5363698555246956,-3.889968872070313,-0.2034868597984314,-1.1457794904708862,1.4867466239869591,-2.266516945007443,-0.7582640071332454,-0.1012509763240814,0.0562713034451007,-0.1989927872276864,-0.2468250393867492,0.0296247726624249,-0.2241218033904209,104
1724722428365246000,0.2258364618211984,0.1720706771031022,0.9279179784834384,7.998995013356208,2.733442675100267,4.971395496663451,1.6470147371292114,0.3988226652145386,1.7788511514663696,0.7096620096293885,-0.1392932011884943,-0.4765782084046125,-0.4998505683829059,-3.889968872070313,-0.2034868597984314,-1.1457794904708862,1.4867466239869591,-2.266516945007443,-0.7582640071332454,-0.1002641692757606,0.0601562187075614,-0.1931786758551374,-0.204491838812828,-0.0025834337720763,-0.2020314060049131,105
1724722428404991700,-0.5600298379868268,-1.0618778283789754,0.4532207376062869,7.997318020054697,2.4090651750281453,5.139035790103674,1.1162545680999756,1.6349260807037354,2.2315351963043213,0.7411193938113407,-0.1273565372359155,-0.4709165477825055,-0.4612590909138611,-3.889968872070313,-0.2034868597984314,-1.1457794904708862,1.4867466239869591,-2.266516945007443,-0.7582640071332454,-0.1043943390250206,0.0846972614526748,-0.2177016889487393,-0.178532987833023,0.0331294448986882,-0.1227479437332134,106
1724722428444738000,0.9990420174986124,1.157750816464424,-0.8269266244709491,7.8111711790651075,1.7628760798491536,5.661118467012048,0.0001352378167212,1.981982469558716,2.3620173931121826,0.7811410539301843,-0.1243033633607693,-0.4426194150315458,-0.4224399497820223,-3.889968872070313,-0.2034868597984314,-1.1457794904708862,1.4867466239869591,-2.266516945007443,-0.7582640071332454,-0.1559059768915176,0.0611273199319839,-0.2077438653675839,-0.1453423798084259,0.0432408287734724,-0.0525008519493509,107
1724722428484483800,1.175522619998455,0.1118039129931479,-0.1608838049173355,7.454376679512858,1.0252921649120748,6.288992007169127,-0.875089168548584,1.6121255159378052,1.7399370670318604,0.8125649820067382,-0.1337158376394125,-0.401834185618237,-0.4004839890058618,-3.889968872070313,-0.2034868597984314,-1.1457794904708862,1.4867466239869591,-2.266516945007443,-0.7582640071332454,-0.203044518828392,0.0664158463478088,-0.2969888866806403,-0.1763579547405243,0.1377308654673863,-0.1735669252765364,108
1724722428524229400,1.5528069498717785,1.5172788326337934,0.7170692424356937,7.203387071734666,0.355286250413768,6.6449518094629045,-0.820335865020752,0.9152294397354126,1.192408561706543,0.8309146791533284,-0.1507168202994007,-0.3721373404335394,-0.3852001922425986,-3.889968872070313,-0.2034868597984314,-1.1457794904708862,1.4867466239869591,-2.266516945007443,-0.7582640071332454,-0.1994008123874664,0.0809663087129592,-0.1823657150156795,-0.2255371212959289,-0.0066051059157907,-0.2813218368735164,109
1724722428563976000,1.59349844122231,-0.081007262990158,1.462291397166252,6.957093512818217,-0.0743163824828108,6.911129634022712,-0.2231643795967102,1.1775723695755005,0.9727283716201782,0.8438043317465823,-0.1596620422063822,-0.3494831568307279,-0.3746516511260311,-3.889968872070313,-0.2034868597984314,-1.1457794904708862,1.4867466239869591,-2.266516945007443,-0.7582640071332454,-0.1654203236103058,0.1439310312271118,-0.1375873744766227,-0.1895750164985656,-0.0451014852459309,-0.2246813735019415,110
1724722428603721500,0.8687076646238565,0.2264339893229305,0.6333680459201335,6.614967590087652,-0.3510822593852877,7.231135494881868,0.0522104240953922,1.0538678169250488,0.8781580924987793,0.8586017526124818,-0.1584780035519795,-0.3258825057710475,-0.3626131394789161,-3.889968872070313,-0.2034868597984314,-1.1457794904708862,1.4867466239869591,-2.266516945007443,-0.7582640071332454,-0.124305747449398,0.0424693673849105,-0.2938879980558529,-0.1948290765285492,0.1014372528827749,-0.2314515982892364,111
1724722428643467000,1.8702526048541068,0.1560865607034414,-0.0080108724981546,6.331983007633686,-0.4758619007423519,7.473281286469102,0.1750533580780029,0.7593182921409607,0.3483962416648865,0.8693129173942745,-0.1536631155213656,-0.308798214954244,-0.354014762288292,-3.889968872070313,-0.2034868597984314,-1.1457794904708862,1.4867466239869591,-2.266516945007443,-0.7582640071332454,-0.1319165080785751,0.0817132219672203,-0.1970586773599497,-0.1750944703817367,-0.0100330396752571,-0.1246837889003101,112
1724722428683213600,0.8732932388484478,-0.0983748879037797,-0.9411258351027963,6.162816527539492,-0.4864087214589118,7.612718983253836,0.006838796660304,0.2892734408378601,-0.0213305950164794,0.8739915240339294,-0.1491278595556529,-0.2993663996428244,-0.3525330254122843,-3.889968872070313,-0.2034868597984314,-1.1457794904708862,1.4867466239869591,-2.266516945007443,-0.7582640071332454,-0.1325179040431976,0.0404627434909343,-0.2803337574179284,-0.1912995874881744,0.0609974164720624,-0.2275520518337376,113
1724722428722959000,-0.4267395579159259,-0.3417847811426967,-1.1938093873172997,6.166837453618645,-0.48780616716668,7.6093714263916015,-0.1772681921720504,-0.2737611532211303,-0.0621038563549518,0.8731306262217465,-0.1499517524662677,-0.2992398485084999,-0.3544189567873091,-3.889968872070313,-0.2034868597984314,-1.1457794904708862,1.4867466239869591,-2.266516945007443,-0.7582640071332454,-0.1180128008127212,0.0535019375383853,-0.1976901071312837,-0.1814803034067154,0.0186067930534482,-0.248832722005248,114
1724722428802451200,-0.6604430998504162,0.0763348324660211,0.1628518901199102,6.143015264004468,-0.7978874308608472,7.602441919389367,-0.4612158238887787,0.4237456023693084,0.2097086459398269,0.872203852359385,-0.165663486897064,-0.2914428697697268,-0.3561980876678508,-3.889968872070313,-0.2034868597984314,-1.1457794904708862,1.4867466239869591,-2.266516945007443,-0.7582640071332454,-0.0965212136507034,-0.0165758207440376,-0.2248266271915286,-0.174559012055397,0.1399900334378704,-0.2598467218421399,115
1724722428842214100,-0.0562941341519355,0.1355425890423357,0.1686135223865509,6.02264467126131,-0.9967069986797868,7.674940753889083,-0.3286798596382141,0.2371987849473953,0.3901019990444183,0.8754248886025925,-0.1716889086787972,-0.2814424208600818,-0.3534748884287508,-3.889968872070313,-0.2034868597984314,-1.1457794904708862,1.4867466239869591,-2.266516945007443,-0.7582640071332454,-0.0788052454590797,0.0146393254399299,-0.1715010057226754,-0.1609857827425003,0.0965016779104247,-0.2376451556997373,116
1724722428881960700,1.2195616682112216,0.223858074420318,0.3766857794582843,5.933564119794965,-1.1559507813051342,7.721850389102101,-0.3173748552799225,0.3245797455310821,0.1174701824784278,0.8774967244587674,-0.1769274759613573,-0.273846422269407,-0.3517160861159518,-3.889968872070313,-0.2034868597984314,-1.1457794904708862,1.4867466239869591,-2.266516945007443,-0.7582640071332454,-0.0638511627912521,-0.0112747605890035,-0.2340252481695264,-0.1214699670672416,0.1504909965855535,-0.2130523835718631,117
1724722428922950100,1.0963450383871791,-0.2133349999055266,0.4260159198164939,5.8649459261208765,-1.2203428817167878,7.764248684370517,-0.0883759707212448,0.0307349879294633,-0.132835179567337,0.8778683773057954,-0.1790826112240966,-0.2684453589859681,-0.3538552172016106,-3.889968872070313,-0.2034868597984314,-1.1457794904708862,1.4867466239869591,-2.266516945007443,-0.7582640071332454,-0.052891869097948,-0.0104398177936673,-0.1782500781240873,-0.1084656044840812,0.0762180331193609,-0.2363800311347469,118
1724722428962696700,0.5318395162910222,-0.1462833979610353,0.4047919300019741,5.9018292573601006,-1.160052736731246,7.74551943398118,0.1029587388038635,-0.2291603535413742,-0.2892486155033111,0.8759136770214296,-0.1780420476961439,-0.2709048452026292,-0.3573329782736682,-3.889968872070313,-0.2034868597984314,-1.1457794904708862,1.4867466239869591,-2.266516945007443,-0.7582640071332454,-0.0454621165990829,0.0039248364046216,-0.2296415714588947,-0.0786884352564811,0.0800485831589903,-0.1591435736538842,119
1724722429002443300,0.0388145915627479,-0.2806222372367978,-0.1801923164993524,6.016869594991206,-1.076740466468036,7.668656559053063,0.0660501047968864,-0.4445629417896271,-0.2241892218589782,0.8724990245115926,-0.177775508043069,-0.2782143057905218,-0.3601916556523777,-3.889968872070313,-0.2034868597984314,-1.1457794904708862,1.4867466239869591,-2.266516945007443,-0.7582640071332454,-0.0402481444180011,0.0093819294124841,-0.1639085960986092,-0.0699392110109329,0.0158870058508706,-0.1122241476992145,120
1724722429042190800,0.0987152257740497,-0.1537953810263425,-0.3176742030411958,6.142369367316365,-1.0115823501199483,7.577492187049985,-0.0702461674809455,-0.1549618989229202,-0.1350727975368499,0.86892160139096,-0.1786031223935752,-0.2859306790547155,-0.3623807210886277,-3.889968872070313,-0.2034868597984314,-1.1457794904708862,1.4867466239869591,-2.266516945007443,-0.7582640071332454,-0.0415765158832073,0.0345800407230854,-0.169878555619996,-0.0587039925158023,0.0393465795475989,-0.1304219672261271,121
1724722429081937400,-0.5724602804929018,0.230914641868323,-0.3797638717293739,6.17264701668024,-1.065293920432776,7.54545980297327,-0.2403125166893005,-0.1736875474452972,0.0501086860895156,0.8676008664448999,-0.1824974316198292,-0.2863272738955053,-0.3632907641089829,-3.889968872070313,-0.2034868597984314,-1.1457794904708862,1.4867466239869591,-2.266516945007443,-0.7582640071332454,-0.0599509477615356,0.0166196059435606,-0.1667975772720761,-0.0749200209975242,-0.0200778611198533,-0.0518022615262074,122
1724722429121683700,0.4044844714879989,0.3312171368338167,-0.4496797039985656,6.23613252364099,-1.1223512209769335,7.484742007160186,-0.1502291858196258,-0.1873585134744644,-0.0435832701623439,0.8657469000751039,-0.1872730781180345,-0.2886401898739305,-0.3634528575677349,-3.889968872070313,-0.2034868597984314,-1.1457794904708862,1.4867466239869591,-2.266516945007443,-0.7582640071332454,-0.0945411026477813,0.0441114827990531,-0.1382867001187056,-0.0727618634700775,-0.0222197799358167,-0.0790364469743799,123
1724722429161431600,0.5014321030676364,0.304902765077725,-0.8548363756597042,6.282687938588857,-1.1570889184895905,7.440387317126989,-0.2579357028007507,-0.1869797557592392,-0.1575168222188949,0.8636299771943863,-0.1910369455877772,-0.2900874160624763,-0.3653730200704459,-3.889968872070313,-0.2034868597984314,-1.1457794904708862,1.4867466239869591,-2.266516945007443,-0.7582640071332454,-0.0901690274477005,0.0356751941144466,-0.2351078923070803,-0.0295570716261863,0.0256161261095316,-0.0460849889911012,124
1724722429201178000,-0.1570312211424112,0.0568316020295023,-0.359537660780549,6.350980553570389,-1.2283445479951798,7.370657947340607,-0.4729087352752685,-0.0151068018749356,-0.0444773435592651,0.8598838016859807,-0.1980398394200807,-0.2915154325472757,-0.3693221645034792,-3.889968872070313,-0.2034868597984314,-1.1457794904708862,1.4867466239869591,-2.266516945007443,-0.7582640071332454,-0.0669570192694664,0.0170129891484975,-0.2304767984403297,-0.0596541203558445,0.1173124838141724,-0.1461104342806153,125
1724722429240924700,-0.754573920443654,-0.220294317524135,0.6002519582599402,6.299245690158009,-1.4127009984366594,7.382016376700997,-0.4347896575927734,0.1566109508275985,0.3108457922935486,0.8600369807689241,-0.2061891383445511,-0.2847945741143712,-0.3697492476325568,-3.889968872070313,-0.2034868597984314,-1.1457794904708862,1.4867466239869591,-2.266516945007443,-0.7582640071332454,-0.0519302301108837,-0.0288723614066839,-0.2311842343236319,-0.1145460307598114,0.2038285733536817,-0.1401847888249904,126
1724722429320418600,-0.5672375774085522,-0.3536645309634506,0.5295668951839209,6.449042283871769,-1.5280281901851296,7.228095396533608,0.1030434593558311,-0.8132922649383545,-0.2614254653453827,0.8562177393289676,-0.2161200656732102,-0.291138827715223,-0.3679965266082551,-3.889968872070313,-0.2034868597984314,-1.1457794904708862,1.4867466239869591,-2.266516945007443,-0.7582640071332454,-0.0652081444859504,0.0106450645253062,-0.0304929611985455,-0.0689326301217079,0.0591724478009156,0.061085642744787,127
1724722429360165000,-0.682077424031496,-0.1739868859879672,-0.0386900884002447,6.722497990480065,-1.4096278746016322,6.999381917971372,0.2220722436904907,-0.8918433785438538,-0.2153127789497375,0.8496293521094496,-0.2182345354246111,-0.30903805704659,-0.3674222083616933,-3.889968872070313,-0.2034868597984314,-1.1457794904708862,1.4867466239869591,-2.266516945007443,-0.7582640071332454,-0.0840821415185928,0.0019700089469552,-0.1340152333445847,-0.078870341181755,0.0693520106742391,-0.0379872510602464,128
1724722429399912700,-1.0414929197371006,-0.1419835818752646,-0.5094949980139732,6.954871745115518,-1.331198627139628,6.7843982740759845,0.1893323510885238,-0.8362998366355896,0.0895919054746627,0.8447528495961685,-0.2202537764495916,-0.3249311230049726,-0.3637317419234758,-3.889968872070313,-0.2034868597984314,-1.1457794904708862,1.4867466239869591,-2.266516945007443,-0.7582640071332454,-0.0642880648374557,0.0201898794621229,-0.1541346594506874,-0.0732542350888252,0.0577533108511474,-0.041299366716342,129
1724722429439659300,0.1160112284898757,0.6335863648459314,-0.8040560364931821,7.124054007300734,-1.374142719722539,6.597724194341898,-0.097791664302349,-0.4192443788051605,0.3529440462589264,0.8422946734925499,-0.2252775128349423,-0.335946006646341,-0.3562723349532318,-3.889968872070313,-0.2034868597984314,-1.1457794904708862,1.4867466239869591,-2.266516945007443,-0.7582640071332454,-0.062847189605236,-0.0054228622466325,-0.2351440595990046,-0.103918045759201,0.1297540870350785,-0.1890191632892005,130
1724722429479405800,0.8193021209418773,0.3963775912694632,-0.9985784916400908,7.141268761473894,-1.5710324885226783,6.534869971022009,-0.5255560874938965,-0.0706987977027893,0.3732539713382721,0.84248009784359,-0.2345133380170457,-0.3343917502266921,-0.3513018847861952,-3.889968872070313,-0.2034868597984314,-1.1457794904708862,1.4867466239869591,-2.266516945007443,-0.7582640071332454,-0.0535608902573585,-0.0222634077072143,-0.2411140008540823,-0.1329565346240997,0.1532136447487864,-0.2072169736829586,131
1724722429519152400,0.8791372887015342,-0.0432144339568913,0.086711484247446,7.154756019556522,-1.8009192486479877,6.460382593053579,-0.5452370047569275,-0.1008449867367744,0.1433494091033935,0.8407892683956123,-0.2470003124210609,-0.3310634532154595,-0.349944642294002,-3.889968872070313,-0.2034868597984314,-1.1457794904708862,1.4867466239869591,-2.266516945007443,-0.7582640071332454,-0.0250982977449893,-0.0118397427722811,-0.186066213501431,-0.1224115788936615,0.1423259290395304,-0.0881146107773296,132
1724722429638392800,0.7261451138168573,0.0049083764381706,0.9403934291750192,7.387055539911985,-2.019928494797647,6.125494220361113,-0.0176539774984121,-0.138846755027771,0.0691138207912445,0.8326047194702229,-0.265560833804853,-0.342292489524938,-0.3450835614277286,-3.889968872070313,-0.2034868597984314,-1.1457794904708862,1.4867466239869591,-2.266516945007443,-0.7582640071332454,0.0194609016180038,-0.0233424175530672,-0.2644901454675011,-0.0641828253865242,0.1691599042229354,-0.1487518339011818,133
1724722429678140700,0.7572463545233011,-0.0105097035765647,0.4971253457844257,7.412517897948622,-2.0048095438599587,6.099647831442952,0.0366868153214454,-0.0728260353207588,-0.0700689554214477,0.8319467738257854,-0.2655200758368753,-0.3442434992483423,-0.3447610005334842,-3.889968872070313,-0.2034868597984314,-1.1457794904708862,1.4867466239869591,-2.266516945007443,-0.7582640071332454,0.0104615008458495,-0.0374136641621589,-0.2292021571283228,-0.057455264031887,0.1467980512185953,-0.1740362415550276,134
1724722429717887200,0.5956517709881067,0.3201639740303159,0.2202782431721687,7.422230313667654,-1.9818894176520403,6.095326461112499,0.0167881194502115,-0.0647583454847335,-0.0582609586417675,0.8315576679417012,-0.2648439649409194,-0.3450833285879917,-0.3453797413230429,-3.889968872070313,-0.2034868597984314,-1.1457794904708862,1.4867466239869591,-2.266516945007443,-0.7582640071332454,0.0236912406980991,-0.0258424021303653,-0.1956843202668242,-0.0546804405748844,0.1092082613436039,-0.1629319878851063,135
1724722429757633800,0.5620826788634061,0.0617491846874356,0.2455664136856794,7.454601720440388,-1.9398506033457807,6.069290102580189,0.0971044972538948,-0.0769161656498909,-0.1674008071422577,0.8303417243335861,-0.2641025749033849,-0.3475660607290464,-0.3463817211688242,-3.889968872070313,-0.2034868597984314,-1.1457794904708862,1.4867466239869591,-2.266516945007443,-0.7582640071332454,0.0257407501339912,-0.0421159639954566,-0.180799360748101,-0.0213354080915451,0.017246898310515,-0.1805284348522312,136
1724722429797381000,-0.1545610316365957,-0.0539971092559397,-0.0587771831393241,7.4942854960531,-1.8493933566987515,6.048620239517092,0.1949092149734497,-0.1399891823530197,-0.1485034972429275,0.8291848114486376,-0.2610314349839896,-0.3513812354603775,-0.3476294916542284,-3.889968872070313,-0.2034868597984314,-1.1457794904708862,1.4867466239869591,-2.266516945007443,-0.7582640071332454,0.0444142930209636,-0.001494217198342,-0.1655030074168927,-0.0185599997639656,0.0325385480671422,-0.2162324383800849,137
1724722429837122600,-0.0229576817393302,0.2162063175581395,-0.2096709244400262,7.529678880995512,-1.789945142430067,6.022493280091881,0.0780321806669235,-0.078701227903366,0.0127619765698909,0.8286424429939109,-0.25876776065965,-0.3549331402604627,-0.3470066058746373,-3.889968872070313,-0.2034868597984314,-1.1457794904708862,1.4867466239869591,-2.266516945007443,-0.7582640071332454,0.0588353648781776,-0.0458238683640956,-0.1781141767847351,0.0384277217090129,0.0618358400575816,-0.1037682531136088,138
1724722429876869000,0.2788303853839635,-0.2006257404580712,-0.2036994488149881,7.522974414920807,-1.81439408564046,6.0235547718435525,-0.0877252221107482,0.0997515544295311,0.0698221325874328,0.8289803273101671,-0.2595750167626912,-0.3542668468356913,-0.3462763463292437,-3.889968872070313,-0.2034868597984314,-1.1457794904708862,1.4867466239869591,-2.266516945007443,-0.7582640071332454,0.0413483418524265,-0.0296786297112703,-0.1194419061914552,0.0544748343527317,-0.0401066452338593,-0.047798524043872,139
1724722429916459000,0.3388163597911596,0.1811592618353665,-0.0658814621865749,7.497704364585876,-1.8386951448127624,6.047644672483205,-0.0328707955777645,0.0428514145314693,0.0177880451083183,0.8296131918739734,-0.2600946459851433,-0.352145862519422,-0.3465341957614769,-3.889968872070313,-0.2034868597984314,-1.1457794904708862,1.4867466239869591,-2.266516945007443,-0.7582640071332454,0.0135401533916592,-0.0255178660154342,-0.1929150016839615,0.0418553166091442,0.0322865597671829,-0.0765271036351099,140
1724722429956296200,0.3039133887141942,-0.0445393989503383,0.2027156984746456,7.502081849017739,-1.841492812707275,6.041362231212854,-0.007427732925862,-0.0058104563504457,-0.0640596002340316,0.8292854914340163,-0.2605543327067975,-0.3522608224735355,-0.3468564010078648,-3.889968872070313,-0.2034868597984314,-1.1457794904708862,1.4867466239869591,-2.266516945007443,-0.7582640071332454,0.0311127286404371,-0.0168612152338027,-0.1508498838926665,0.034703928977251,-0.0102952011677145,-0.0998617289280518,141
1724722429996040400,-0.1954325557291507,-0.0309564254082739,0.3311982860028744,7.502386384922265,-1.8148231247074904,6.049050447627902,0.0507694110274314,0.0231936033815145,-0.0353665389120578,0.8290552967719935,-0.2595403272481701,-0.3524529611531083,-0.3479699864400959,-3.889968872070313,-0.2034868597984314,-1.1457794904708862,1.4867466239869591,-2.266516945007443,-0.7582640071332454,0.0632491409778595,-0.0211757514625787,-0.2138696365051902,0.0108317239210009,0.0579517560326959,-0.0668060799179365,142
1724722430035785500,-0.1007651440411806,0.0418060284636914,0.1613905853956937,7.512614933469891,-1.7883759934172032,6.044230480125546,0.1076456606388092,-0.0905905440449714,-0.0268411561846733,0.8290852987593124,-0.2582625711864266,-0.3537378313554041,-0.3475452489943057,-3.889968872070313,-0.2034868597984314,-1.1457794904708862,1.4867466239869591,-2.266516945007443,-0.7582640071332454,0.0502418503165245,-0.0383040830492973,0.0166632577702403,0.0205464791506528,-0.140367826374853,0.0857341545147355,143
1724722430075529500,0.1322170978814363,0.0234343593403697,0.1055728365838527,7.532669879505038,-1.748007596541196,6.031065293604136,0.1129441186785698,-0.0665608868002891,-0.0618316084146499,0.8288345549182339,-0.2566014697852615,-0.3558889337453107,-0.3471773652538587,-3.889968872070313,-0.2034868597984314,-1.1457794904708862,1.4867466239869591,-2.266516945007443,-0.7582640071332454,0.0324386954307556,0.0142746232450008,-0.0928570195314474,0.0057735294103622,-0.0662251473579788,-0.0347514497600845,144
1724722430115273700,-0.0743283880144357,0.3233386585436761,-0.141326287010312,7.5466311848402015,-1.7127238094531,6.023730128410458,0.0539419241249561,-0.0224947910755872,0.0049870302900671,0.828787859270651,-0.2549703582575492,-0.35758267132536,-0.3467498236049107,-3.889968872070313,-0.2034868597984314,-1.1457794904708862,1.4867466239869591,-2.266516945007443,-0.7582640071332454,0.0292376205325126,-0.0310848169028759,-0.1728155041210353,-0.0015234464081004,0.0207544223742792,0.0632893998667597,145
1724722430155018800,0.2877519429862499,-0.0068653557248413,-0.2033160024553537,7.527970323511957,-1.7376098289065065,6.039930737105012,-0.0432562530040741,0.1334033608436584,0.0882125049829483,0.8295323213001605,-0.2554045166281405,-0.3561148042751854,-0.3461604353814805,-3.889968872070313,-0.2034868597984314,-1.1457794904708862,1.4867466239869591,-2.266516945007443,-0.7582640071332454,0.0169597379863262,-0.0339051373302936,-0.0751871465685078,-0.0068356515839695,-0.0238418373128515,0.0140898887344519,146
1724722430234507000,-0.3820142810046673,-0.0341566827543079,-0.0348538712382316,7.527060222929716,-1.7121141531221569,6.048340253531933,-0.075060598552227,0.0089705614373087,-0.0179735142737627,0.8293544856045544,-0.2543915779184598,-0.3562378357276153,-0.3472041853317548,-3.889968872070313,-0.2034868597984314,-1.1457794904708862,1.4867466239869591,-2.266516945007443,-0.7582640071332454,0.0188577286899089,-0.0170589070767164,-0.0386245123507454,-0.0036499807611107,-0.0167181080713926,-0.0391203193439403,147
1724722430274252300,-0.0833364548563957,0.0090402155458927,0.2843967873394489,7.49892776890099,-1.7475296037659047,6.073105861476064,-0.0272578820586204,0.1655577272176742,0.1012639477849006,0.8301421201525789,-0.255285875187046,-0.3538175875802425,-0.3471403005805776,-3.889968872070313,-0.2034868597984314,-1.1457794904708862,1.4867466239869591,-2.266516945007443,-0.7582640071332454,0.0181674845516681,-0.0030103274621069,-0.0207707684375927,-0.0080770254135131,-0.0060897111602476,0.0090433328056969,148
1724722430313996500,0.3174374716758728,-0.1026962582342326,0.1283423022747039,7.457133869266509,-1.7686716143853962,6.118278882154822,0.0511254072189331,0.036494068801403,0.0331109538674354,0.8318441665454352,-0.2545869136666607,-0.3510556656892435,-0.3463823323973163,-3.889968872070313,-0.2034868597984314,-1.1457794904708862,1.4867466239869591,-2.266516945007443,-0.7582640071332454,0.0121679287403821,0.007962760515511,-0.1000018771842587,-0.0266059767454862,0.0175045993986306,-0.0353458514396799,149
1724722430353740800,0.1259802493184804,0.0702589466184377,0.1489174727916717,7.471869081583619,-1.7295901885800062,6.111470955705642,0.0270821750164031,-0.0931864231824874,-0.1579452753067016,0.8312126589389016,-0.2533812823599184,-0.3524196536673518,-0.3473959772949933,-3.889968872070313,-0.2034868597984314,-1.1457794904708862,1.4867466239869591,-2.266516945007443,-0.7582640071332454,0.0062881121411919,-0.0133900810033082,-0.0946832759773824,-0.0167597942054271,-0.0004459782145655,-0.0047925823093304,150
1724722430393485800,-0.3724877432465553,0.1002570483885705,0.1563280413091182,7.505562676870823,-1.6852184012815354,6.08251257224679,0.097872644662857,-0.1088111475110054,-0.0465809926390647,0.829997093211881,-0.2524981973325996,-0.3551377696627478,-0.3481762602144649,-3.889968872070313,-0.2034868597984314,-1.1457794904708862,1.4867466239869591,-2.266516945007443,-0.7582640071332454,-0.0192823000252246,0.0260678641498088,-0.1131883713551796,-0.0030241061467677,-0.0055653841795778,-0.0406007808597758,151
1724722430433229800,0.1116080250948667,0.0118067576497793,-0.2550537884771823,7.519460853841901,-1.658568587026,6.07266396292746,0.0407955944538116,0.0120099186897277,0.0057492405176162,0.8299621964922983,-0.2512605758783587,-0.3567189701540733,-0.3475377735722632,-3.889968872070313,-0.2034868597984314,-1.1457794904708862,1.4867466239869591,-2.266516945007443,-0.7582640071332454,-0.0268042162060737,0.0100126583129167,-0.1493396254601888,0.0049324091523885,0.0945639147808775,-0.0054981316254008,152
1724722430472974000,0.5251537549167871,-0.0805797034941613,-0.2401239303708076,7.500209625405072,-1.654468312100321,6.097537707421183,0.0528665706515312,0.050505593419075,-0.0365481153130531,0.8306814132929488,-0.2503578314184573,-0.3555742617159884,-0.3476438080126605,-3.889968872070313,-0.2034868597984314,-1.1457794904708862,1.4867466239869591,-2.266516945007443,-0.7582640071332454,-0.0254930052906274,-0.0171524230390787,-0.1635452061463147,0.0184784717857837,0.1405127512708772,0.0029577669559599,153
1724722430512719000,0.1708060639947652,-0.2108659794434905,-0.3656307169586419,7.507248438000679,-1.6156106120482083,6.099294780221581,-0.0292435102164745,0.0796875059604644,-0.0681865140795707,0.8301404183155672,-0.2490690945365264,-0.3563524925793113,-0.3490619758098799,-3.889968872070313,-0.2034868597984314,-1.1457794904708862,1.4867466239869591,-2.266516945007443,-0.7582640071332454,-0.022181088104844,-0.0007024150108918,-0.0441269913577008,0.0193246509879827,0.032987383246608,-0.0689959044126793,154
1724722430552463400,-0.0868769039422273,0.323829364670068,0.047552024769783,7.470145326530931,-1.6357020907014608,6.139363755759597,-0.0396130234003067,0.178159698843956,0.00257208943367,0.83093706197901,-0.2492409563601473,-0.3533532231751138,-0.3500914697535843,-3.889968872070313,-0.2034868597984314,-1.1457794904708862,1.4867466239869591,-2.266516945007443,-0.7582640071332454,-0.0135051980614662,0.0206518452614545,-0.1103554951499681,0.0030152630060911,0.111406593371788,-0.1074524671848397,155
1724722430592208400,0.5145879372388125,0.0812920895472168,0.1316717389583587,7.465584886747598,-1.577368705806881,6.160140001806616,0.1779471039772033,-0.0381581112742424,-0.3188193738460541,0.8306960946136086,-0.2467289122516783,-0.3536171746968465,-0.3521698961257927,-3.889968872070313,-0.2034868597984314,-1.1457794904708862,1.4867466239869591,-2.266516945007443,-0.7582640071332454,-0.0086074983701109,0.0014806542312726,-0.0290063987354864,0.0499863885343074,0.0163995516330236,0.0356970486306818,156
1724722430631952600,1.0093927311211823,0.7045134199842811,-0.2171767700254917,7.557658774811029,-1.3374804838880896,6.104368430224061,0.3798272311687469,-0.3203219771385193,-0.7689012289047241,0.8264919848080599,-0.2395120250649723,-0.3624883589880586,-0.3579763068861859,-3.889968872070313,-0.2034868597984314,-1.1457794904708862,1.4867466239869591,-2.266516945007443,-0.7582640071332454,0.0056653693318367,0.0472604073584079,-0.1695668958549387,0.0508591420948505,0.0568438587228767,-0.1382071412096265,157
1724722430671696600,0.2577145321190357,0.3643878772906959,-0.3338683819949626,7.722757567074894,-1.0130670357197522,5.958447216638922,0.408570796251297,-0.622002124786377,-0.7294225692749023,0.8191672767595224,-0.2311287375680673,-0.3778667151584452,-0.3643640750031253,-3.889968872070313,-0.2034868597984314,-1.1457794904708862,1.4867466239869591,-2.266516945007443,-0.7582640071332454,0.0200955960899591,-0.0154527658596634,-0.1934186403571628,0.0098706763237714,0.1101785859467927,-0.2077835215245373,158
1724722430711441700,0.2021791073799133,0.1534308585628867,0.1434796656519174,7.907431412902474,-0.688235654400289,5.759274889859557,0.3138628602027893,-0.7654504776000977,-0.8867750763893127,0.8097140481064233,-0.2245162265817696,-0.3949065129189267,-0.3714896719933397,-3.889968872070313,-0.2034868597984314,-1.1457794904708862,1.4867466239869591,-2.266516945007443,-0.7582640071332454,0.0608719140291214,-0.0308417882770299,-0.0097739366479218,0.0322294421494007,-0.0418663027169881,-0.0709247809828724,159
1724722430751186000,0.0779097536325454,0.1358897402458824,0.5764058032482862,8.04037799410224,-0.2918122877603397,5.606919259312749,0.5050140619277954,-0.2056722790002823,-0.8877208828926086,0.8002339966276624,-0.2141272167241562,-0.4102148527575956,-0.3814430193809854,-3.889968872070313,-0.2034868597984314,-1.1457794904708862,1.4867466239869591,-2.266516945007443,-0.7582640071332454,0.0509376972913742,0.0243317801505327,-0.1868453263814561,0.080473244190216,0.0985827402344904,-0.0686516712520038,160
1724722430830675500,0.3908393924951553,-0.2030201065150089,0.1757020193427801,7.932153766226768,0.1011169988193083,5.765509400334954,-0.1043881103396415,0.3641338646411896,-0.0296726860105991,0.8012713579422688,-0.1933400236334934,-0.410682934388959,-0.3897735745909496,-3.889968872070313,-0.2034868597984314,-1.1457794904708862,1.4867466239869591,-2.266516945007443,-0.7582640071332454,0.0655405521392822,-0.0213445760309696,-0.0278314823377528,0.1133403927087783,-0.0438706237101461,0.0180936296417203,161
1724722430870416400,1.2658937957972287,0.4812776421807706,0.1639788483232259,7.9091358787328,0.1400179169586393,5.796236547031998,-0.2228067815303802,-0.1159786134958267,-0.5994901657104492,0.7992551696934143,-0.1934975300205793,-0.408696558165237,-0.3958751915102741,-3.889968872070313,-0.2034868597984314,-1.1457794904708862,1.4867466239869591,-2.266516945007443,-0.7582640071332454,0.0392578989267349,0.0057723307982087,-0.0065371404047386,0.1173217594623565,-0.0925420992302242,0.0038023348711867,162
1724722430949905700,-0.494122072315216,-0.19958353792876,0.8010878343373536,7.957447197437286,0.5404580358261242,5.705903365156054,0.2921986579895019,0.0266817063093185,-0.3207212090492248,0.7867857082311134,-0.1852620467824609,-0.4180405150144499,-0.4145943185522399,-3.889968872070313,-0.2034868597984314,-1.1457794904708862,1.4867466239869591,-2.266516945007443,-0.7582640071332454,0.015175505541265,-0.0687659233808517,-0.1140996135817375,0.1594163477420807,0.0895747829903848,0.1025069370740558,163
1724722431029442300,-0.2600385911524295,-0.0544809472501277,-0.0887456204235553,7.859383713570237,0.7582267438627779,5.815975266724824,0.051903273910284,0.3816092610359192,-0.1374028772115707,0.7878787570375765,-0.1726814966766,-0.4167119820846812,-0.419260530203691,-3.889968872070313,-0.2034868597984314,-1.1457794904708862,1.4867466239869591,-2.266516945007443,-0.7582640071332454,-0.0213442761451005,0.0037353504449129,-0.0431558767366455,0.087562657892704,-0.0186587196035077,0.0505827479349216,164
1724722431069189000,-0.1726321103781461,-0.2813099272400141,-0.038543957927823,7.737112255641818,0.795165385485813,5.972871463310718,0.0158763080835342,0.6730673909187317,-0.1063844040036201,0.7912411085298875,-0.1672688916325666,-0.409254720884486,-0.422456153189974,-3.889968872070313,-0.2034868597984314,-1.1457794904708862,1.4867466239869591,-2.266516945007443,-0.7582640071332454,-0.0483277253806591,0.0198225248605012,-0.0186527853363542,0.0652688592672348,-0.0775024332069791,0.1078036643758416,165
1724722431108935000,0.1605149716049432,-0.0955774392049759,-0.0752028327614069,7.5488137895762915,0.8602257405478507,6.200468505063653,0.1059625893831253,0.6589906215667725,-0.2238805741071701,0.795997416651674,-0.1587000210486739,-0.3983445596058374,-0.4272284138078871,-3.889968872070313,-0.2034868597984314,-1.1457794904708862,1.4867466239869591,-2.266516945007443,-0.7582640071332454,-0.0588452890515327,0.0119455959647893,-0.1490279839614406,0.0341572910547256,0.1120611939561553,-0.0132833101754775,166
1724722431148681000,0.1167564938992261,0.2210010044887661,-0.004442366361618,7.43829589780569,0.9901656872775404,6.313612069162726,0.2778702974319458,0.2080565094947815,-0.3361666798591614,0.7974716547040095,-0.1499883282095832,-0.3944602205443361,-0.4312116488982954,-3.889968872070313,-0.2034868597984314,-1.1457794904708862,1.4867466239869591,-2.266516945007443,-0.7582640071332454,-0.0301137268543243,-0.0627712979912757,-0.1422988492363598,0.0217814091593027,0.1092139878314919,0.1219559439721517,167
1724722431188427800,-0.0602834960490465,-0.3242938403766602,-0.0690665219634771,7.365740949204564,1.1719908656757323,6.367313264212012,0.2992879450321197,0.2993906140327453,-0.3255224823951721,0.7970482118907588,-0.1404157609411205,-0.3945133552811298,-0.4351513868533554,-3.889968872070313,-0.2034868597984314,-1.1457794904708862,1.4867466239869591,-2.266516945007443,-0.7582640071332454,-0.0493903048336505,-0.036047775298357,0.0249986084158299,0.0104968789964914,-0.0731013487038202,0.0487580532584106,168
1724722431228173600,0.2826607573270797,-0.4879780166022479,0.3445534421384334,7.236927522286773,1.3479451792791486,6.479220564514399,0.4474032521247864,0.6665031909942627,-0.3210844397544861,0.7989034378799705,-0.128640542491246,-0.3912841710730572,-0.4382938645193022,-3.889968872070313,-0.2034868597984314,-1.1457794904708862,1.4867466239869591,-2.266516945007443,-0.7582640071332454,-0.0310345534235239,0.0125126428902149,-0.1222311624506488,-0.0045699723996222,0.0136842305430094,0.0023009749853285,169
1724722431267919600,0.6731289784222841,-0.4347641666784882,0.3688058398634195,6.905566154676675,1.6326133309058843,6.768907859477401,0.8856474757194519,1.83465313911438,-0.4908547103404999,0.8057310389919301,-0.1050414513006546,-0.379273036448602,-0.4426237886520419,-3.889968872070313,-0.2034868597984314,-1.1457794904708862,1.4867466239869591,-2.266516945007443,-0.7582640071332454,-0.0130545692518353,0.0101933646947145,-0.0516551766391377,0.019734002649784,-0.0310394503494957,-0.0482678403223631,170
1724722431307666200,0.6421779598414897,-0.0911991510555148,-0.1661936017632484,6.146880122739076,2.06566718653515,7.356579737627506,1.0404905080795288,2.933642864227295,-0.5468193888664246,0.821138251676995,-0.0616639397151315,-0.3480177996151082,-0.4481217299187691,-3.889968872070313,-0.2034868597984314,-1.1457794904708862,1.4867466239869591,-2.266516945007443,-0.7582640071332454,-0.0286020375788211,0.0152074759826064,-0.0257496756615932,0.0372079648077487,-0.0111454053809284,-0.0260802136570564,171
1724722431347412200,-2.91541456849277,-0.4633126541621983,-3.4957068577855823,5.57118276002109,2.2369671715267003,7.754243423184752,-0.3706772029399872,0.2740949094295501,0.907928466796875,0.8345415995771112,-0.0351796057880068,-0.3215680540667813,-0.4459784801987548,-3.889968872070313,-0.2034868597984314,-1.1457794904708862,1.4867466239869591,-2.266516945007443,-0.7582640071332454,-0.0380505509674549,-0.0209722481667995,-0.1333919412139337,0.0832809433341026,0.1043465735913719,-0.0535576035938225,172
1724722431426904800,4.455936037287116,1.4671622180730104,2.2804946169555187,5.7631151986747975,1.1704998964656144,7.847727178046107,0.1579714864492416,0.2254409790039062,-0.5861156582832336,0.8488521234117188,-0.08205320332162,-0.3051959272393049,-0.4237603083863471,-3.889968872070313,-0.2034868597984314,-1.1457794904708862,1.4867466239869591,-2.266516945007443,-0.7582640071332454,0.049534186720848,-0.0112554486840963,-0.0285470535784494,0.1737028211355209,0.1062798614752013,-0.1156999979830812,173
1724722431466650600,-0.3606605273306369,-0.3584390518888831,-1.3348878370463848,5.751654477983712,1.5910041401885449,7.781874357432127,0.3385573327541351,-0.7775036096572876,-1.0790092945098877,0.8390574156887782,-0.0676696009929082,-0.3140949894506833,-0.4390306184392821,-3.889968872070313,-0.2034868597984314,-1.1457794904708862,1.4867466239869591,-2.266516945007443,-0.7582640071332454,0.1000702008605003,0.0247079152613878,0.0367103287428966,0.2144602835178375,0.0795067587667144,-0.19682207385879,174
1724722431506396400,-1.4743816479325291,-0.334038331734389,-1.1841899105787277,6.024711540663242,1.6650649633079766,7.556506682166456,-0.5716261267662048,-1.1643364429473877,-0.1450857371091842,0.8273438438873406,-0.0761370465633194,-0.3300432043532475,-0.4480813389311153,-3.889968872070313,-0.2034868597984314,-1.1457794904708862,1.4867466239869591,-2.266516945007443,-0.7582640071332454,0.1926831901073455,-0.0069611268118023,-0.1023118620265275,0.2692744433879852,0.1843066199503839,-0.2731477731702849,175
1724722431546143500,0.1886328125864267,-0.595505640515685,0.9454390221267938,6.220345171922445,1.5035067662604151,7.430825123533606,-0.4553715288639068,0.3902017474174499,-0.2332524955272674,0.8210709845022088,-0.0916547954965241,-0.3357569741163845,-0.4524480920857009,-3.889968872070313,-0.2034868597984314,-1.1457794904708862,1.4867466239869591,-2.266516945007443,-0.7582640071332454,0.271375298500061,-0.0123858638107776,-0.0271084675761172,0.3552556931972503,0.0808796819545794,-0.0077991088940179,176
1724722431585889300,0.1026098951250314,-0.1370057934626936,0.1892512367457151,6.183516785740852,1.4927226296566425,7.463664732339978,-0.0704276263713836,-0.6640174984931946,-0.4304382801055908,0.8175144278946481,-0.0942774009280443,-0.3325218470199956,-0.4606638957635002,-3.889968872070313,-0.2034868597984314,-1.1457794904708862,1.4867466239869591,-2.266516945007443,-0.7582640071332454,0.2527365982532501,0.0181551557034254,-0.0138658798533841,0.4611110091209411,0.0229425618020119,0.003885621819779,177
1724722431625635000,0.7836059536606073,0.3539228896386921,0.4465782308518886,6.425185607466101,1.6507720879308878,7.222348961836099,0.1086339429020881,-0.6444883942604065,-0.6533713340759277,0.8069971489416934,-0.0975303029666269,-0.3496434280576045,-0.4658249414599233,-3.889968872070313,-0.2034868597984314,-1.1457794904708862,1.4867466239869591,-2.266516945007443,-0.7582640071332454,0.2372501343488693,0.0168537218123674,-0.1225989089176524,0.5335001945495605,0.0771940522443968,0.003656352241704,178
1724722431665382000,-0.2095978592038154,0.0404091672778129,-0.321141002368927,6.515625756847858,1.8254221140027045,7.098228076648712,-0.0771251246333122,-0.533447265625,-0.5763831734657288,0.7969535727376762,-0.0974875738878213,-0.358590658728236,-0.4762078846982169,-3.889968872070313,-0.2034868597984314,-1.1457794904708862,1.4867466239869591,-2.266516945007443,-0.7582640071332454,0.22821806371212,0.0273433402180671,-0.0469162430503172,0.5768125057220459,0.0867782658733427,-0.0188964031001902,179
1724722431705128000,0.176461313277483,0.3202199420012533,-0.4046738565802574,6.682478114780784,1.898157533737272,6.92183982860744,-0.2598937749862671,-0.8624443411827087,-0.5580939054489136,0.7863009349348157,-0.1042826060668577,-0.3690657306388636,-0.4844031727234749,-3.889968872070313,-0.2034868597984314,-1.1457794904708862,1.4867466239869591,-2.266516945007443,-0.7582640071332454,0.2402864545583725,0.0044650817289948,-0.0337017100950004,0.6091784238815308,0.0693446904508862,-0.0104265758873545,180
1724722431744873700,0.5390110153555869,-0.692489804713428,1.8733342042565344,6.827049667322635,2.195449896876514,6.688930067399144,0.8155216574668884,-0.5444762706756592,-1.664033055305481,0.7709758241036998,-0.1029274333255579,-0.3851823418043768,-0.4966254599477472,-3.889968872070313,-0.2034868597984314,-1.1457794904708862,1.4867466239869591,-2.266516945007443,-0.7582640071332454,0.2797735631465912,0.0426307655870914,0.0783958931816741,0.6233184337615967,0.0136695935212366,0.0574223253311123,181
1724722431784620500,-1.3358213185042145,-0.9124562054574488,0.6084744276821613,7.035218370506167,2.9439363141000268,6.165170397189259,1.555471897125244,-1.7741485834121704,-0.8429787755012512,0.7476727260675993,-0.0847587088893894,-0.4224686266692902,-0.5052937524729456,-3.889968872070313,-0.2034868597984314,-1.1457794904708862,1.4867466239869591,-2.266516945007443,-0.7582640071332454,0.3005976676940918,0.0652529895305633,0.0061575921896204,0.6565311551094055,0.0692866903530666,0.2737767004572786,182
1724722431824366300,-1.6964760006159545,-1.4647823371991515,0.5909691661298274,7.211219665056467,3.3044270378217098,5.766234207478165,1.3806921243667605,-0.5940890908241272,-0.0782233774662017,0.7382462397396284,-0.0744132487863312,-0.4477348908861686,-0.4989876879632325,-3.889968872070313,-0.2034868597984314,-1.1457794904708862,1.4867466239869591,-2.266516945007443,-0.7582640071332454,0.2770312428474426,0.0682250931859016,0.0450220770339015,0.6368931531906128,-0.0267572155861882,0.3186491490205749,183
1724722431864109300,0.2506897480487823,-0.3882920460999012,-0.4468471109211445,7.143353166532516,3.51766325352788,5.724416342446208,0.6594246625900269,1.2345598936080933,0.120060808956623,0.7435358204894106,-0.0564573298476957,-0.4527124657757754,-0.488895228001193,-3.889968872070313,-0.2034868597984314,-1.1457794904708862,1.4867466239869591,-2.266516945007443,-0.7582640071332454,0.2321207076311111,0.1359942853450775,0.0884977283434011,0.6357758045196533,-0.0542356124532409,0.4000004944743588,184
1724722431903855000,-0.6832663415551186,-0.3496089719623327,-2.0325591360509394,6.848186563375592,3.4857138715595006,6.09282587646842,-0.3044489324092865,1.2270495891571045,0.3343032896518707,0.7587925390484226,-0.0423920349976463,-0.4330764943903336,-0.484645803079674,-3.889968872070313,-0.2034868597984314,-1.1457794904708862,1.4867466239869591,-2.266516945007443,-0.7582640071332454,0.2219656705856323,0.0881291851401329,0.0518833502386696,0.6638340950012207,-0.1684877953813411,0.3302436156265437,185
1724722431943601000,-0.8885089281588793,0.3265767636820674,-2.592911630120873,6.694746644723415,3.242429431331157,6.390414153814316,-0.9407652616500854,0.3500382602214813,0.2088081091642379,0.7679831464812947,-0.0470652387811884,-0.4146859119206146,-0.4858211864970653,-3.889968872070313,-0.2034868597984314,-1.1457794904708862,1.4867466239869591,-2.266516945007443,-0.7582640071332454,0.212914153933525,0.0769569873809814,0.0081477956091694,0.6504723429679871,-0.0513782182947034,0.3796445196660235,186
1724722432023093800,-0.5746989993304014,0.5735477834686636,-1.4844225649535656,6.894194281312823,2.762323609408736,6.4039090106815095,-0.8573679327964783,-0.6177588701248169,-0.1578861027956009,0.7601726152558379,-0.0825331451022442,-0.4082643710544725,-0.4986443903309405,-3.889968872070313,-0.2034868597984314,-1.1457794904708862,1.4867466239869591,-2.266516945007443,-0.7582640071332454,0.2074759304523468,-0.0124995792284607,0.0817206171575933,0.71125328540802,-0.0340156942478846,0.3980507121134549,187
1724722432062929700,-1.8459020074516528,-0.5840139401644467,-2.5208523560822007,7.042216851091385,2.5581828465670347,6.327184082919358,-1.0727827548980713,-0.3672538697719574,0.0972419455647468,0.7520209764286612,-0.1020637980996736,-0.4086396509853295,-0.5070118472025558,-3.889968872070313,-0.2034868597984314,-1.1457794904708862,1.4867466239869591,-2.266516945007443,-0.7582640071332454,0.2056806534528732,-0.0025769700296223,0.0220573034000815,0.6921820640563965,0.0964420658108312,0.3590066957090049,188
1724722432102679800,-2.204002913427353,-0.0330493060342967,-3.692411917668581,7.124236962652206,2.0548028243020178,6.418209923234581,-2.1709816455841064,-0.0149356201291084,0.5642440915107727,0.7505742140246568,-0.1305007990300723,-0.3946288209782149,-0.5136885888227265,-3.889968872070313,-0.2034868597984314,-1.1457794904708862,1.4867466239869591,-2.266516945007443,-0.7582640071332454,0.230194091796875,-0.0212207809090614,0.1152820648319553,0.6791741251945496,0.0991573800509795,0.3924027693543583,189
1724722432142429000,-3.025121143880486,-1.0558816567040978,-3.1690421235591173,7.109329316377639,1.200132306728512,6.647367638432979,-2.4236810207366943,0.4403283298015594,1.0224452018737793,0.7531428879451679,-0.1702828617119129,-0.3634312964731114,-0.5212458209011729,-3.889968872070313,-0.2034868597984314,-1.1457794904708862,1.4867466239869591,-2.266516945007443,-0.7582640071332454,0.2409661412239074,-0.034661803394556,-0.0109450867610576,0.5917573571205139,0.1429050532348919,0.2029352047105319,190
1724722432182178000,-2.541737907722592,-2.1334595969095824,-2.2767232817232608,7.051665062916278,0.336461540293321,6.806701875820756,-1.4458298683166504,-0.1173654794692993,1.244004487991333,0.7602965132582372,-0.2047456843942146,-0.3332176465530964,-0.5186465873601478,-3.889968872070313,-0.2034868597984314,-1.1457794904708862,1.4867466239869591,-2.266516945007443,-0.7582640071332454,0.2662146985530853,-0.0383419282734394,0.0535295100104995,0.5554620623588562,-0.0780108759194612,0.5572189818171784,191
1724722432221928400,-2.4296622651159763,-2.050378870379925,-4.240457303351164,7.3973308502107855,-0.3002781922833062,6.431151237872243,-0.918864130973816,-2.8990495204925537,1.4180240631103516,0.7598756436807287,-0.2420546996640034,-0.336915509828632,-0.5004861414262772,-3.889968872070313,-0.2034868597984314,-1.1457794904708862,1.4867466239869591,-2.266516945007443,-0.7582640071332454,0.2002526372671127,0.0639682337641716,-0.1382429705748334,0.5422940850257874,0.1226446203560568,0.5764108812822029,192
1724722432261677600,-2.486768884694576,-3.9255999112963673,-4.943149645388126,8.356154254567622,-1.2702668963149188,4.97307658161819,-2.389785051345825,-5.324370861053467,2.6335878372192383,0.7371062637582583,-0.3225834510292564,-0.3773374686451786,-0.4585091908082276,-3.889968872070313,-0.2034868597984314,-1.1457794904708862,1.4867466239869591,-2.266516945007443,-0.7582640071332454,0.2306515872478485,-0.0697576105594635,-0.0361592821478378,0.5164613127708435,0.1378652415699325,0.5675828837148845,193
1724722432301426700,-1.5027853201180696,-6.508028141325712,-2.632459504394233,8.867799708613752,-2.9351524114027616,2.986202799682319,-3.0819125175476074,-4.734499454498291,4.450094699859619,0.7062523221011391,-0.4335894732869035,-0.3996826175683219,-0.3917419301143768,-3.889968872070313,-0.2034868597984314,-1.1457794904708862,1.4867466239869591,-2.266516945007443,-0.7582640071332454,0.2280952483415603,-0.1493779271841049,-0.0611535477486904,0.4468726813793182,0.022831027718936,0.4022875459656119,194
1724722432341176800,3.4425983679324386,-6.829138748556376,0.4571077351074665,8.455236560088396,-4.853966510330141,1.0575239440184083,-2.976050615310669,-3.3806629180908203,4.507474899291992,0.6760908827913454,-0.5442331790341861,-0.3871582750009334,-0.3111587267500323,-3.889968872070313,-0.2034868597984314,-1.1457794904708862,1.4867466239869591,-2.266516945007443,-0.7582640071332454,0.2617663443088531,-0.1491198390722274,0.1757968397530727,0.3416251838207245,-0.1958330628214404,0.6978522085294127,195
1724722432380926000,5.478693861415982,-2.6769799063831567,3.439464746081829,7.744331100979447,-6.008434944123029,-0.3072507164433598,-1.238974690437317,-2.161620140075684,2.4532995223999023,0.649721021848645,-0.6142696445411495,-0.371938477583371,-0.249393320558916,-3.889968872070313,-0.2034868597984314,-1.1457794904708862,1.4867466239869591,-2.266516945007443,-0.7582640071332454,0.2009586542844772,0.0084247924387454,0.2842145626403391,0.402115523815155,-0.4179814472470432,1.121809588380903,196
1724722432420675000,2.4223808759361503,-4.101899896532297,1.1985165420949455,7.169689384794235,-6.619784050458669,-0.9718154262684284,-0.6825579404830933,-1.0456815958023071,2.038838148117065,0.6377387184930504,-0.6475705526000564,-0.3608340034646815,-0.2091426242586367,-3.889968872070313,-0.2034868597984314,-1.1457794904708862,1.4867466239869591,-2.266516945007443,-0.7582640071332454,0.1778043657541275,0.1008724048733711,0.0508444128121016,0.5078016519546509,-0.1484982609989121,1.1526583156310022,197
1724722432460425200,1.26749538577497,-4.468850463917852,-0.2154290495753288,6.4828346633583305,-7.219193128153681,-1.423551624405384,-0.885369062423706,-0.919031023979187,2.782266855239868,0.63046763188951,-0.6767199810286512,-0.3385720032901045,-0.1730019720318836,-3.889968872070313,-0.2034868597984314,-1.1457794904708862,1.4867466239869591,-2.266516945007443,-0.7582640071332454,0.1956209689378738,-0.0528236851096153,-0.4582402097361162,0.7255929708480835,0.1869134779805317,1.1321532146755606,198
1724722432500174600,3.0262440104305743,-4.927068863680958,-0.1576394161686301,5.404038725665211,-7.933235131722689,-2.0076167102351783,-1.2813667058944702,-1.2006183862686155,3.731369733810425,0.6182963990673783,-0.7147828803996413,-0.3023994072354041,-0.123893330446873,-3.889968872070313,-0.2034868597984314,-1.1457794904708862,1.4867466239869591,-2.266516945007443,-0.7582640071332454,0.1960708200931549,-0.1155439689755439,-0.4102924636470154,0.7169204950332642,-0.1947551313916221,0.4883212770819664,199
1724722432539923700,6.599986878576875,-3.732304367595911,1.3896750737667083,4.052115582665801,-8.52466139397025,-2.660996155309677,-1.162459135055542,-1.1928048133850098,3.605264186859131,0.599859364431925,-0.7536458888450464,-0.2601748010593286,-0.0670501932380661,-3.889968872070313,-0.2034868597984314,-1.1457794904708862,1.4867466239869591,-2.266516945007443,-0.7582640071332454,0.2291635572910308,-0.0928519591689109,-0.2934316508567892,0.4933842420578003,-0.2976172294457443,0.3324999431859701,200
1724722432579673900,8.387363047301768,-1.3114081772595645,2.6682851432740686,2.832464482605457,-8.842102372777461,-3.156702281945944,-0.9283137321472168,-0.7273863554000854,2.7526116371154785,0.5819426145800067,-0.7822538492646798,-0.2214180309102642,-0.019894965934768,-3.889968872070313,-0.2034868597984314,-1.1457794904708862,1.4867466239869591,-2.266516945007443,-0.7582640071332454,0.2732146978378296,-0.0455580502748489,0.1149237072478048,0.3212213218212127,-0.5521390847370028,0.4600892351362854,201
1724722432619423000,9.305879575711488,0.8968079699486493,3.9339033370003103,1.9368426537014545,-8.994597704055904,-3.3935622420847413,0.075482353568077,-0.6933063268661499,1.7689961194992063,0.5716319748458151,-0.7973227841200898,-0.1931318361730796,0.0146099420343917,-3.889968872070313,-0.2034868597984314,-1.1457794904708862,1.4867466239869591,-2.266516945007443,-0.7582640071332454,0.3661806881427765,-0.104998804628849,-0.0711661108914995,0.3059462010860443,-0.5833435666222125,0.9244218799959868,202
1724722432659173000,10.304143594574928,1.7234417489528655,2.8726936171412465,1.3644474012687802,-9.163573045492171,-3.21521467666924,1.1638365983963013,-1.257315993309021,0.7153843641281128,0.5778706567088833,-0.7938044507740685,-0.1838608558541732,0.0462082791247367,-3.889968872070313,-0.2034868597984314,-1.1457794904708862,1.4867466239869591,-2.266516945007443,-0.7582640071332454,0.3739672601222992,0.0058125611394643,0.0258345934490906,0.3978717625141144,-0.4747988746207207,1.0073300264377147,203
1724722432698922200,10.958148770332336,2.914300469771028,0.9278495894223452,1.1382554040081798,-9.340485609668493,-2.762256681652367,1.4580049514770508,-1.567375898361206,-0.4531796276569366,0.5944716188111318,-0.7759662441267147,-0.1967543613231376,0.0759440383442622,-3.889968872070313,-0.2034868597984314,-1.1457794904708862,1.4867466239869591,-2.266516945007443,-0.7582640071332454,0.4673771560192108,0.0350534245371818,-0.4692239605652168,0.5097049474716187,-0.3417166478099301,0.8625094675708561,204
1724722432738671600,10.097656560868025,2.885427426508069,-0.3968153981648385,1.3460282397419214,-9.403940136969087,-2.4340282052405176,0.6260230541229248,-1.400682806968689,-1.446823000907898,0.6061412266790999,-0.7563222800932461,-0.2282049764599981,0.0921513310881498,-3.889968872070313,-0.2034868597984314,-1.1457794904708862,1.4867466239869591,-2.266516945007443,-0.7582640071332454,0.773735761642456,-0.2411257773637771,-1.031637953742221,0.6764119267463684,-0.0873177247785963,0.563546175544709,205
1724722432778421800,8.653823195934295,1.9981389800548552,0.3044444268509745,1.9571293626658617,-9.302101226216552,-2.4105944304220377,-0.03959197178483,-0.8229294419288635,-2.395925521850586,0.6079237067586138,-0.741640898478746,-0.2699534958281566,0.0867337565570355,-3.889968872070313,-0.2034868597984314,-1.1457794904708862,1.4867466239869591,-2.266516945007443,-0.7582640071332454,1.088532567024231,-0.2046517431735992,-0.4995367908403277,0.6827576160430908,-0.438800253794156,0.6666608053214848,206
1724722432818171000,6.635451575189829,0.1032353335469961,1.2766770556181668,2.941803685985505,-9.018343321302533,-2.487095632430911,-0.0248639639467,-0.2448131293058395,-3.2301101684570312,0.6079878465124613,-0.7251685941492112,-0.3177059809102641,0.0595325479658407,-3.889968872070313,-0.2034868597984314,-1.1457794904708862,1.4867466239869591,-2.266516945007443,-0.7582640071332454,1.188767671585083,-0.0611339882016181,-0.3180143582483753,0.7597946524620056,-0.3571953354381024,1.493495952116698,207
1724722432857911800,4.209868688341975,-2.177709949785471,1.0711983221709729,4.138712500622868,-8.543973997205496,-2.4580399260774253,0.245093286037445,0.0181612465530633,-3.500860452651977,0.6117871414711642,-0.7001620596564173,-0.3675571314370058,0.0197827261619399,-3.889968872070313,-0.2034868597984314,-1.1457794904708862,1.4867466239869591,-2.266516945007443,-0.7582640071332454,1.0019726753234863,0.1307880878448486,-0.0578759965158998,0.7758224010467529,-0.3719151675229892,1.8478106175519524,208
1724722432897662200,1.9058634319394825,-3.1331682616233825,0.5737067734226584,5.262526560693979,-7.938519209605455,-2.335840072080493,0.4184139370918274,0.0480304025113582,-3.245276689529419,0.6168543237066247,-0.6694937212612487,-0.4133676981539334,-0.0199053944333443,-3.889968872070313,-0.2034868597984314,-1.1457794904708862,1.4867466239869591,-2.266516945007443,-0.7582640071332454,0.6902464032173157,0.1618881672620773,-0.6230991653621196,0.8593524694442749,-0.0868562264803796,1.7354511895678937,209
1724722432937411300,-0.0607411766886711,-2.810467170330882,0.2861325250908732,6.192890178763866,-7.272863343542814,-2.2190023296386,0.406798243522644,-0.2024048417806625,-2.9053378105163574,0.6196702085206647,-0.6376966291753283,-0.4544014115678625,-0.0535842860617279,-3.889968872070313,-0.2034868597984314,-1.1457794904708862,1.4867466239869591,-2.266516945007443,-0.7582640071332454,0.5050340890884399,-0.0279486812651157,-0.2755259370110929,0.8252223134040833,-0.2316572951954789,1.8480296671301129,210
1724722432977160400,-1.26891285135746,-2.8444577027380467,0.3348094622373581,6.929254488778114,-6.582561696523428,-2.196750019689649,0.3561686277389526,-0.458062082529068,-2.637633800506592,0.617742319131828,-0.6071426066285539,-0.4933365351753034,-0.0799463058658427,-3.889968872070313,-0.2034868597984314,-1.1457794904708862,1.4867466239869591,-2.266516945007443,-0.7582640071332454,0.2641425430774688,-0.0795856937766075,0.1857510831376537,0.8514358997344971,-0.3620197233872488,1.856241761288792,211
1724722433016910600,-2.0106021557867524,-4.197647504672408,0.3533773845851421,7.487188231268525,-5.896306694546341,-2.3121337639309463,0.2999784052371979,-0.844743549823761,-2.2795510292053223,0.6101146291831157,-0.5792788269540442,-0.5313398688156512,-0.099368637984707,-3.889968872070313,-0.2034868597984314,-1.1457794904708862,1.4867466239869591,-2.266516945007443,-0.7582640071332454,0.0634432137012481,0.0122570814564824,0.7146590394888073,0.7846981287002563,-0.4920636419480666,1.8678771078944203,212
1724722433056659700,-3.5404882487982507,-4.499559490436315,0.9097840636387466,7.864415862518548,-5.292725299602747,-2.511654027365148,0.302035927772522,-0.7981712222099304,-1.8812257051467896,0.599665122726244,-0.5548450962735262,-0.5658671560228122,-0.1110991614244317,-3.889968872070313,-0.2034868597984314,-1.1457794904708862,1.4867466239869591,-2.266516945007443,-0.7582640071332454,-0.0813266634941101,-0.0126117737963795,1.0840015435121952,0.6671729683876038,-0.3843893761055544,1.7948001812458036,213
1724722433096372500,-6.98784287134707,-4.827819969421625,1.3140429096773265,8.103540260457992,-4.85463023493588,-2.633547007369995,0.5277942419052124,-0.4011255204677582,-0.9537346959114076,0.5931848044472379,-0.5344477432164624,-0.5904567267025465,-0.1177207678905715,-3.889968872070313,-0.2034868597984314,-1.1457794904708862,1.4867466239869591,-2.266516945007443,-0.7582640071332454,-0.23093943297863,0.0445810854434967,0.8944266277700662,0.4023772180080414,-0.1367248484963085,0.6945353390663862,214
1724722433136120000,-8.518990362596512,-5.023140881469845,0.0893619987562298,8.094767171415686,-4.863265961334109,-2.6445734282970426,0.4304941892623901,-0.352653831243515,0.6848212480545044,0.5942647275141909,-0.5274044856187488,-0.5972271143016369,-0.1096070905375393,-3.889968872070313,-0.2034868597984314,-1.1457794904708862,1.4867466239869591,-2.266516945007443,-0.7582640071332454,-0.2249530702829361,0.1197583302855491,0.8245530272074043,0.0850856676697731,0.348153475924395,0.5563101233439519,215
1724722433215616500,-3.2388673549354072,-3.902240078496933,-0.6037383390709757,7.356893041360378,-5.8578720422118895,-2.780614760641753,-0.3423718512058258,0.3579860031604767,2.2012996673583984,0.594524347933608,-0.5679861165361368,-0.5649457203526275,-0.0690565758810899,-3.889968872070313,-0.2034868597984314,-1.1457794904708862,1.4867466239869591,-2.266516945007443,-0.7582640071332454,-0.2620461285114288,0.1269862651824951,0.1986480654432438,-0.6315478682518005,0.5200522670593113,0.0458237259727204,216
1724722433255364000,-1.6177689591258764,-2.6356694063514468,-1.1826572941839697,6.893841230091452,-6.4340153951317065,-2.692357800517976,-0.235385462641716,0.5576372742652893,2.023353815078736,0.5999356615057866,-0.5938918444506616,-0.5334458930367374,-0.0529639787916577,-3.889968872070313,-0.2034868597984314,-1.1457794904708862,1.4867466239869591,-2.266516945007443,-0.7582640071332454,-0.3432448506355285,0.2433161437511444,0.290015430938825,-0.7900055050849915,0.166013934347406,0.1491128492332994,217
1724722433295112000,-1.1881254964619874,-2.086621565628052,-1.6814283613488077,6.395214247572421,-6.938769920620322,-2.669284091183543,-0.2343831807374954,0.0844162181019783,2.0316755771636963,0.6022009196459444,-0.6172300592355089,-0.5050966883839048,-0.0354737914526792,-3.889968872070313,-0.2034868597984314,-1.1457794904708862,1.4867466239869591,-2.266516945007443,-0.7582640071332454,-0.3798101544380188,0.2956050932407379,-0.8569096017371862,-0.9285778999328612,0.5062095466025174,0.1373879337812308,218
1724722433334860800,-0.3806131820350885,-0.6848346137851477,-1.0811749417841434,5.7973448005348445,-7.427468798843026,-2.719171573163569,-0.1521570533514022,-0.0581704415380954,2.129579305648804,0.6010116216691745,-0.639722133146291,-0.4789517241411887,-0.0120783176786214,-3.889968872070313,-0.2034868597984314,-1.1457794904708862,1.4867466239869591,-2.266516945007443,-0.7582640071332454,-0.4186913073062897,0.2009890377521515,-1.388071437962353,-0.7583202719688416,0.6961500077214091,0.5665799902826547,219
1724722433374608600,0.5750532195955514,0.5782008699715138,-0.778994368211925,5.145591203096509,-7.861361735644936,-2.8093150776863096,-0.4556558430194855,0.013017188757658,2.106030464172364,0.5971924319312287,-0.6626817505011325,-0.451761118172081,0.0112213303693951,-3.889968872070313,-0.2034868597984314,-1.1457794904708862,1.4867466239869591,-2.266516945007443,-0.7582640071332454,-0.4500376880168915,0.1672013252973556,-1.742413575926423,-0.4927157163619995,0.7975364985313266,0.591770984032005,220
1724722433414356200,1.67051416862458,0.967014894118905,-0.156410458895564,4.497546981570125,-8.17775057505071,-3.011117168447375,-0.8791679739952087,0.2259692996740341,2.0198302268981934,0.5879364756462451,-0.688729705717414,-0.4232914385636187,0.0283963295830262,-3.889968872070313,-0.2034868597984314,-1.1457794904708862,1.4867466239869591,-2.266516945007443,-0.7582640071332454,-0.4463782608509063,0.1003292724490165,-1.5154615540787575,-0.2574211657047272,0.8610345727127044,0.7906916741378605,221
1724722433454104800,2.4837603505283594,0.9844570273071528,0.4117760898008942,3.8861622193992136,-8.383437398290633,-3.284219531573355,-1.176129937171936,0.567291259765625,1.9966943264007568,0.5754382414306357,-0.7171554025782829,-0.391326877635671,0.0377119335541255,-3.889968872070313,-0.2034868597984314,-1.1457794904708862,1.4867466239869591,-2.266516945007443,-0.7582640071332454,-0.439063012599945,0.1776095479726791,-1.5421785883516073,0.0013246583985164,1.026036407408118,0.901289353146404,222
1724722433533601500,4.32424880849868,1.285123396924138,1.3341051622360944,2.8062814090788364,-8.514413556200266,-3.974908424344658,-1.307423114776611,0.8647155165672302,1.7542058229446411,0.5438520946299824,-0.7750195939411163,-0.3193877864668084,0.0395076231463925,-3.889968872070313,-0.2034868597984314,-1.1457794904708862,1.4867466239869591,-2.266516945007443,-0.7582640071332454,-0.4670924544334411,-0.241544172167778,1.796024754604697,0.1809272766113281,0.2793873434132896,0.7940686032250523,223
1724722433573349000,5.907247775277496,-0.5120563729345798,1.111310552328825,2.406167992281913,-8.458567165815829,-4.339740684401988,-1.234009861946106,0.5405287146568298,1.3223191499710083,0.5266839878900421,-0.7987983153386596,-0.28842061636017,0.0365875756033826,-3.889968872070313,-0.2034868597984314,-1.1457794904708862,1.4867466239869591,-2.266516945007443,-0.7582640071332454,-0.2795925736427307,-0.0390040427446365,2.513619774480164,0.1800466477870941,0.1962479089663364,0.8244296200234442,224
1724722433613097000,6.614925504511595,-1.4763567473977803,1.7983523207694292,2.055227479454875,-8.411248365280033,-4.604057683525979,-0.3679006099700928,0.1024215742945671,1.153612732887268,0.5135257524772404,-0.8146867651007971,-0.2665090720516989,0.0393670698025416,-3.889968872070313,-0.2034868597984314,-1.1457794904708862,1.4867466239869591,-2.266516945007443,-0.7582640071332454,-0.1578476279973983,-0.2765121757984161,2.898559295281768,0.0786162689328193,-0.0626909453498432,0.611293321027793,225
1724722433652845600,7.239545011308789,-0.2019359462738037,1.323609779445827,1.6948668118536472,-8.503379536488652,-4.581519103981554,0.3188002705574035,-0.0428220517933368,0.9347826838493348,0.5136734368060938,-0.819582368099219,-0.2487513099898982,0.0504681182026205,-3.889968872070313,-0.2034868597984314,-1.1457794904708862,1.4867466239869591,-2.266516945007443,-0.7582640071332454,-0.120792880654335,-0.0428890325129032,1.1418813394203782,-0.0233454722911119,0.1120269080940633,0.2032461338232271,226
1724722433692593400,7.685581390368938,1.8380448642104863,1.290651220434904,1.4960329232484102,-8.625907599526643,-4.418827080598473,0.6298479437828064,0.2966719567775726,0.2610569298267364,0.5209402993539571,-0.8180166904932409,-0.2369518295681667,0.0576532342199863,-3.889968872070313,-0.2034868597984314,-1.1457794904708862,1.4867466239869591,-2.266516945007443,-0.7582640071332454,-0.209134429693222,0.1652549356222152,-0.7219500732798129,-0.2391729652881622,-0.2254569061853922,0.218350727442,227
1724722433732341000,7.305335288080573,3.3356372918605803,0.6787333743005991,1.6431426159657536,-8.739798182600737,-4.133565493123233,0.80597323179245,0.3242921829223633,-0.7580690383911133,0.5352525214827061,-0.8094028562621112,-0.2358393512699529,0.0524542898151264,-3.889968872070313,-0.2034868597984314,-1.1457794904708862,1.4867466239869591,-2.266516945007443,-0.7582640071332454,-0.2890267968177795,0.0929065495729446,0.1165068299870938,-0.4089112281799316,-0.9422941482298076,-0.2046721663046628,228
1724722433772089900,7.042190547606348,1.7827584457963703,0.1873153002470731,2.121916166371107,-8.759762527742982,-3.864510651822388,0.7668694257736206,-0.3969996273517608,-1.969477653503418,0.5488645430797329,-0.7943450572232198,-0.2570041678850725,0.0413836030646248,-3.889968872070313,-0.2034868597984314,-1.1457794904708862,1.4867466239869591,-2.266516945007443,-0.7582640071332454,-0.1657635271549224,0.0473563857376575,-0.2773269585510716,-0.5468263030052185,-0.904359335176274,-0.4650398432809859,229
1724722433811837700,5.916430029642582,-0.593217237317562,0.319874635694921,2.857721381197869,-8.633887492364645,-3.6687639155775305,0.8651878237724304,-1.3421988487243652,-2.935936450958252,0.5585021162217106,-0.770745622299864,-0.3049690061702443,0.0319464675131082,-3.889968872070313,-0.2034868597984314,-1.1457794904708862,1.4867466239869591,-2.266516945007443,-0.7582640071332454,-0.0150071941316127,-0.0657168477773666,-1.1492973878305404,-0.8050709962844849,-0.3121695046776905,-0.8418580169472842,230
1724722433851579400,3.657366323250532,-1.3318033150345086,1.0999015618249772,3.691786186985672,-8.351546468511224,-3.5767031792566177,0.9921383857727052,-1.9292504787445068,-3.3152334690093994,0.5629004204123004,-0.7380221713777075,-0.3710584729554144,0.027966985485553,-3.889968872070313,-0.2034868597984314,-1.1457794904708862,1.4867466239869591,-2.266516945007443,-0.7582640071332454,0.1202791929244995,-0.3064151108264923,-1.7249539070814848,-1.1048591136932373,-0.0257319162426167,-0.4803064590610563,231
1724722433891327200,1.7869266713917251,-1.1188666667968037,1.6504700362443925,4.5066813051402566,-7.949471396252512,-3.558948326857388,0.9997601509094238,-1.8093184232711792,-3.3607897758483887,0.5637877147534974,-0.6984400204012526,-0.4400424958208238,0.0262209449842946,-3.889968872070313,-0.2034868597984314,-1.1457794904708862,1.4867466239869591,-2.266516945007443,-0.7582640071332454,0.2082148045301437,-0.2831031382083893,-1.5082750035755337,-1.235023856163025,-0.1402421450354158,0.0720952404011972,232
1724722433933559800,0.6063555358320474,-1.7361603607505558,1.5395616838514803,5.315552048438788,-7.422708452573418,-3.5803199084490536,0.8161001205444336,-1.2456583976745603,-3.315905809402466,0.563143102368451,-0.6559745638377128,-0.5022378722157396,0.0180099196549447,-3.889968872070313,-0.2034868597984314,-1.1457794904708862,1.4867466239869591,-2.266516945007443,-0.7582640071332454,0.19788458943367,-0.3527328670024872,-1.9674783227227628,-1.229474425315857,0.0605814652154687,0.5521896093478426,233
1724722433973307600,-0.8619353940099477,-2.4195032746732235,1.3250953418284654,6.07650544078648,-6.799668908444047,-3.6070685069039454,0.5492189526557922,-0.7899032831192017,-2.983508825302124,0.5622150535987435,-0.6144843802708412,-0.5534602552394777,0.0021939306356555,-3.889968872070313,-0.2034868597984314,-1.1457794904708862,1.4867466239869591,-2.266516945007443,-0.7582640071332454,0.0713006407022476,-0.2591544389724731,-1.6575583870701491,-1.1962734460830688,-0.1525838041463401,0.7452263925142586,234
