time_imu,phone_acc_x,phone_acc_y,phone_acc_z,phone_gravity_x,phone_gravity_y,phone_gravity_z,phone_gyro_x,phone_gyro_y,phone_gyro_z,phone_ori_w,phone_ori_x,phone_ori_y,phone_ori_z,watch_gyro_x,watch_gyro_y,watch_gyro_z,watch_acc_x,watch_acc_y,watch_acc_z,headphone_gyro_x,headphone_gyro_y,headphone_gyro_z,headphone_acc_x,headphone_acc_y,headphone_acc_z,frame_imu
1733407175232187100,-0.5619646054416895,11.973241174399853,-2.732941447579861,-0.3008456169077195,9.8018721180737,-0.0563040344914421,-2.065096855163574,-0.0177429988980293,-0.0737084671854972,0.3296188610712062,0.3505920634462879,-0.6164056391107359,-0.6232821718594989,1.8774014711380005,1.1985758543014526,-1.4248881340026855,-0.9515284895896912,0.7452318072319031,-0.4835706651210785,0.0159936025738716,-0.0009868927299976,0.1745318065196275,0.0816484615206718,-0.2406679010543972,-0.0723632254213094,0
1733407175272187100,0.8204222110129893,5.306204958900809,-4.647110935571789,-0.370012767967768,9.756166013431548,0.9223319219794124,-2.9545977115631104,-0.4377261698246002,-0.20172119140625,0.3410526305597434,0.3327622126132343,-0.5850157853912311,-0.6562841726886927,2.210169792175293,0.8973411917686462,-1.9808474779129028,-0.531269907951355,0.5481332540512085,-0.1833165884017944,0.0210267640650272,-0.0627665445208549,0.6423176605731249,0.0556906685233116,0.1567557652018964,0.0082777067407965,1
1733407175312187100,1.0642606318622827,-3.860857682272792,-2.435985038396716,-0.4221658202596008,9.56399567436874,2.126534619951993,-2.999845504760742,-0.1249636709690094,-0.1976091414690017,0.3544943130031385,0.3086942775847949,-0.544320450028914,-0.6948070828559083,2.62291955947876,0.3477450013160705,-2.276881217956543,0.1492477059364318,0.3428943157196045,0.3916831612586975,-0.0270258523523807,-0.0744316801428794,0.3756529292792082,0.0894585847854614,0.2103009659718722,0.2896197826847433,2
1733407175352187100,0.7712260722979902,-11.357248626172542,-1.4760755923688411,-0.4963417941913008,9.292100056684015,3.0953041026532646,-2.0282137393951416,0.0095658944919705,-0.215432807803154,0.3679967977488415,0.2928396267369319,-0.5063875596646006,-0.7227689489962688,1.788227081298828,0.0328450128436088,-1.5502086877822876,0.9406132102012634,-0.2348617613315582,0.741158127784729,-0.0479487404227256,-0.0114347413182258,-0.4163222087979316,0.1396273672580719,0.1003473570205271,-0.0234323135137557,3
1733407175392187100,-0.0200726643549278,-15.175453161633014,-0.992076854661107,-0.5332871943486854,9.103010147979855,3.608490356400609,-0.7338806986808777,-0.1487660408020019,-0.0931654945015907,0.3721120988135475,0.2818621517242666,-0.4863866012768466,-0.7385894765601543,0.3312535583972931,0.0576715879142284,-0.6696730852127075,1.1732041835784912,-0.4785672426223755,0.8635612726211548,-0.0356253907084465,0.0352174453437328,-0.7572101141661405,0.0888596028089523,0.0737598674114793,-0.1729877919480204,4
1733407175432187100,0.587179272327572,-15.0402310367167,-1.765502482829988,-0.5579998299965635,9.099766636013984,3.612928046587109,0.5755564570426941,0.0584534406661987,-0.0729673728346824,0.3710511055880925,0.2823483054846042,-0.485871765025076,-0.7392760108216228,-0.8662621378898621,0.5173510313034058,0.7077283263206482,1.2941460609436035,-0.4551941752433777,0.8775172829627991,0.0405657812952995,0.0456395708024501,-0.6712666916817426,-0.0168667882680892,0.1272282766181975,-0.3031900428757071,5
1733407175472187100,1.0473322203498332,-11.302637915062904,-0.446157959613204,-0.6115874816687777,9.201126238816975,3.3370071189090607,1.0016545057296753,-0.0859865546226501,-0.2328886836767196,0.3634740587164891,0.2885781339817321,-0.4965708908775811,-0.7335029803150862,-1.5925333499908447,0.3717307448387146,1.5170671939849854,1.0108940601348877,-0.4493889510631561,0.6531449556350708,0.0300097130239009,-0.0198439396917819,-0.3012701807290315,-0.032020553946495,0.0506820664238184,0.0847135884284973,6
1733407175512187100,-1.111357021819055,-4.257451108250022,1.599359442210197,-0.6275814253427088,9.399597723850608,2.7247186858966943,2.2449934482574463,0.3247387111186981,0.338823139667511,0.3548822483529949,0.302061250057379,-0.5194583863103301,-0.7162266193979937,-2.225756883621216,-0.3620520234107971,1.940218091011048,0.4764734506607055,-0.0693131983280181,0.3502613306045532,0.0692374408245086,-0.0471183285117149,0.3725233990818262,0.2672298550605774,0.1674034159444272,0.6795818078234791,7
1733407175552187100,0.7526395183149724,4.79386801545918,2.0045166983932257,-0.4612949941968545,9.637631403943896,1.753182953352481,2.812959909439087,0.0307477787137031,0.4497416317462921,0.3473494092383759,0.3169118369766875,-0.5569375490029249,-0.6846428673720188,-2.6082873344421387,-0.7544565796852112,1.7625972032546997,-0.208501398563385,0.1061599254608154,-0.1002241969108581,0.0618015900254249,-0.0959472209215164,0.2682704129248857,0.3119639754295349,0.0634407910361886,0.0475792050376534,8
1733407175592187100,0.9237233763378112,7.165892330598831,-1.3799258331686255,-0.3470199418498202,9.7717376765728,0.7504007264122367,2.1809985637664795,0.3358679413795471,0.1993281990289688,0.3372232222791084,0.3335556402277618,-0.5920142264286017,-0.6515675705107448,-1.427384614944458,-0.7358748912811279,1.4444597959518433,-0.5569177865982056,0.5347843170166016,-0.2727761268615722,0.041057288646698,-0.0725645944476127,0.1000549499452114,0.1655974835157394,-0.0637558483347296,0.0404132589310407,9
1733407175632187100,0.2825221343076787,7.166998246014118,-2.284548276260495,-0.2677079384702258,9.802055657947063,0.1357522497376427,0.9784115552902222,0.26840540766716,0.2270368188619613,0.3329898920166529,0.345234294832363,-0.6114669598364486,-0.6293164576483878,-0.655340313911438,-0.7228689789772034,0.7668872475624084,-0.6066862940788269,0.4319653511047363,-0.5755760669708252,0.0700695216655731,-0.0175010412931442,0.003963058412075,0.0441098809242248,-0.1111455221496522,-0.0585825373500585,10
1733407175672187100,0.7149966739453375,5.138699690017104,-0.8501075935721397,-0.2114660459621809,9.80381156170368,-0.1045800718199927,0.3689731061458587,0.1091464534401893,-0.0010945941321551,0.3329972683434839,0.3499919110639616,-0.6187388477372028,-0.6195003581192788,-0.2441034913063049,-0.462918072938919,0.4453779757022857,-0.3692496418952942,0.2550805211067199,-0.2138616740703582,0.0586126334965229,0.0242164060473442,-0.03386836733222,-0.0424859449267387,-0.1707411089997738,-0.050785892124474,11
1733407175712187100,-0.0322357976943254,2.527159931793809,-0.5575134712517261,-0.2478858513428829,9.80088369155824,-0.2271859767340123,0.2670809328556061,-0.0500922091305255,-0.1064944416284561,0.3295361885651486,0.3531008894583608,-0.622015291904088,-0.6162975389180042,-0.2539622485637665,-0.1347948908805847,0.1999431848526001,-0.2761194705963135,0.1555631756782531,-0.1600812673568725,0.0415616407990455,0.0252144411206245,-0.0064759180158376,-0.0797745510935783,-0.0359005307469516,-0.0805573455318808,12
1733407175752187100,0.271997178363055,0.5004372468113899,-1.2829261791408062,-0.278281921188347,9.798968797847628,-0.2704619864187203,-0.0952590405941009,-0.0597593747079372,-0.0583133064210414,0.327246256199745,0.3542318835174226,-0.6231448435036759,-0.6157273151223969,-0.0628234520554542,-0.0580666773021221,-0.0050329221412539,-0.0376429557800293,0.0976581573486328,-0.0662112832069397,0.0329133085906505,0.0144841149449348,-0.0615893179506063,-0.0567345544695854,-0.0581548134572803,0.0071519175812602,13
1733407175792187100,0.1154312731774523,-0.7169114215254784,0.3287584916353225,-0.2885621451242827,9.80021324495077,-0.2072523007246665,-0.0914846658706665,-0.0434698238968849,0.0031484256032854,0.3272118070740392,0.3526449670897518,-0.6214567191259822,-0.6183571910483369,-0.0001656601671129,-0.0159304086118936,0.0043675703927874,0.0316900610923767,0.0015399456024169,0.0240349769592285,0.0325368084013462,0.0171321835368871,-0.0390443086653947,-0.0158680118620395,-0.0257299229316413,-0.0345893750831484,14
1733407175832187100,0.4717746679613366,-0.7671820576041937,1.0180641133546828,-0.2928079294678755,9.799306066977977,-0.2412945450527593,0.2530237436294555,0.0484388843178749,-0.0481848903000354,0.3265083364697067,0.353391307638543,-0.6224284548923451,-0.617324547099524,-0.1785670816898346,-0.0974984541535377,0.1091568991541862,0.0944392681121826,-0.0443355441093444,0.0744053423404693,0.0328842587769031,0.0086219394579529,-0.0724918202370405,0.0035243071615695,0.0004710515778511,-0.0968488473802804,15
1733407175872187100,0.6190839383713901,-0.2686515211969614,0.895477013605833,-0.3250462661791592,9.793684719964862,-0.385362787714973,0.4565874636173248,0.1723304241895675,-0.1343329399824142,0.3243181824085185,0.3582698638147964,-0.625532364384785,-0.6125110937149063,-0.2908416986465454,-0.3171166181564331,0.1357469111680984,0.0704430341720581,-0.0428075194358825,0.0441647469997406,0.0368615128099918,0.0084635820239782,-0.146529700872302,-0.0249409917742013,-0.0326755042858421,-0.1398974232509732,16
1733407175912187100,0.0775930158335715,0.9453186106175184,-0.0444026938933879,-0.3885400660442188,9.77995780790746,-0.6098135673314332,0.6380441784858704,0.302135020494461,-0.2199112474918365,0.3212675406147081,0.3671852802380278,-0.6294972664418327,-0.6047275862318824,-0.3735847771167755,-0.468953013420105,-0.0139997852966189,-0.0182713270187377,0.0303903222084045,0.0527179539203643,0.0553392209112644,0.0040055071003735,-0.1006757121920585,-0.0273052472621202,-0.0786000739842653,-0.1078255839467048,17
1733407175952187100,-0.1314811482897028,3.5763738011717794,-1.39817636013031,-0.4657226744459942,9.762172560369969,-0.8083804024983197,0.2313034832477569,0.1516526788473129,-0.1563224047422409,0.318185718877855,0.3761458428774185,-0.6322422268702379,-0.5979481086165344,-0.0732225626707077,-0.1560731828212738,-0.2491408735513687,-0.1832483410835266,0.16279137134552,-0.21247598528862,0.0738169327378273,-0.0004525682888925,-0.0547603487133979,-0.0296695027500391,-0.1244808045409619,-0.0758282711833715,18
1733407175992187100,-1.337635236058384,8.525008599972724,-1.5917629957318304,-0.4417057659773156,9.771630124545096,-0.7003860378559679,-0.801162600517273,0.2583667039871216,0.2568067014217376,0.3224856967596489,0.375163922013353,-0.6284598476596401,-0.6002443861385022,0.6618682146072388,0.2708054780960083,-0.751388430595398,-0.5832468867301941,0.4941897988319397,-0.44572713971138,0.0525746643543243,0.054832350462675,0.0809866768598556,0.073802649974823,-0.1281863079953938,-0.0189659817546606,19
1733407176032187100,0.2789668712452053,12.23984511541724,-1.4885703322827817,-0.3437599171405658,9.798331668987869,-0.2119117987019941,-1.693880319595337,0.3002652823925018,0.0857324451208114,0.3390714756639001,0.3681837439712521,-0.6125726290380419,-0.6117401634815998,1.6931064128875732,1.0074596405029297,-1.3262155055999756,-0.9347288608551024,0.6352744698524475,-0.5936297178268433,-0.0093064121901988,0.0639732405543327,0.4380827897071838,0.0967465341091156,0.0325919176556169,-0.089852120360732,20
1733407176072187100,0.8847207879222929,6.779043469044566,-2.5110937631338834,-0.3644309127148241,9.780302675822377,0.6190757550649345,-2.492656946182251,-0.2452956140041351,-0.1811844855546951,0.354000210668537,0.3543646491732569,-0.5855438636744,-0.6373758158422205,1.706318974494934,0.8741425275802612,-1.7467358112335205,-0.6700149178504944,0.5324580073356628,-0.2201012969017028,-0.0724289566278457,0.0325600728392601,0.4325532126307487,0.0943328142166137,0.088592329557985,0.1951534465268254,21
1733407176112187100,0.7569590620145201,-2.344192889884114,-2.37307601614967,-0.4560376216579228,9.66341641806364,1.6064825720883904,-2.467228412628174,-0.3666705191135406,-0.3018356263637543,0.3638675827176676,0.3348735657573009,-0.5531291695690068,-0.6704537004882691,2.3502793312072754,0.3009538650512695,-2.1636297702789307,0.0124557018280029,0.2405735254287719,0.1731408238410949,-0.0709180608391761,0.0347361713647842,0.1144786120951175,0.166407823562622,0.0136318541850894,0.437830568511784,22
1733407176152187100,0.3493045456556603,-10.119867223632337,-1.678782084623724,-0.5379976005293429,9.483159219634532,2.4393898784041403,-1.7646414041519165,0.1484263092279434,-0.1659261435270309,0.3732112690746879,0.3196076530935985,-0.5229499775743296,-0.6964822839899457,1.358361005783081,-0.0177785884588956,-1.758411169052124,0.75079345703125,-0.0847132503986358,0.6466352343559265,-0.0190717689692974,0.0827985778450965,-0.3966875340014696,0.166204422712326,-0.0276839796088635,0.1801312339618802,23
1733407176192187100,0.6239756559357047,-14.214237309181687,-1.7014470670267938,-0.6037747620912268,9.355954981479048,2.8761022565409537,-0.6029050946235657,0.5960062742233276,-0.004343579057604,0.3829336767774939,0.3161493339062771,-0.5033976442426604,-0.7071084189266187,0.3041846454143524,0.0668915584683418,-0.9049540758132936,1.241945505142212,-0.225992739200592,0.8700456619262695,0.0281803049147129,0.1076707392930984,-0.6060527534931898,0.0405979007482528,0.0034654110882431,-0.0686982731729745,24
1733407176232187100,1.618915937203914,-14.084160145938396,-2.3039652166530487,-0.6744036745332181,9.336758698099851,2.922417725253105,0.1489328444004058,0.3694799840450287,-0.137962058186531,0.3888614224503079,0.3226099602416269,-0.4969114385150643,-0.7055414764145739,-0.7673839926719666,0.196862444281578,0.3604259490966797,1.2891795635223389,-0.4426310956478119,0.7473413348197937,0.0935719907283783,0.0924634337425232,-0.752860102263093,-0.0725909322500228,-0.027642186293751,-0.0111252051264047,25
1733407176272187100,0.286870995433256,-10.256183573526144,0.6098460082963109,-0.7523937268603592,9.37721345808506,2.7698689102217555,0.7263561487197876,-0.0921210348606109,-0.1312043815851211,0.3840739493281808,0.3284063817291625,-0.5009243848581911,-0.7026459368467581,-1.52061927318573,0.1598400771617889,1.1239391565322876,0.9191678166389464,-0.4159131944179535,0.5356864929199219,0.0961145386099815,0.1016824916005134,-0.413240609395504,-0.1064335629343986,-0.0634223785966634,0.0804635297685861,26
1733407176312187100,-1.2082651981711388,-4.348318543133139,3.094595077601075,-0.6922820071816445,9.507373623436688,2.3023840849414468,1.7877932786941528,0.2999487817287445,0.5539727807044983,0.3798009605038924,0.3375246274982238,-0.5183514311101304,-0.6878518205266743,-1.8222336769104004,-0.4648685753345489,1.613901138305664,0.4164172410964966,-0.1208402514457702,0.1562906503677368,0.0743153542280197,0.1554220914840698,-0.0134592010319232,-0.0084624886512756,-0.1338471833012998,0.3275257349699735,27
1733407176352187100,-0.9792477682262658,3.304277692478895,4.102365760478377,-0.3832026140064001,9.689202601227164,1.4638536780469118,2.537087917327881,0.6863712668418884,1.032455325126648,0.3816448272565771,0.3503676902996694,-0.5500970024056989,-0.6549678435471626,-1.7271106243133545,-0.6929931044578552,1.539679765701294,-0.406268835067749,0.0118209719657897,-0.1331342160701751,0.0643617063760757,0.0240217149257659,0.193544550025463,-0.1234267354011535,0.0539634992472827,-0.2516512865573168,28
1733407176392187100,0.2984656447023153,3.6790082462161777,-1.0599486138820648,-0.0725128493253374,9.797652454552054,0.4136639493741095,2.4806153774261475,0.3122404217720032,0.7819855809211731,0.3796483781000938,0.3683041632131764,-0.5858848452897184,-0.6139690509897662,-1.1701648235321045,-0.8655526041984558,1.3418632745742798,-0.4417777061462402,0.2390764951705932,-0.2584599256515503,0.0278506837785244,0.0868498831987381,0.1649707819700241,-0.1840736865997314,-0.0225531925916671,0.0808534058690071,29
1733407176432187100,2.1667878660157323,5.2603007013380525,-1.6953846982479095,0.1780336406281217,9.797131645548344,-0.3935567982276901,1.734547734260559,-0.0126106655225157,0.4061512351036072,0.3738614669096739,0.3780834966194011,-0.6140998955113935,-0.5832338622455456,-1.282127857208252,-0.6781478524208069,0.9748282432556152,-0.355433702468872,0.2543351054191589,-0.1995089948177337,0.0663220733404159,0.0124808922410011,0.2689034501314163,-0.0808628648519516,0.0334961730189621,0.2427253450408577,30
1733407176472187100,0.9694969201929868,4.262480334588885,-3.5066894395709034,0.2389764043034985,9.760357619902493,-0.9212368932843208,0.9024813771247864,-0.0130483778193593,-0.0377141572535038,0.3646457782782082,0.3853366044533868,-0.6312572471654598,-0.5657414374072002,-0.6884961128234863,-0.3425804674625397,0.5693539977073669,-0.338469386100769,0.2860801219940185,-0.1986749470233917,0.0406942032277584,0.0552513375878334,0.1767787086635827,-0.0655578002333641,0.0048063773684203,0.1563926309779286,31
1733407176512187100,0.6272007554620505,2.9030753114014862,-2.602766961441934,0.1881746387564577,9.741599727940558,-1.111836329768598,0.1727011799812317,0.1668744683265686,-0.2371493875980377,0.3609122349773278,0.3922542384024155,-0.6346845583161462,-0.5595125924223766,-0.3468932509422302,-0.0823527872562408,0.2836151123046875,-0.1922221779823303,0.2113317251205444,-0.0482578724622726,0.0150663368403911,0.098021775484085,0.0847819774895906,-0.0502527393400669,-0.023893355154246,0.0699777915894985,32
1733407176552187100,-0.2741042336449027,1.3023948497205973,-1.2753168731808662,0.1329959550331346,9.74400269742906,-1.0986834182068703,-0.2168120592832565,0.0881422013044357,-0.0224051997065544,0.3607664457506648,0.3951329118399025,-0.6323663877042036,-0.5602055938986127,-0.0172354560345411,0.0436142496764659,-0.0242960322648286,-0.1381614804267883,0.1403490304946899,-0.0814597606658935,-0.0132877510040998,0.0872774049639701,0.115234983420372,-0.0470301061868667,0.0251638134814798,-0.0170905432716012,33
1733407176592187100,0.6647578212443739,0.578806434649229,-0.1756897443830966,0.1561542008458636,9.753370829755069,-1.0088416000444442,-0.2037723958492279,-0.1189337968826294,0.0404815711081028,0.3639994004959235,0.3935561118171773,-0.6297223150494179,-0.5621991116374775,0.0902635678648948,-0.0034385321196168,-0.1071544960141182,-0.043476402759552,0.0526680350303649,-0.040564477443695,-0.0256416983902454,0.0374752730131149,0.0374544091254472,-0.0460776984691619,0.0143356916055083,-0.0182353293925523,34
1733407176632187100,0.0352481038533616,-0.077123571690917,-0.1355576404809951,0.1197764262422919,9.759873635777833,-0.9491652761083096,-0.0789268985390663,-0.4408115446567535,-0.1380215436220169,0.3599820097781261,0.3889828202712692,-0.6301478616394363,-0.5674672098082777,-0.1589672863483429,0.0311190709471702,-0.096398189663887,0.012857437133789,-0.0237942337989807,0.0285825282335281,-0.0300491191446781,0.0195211619138717,-0.0079629417032003,-0.0415602326393127,0.0422892819359898,-0.0149459324583411,35
1733407176672187100,0.1088364414896815,-0.0802168615311384,0.6480161644756793,0.0740205778740113,9.756382871052622,-0.9888907719708978,0.2520790696144104,-0.1855317950248718,-0.0500838942825794,0.3539492564858922,0.3868456062174786,-0.6330638777422032,-0.5694739352672815,-0.1760749071836471,0.0646242499351501,-0.0716624185442924,0.0083767175674438,-0.0090482234954833,0.0499215424060821,-0.0343648977577686,0.0138904312625527,-0.0447737922281026,-0.0444913767278194,0.0499449112556874,-0.0399041403651237,36
1733407176712187100,-0.0723181989694945,-0.0914589710354805,0.3350502852559089,0.0229377942953491,9.747573541653155,-1.0745586654495447,0.1151315197348594,0.4362980425357818,-0.1460786759853363,0.3512373115307645,0.3905935229191384,-0.6342112771263633,-0.5673139693120838,-0.1736394464969635,0.0547381713986396,-0.1013792976737022,0.0029571652412414,-0.0057725310325622,0.0420056581497192,-0.0439212545752525,0.0278960410505533,-0.0694920538991689,-0.052791453897953,0.0915431421875953,-0.0754027392476797,37
1733407176752187100,-0.1067279249031096,-0.27631927934587,0.0162650522328913,0.0343033863321761,9.745984226635098,-1.088568266905844,-0.004287976771593,0.5080572366714478,0.0250678397715091,0.3581769848945844,0.3981952008222436,-0.630033425133028,-0.5623234186384864,-0.045513167977333,0.0002130348584614,-0.0497870780527591,0.0279258489608764,-0.0089362263679504,-0.0467628836631774,-0.0722334831953048,0.0276590064167976,-0.0845288795113563,-0.051071673631668,0.0636595483534038,-0.0539756280764937,38
1733407176792187100,0.309967537654005,0.0137578917175531,-0.1431250069953501,0.036892295430391,9.748001411676409,-1.070286321892589,-0.0447204373776912,-0.0485426299273967,-0.0450168140232563,0.3606002847627179,0.3999847652905415,-0.6281573064223982,-0.5616031895074284,-0.1117920577526092,0.0082914680242538,0.006611150689423,-0.0066244006156921,-0.0279030799865722,-0.0269761681556701,-0.0827028751373291,0.0403077900409698,-0.016367197433114,-0.0351716578006744,0.0846066209226846,-0.0046592239826917,39
1733407176832187100,-0.0157981471071951,0.0147878192871809,-0.3923264161825179,0.0202871838884428,9.750412564471365,-1.0485337781593205,-0.0936101824045181,-0.0372983813285827,-0.0195852797478437,0.3597530997831141,0.3992087916299626,-0.6277680195855719,-0.5631317175048126,-0.135829746723175,0.0174845941364765,0.0163134448230266,0.0043513774871826,0.0242534279823303,0.0136497616767883,-0.0721678212285041,0.034546609967947,-0.0033837972193956,-0.0206707809120416,0.0831942699067294,0.0470049122810363,40
1733407176872187100,-0.2254259447915479,0.0893266351819038,-0.4013689698159694,0.0252107852952089,9.755331316173075,-1.001633568361774,-0.1205203682184219,0.0924080461263656,0.0456384718418121,0.3609291826720902,0.3982675092435913,-0.6264599685621873,-0.5645007110660427,-0.1392226070165634,0.078157901763916,-0.0081504182890057,-0.0144410729408264,0.0172467827796936,0.0386599600315094,-0.0580657310783863,0.0418422035872936,-0.0560877979248762,-0.0139800067991018,0.0559742545478045,0.0449997099384665,41
1733407176912187100,0.1995074770178645,0.0623772534579038,-0.47246897036843,0.0512851742829661,9.762976862490175,-0.9230513222951442,-0.3283464312553406,-0.1229161843657493,0.1309888511896133,0.364388858683791,0.3971928614015284,-0.6239393809525603,-0.5658252314003066,-0.1340361088514328,0.0670474618673324,-0.0526589639484882,-0.0145432949066162,0.0072885155677795,0.0249345302581787,-0.0552247986197471,0.0457553379237651,0.0003191489517688,-0.0307265315204858,0.1043655066207051,-0.004544949953258,42
1733407176952187100,0.6590232231151312,0.0191278943181037,0.6650619918227195,0.1334574350650422,9.769116680419444,-0.8467218966566026,-0.0146197630092501,-0.4443463087081909,0.2360877692699432,0.364512202517787,0.3889541831331788,-0.6260075440887576,-0.5691748863570347,-0.0543383508920669,-0.0094358110800385,-0.0648751482367515,0.0201730132102966,0.0294606685638427,-0.0705438256263732,-0.0465997382998466,0.0232615545392036,0.0162561382740736,-0.0299414955079555,0.0799780843392014,0.0390180051803588,43
1733407176992187100,0.1817449527688324,0.3468856844782829,0.0042201749783009,0.1688557519108988,9.766522572273017,-0.8700228388756513,-0.0420339815318584,-0.0227768011391162,-0.0245575979351997,0.3616380295321483,0.3844518765246587,-0.6297265881996419,-0.5699642739469747,-0.0563016347587108,0.1018654108047485,-0.0140107041224837,0.0105934739112854,-0.0207005143165588,0.0668908357620239,-0.0374497734010219,0.0205284319818019,-0.0222322900742292,-0.0217642001807689,0.0348389659300446,0.025082418808341,44
1733407177032187100,-0.2010248045119456,-0.2715846520394087,0.2720318843502551,0.1835173327362164,9.773421684136986,-0.7854382105890662,-0.2898769676685333,0.5518090128898621,0.0690229907631874,0.3680037335914768,0.3871000652626899,-0.624659700997561,-0.5696726556187348,-0.0030637122690677,0.076146200299263,-0.0428053364157676,-0.0019110441207885,-0.0304266214370727,0.0023398399353027,-0.034282848238945,0.0160828493535518,-0.0059486792713403,-0.0360248200595378,0.0438286203324794,-0.0169023272231221,45
1733407177072187100,0.3878737476225942,0.256697464030981,0.6287422127503901,0.2024467270738445,9.775904733124374,-0.7490503347165882,0.1361064165830612,0.5903549194335938,-0.0318052880465984,0.3758883333800034,0.3930440060242722,-0.6194411566498366,-0.5661421871922684,-0.0951787307858467,0.0662863850593566,-0.0423539951443672,0.0195725560188293,-0.0111611485481262,0.03003790974617,-0.0353461168706417,0.0195796154439449,-0.0304939224630594,-0.0430244505405426,0.0034806817226111,0.0179220256596803,46
1733407177112187100,-0.0068746898087672,0.0209708918362855,-0.55261985399127,0.2367180309174582,9.76817150852382,-0.8349697187382727,0.3047556579113006,1.5668214559555054,0.1317596137523651,0.385505111975485,0.4050671961677168,-0.6152171774751091,-0.5557105288742783,-0.1373171210289001,0.0160869657993316,-0.0229980070143938,0.0242025256156921,0.0088819861412048,-0.0021430701017379,-0.025764737278223,0.0087963640689849,0.0113818102359771,-0.0412879809737205,0.0094338910385966,0.0356686947524547,47
1733407177152187100,-0.4461400220977142,-0.0947492447525262,-0.1277518621008843,0.4162126474762335,9.754155258131028,-0.923901728579402,0.289551317691803,1.9546815156936648,0.4251042902469635,0.4096550081218303,0.424824870590823,-0.6054995516756367,-0.5339258614525937,-0.1037650257349014,-0.181740254163742,-0.0299599096179008,0.0362381935119628,0.0267783999443054,-0.1135334372520446,-0.0027698669582605,-0.0005016280338168,0.0236889186233282,-0.0536922514438629,0.0061276891000568,0.069165598423779,48
1733407177192187100,-0.5296927865859121,0.0649807139545679,0.0647685325086116,0.7201813831068575,9.728201901707052,-1.0068871049758046,0.3417998850345611,2.0883336067199707,0.7067793011665344,0.4369476239463101,0.4414996248326917,-0.5970050551584271,-0.5076808569344367,-0.1113819330930709,-0.2321524620056152,-0.0193305686116218,0.0428804755210876,0.0253095030784606,-0.0404810309410095,0.0332808718085289,-0.0136013785377144,0.0629728812634944,-0.0744886845350265,0.0270655554495751,0.1118862575143575,49
1733407177232187100,-0.7701865001171827,-0.116566524285078,-1.135030596742779,1.1197397233042865,9.690531219482422,-1.005086339164153,0.0515098124742507,2.128735542297364,0.95609450340271,0.468335974020105,0.4547029239660982,-0.5869330385411524,-0.4789743119759664,-0.2413551062345504,-0.168247252702713,-0.068069539964199,0.0209357738494873,0.0392110347747802,0.0480248034000396,0.0601057149469852,-0.0231808498501777,-0.0581342090606689,-0.1134850233793258,-0.0501435025677084,0.1165744153305888,50
1733407177272187100,-0.6531036968730389,0.1948375124454498,-1.2067676530897615,1.6293395699322222,9.63111573843956,-0.8702025062914938,-0.1620203703641891,1.8531148433685305,1.218705415725708,0.5023865873700251,0.4592431403159882,-0.5774631757945463,-0.4508212321713631,-0.0331758074462413,-0.1353827118873596,-0.0334136970341205,0.0090165734291076,0.01968914270401,0.0052805095911026,0.0944540351629257,-0.0128638846799731,0.0184621238857507,-0.1314804553985595,-0.0556293866328895,0.1276975746303796,51
1733407177312187100,0.2070404298059642,-0.1657078640729188,-1.487154620265961,2.1323938673742115,9.552624970048663,-0.6088197339884936,-0.5647790431976318,1.9256067276000977,1.1289929151535034,0.5363976150776492,0.4583911521082224,-0.5664968836168874,-0.4257188409453953,0.1214134991168975,-0.1787101626396179,0.0148319955915212,0.0342723131179809,0.0302024483680725,-0.041533350944519,0.1012067720293998,-0.0409518554806709,0.0294505508899688,-0.1511778086423874,-0.0456564202815294,0.1204971417322754,52
1733407177352187100,0.5659609816014767,-0.5626227770894765,-0.8227017002522945,2.573884858089685,9.462318091657757,-0.1001136761288158,-0.9916025400161744,2.3574979305267334,1.0085797309875488,0.5764318583192485,0.4549951498161806,-0.545970503482127,-0.4032640445280551,0.1574362218379974,-0.2328023314476013,0.0614134073257446,0.0173932909965515,0.015436053276062,-0.0386990308761596,0.1120433956384658,-0.0716896653175354,-0.0110848731160163,-0.1607457250356674,-0.0414107455357909,0.0653016164720058,53
1733407177392187100,0.7064119470819831,-0.9589332944720984,1.2543477349102496,2.896562568506598,9.354201415809989,0.5284344205552711,-0.814740777015686,2.504432439804077,0.8496490120887756,0.6184322032642762,0.4532061204496843,-0.5173601801000532,-0.3801109566812145,0.1523666232824325,-0.2313672006130218,0.0680777728557586,0.0092028379440307,0.0207914113998413,0.0008217096328735,0.1097150295972824,-0.0815941542387008,-0.0187520467430353,-0.1637117266654968,-0.0162689977556467,0.0435313909515738,54
1733407177432187100,-0.1114145483493804,-0.7538163800746202,1.952765468367934,3.141725369827449,9.235873727071285,0.9992848863437772,-0.3135893642902374,1.6652593612670898,0.8388403654098511,0.6516167583337837,0.4535955114502602,-0.4932562860793867,-0.3554502626044791,0.1358997672796249,-0.2062716484069824,0.058771688491106,-0.0075054764747619,-0.0006732940673828,0.0103328227996826,0.1040256693959236,-0.0821934789419174,-0.1314069505423307,-0.1702926456928253,-0.0130940209813416,-0.0228007376119494,55
1733407177472187100,0.2353735209733247,-0.536457823741436,2.1901275328099725,3.369844974149764,9.131192870891091,1.198266293660924,0.1142014563083648,1.03009831905365,0.6949251890182495,0.6702660583762776,0.4537407379773571,-0.482726385125422,-0.3344218882426683,0.0863641649484634,-0.1726044863462448,0.0390399955213069,-0.0124738812446594,-0.007628321647644,0.0230724811553955,0.0894246771931648,-0.0583123788237571,-0.1646732603281736,-0.1832373738288879,-0.0166508366800844,-0.065737669801712,56
1733407177512187100,0.1083864326998591,-0.2304389871805906,1.5108761259846388,3.542770806777477,9.06055340052247,1.2351231022194027,0.2879594564437866,0.5765431523323059,0.470976322889328,0.6800028813052619,0.456239458580502,-0.4784054786910273,-0.3171274634294644,0.0673366785049438,-0.1129266768693924,-0.0178551785647869,-0.0178877115249633,0.0129291415214538,0.0309841036796569,0.0615349262952804,-0.0270698647946119,-0.1637871251434087,-0.1757607907056808,-0.0407113650947809,-0.1092231757849454,57
1733407177552187100,0.3674704996064305,0.2256552600353956,0.885457650829479,3.653141983553767,9.025090457475184,1.1716106341864914,0.3708861172199249,0.3654556572437286,0.2542504966259002,0.6832032176716175,0.460191260134512,-0.4780046932068604,-0.3049078649185641,0.0673452019691467,-0.031482309103012,-0.0428499430418014,-0.0225284099578857,0.0102346539497375,0.0460367798805236,0.0354676060378551,-0.0130007965490221,-0.11531330935359,-0.1608718782663345,-0.0504060990266501,-0.131288877120614,58
1733407177592187100,0.1429971428319811,0.0724988344997167,0.5262661000728607,3.705083767715096,9.012299364963171,1.1050832022465764,0.3727243840694427,0.5555482506752014,0.209900826215744,0.6852405072222104,0.4659273554431706,-0.4759917408086277,-0.2945998392141997,0.0492703318595886,0.0169181916862726,-0.0515845119953155,-0.0035033226013183,0.0030112862586975,0.0122566819190979,0.0307961255311965,-0.0080045834183692,-0.0730453624665737,-0.1189618557691574,-0.0796710642166435,-0.0274196295842528,59
1733407177632187100,0.131777537420392,0.0672667790651321,0.0894375482104718,3.783190505224466,8.98431011879742,1.0677100416637957,0.3728844225406647,0.7169776558876038,0.3783175945281982,0.6895895819692552,0.4720088451587696,-0.4719847332671506,-0.2808988187326,0.035548660904169,0.0716444998979568,0.0145636163651943,-0.0064392685890197,-0.0217133164405822,0.022878885269165,0.0474822893738746,-0.0096392296254634,-0.0321031112253665,-0.0578801557421684,-0.0697724782757461,0.0128469143524765,60
1733407177672187100,0.5589481802299618,0.3747755619227886,-0.6221703600794076,3.889178936871886,8.94645005148053,1.0028487163051962,0.4323866367340088,0.1297648400068283,0.1899388432502746,0.6924810027506727,0.4768551150935428,-0.4706146457627455,-0.2675839132304245,0.0245285015553236,0.0516340397298336,0.0485881604254245,0.0070557594299316,-0.035016119480133,-0.0068200975656509,0.0428645834326744,-0.0172319505363702,-0.0324298589617013,-0.0355734564363956,-0.0553828645259141,-0.018579028263688,61
1733407177712187100,0.2592860192194581,0.1224783786773681,-0.863251737305522,3.894055018475652,8.955585544094443,0.8967704874824732,0.1362529247999191,0.0640636533498764,-0.0494280532002449,0.689889239718194,0.4811309415306449,-0.4720068276839999,-0.2641502836588228,-0.0148199703544378,-0.0316705964505672,0.0249111950397491,0.0102057456970214,0.0027284026145935,-0.0287961959838867,0.0243797693401575,-0.032277762889862,0.0104962595731019,-0.0267878137528896,-0.0056330374509096,-0.0103571433633565,62
1733407177752187100,-0.1090536644369363,0.2363414892226457,-0.6714327689636498,3.886355403883755,8.957691576462983,0.9090569184079764,-0.1109784319996833,-0.0484980456531047,-0.0093514723703265,0.6904959886689596,0.4815568971300807,-0.4709075813371392,-0.2637503898315511,-0.0824102014303207,-0.0209139827638864,0.0843018218874931,0.0248069763183593,-0.0157684683799743,-0.0016134977340698,0.0180078875273466,-0.0155121814459562,-0.0635199937522411,-0.0305971447378397,-0.0435563792623579,0.0548860209196805,63
1733407177792187100,0.2354310963794589,0.0611520955771207,0.2031038210093975,3.868979029408097,8.962443739426135,0.9359373996142296,-0.0638513937592506,-0.0013476765016093,-0.1084738001227378,0.6905162894177626,0.4801887413333492,-0.4708494925315509,-0.2662832340807101,-0.1606991440057754,-0.0155447833240032,0.0981779545545578,0.0137526988983154,0.0363677740097045,-0.0184714943170547,0.0345471501350402,-0.0187605135142803,-0.0250000012218952,-0.0370501615107059,0.0181684016361832,0.0659013359308242,64
1733407177832187100,-0.1960515644103288,0.0383341145694255,0.2889589076232164,3.8289527239680288,8.981969693151116,0.9130799633789808,0.1373912096023559,-0.1578334122896194,-0.1276377290487289,0.6888437015845713,0.481300596097839,-0.4709518173670733,-0.2684183857677407,0.0375529564917087,0.0216121729463338,0.0521790347993373,-0.0008118152618408,0.0191789269447326,0.0030921101570129,0.0384242720901966,-0.0056389505043625,-0.067106620067358,-0.0466589257121086,-0.0066959905073046,0.04203706074059,65
1733407177872187100,-0.4485919087618589,-0.0805956317156553,0.4522252237629145,3.807207632888853,8.999145284357667,0.8312163575541227,0.2237299084663391,-0.1059606075286865,0.0032186745665967,0.6855815297760389,0.4836994583328474,-0.4729213389422175,-0.2689946492183916,0.0110896565020084,0.0493682213127613,0.0597775653004646,0.0078077912330627,0.025855541229248,0.0086236596107482,0.0111853759735822,0.000812436453998,-0.0551899723023176,-0.0495213158428669,-0.0174342421427369,-0.0406435605555772,66
1733407177912187100,0.1642158719494938,-0.1243903497785329,-0.1307674835950136,3.8300606852099297,8.997600977525115,0.7376973121836781,0.1969549059867859,0.0027747726999223,0.0768283754587173,0.6830488842393343,0.4860277214879516,-0.4755680364074509,-0.266563945905188,0.2507888078689575,-0.0044251261278986,-0.0012947092764079,-0.0077758431434631,-0.0034571290016174,-0.011679008603096,-0.0198591686785221,0.0086289448663592,-0.0242880535602569,-0.0612258724868297,-0.0006268997266888,-0.0204760940566658,67
1733407178086044200,-0.3387897640451788,-0.185765732717514,0.0652133536666631,3.9564284725412726,8.951686198568344,0.6199772339493036,0.2066832035779953,0.2593475580215454,0.3111617267131805,0.6833357932134818,0.490181163069162,-0.4776111225093503,-0.2542877307830619,0.0818695500493049,0.0888620540499687,-0.2978376448154449,0.0275748968124389,0.0639876127243042,0.0308859348297119,-0.046627789735794,0.0122814979404211,0.0101136363390192,-0.0789873972535133,-0.0188600280290003,0.0663545047921128,68
1733407178125818600,0.0139449387222528,-0.1008487306714057,-0.1470803204923868,4.090614240147173,8.893554912117123,0.5847699826961383,0.3297885656356811,0.5457367300987244,0.4870961010456085,0.6864016179984216,0.4921121128880721,-0.4775046563239218,-0.2422144992878248,0.1136943250894546,0.155293270945549,-0.2785747945308685,0.0169087648391723,0.0274785757064819,0.0432609319686889,-0.0254214406013488,0.0016103389207273,-0.0108129562728805,-0.095241829752922,-0.0040216767102916,0.0792904217354487,69
1733407178165819000,0.2038718827724456,0.0716319885373115,-0.1624386696765199,4.258919427236914,8.813698700591921,0.5921982330007478,0.2540268301963806,0.7640427947044373,0.5513147711753845,0.6922103071299914,0.494167231177312,-0.4749789902633818,-0.2259172204243754,0.072423055768013,0.1051689088344574,-0.1464287340641021,0.0306076407432556,-0.0344583392143249,-0.0106460452079772,-0.0135055063292384,-0.015479302033782,-0.0188134215414524,-0.1110771894454956,0.005232201565057,0.0345259544581174,70
1733407178205819000,0.129684949055314,-0.02088788972795,-0.1062673216540366,4.438152543315291,8.720967225402593,0.6464587789658457,0.2352151721715927,0.8659972548484802,0.577643096446991,0.6999368888126887,0.4958614017203248,-0.4702778403018575,-0.207481365199621,0.0537915825843811,0.1085075512528419,-0.0058670239523053,0.0476567149162292,-0.0614410042762756,-0.0003031939268112,-0.0169980600476264,-0.0156764667481184,-0.0376028776854276,-0.107750117778778,-0.01002425814718,0.0325128610700368,71
1733407178245819000,-0.0036149756267666,0.0070464113801717,0.113064069122076,4.610657227921486,8.62345260758996,0.7404685304626822,0.2070169746875763,0.9558628797531128,0.5694698691368103,0.7087044070674998,0.4970901558745632,-0.4638404795308899,-0.1883917588040041,0.0162482000887393,0.0848214998841285,-0.0180214904248714,0.0156900286674499,0.0001858472824096,0.0191507339477539,-0.0224941037595272,0.0030584689229726,-0.0505991373807191,-0.1080553531646728,-0.0145499188780784,0.0364297422528266,72
1733407178285819000,-0.1832742081627249,-0.1104424884468317,0.2046328572075814,4.784929506722093,8.518728496789931,0.8402863837163895,0.3210861980915069,1.046359658241272,0.6394725441932678,0.7174964229115617,0.4988189532011671,-0.456439447921143,-0.1674558714193577,-0.0161358378827571,0.1119827032089233,0.0032037692144513,0.0193078517913818,-0.0227972865104675,0.0449919700622558,-0.018493078649044,0.0178113244473934,-0.050761634466052,-0.1105187609791755,-0.0268403683915734,0.0492763643443584,73
1733407178325819000,-0.6882102276980877,-0.223808170863986,-0.4713602054089307,4.977273448786139,8.398959377071261,0.924462869593501,0.3517779111862182,1.0491275787353516,0.7579267621040344,0.7255209251743883,0.5010274299822297,-0.449262757654191,-0.1440624164909465,-0.1023482233285904,0.1434094458818435,0.0458129495382308,0.0188970565795898,-0.0273664593696594,0.0151696354150772,0.0014937426894903,0.0168531853705644,-0.0156517426401376,-0.1099196225404739,-0.0452134988196194,0.1086345622420311,74
1733407178365818600,-1.4455074356257915,-0.4323170657873153,-0.7277250764846801,5.241663805407286,8.222301079916953,1.0436099849563092,0.2526047527790069,1.086803317070007,1.0979942083358765,0.7344588199544723,0.4998626701472988,-0.4437657147207554,-0.1173865616326515,-0.1490297019481659,0.0832171589136123,0.0704508498311042,0.0466362833976745,0.0139170289039611,-0.0259529203176498,0.0257660094648599,0.0099275279790163,0.013579028019309,-0.1119487136602401,-0.0461528254963457,0.1080664069652557,75
1733407178405819000,-1.5739403387933968,-0.4578822996765375,-0.8024057850681244,5.579440300756692,7.981213272950053,1.1577950209323316,0.3391507267951965,0.7657068967819214,1.16178297996521,0.7425387889110713,0.4959488108617179,-0.4415921862003208,-0.0875635731694816,-0.1330238431692123,0.0690801963210105,0.0403670519590377,0.0279041528701782,0.0407870411872863,0.0216456055641174,0.0335200540721416,-0.0102254934608936,0.0173895262181758,-0.1274406313896179,-0.0479948001012206,0.1104284599214792,76
1733407178445819000,-1.8546581453591584,-0.9695300918102264,-0.2933523933418095,6.083116383358836,7.59488346683383,1.218112492316216,0.5576776266098022,1.1459779739379885,1.8325031995773315,0.7482320909067968,0.4892500703312998,-0.4455647164750771,-0.0474873452442356,-0.116037406027317,0.0708371400833129,0.0193953216075897,0.0435702204704284,0.061823546886444,0.0185917019844055,0.0405573770403862,-0.01551812607795,0.014478022685647,-0.1512686014175415,-0.020119535703957,0.0708721100807189,77
1733407178485819000,-1.5969477048933505,-1.2840589825630186,-0.4838843175478279,6.6341977757364505,7.083862282165884,1.4059510857850313,0.7886460423469543,1.8825372457504272,2.438958644866944,0.756073611234372,0.4812331484499545,-0.4435437984236623,0.0060224256893358,-0.0209098197519779,0.1588548719882965,0.0592863447964191,0.026741087436676,0.0342531204223632,0.0204710960388183,0.033604722470045,-0.0395561195909976,0.0160036248177289,-0.1853687763214111,0.0307993351504206,0.0646159722954034,78
1733407178525819000,-1.3113468024611472,-1.2587123598605394,-0.0794512839861214,7.230860769593715,6.372127971017361,1.8113567637711765,0.6546453237533569,2.507580280303955,3.0405073165893555,0.7660129111492806,0.4666169866283818,-0.4357924901701794,0.0746835417025579,-0.0203375071287155,0.1731760650873184,0.1247276738286018,0.031331717967987,0.0145350694656372,0.0139432549476623,0.0282905157655477,-0.0572112128138542,-0.0084480948716402,-0.2203207910060882,0.053077071801573,0.0056195934474468,79
1733407178565819000,-0.5524783996939658,-0.9426344861000776,0.900704685126245,7.755734538525343,5.433708472263812,2.5482927361935377,0.8598949313163757,3.1468751430511475,3.566798210144043,0.7776574024122442,0.4416173406820386,-0.4183866033965387,0.1586689592071259,-0.1179665997624397,0.2126358151435852,0.1668465584516525,-0.0036382675170898,-0.0112625956535339,0.0372635275125503,0.011552495881915,-0.0693175196647644,-0.0268126036018133,-0.2470480799674987,0.0950695627480745,-0.0324660993188619,80
1733407178605818600,-0.2275117015570402,-1.118587849855423,1.6858879711061716,8.128077904865146,4.413009334230423,3.260382728911936,1.391223669052124,2.768947124481201,3.664914846420288,0.7769664212827614,0.4179753692786517,-0.3988274466951144,0.2501131004839805,-0.1919177770614624,0.2137304246425628,0.259638637304306,0.0068641901016235,-0.076445996761322,0.0215082913637161,-0.0022727577015757,-0.0747971683740615,-0.0535772764086723,-0.2514215409755707,0.0766593151800334,-0.0498971265912055,81
1733407178645819000,0.0031277766317129,-0.8255842699512839,0.3127002140209078,8.317470595908164,3.42329277895987,3.9078281077623367,0.9795602560043336,2.421067714691162,3.4478518962860107,0.765564241523659,0.395102623403213,-0.3803289842568806,0.3363853088095078,-0.2491267323493957,0.154332086443901,0.252829909324646,-0.0450688004493713,-0.0426790118217468,-0.0048316419124603,-0.0166791044175624,-0.0634458884596824,-0.0453442855924367,-0.21769580245018,0.0541202972441911,0.0099544077813625,82
1733407178685819000,1.7197411408692598,-0.4556935574606061,-0.103491061873734,8.271561077648402,2.5191955287858843,4.626586910720169,-0.2677322030067444,2.1336727142333984,2.2676236629486084,0.7587146512622318,0.3618370221592362,-0.36494340719048,0.4003026897385958,-0.2963456511497497,0.142361119389534,0.238313153386116,-0.0484327673912048,-0.0423907041549682,0.0003284662961959,-0.016187286004424,-0.0592314004898071,-0.0096416885703802,-0.1662219613790512,0.0929569545082747,-0.0225561152011156,83
1733407178725819000,1.56302380798161,-0.1891974607318639,1.018211412870884,8.021115075227618,1.8275795842975373,5.33779544442892,-0.646275520324707,1.9529178142547607,1.499297022819519,0.7620209382975136,0.3237180787530074,-0.3507916486739172,0.4375797627763792,-0.2506588697433471,0.0446630045771598,0.1732229739427566,-0.0399532914161682,-0.0409349203109741,-0.063001275062561,-0.0252284724265337,-0.0759146735072135,-0.0062736734420061,-0.1646151393651962,0.072234484475106,-0.0487339280307292,84
1733407178765819000,1.008061774778366,0.3401479737211018,2.2888719846785066,7.69620799832344,1.1931886250704526,5.959452009767293,-0.2553430199623108,1.7148849964141846,1.810184359550476,0.7632285843148259,0.2874146964290056,-0.3369648328866996,0.4704568783978603,-0.2878214120864868,-0.0100365662947297,0.1459500640630722,-0.0387201309204101,-0.0552412867546081,-0.0102028399705886,-0.0280186403542757,-0.0550172552466392,-0.0430547133505344,-0.1419408172369003,0.0531469221673905,-0.0051607437640428,85
1733407178805819000,1.3431816181391476,-0.6644626376900822,2.209515539368987,7.310361007288098,0.6426156206063925,6.505079228392243,0.5093203186988831,1.968456983566284,1.980383038520813,0.7555639208290211,0.258633699662171,-0.31849938985994,0.5106760648071447,-0.4044614732265472,-0.0764511153101921,0.0917978882789611,-0.038012683391571,-0.0131046175956726,-0.0113752335309982,-0.0439734384417533,-0.0438884943723678,-0.0542781181544065,-0.1375079751014709,0.0778401955276727,-0.0352893400460481,86
1733407178845819000,1.345307524251938,0.2112488778138533,1.4547452195703985,6.89164401230812,0.3210121518248692,6.969402959293126,0.6956220269203186,1.359129786491394,1.456411600112915,0.744074168622389,0.2398782225179938,-0.295157209403043,0.5492670324644925,-0.4570192098617553,-0.1206534653902053,0.0440257675945758,-0.0206913352012634,-0.0083224177360534,-0.0393056869506835,-0.0624881424009799,-0.0388991236686706,-0.0636129327327013,-0.1365836709737777,0.0806583216883242,-0.0420832379698753,87
1733407178885819000,0.2083978357642888,-0.0798630979237146,1.2627554977715014,6.583952274098992,0.1587221333714202,7.26613841920197,0.6186469197273254,0.9152390360832214,1.2286580801010132,0.7330844998839346,0.2293724902027279,-0.2773414754594779,0.5771110881649204,-0.3274779915809631,-0.0658375173807144,-0.0165759287774562,-0.0355986952781677,0.0502830147743225,-0.0292935967445373,-0.075565792620182,-0.0244833156466484,-0.0746983903706073,-0.1427129954099655,0.0542993070729076,-0.057999769026041,88
1733407178925819000,0.9794792388945818,0.2927253657509572,1.689402701228857,6.336602484127879,0.0750836953271878,7.484130597263574,0.9660826921463012,0.9216035604476928,1.1667109727859497,0.7197065988360531,0.2241077771024869,-0.2611345107829984,0.6029982113147176,-0.1540228575468063,0.0461747199296951,-0.0221943985670804,-0.0561649799346923,0.0332105159759521,-0.0500971674919128,-0.0696638524532318,-0.0245962534099817,-0.0727589467406272,-0.1445796936750412,0.0632819472126662,-0.0634504356473684,89
1733407178965819000,0.8406079438209533,0.0810563628288917,0.5143751712709665,6.023118718513846,0.0949175048583652,7.738437366765737,0.9616302251815796,0.9397347569465636,1.0855224132537842,0.706928338346035,0.2195273477883037,-0.2392848335492074,0.6283334182374092,-0.1478041112422943,0.1077704429626464,-0.0287810619920492,-0.0352669954299926,-0.0062649846076965,-0.0067222565412521,-0.0603286325931549,-0.0225262474268674,-0.0827168616533279,-0.1360566765069961,0.0614393880859017,-0.0653588996171951,90
1733407179005819000,1.645815488436818,0.5121569106996059,0.3024462387710809,5.870480763894319,0.1974245515302755,7.852952803739905,1.0673480033874512,0.3441530764102936,0.6593585014343262,0.6933951700803209,0.2230827365755265,-0.2232597999866309,0.6477594339240903,-0.2316103279590606,0.1086540222167968,0.0277685672044754,0.0030901432037353,-0.039618968963623,-0.0119451284408569,-0.0612342283129692,-0.0167809706181287,-0.1232435178309679,-0.1080495044589042,0.0730088298484682,-0.0705412706911563,91
1733407179045819000,0.9698357967585324,0.2501652492506429,-0.5724491745769977,5.709387700140476,0.4009078185776248,7.963199477353691,1.0719208717346191,0.7006866335868835,0.5769684910774231,0.6831445620141514,0.2283725501441577,-0.2045379964769509,0.6628150128152245,-0.2202631384134292,0.0744972229003906,0.0616891831159591,0.0210859179496765,-0.0207595825195312,-0.0053575560450553,-0.067419558763504,-0.0021966136991977,-0.1307400110661983,-0.091185986995697,0.0564527587797492,-0.0861520967990159,92
1733407179085819000,5.339746578496694,1.0240490329831835,-3.730093705809116,5.527235481745004,0.5830590140597894,8.079609934294224,0.2862893640995025,0.470020979642868,-0.321571797132492,0.6776303336081151,0.2300226209459495,-0.1874676625850954,0.6728764159561988,-0.2512303590774536,0.0116446539759635,0.0783794149756431,0.0208962559700012,0.005581259727478,-0.0270521193742752,-0.071607582271099,0.0162625685334205,-0.1249041445195674,-0.077058732509613,0.0353821328960359,-0.063078095203638,93
1733407179125818600,0.1753922227412462,0.1403594147395342,-2.972461566838622,5.446940878802538,0.6709755267154425,8.127177156633138,-0.2523409128189087,0.3111035227775574,-0.1917925626039505,0.6823166328412663,0.2290041804312722,-0.1821712259619633,0.6699363690984518,-0.1090820282697677,-0.0296892039477825,0.1434331089258194,0.006679356098175,0.0267637968063354,-0.0164392590522766,-0.0453354232013225,0.0065228305757045,-0.0376876333594322,-0.0497315265238285,0.0589818388659507,-0.0043956046104431,94
1733407179165819000,-0.7741916441053152,-0.1652325747113674,-0.857238760626316,5.305966473969817,0.5279541992902755,8.230332410681248,-0.6832551956176758,0.4019087851047516,-0.1186884418129921,0.687979110619173,0.2166641796311731,-0.1828290729575125,0.6680680207120688,-0.0138814710080623,-0.019551508128643,0.2167924791574478,0.0070372819900512,0.0165862441062927,-0.0395047813653945,-0.019063264131546,-0.0032169073820114,0.0495633645921945,-0.0224043224006891,0.0825344177585095,0.054243631362915,95
1733407179205819000,-1.1189005690664051,-0.1755087983256205,0.6021802959740161,5.1891924444139,0.3050950727794319,8.315622922214866,-0.6321160793304443,0.3776721358299255,0.138627141714096,0.6927058015060725,0.2024915924333015,-0.1871320176272663,0.6664363637968174,-0.0336141623556613,-0.0202413741499185,0.2247922867536544,-0.0131579637527465,-0.0089815258979797,0.0011173635721206,-0.000897804275155,-0.025261940434575,0.0052431613504886,-0.0296404957771301,0.0720636579528451,0.0110965635538101,96
1733407179245819000,1.9076795414507388,-0.0345774106507189,0.1698193910449743,5.073662861961126,0.0881478280603419,8.391696108070015,-0.4681255519390106,0.438770592212677,0.0999415293335914,0.6931476908247879,0.189840522760954,-0.1900082895372863,0.6688825621938728,-0.0137022417038679,-0.0427611172199249,0.1748958379030227,-0.024628460407257,-0.0087179541587829,-0.0142412781715393,0.0182719361037015,-0.0275959204882383,-0.0413262821227312,-0.0443768985569477,0.0486948381293565,0.0702402419179678,97
1733407179285819000,0.370513228303194,-0.4741717922309413,0.8073357888162136,4.921869541472196,-0.0311544093655189,8.482017014986276,-0.1607965230941772,0.4068121612071991,0.0399890318512916,0.6956301597247619,0.1790582044954876,-0.1883498002304449,0.6697470348225559,0.0221247319132089,-0.0509148649871349,0.0904493853449821,-0.0329326391220092,0.0041446685791015,0.0154065564274787,0.0336226932704448,-0.024462079629302,-0.0225666365951299,-0.0517239570617675,0.0820831668596714,0.0383154098689556,98
1733407179325819000,0.0625207535818219,-0.3379710680734366,0.2383247719943523,4.839008302912116,-0.0621598067483631,8.529391345101594,-0.0473610833287239,0.0406792797148227,0.0266043525189161,0.6962009940978355,0.1747098246518592,-0.1860068263084282,0.670956137320164,0.0638556629419326,-0.0519304871559143,0.0333990901708602,-0.0025352239608764,0.0064727067947387,0.0008291602134704,0.0300571322441101,-0.0226968731731176,-0.0600812514752149,-0.0530826337635517,0.069871920062229,-0.0193202020198106,99
1733407179365818600,0.2666992180854082,0.0241925390302203,-0.0427542690992355,4.87065928645581,-0.0813541219327598,8.511195178675651,-0.0998541638255119,-0.1562723964452743,-0.0737562477588653,0.6965780727988581,0.1750233791465999,-0.1881930461491483,0.6698725408600916,0.0370938293635845,-0.070976510643959,0.0464568324387073,0.0062407851219177,-0.0077383518218994,0.0120866149663925,0.0097580533474683,-0.0122799919918179,-0.0690408030003309,-0.0559689924120903,0.0703165220245718,-0.0587204845160245,100
1733407179405819000,0.1239654023647308,0.0916275142691098,-0.3064817778974771,4.919869307565689,-0.1092846967138349,8.48253080972731,-0.1248119175434112,-0.1056705266237258,-0.0257947240024805,0.6970985259388345,0.17559357255599,-0.191515493038951,0.6682383098034483,0.0256206635385751,-0.0289717484265565,0.10013397783041,-0.0021609663963317,-0.0158299207687377,0.0085788816213607,-0.0050831064581871,-0.0015933783724904,-0.04444295283854,-0.0600310079753398,0.0835579155873507,-0.0529559296399354,101
1733407179445819000,0.006193593943119,-0.07330748400148,-0.2284492746680974,4.939180157235264,-0.168058025661949,8.470338852152228,-0.199201762676239,0.0145993325859308,0.02496281825006,0.6976048671230785,0.1739017317910668,-0.1946563662156578,0.6672438824631134,0.0843177959322929,-0.0192716103047132,0.1230349019169807,0.0029208660125732,-0.0023199915885925,-0.0124396085739135,0.0020048860460519,0.0023883138783276,-0.0444388611853122,-0.054174680262804,0.0863642782449722,0.0212765967845916,102
1733407179485819000,0.0545136804759502,0.0007685732197016,-0.0744131436884403,4.914202952367067,-0.239141202943772,8.48314864936471,-0.1499199867248535,0.1126001700758934,0.0778673663735389,0.6976975751543886,0.1702617115211276,-0.1961905931576912,0.6676364492717058,0.017582444474101,-0.0468308515846729,0.0865703001618385,-0.0001717209815979,0.0130094289779663,0.0151939541101455,0.0057227788493037,0.0090182898566126,-0.0525175382226705,-0.0501350313425064,0.0863382670208811,-0.0078442837595939,103
1733407179525819000,-0.1959367058590054,0.1011150169247761,-0.3554647122532129,4.872111823351681,-0.3121040016934275,8.505027888217567,-0.1765251010656356,0.135105013847351,0.1834470331668853,0.6970055370221667,0.166169588095777,-0.1968550723289312,0.6691928086752006,0.1419107913970947,-0.0461402423679828,0.0813748091459274,0.0117815136909484,0.0160750746726989,-0.0171178579330444,-0.0115327360108494,0.0221040658652782,-0.052570729714632,-0.0460330210626125,0.0847843886423855,-0.0173088621973991,104
1733407179565819000,0.0086848262369632,0.1511968889657408,-0.4569014719456434,4.820569559901952,-0.4293732308877632,8.529251644369959,-0.2390897423028946,0.1671406775712967,0.2638147175312042,0.695222484141018,0.1603816650940706,-0.1985117511652043,0.6719646643825932,0.3431413769721985,-0.06538887321949,0.1232541352510452,0.0196784734725952,0.005609393119812,-0.0216723009943962,-0.0250501930713653,0.0366402119398117,-0.0277554374098777,-0.0410304814577102,0.0878521787151694,0.010389876589179,105
1733407179605818600,0.5307166497409344,0.1434467862956225,-0.7107838785558939,4.748048805831372,-0.5805382634105161,8.560922209396958,-0.4190892577171325,0.210554227232933,0.1564377844333648,0.6939799815766137,0.1524110188863844,-0.2007120282200348,0.6744459278931227,0.3558742105960846,-0.0844440087676048,0.0977892652153968,0.0173379778861999,0.025660753250122,0.014327235519886,-0.0340691357851028,0.0411703139543533,-0.0134942723453044,-0.0427800938487052,0.0845841168299317,0.0332423443883657,106
1733407179645819000,1.4465885088607668,0.1231347236942499,-0.8220365143418311,4.719079024195671,-0.7577477281741798,8.563089032042026,-0.5232048034667969,0.0066921771503984,-0.0557349249720573,0.6947680007793589,0.1444147389743869,-0.2062724820150437,0.673716244091635,0.3127781450748443,0.068226657807827,0.1426478773355484,-0.0013725161552429,-0.0095391869544982,0.0707032680511474,-0.0356816612184047,0.0561975240707397,0.0074193363457918,-0.0564957596361637,0.0670898881282657,0.0536141012877225,107
1733407179685819000,0.4588984909817576,-0.4644504990857094,-0.1183615910083055,4.737865557730197,-0.9098211077135056,8.537871004155278,-0.5620059370994568,-0.002636176533997,-0.2757765650749206,0.6987666058015597,0.1380258619316671,-0.2136318816944918,0.6686072725441242,0.1801633685827255,0.0079584121704101,0.2269604206085205,0.0306408405303955,-0.0415015816688537,0.0261005908250808,-0.0324674472212791,0.0451070927083492,0.0430962144047021,-0.0798338055610656,0.1032541843779385,0.0710416214287281,108
1733407179725819000,-0.8480945001840591,-0.3008507132079452,0.5732353565186262,4.76066892569065,-1.0405006938293575,8.510216104510427,-0.3960225582122803,-0.1731260120868683,-0.1217755079269409,0.7025921847360187,0.1325429726884611,-0.2203000231854164,0.6635243510549514,0.1031000018119812,-0.0191003698855638,0.2837071418762207,0.0351166129112243,0.0136421918869018,0.064151644706726,-0.0323553048074245,0.0185579322278499,0.0590150835484266,-0.1021655425429344,0.1043326272644102,0.0721259095340967,109
1733407179765819000,-0.7903823159277439,-0.4350763013675808,1.005282957714796,4.87878092585206,-1.1126254343196749,8.43385708745122,-0.0619826056063175,-0.3650915324687958,0.046074666082859,0.7023600534535541,0.1339099329979431,-0.2281690128352667,0.6608307465184671,0.4116506576538086,-0.0965352356433868,0.3564336597919464,0.0230772495269775,-0.0171321630477905,-0.0467598289251327,-0.0225533731281757,0.015222487039864,0.0250619605422019,-0.1118128076195716,0.0979391268350183,0.0463946714282035,110
1733407179805819000,-0.0017132336586713,0.2516089817855507,0.4529191243112087,4.940352708145976,-1.1099304230820386,8.398294775682688,0.1890133321285247,-0.0889872759580612,0.2221776843070984,0.6992499285320899,0.1372221593043671,-0.2301656431411122,0.6627543718921936,0.3387559354305267,-0.206071063876152,0.2838541269302368,-0.0026935338973999,0.0164627432823181,-0.0251250863075256,-0.025165606290102,0.0095437234267592,-0.0271200621157884,-0.1227519661188125,0.086690003068,0.012599953854084,111
1733407179845819000,0.3796995743215083,0.3921653073366731,-0.3635188393712043,4.961614691883326,-1.0929182057436555,8.387984978592396,0.0916585624217987,-0.1321691423654556,0.1323276311159134,0.6958700234481927,0.1397911375435914,-0.2297612215998146,0.6659077676881958,0.8569104075431824,-0.2211145609617233,0.301228791475296,0.0013214945793151,0.0321308970451355,-0.0390368700027465,-0.0166678912937641,0.019556637853384,-0.0541693970829248,-0.1219204515218734,0.0771214527990669,0.0083037179648876,112
1733407179885819000,-0.2707768427878618,0.1737197594843804,-0.4570417571991682,5.033891408064961,-1.1149403601985424,8.341896012112498,-0.0617703348398208,-0.307035356760025,0.1226546168327331,0.6933787207354107,0.1423380393955512,-0.2332842860176391,0.6667414623588932,1.1350845098495483,-0.3030322790145874,0.3800047039985657,0.019766092300415,-0.00363290309906,-0.0089179128408432,-0.0098539032042026,0.0256185680627822,-0.0772515819847583,-0.1064013466238975,0.0746148037403822,0.0023275661647319,113
1733407179925819000,-0.2636830851346254,0.1726686429962515,-0.2623702489703893,5.123613180044293,-1.1762880514129996,8.278606319984792,-0.0680336505174636,-0.2200867980718612,0.2531816661357879,0.6894916064058413,0.1445005835319917,-0.2388056434679014,0.6683507796102277,0.7758821249008179,-0.3134768307209015,0.3978100717067718,0.0305920839309692,0.0094615221023559,0.0603574812412261,-0.0028252936899662,0.0273081809282302,-0.0568114360243082,-0.0808663740754127,0.0620583237018436,0.0132370827138423,114
1733407179965819000,-0.4054617920875549,0.0787884361632168,-0.3736094407528638,5.1709699745029205,-1.2763380329221483,8.234222403857112,-0.1767465621232986,-0.2073317170143127,0.3416508436203003,0.685022327366096,0.1439331398685051,-0.2438334646598285,0.6712472468439118,0.822415828704834,-0.221340924501419,0.4156370162963867,-0.0055105090141296,-0.0153959989547729,0.0050128996372222,0.0129637476056814,0.0263921022415161,-0.060271221089363,-0.0751177072525024,0.0519792666275054,0.0279623581588268,115
1733407180005819000,0.3161117760300636,0.1042165996693074,-0.0115022217452526,5.215990434968472,-1.4207282375477253,8.182014662235975,-0.2133014798164367,-0.1374867409467697,0.3581741154193878,0.6797001066981972,0.1419440147268337,-0.2503702255268378,0.674666253521305,0.5221177935600281,-0.1774235367774963,0.3804492652416229,-0.037363052368164,0.0067128539085388,0.0461228191852569,0.0286512691527605,0.0215968843549489,-0.0370206938832998,-0.0816448181867599,0.0703666447766125,0.0114168815493583,116
1733407180045819000,0.2421586510688066,0.2007159029595553,-0.1165139173150062,5.2211096776783466,-1.551793827306479,8.154896353685855,-0.1988654285669326,-0.0904063954949379,0.2926614284515381,0.6755576629096844,0.1386581734194856,-0.2549311862447922,0.6777948972968476,0.0026455726474523,-0.1730708181858062,0.3272517025470733,-0.0269607305526733,-0.0349898934364318,0.0416339337825775,0.0355981960892677,0.0138086378574371,-0.0420639487475156,-0.0855632349848747,0.061180956345424,-0.0125537766247987,117
1733407180085819000,0.4199368921637534,0.2368720889680087,-0.3531932601898908,5.270032990801334,-1.6698019287019967,8.099932006832956,-0.2287215441465377,-0.3274741470813751,0.175794631242752,0.6718261888345909,0.1373140398674872,-0.2610809325197078,0.6794344207635298,0.1033868268132209,-0.0579844377934932,0.3208940029144287,-0.0227469801902771,0.0055664777755737,0.011740893125534,0.0349533222615718,0.0184291191399097,-0.0411088399797677,-0.0808752477169036,0.067717299311608,-0.004951484927535,118
1733407180125818600,0.4927274030864238,0.1684073322899639,-0.0559498507589101,5.367231382271648,-1.7846430904991923,8.01113377943933,-0.3282621502876282,-0.2134899497032165,0.0891716182231903,0.6690706784591232,0.1374659947098161,-0.2695346955314192,0.6788214758406638,0.1477532386779785,-0.0343176685273647,0.2690614759922027,-0.0196232795715332,-0.0055285692214965,0.0281169116497039,0.0378765910863876,0.0209986958652734,-0.0566407556325197,-0.077878251671791,0.0807332866206765,0.0019821137279272,119
1733407180165819000,-0.0022106617867946,0.0537371431455016,-0.0798065271645784,5.423281186273694,-1.9058017648801209,7.945207309067249,-0.3002397119998932,-0.27017542719841,0.097041331231594,0.6678594379785434,0.1352910248737244,-0.2767733631876894,0.6775371482880549,0.2580621540546417,-0.0505727566778659,0.2963021695613861,0.0055785179138183,0.0079911351203918,0.0002516508102416,0.0382380448281765,0.023234499618411,-0.0354939227074384,-0.0759045258164405,0.0742236124657094,0.0053489598125219,120
1733407180205819000,0.3659294076442718,0.0299932794645428,0.0997176808148622,5.49971502213478,-2.0143375429227945,7.865491967317461,-0.2392952740192413,-0.1466856598854065,0.1090260669589042,0.6655324446903039,0.1347742459811775,-0.2842664565230804,0.6768271757088953,0.3136487305164337,-0.0957304313778877,0.2691666781902313,0.001771330833435,0.0092555284500122,-0.0159845650196075,0.0361171551048755,0.020897664129734,-0.0188169286727905,-0.0761738941073417,0.1003454573243856,0.0113180973500013,121
1733407180245819000,0.0740945792585611,-0.0592396860845386,-0.0376689286589622,5.501253483748435,-2.122626214336604,7.835882426473498,-0.2890144884586334,0.0337519608438015,0.1621540188789367,0.6641659111260715,0.1312096830079605,-0.2885570784094864,0.6770543176564902,0.0740883275866508,-0.1472494900226593,0.1915419250726699,-0.0142801105976104,0.0029374361038208,0.0152132213115692,0.0414949916303157,0.0246315523982048,-0.0241325707376003,-0.0772790312767028,0.0845050602443516,0.0023211364239454,122
1733407180285819000,0.1645487571656703,-0.1335131290413439,0.4244447249770164,5.436386751562357,-2.258443967058509,7.8431825203537935,-0.2354620099067688,0.2496261894702911,0.284320056438446,0.6626738668385351,0.1242814803132687,-0.290969228678456,0.6787889107015485,-0.0191023331135511,-0.1670115888118744,0.1437199413776397,-0.0225591957569122,0.013140320777893,-0.0207614302635192,0.046872828155756,0.0283654406666755,-0.0293710559129714,-0.078384168446064,0.0686705083832144,-0.0067675944387912,123
1733407180325819000,0.2608160052657127,0.0271880127854645,0.3587339431822299,5.338174214613438,-2.363629704020917,7.879564331811666,-0.0757079571485519,0.1513573676347732,0.2250371426343917,0.6607452787064644,0.1175505809518631,-0.2905785484022787,0.6820275139068314,0.0152899958193302,-0.143999695777893,0.1323332488536834,-0.0125098824501037,-0.0003722310066223,-0.0134044289588928,0.0456829890608787,0.0326376073062419,-0.0319312617897987,-0.076319396495819,0.0349167073413729,-0.005089432093501,124
1733407180365818600,-0.0126081371605396,0.1016672074474394,-0.0218470901489257,5.319805029708147,-2.420152240101248,7.874828535461425,-0.0677830502390861,-0.1469550728797912,0.1226771771907806,0.6586005370701186,0.1156249472169235,-0.2917642267160567,0.6839223634036555,-0.0108036566525697,-0.0860546380281448,0.1184243708848953,-0.0091851651668548,0.002615749835968,-0.0003622770309448,0.039623599499464,0.0316864773631095,-0.0520014053940773,-0.0667521432042121,0.0241816705763339,-0.0260866274148225,125
1733407180405819000,-0.0999485669612884,0.2349506193861365,-0.1937134768515825,5.389936550554633,-2.4555726591810583,7.815953152644634,-0.0183432530611753,-0.2696395814418793,0.097158096730709,0.6558494465558184,0.1179299313796676,-0.2959557767112045,0.6843713120458645,0.023148451000452,-0.0511371307075023,0.1035143956542015,-0.0065982043743133,0.0059660673141479,-0.0064962208271026,0.0298119690269231,0.0293097253888845,-0.0401058004170656,-0.0684721022844314,0.0370008201390504,-0.0303466229468584,126
1733407180445819000,-0.6075824472784995,0.0676207070693373,-0.3672983579099178,5.442971975171566,-2.507012631300092,7.7626880109250544,-0.120218925178051,-0.1485059708356857,0.2417017668485641,0.6525681962364489,0.1192580643376001,-0.2999842766132873,0.6855229247363193,0.0351896658539772,-0.0476848222315311,0.1065448746085167,-0.0017764866352081,-0.0106182098388671,0.0061333179473876,0.0249581523239612,0.0303168930113315,-0.0207552032589912,-0.0585548616945743,0.0341764103680849,0.0006242693781852,127
1733407180485819000,-0.1596177305042743,0.0254611889928579,-0.2056511674046516,5.440627457872033,-2.626761292752624,7.724640896603464,-0.2288886159658432,-0.0602888278663158,0.3523961901664734,0.6482195731831627,0.1164590141426002,-0.3042863963756076,0.6882284746378997,0.1041386350989341,-0.0395799167454242,0.1164192780852317,0.0057636499404907,-0.001735508441925,-0.0006210803985595,0.0231060087680816,0.0295216906815767,-0.0507400071561336,-0.0450384877622127,0.0163894092649221,0.0348725759387016,128
1733407180525819000,0.8758978683888912,-0.1253688394218683,0.4628805463552474,5.330021887817979,-2.7659286481633782,7.753121141156554,-0.1591698229312896,0.4753210246562958,0.3389570116996765,0.6454335646508823,0.1083486023723702,-0.3048957408843933,0.6918920444299844,-0.0843042433261871,-0.0784645229578018,0.12889164686203,0.0080513358116149,-0.0606347322463989,0.0209995210170745,0.0193159021437168,0.0231327880173921,-0.0359866746604442,-0.0446904115378856,0.0290351019568741,0.0052186114311218,129
1733407180565819000,1.1458850221037864,-0.1680120493620634,0.0233972422003746,5.18977112108469,-2.8678353634551166,7.8110297247678036,-0.1254138350486755,0.2330445051193237,0.1944839507341385,0.6436495367259195,0.1001565083497414,-0.3028481565659918,0.6956773649242165,-0.0028461320325732,-0.1305181831121444,0.1025392115116119,0.0158406198024749,0.0238352417945861,-0.0074410140514373,0.0118280509486794,0.0225679837167263,-0.029778467670083,-0.0455444566905498,0.0427370257034897,-0.0117851303398609,130
1733407180605818600,0.3520820840775966,-0.2066173820883035,0.4038631247192621,5.119416312876344,-2.9209581740945576,7.837727177557348,-0.1044189408421516,0.1283014267683029,-0.0270944889634847,0.6443888977994697,0.0952560231244661,-0.3021811196647213,0.695971179737832,0.022273601964116,-0.1789683252573013,0.1996502429246902,0.0318777859210968,-0.0092501044273376,-0.0143074691295623,0.0091892257332801,0.0162167940288782,-0.0298415960341691,-0.0431500561535358,0.0738856126829981,-0.0477905097007751,131
1733407180645819000,-0.094801851722598,-0.2083580882757902,0.3061509385079145,5.1182858475416895,-2.9177207996085284,7.839671297362447,0.053476508706808,-0.058399673551321,-0.0150342984125018,0.6449779358115375,0.0950841211611279,-0.3020712113807191,0.6954966858854997,0.1790592223405838,-0.2776354551315307,0.3754732608795166,0.0564372539520263,-0.0271145105361938,-0.0575524270534515,0.0063939681276679,0.0159702897071838,-0.0763555099278688,-0.0328061319887638,0.0585772766530513,-0.0449947415024042,132
1733407180685819000,0.0052905076235532,-0.1163566809266805,-0.1758031416296958,5.158403922918438,-2.899289947643876,7.820189767301082,0.0831963866949081,-0.284710556268692,-0.0105584627017378,0.6438183297006718,0.0977426663297026,-0.3028657345291199,0.6958567480348776,0.8536325693130493,-0.4921766817569732,0.6177088022232056,0.0535124838352203,0.0077648162841796,-0.0515675544738769,0.0113566340878605,0.0137742459774017,-0.0779734665185213,-0.0237896554172039,0.0773078422166407,-0.0410983185857534,133
1733407180725819000,0.22344635181427,0.052007542873919,-0.0506821394890546,5.2139352560043335,-2.8671397824063893,7.795176322075724,0.0937466546893119,-0.0518890284001827,0.0336390659213066,0.6428212114345068,0.1014168727567607,-0.303761813040999,0.6958622069906627,4.29413366317749,-0.4453168213367462,0.7863844633102417,0.004410445690155,0.2034883499145507,-0.026488572359085,0.0317496731877327,0.0174478124827146,-0.1257481941282749,-0.0206534285098314,0.0231888601467013,-0.0192763628780841,134
1733407180765819000,0.2125385888308286,0.386888024520874,-0.1986982795268297,5.202696653631329,-2.8536636302396654,7.807620793107151,0.0670384168624877,0.0329225622117519,0.0622569806873798,0.6418449389503792,0.101951653465601,-0.3025359470432708,0.6972179767475177,4.076575756072998,0.1418634951114654,0.7262009978294373,-0.1378907263278961,0.032050609588623,0.1902921199798584,0.050252616405487,0.0112125696614384,-0.0485667547702789,-0.0211176332086324,0.0411807361721992,-0.0799678552061319,135
1733407180805819000,0.1879354779720306,0.1502490136563777,-0.0543880082696676,5.178817180871963,-2.860784860421717,7.820878918609023,-0.0498585477471351,0.1087474375963211,0.0319108664989471,0.6416301211587532,0.1009064492097039,-0.3017681886780198,0.6979000874900676,1.4499281644821167,0.3533444106578827,0.4467808306217193,-0.0640476644039154,-0.157134473323822,0.1176300048828125,0.0388933308422565,0.003825491759926,-0.0788029030799865,-0.0008827727288007,-0.0065650576040148,-0.0849193401336669,136
1733407180845819000,0.1992290254026651,0.028784488196671,0.0861906752437353,5.151512409839034,-2.87339562793076,7.834277329364419,0.0184266697615385,0.0199724994599819,0.0273013990372419,0.641596693198673,0.0994482017389144,-0.3011197134302632,0.6984200301328886,-0.0480327829718589,0.1941225379705429,0.0570244565606117,-0.0231676697731018,0.0646417737007141,0.0508195757865905,0.0220279898494482,0.0115828961133956,-0.0747644413441419,0.0152042023837566,-0.0100156364493072,-0.0609504355251789,137
1733407180885819000,0.1696200690805911,-0.0217377845555543,-0.034543490114808,5.148500368541479,-2.867016156026721,7.838593438997864,0.020935658365488,0.0043277111835777,-0.00212311767973,0.6415115492360081,0.0996192372974501,-0.3006974759139433,0.6986557962137323,-0.2172234058380127,0.2171134948730468,-0.0203200653195381,0.0120033025741577,0.0037922263145446,-0.0503885149955749,0.0157958567142486,0.0104883937165141,-0.0259241303294897,0.0164619125425815,0.0277364404484629,-0.064310851868987,138
1733407180925819000,0.1242132396459579,-0.0708110275432467,-0.0858750334233045,5.158443085885048,-2.865078758223355,7.83276341767013,-0.0362557470798492,0.0280808359384536,-0.0118481423705816,0.6414680454531517,0.1000729785111985,-0.3010408789048065,0.698483140404351,-0.3981958627700805,-0.1800220906734466,0.0666777491569519,0.1092967391014099,-0.1299682855606079,-0.0936177968978881,0.0163261666893959,0.0055089448578655,-0.069150693115592,0.0297197885811328,-0.0037257425248622,-0.0242173264116048,139
1733407180965819000,0.1393242995381355,-0.1270613225534558,0.2093546980977058,5.126272754642367,-2.8707784311696884,7.851773238566517,0.035434104502201,0.0976937562227249,0.018365791067481,0.6419530771008026,0.0984788748871748,-0.2999548315765711,0.6987311637046116,-0.4156185090541839,-0.1538660228252411,0.1292654275894165,0.0629300773143768,-0.0503992438316345,-0.0335303544998168,-0.0041540116071701,0.0005052690394222,-0.0620160189300775,0.0343852490186691,0.0088654435008764,-0.0482943675696849,140
1733407181005819000,0.2876157493859529,-0.0912453282848,-0.0736392367064952,5.122831089755892,-2.848085830107331,7.862276512402295,0.0585660301148891,-0.0548604987561702,-0.0603470839560031,0.642273342735924,0.0990828570614725,-0.2988612288002018,0.6988201503548814,-0.6947108507156372,-0.2317806333303451,0.1390009522438049,0.0508329272270202,-0.020260214805603,0.0110154747962951,-0.0137624768540263,0.0040507446974515,-0.0621089579105377,0.0485030338168144,0.0092766546502709,-0.0032160394370555,141
1733407181045819000,0.2544838796347379,0.0104164723351597,-0.2003834561347961,5.149827817752957,-2.8144758214503525,7.856741090106964,0.0476252995431423,-0.0580635368824005,-0.0869847014546394,0.6428792565442983,0.1010861177174543,-0.2986624869868908,0.698060530741979,-1.733134388923645,-0.001087759505026,0.1089668124914169,-0.0184694826602935,-0.0761144757270813,0.0997224450111389,0.001083523966372,0.0031619151122868,-0.0749666859179735,0.0401799008250236,0.022297025873512,0.0138876555770635,142
1733407181085819000,-0.038758477461338,0.0148605922624468,-0.2701297770559787,5.179558354628086,-2.7910870548173783,7.845533467394113,0.0016075008315965,-0.0596321895718574,-0.0477529242634773,0.6434537023929244,0.1028113960903977,-0.2990299836975428,0.6971214243192148,-1.3263951539993286,-0.0605995580554008,0.3299807608127594,0.0372217297554016,-0.0022346973419189,0.0119799375534057,0.0042495094239711,-0.0034008207730948,-0.0115068979203701,0.038485087454319,0.0398627854414284,-0.0506178420811891,143
1733407181125818600,0.1204459960669279,-0.0577764816641807,-0.4223912995785474,5.204108858516812,-2.7905753059029577,7.829452685686945,-0.0714960023760795,-0.0579050369560718,-0.0547493137419223,0.6437031962645519,0.1036131221702628,-0.3001222025293703,0.6963024982293062,-2.6892569065093994,-0.3821374773979187,0.0871544629335403,0.0633884370326995,-0.1393974423408508,-0.0628526210784912,-0.0137662403285503,-0.0268081258982419,-0.0458884754717349,0.0427802354097366,0.0712342213913798,-0.0425432566970586,144
1733407181165819000,-0.5048065479367971,-0.0687333444863557,0.5401607699126005,5.178886738976836,-2.820768491853773,7.835354603207111,-0.0572500191628932,0.2117550671100616,0.089253269135952,0.6444953962864748,0.1012029149875043,-0.3004431001142325,0.69578559758759,-0.6977348923683167,-0.1917528808116912,0.107619322836399,-0.0958635807037353,0.2667109966278076,-0.1442237794399261,-0.0154893165454268,-0.027341354638338,-0.0703635760366916,0.0313047207891941,0.0656305561654269,-0.0620645342469215,145
1733407181205819000,0.7190823358237743,0.2277598310992121,0.1262391925156116,5.121572614127397,-2.819932041029632,7.873236882355808,0.1408348977565765,0.0306305959820747,0.0208895206451416,0.6436446532041175,0.0995259265982723,-0.2977771196669634,0.697957741899633,1.4065133333206177,0.2059993743896484,0.294565200805664,-0.073283165693283,-0.0588665008544921,0.2378715276718139,0.0093389833346009,-0.0382872372865676,-0.0363636912792921,0.039250299334526,0.0543292638197541,0.0290390474796295,146
1733407181245819000,0.2245095971316099,0.1685153227090835,-0.000501519781351,5.150173854711651,-2.7716110777139664,7.871738752752542,0.0633361637592315,-0.025462681427598,-0.0664068609476089,0.6441769706922092,0.1021803003221218,-0.2970054191707659,0.6974116288543826,1.5212020874023438,0.5084911584854126,0.1837166100740432,-0.0861856341361999,0.1409412622451782,0.1062175631523132,0.031934954226017,-0.0298959128558635,-0.0373906962394714,0.0506388470530509,0.0597502659551799,-0.0207505270838737,147
1733407181285819000,-0.070972647845745,-0.0058954877793788,-0.2683703661680221,5.167929291632771,-2.7481843171581626,7.868315208044648,-0.003773923497647,-0.0654709562659263,-0.0518233478069305,0.6446905296230486,0.1034992210447971,-0.2968425420052929,0.6968117759932415,0.7917671203613281,0.6631643772125244,0.3188098073005676,-0.0532667934894561,-0.0327814221382141,0.0271044373512268,0.03116468898952,-0.0298277456313371,-0.0638765521049499,0.0447920858860015,0.082343644426763,-0.0402969390749931,148
1733407181325819000,-0.0542857169389724,-0.1018970706805586,0.0093628716289997,5.182964948201179,-2.7395713871136307,7.861425448530912,0.0452003702521324,-0.0027327495627105,0.016757121309638,0.6446553378695614,0.104387911281923,-0.2971229011673391,0.6965921924892483,-0.1704902499914169,0.3599906861782074,-0.1509804129600525,0.0812377631664276,-0.1017001867294311,0.030910313129425,0.029892573133111,-0.0274437665939331,-0.0405178883492946,0.0416910350322723,0.0871497295342385,-0.0089566289156675,149
1733407181365818600,0.1099304472714662,-0.035720424939692,-0.1938233669668436,5.1845472489565605,-2.730181042955816,7.86364838527739,0.0430044718086719,-0.0784491971135139,0.0184237025678157,0.6440374895606173,0.1050666688801175,-0.2966925965679486,0.6972447939563744,-0.2833784520626068,-0.1682497411966323,-0.34574756026268,0.0679653882980346,0.0475780367851257,-0.1541147828102111,0.0261366423219442,-0.0132948970422148,-0.0404454076349735,0.0468792915344238,0.0519062744565308,-0.0049742812812328,150
1733407181405819000,0.2353781971484422,0.0634776159152388,-0.0129483289003372,5.203948114997148,-2.723734935556352,7.853061524811387,0.0060640606097877,0.0345820598304271,-0.0074058128520846,0.643740828278564,0.1061431449481272,-0.2972186695796052,0.6971315518477408,-1.1984952688217163,-0.4931494891643524,-0.153293028473854,0.0668623447418212,-0.0429376363754272,-0.1219969391822815,0.0199598353356122,-0.0023788195103406,-0.0606482377082109,0.0296589266508817,0.0256176947288215,-0.0344061274707317,151
1733407181445819000,0.5740858358681201,-0.0149210902780294,-0.0897124196290969,5.180826767128706,-2.720304668846726,7.869521076703071,0.0141454450786113,0.0715013220906257,-0.0333423875272274,0.6439998019475713,0.105323754055206,-0.2960962728337454,0.6974941573509738,-0.0750452280044555,-0.350935161113739,0.1092676818370819,0.0805729925632476,0.0112484693527221,0.0187565088272094,0.0306167844682931,-0.0077858651056885,-0.0449357047915458,0.0140842394903302,0.0285229146510362,0.0190203422904014,152
1733407181485819000,-0.039940965244174,-0.0238727507576346,-0.0458884754717349,5.180890480014681,-2.7001301880851387,7.876424280220269,0.0046776933595538,-0.0373816676437854,-0.109769083559513,0.6453600649489653,0.105517539043122,-0.2954321828276079,0.6964885424569809,-1.0431565046310425,-0.3423727750778198,0.0635866150259971,0.0054188966751098,-0.0597759485244751,0.0723228454589843,0.0371001772582531,-0.0071687069721519,-0.0388075773000717,0.0336500406265258,0.0013189736440777,0.0255833540678024,153
1733407181525819000,-0.2434866848021745,-0.0787649091571569,0.2167979998409748,5.189608039477467,-2.6765122888714075,7.878746001166105,0.0465533100068569,0.1353587061166763,-0.0123558565974235,0.6464280173793019,0.1062813976045309,-0.2949576399484103,0.6955826548796595,0.3034978210926056,0.1570767313241958,0.3088929355144501,-0.1197856068611145,0.0711686015129089,0.2189408838748932,0.0240924842655658,-0.0066331587731838,-0.0256529121726751,0.0277231223881244,0.0037865328013896,-0.0142009593099355,154
1733407181565819000,0.0011392331629991,0.2248541727855801,-0.163961897188425,5.155372592398524,-2.654519652771949,7.908605717378855,0.0821953862905502,-0.0245109666138887,-0.0242938604205846,0.6468202340487476,0.10571398642774,-0.2925711637593135,0.6963119204487097,-0.1643452793359756,-0.1679152548313141,0.173719972372055,-0.0669766664505004,-0.0088411569595336,-0.1210016012191772,0.0277557559311389,0.0072146318852901,-0.052063364714384,0.0155268469825387,-0.0346440278798341,0.0588274520218372,155
1733407181605818600,0.049303252351284,0.1304354751616716,-0.2851584193617105,5.164669413053989,-2.6382120765715835,7.90799723009169,-0.0226246993988752,0.0393063090741634,0.0142802847549319,0.6468529294277299,0.1066582880436398,-0.2922813218863785,0.6962593521743254,-0.0367766693234443,-0.0933083370327949,0.0146917141973972,-0.0640508532524108,0.1424122452735901,0.1269724369049072,0.0355456061661243,0.009223710745573,0.0069534723997116,0.0196130517870187,-0.0115092360079288,0.0510468811482191,156
1733407181645819000,0.1200228022187948,0.0540469397470355,-0.0076525605797767,5.134651291409135,-2.6605846518993377,7.920039550063014,-0.0347705483436584,0.0759224146604538,0.0298546683043241,0.6470141748288201,0.1046504880480308,-0.2919565523903624,0.6965502445558172,0.8129565119743347,0.4202483296394348,-0.0007226623129099,-0.0142671465873718,0.0390083789825439,0.0990165472030639,0.0393755696713924,-0.0123665612190961,0.0356026437789201,0.0197804979979991,0.036556729633361,0.0666173752456903,157
1733407181685819000,-0.0113496615320444,0.0220388133287429,-0.0124631757318973,5.125962958040833,-2.665237446141243,7.924102561718225,0.0369225405156612,-0.0269888769835233,0.0497540719807148,0.6465748730835019,0.1043422985083269,-0.2917120004769065,0.6971067262920889,-0.3115030229091644,0.6070347428321838,0.0547411292791366,-0.0380725264549255,-0.1036952137947082,0.0101900398731231,0.0497619956731796,-0.0194013230502605,0.0156131641954183,0.0197959505021572,0.0300892871849238,0.0454974303275346,158
1733407181725819000,0.2600093650579452,0.0234191617712378,-0.1481675312072038,5.124250893425941,-2.669910114127397,7.923636697772145,-0.0270310696214437,0.0009182388312183,0.0361965708434581,0.6457970120390941,0.1044278329521704,-0.2917221280069318,0.6978103067822324,-0.2404269874095916,0.5752049684524536,-0.1151304617524147,0.0803863704204559,-0.0015971660614013,-0.0085192024707794,0.0537023618817329,-0.011507517658174,0.0058721069037914,0.0138075947761535,0.0348246451437473,0.006928337958455,159
1733407181765819000,0.3005874591618776,-0.175474640327692,-0.1171943007946014,5.14681986810863,-2.6849977931439875,7.903886287641525,-0.0784747973084449,-0.0520964637398719,-0.0717027783393859,0.6457929400627184,0.1046752818104172,-0.2933548066089845,0.6970922017104086,-1.7440004348754885,-0.5207691788673401,-0.3399583101272583,0.2058396935462951,-0.0691394805908203,-0.1736347675323486,0.0373455286026001,-0.0088616758584976,-0.0085281743705272,0.0101071028038859,0.0492563444696366,-0.0223404266238212,160
1733407181805819000,0.1111784015059471,-0.2925079053416848,0.0190934075266122,5.141550403273105,-2.686627147911489,7.906761550816893,0.0245643611997365,0.0528540313243866,0.0022676102817058,0.6464596526748332,0.1041415119999488,-0.2932948766957779,0.6965793069664843,-0.7719380259513855,-0.4869388341903686,0.0351356044411659,0.0390497148036956,0.1772276759147644,-0.2370185852050781,0.0209886953234672,-0.0062158340588212,-0.0229237794697284,0.0064066108316183,0.0636735768787562,-0.0516284804284572,161
1733407181845819000,0.4076140016853809,0.1385544842094183,-0.2424561727106571,5.148130950707197,-2.6647362186208365,7.909886989361047,0.0020659533329308,-0.0722749009728431,-0.1599726527929306,0.6474584880172911,0.1047939168436109,-0.2927904151090879,0.6957654487777006,-0.3460295796394348,0.2361468970775604,0.0113529097288846,-0.056699126958847,-0.0459509491920471,0.2057762742042541,0.0040264446288347,0.0028609512373805,-0.0321416896700859,0.0112891597673296,0.0268104116447269,-0.0011667056918144,162
1733407181885819000,-0.5157739321529865,0.1906798082441091,0.3992839802354574,5.162769132390618,-2.6504224465861914,7.905153531098366,-0.0514071285724639,0.0462121553719043,-0.0510376393795013,0.6493424931628294,0.1050751432772865,-0.2931015945009115,0.6938334530060513,-0.1395602971315384,0.0625234395265579,0.4052338302135467,-0.1347949206829071,-0.1247634291648864,0.0929234325885772,-0.0185116697102785,0.0091461967676877,-0.0550163693010807,0.0040255542844533,0.0164570676736533,-0.0192085583388805,163
1733407181925819000,0.1856032356321811,0.3110743663847446,0.140317402228713,5.18279543685317,-2.638687292867899,7.895970107689499,0.0705180317163467,-0.1128325387835502,-0.0204329565167427,0.6491381786823217,0.1063326596145557,-0.293446652114788,0.6936872514251725,-0.2730368673801422,-0.091541975736618,-0.0145946685224771,-0.0978776514530181,0.1350022554397583,-0.0050227344036102,-0.0085196886211633,0.0319474041461944,-0.0716454325407743,-0.0087280077859759,-0.0316864932484924,0.0590846416532993,164
1733407181965819000,0.2871709282279014,0.1723030245542526,-0.1563403162688016,5.223981433722376,-2.6175308153316377,7.875844434505701,0.0318912267684936,-0.0891210809350013,0.0054525341838598,0.6484766382790069,0.1089083045655956,-0.2942493159472406,0.6935663329055621,0.5152819752693176,0.3433831632137298,-0.0170344561338424,-0.0889687836170196,0.077689528465271,0.0323100686073303,0.0191375147551298,0.0189618654549121,0.0042424598753452,-0.0091419517993927,0.0050602059990167,0.0175543613910675,165
1733407182005819000,0.3028133185178041,-0.0318643340334296,-0.0294441211491823,5.231832731744647,-2.6207611755549904,7.869556732538342,-0.0400935821235179,0.0118427416309714,-0.0140171134844422,0.6483436663634958,0.1091246950191053,-0.2947135361650097,0.6934596387868661,0.8827660083770752,0.4592129588127136,0.0219196006655693,0.001672089099884,0.0459162592887878,0.1178279221057891,0.0151243042200803,-0.0039002653211355,0.0179670338451862,-0.0012272959575057,0.0258056185163557,-0.047982817402482,166
1733407182045819000,-0.075978493309021,-0.0649850978687405,0.20306173543334,5.249549005699158,-2.618466342616081,7.858514529520272,0.0395093411207199,-0.1174293458461761,-0.0233889911323785,0.6483774390214798,0.1098375345244059,-0.2954030663006258,0.693021926480725,0.9676986932754515,0.4131797254085541,0.0341633483767509,0.0654935240745544,-0.0165579915046691,-0.0853047966957092,0.0043593542650341,0.0027027861215174,-0.0098860187202692,0.0220940932631492,0.0324460794441401,-0.000910100582242,167
1733407182085819000,0.0983925696909427,-0.0355883229926228,-0.2403939794838428,5.296043045848608,-2.593544375066459,7.835550418040156,0.0666251853108406,-0.151445522904396,-0.0158004611730575,0.6476118065865761,0.1127966878149087,-0.2962685072566023,0.6928931738993183,-0.0725003108382225,0.0081822779029607,-0.3652936220169067,0.10608971118927,-0.0443768501281738,-0.0149701237678527,-0.0064055956900119,0.0093058366328477,-0.0377320570230483,0.0454154796898365,0.0390863942414522,0.046155017453432,168
1733407182125818600,0.187418176099658,0.0030856910556554,-0.2116916166126728,5.332413166868687,-2.5789474021762606,7.815675504747032,-0.0054118325933814,-0.0092614162713289,-0.025396654382348,0.6472443890254818,0.1148267271914339,-0.2971973612340847,0.6925050449453014,-0.3269120752811432,-0.3177241683006286,-0.349613606929779,0.0620668232440948,0.0131891965866088,-0.1069959998130798,-0.0064361235126852,0.0176079273223876,-0.0298328282058238,0.0384539291262626,0.0656556906066834,0.0068979428201913,169
1733407182165819000,0.2912128970950842,-0.0772302469357848,-0.0141781629562377,5.314211739745736,-2.580183665972948,7.827655865398049,0.0058752419427037,0.0858948603272438,-0.0140583924949169,0.6475909146466821,0.1139731347035565,-0.2964974798236451,0.6926221732259898,-0.1823170781135559,-0.3764725029468536,-0.0773897394537925,0.0948196351528167,-0.1284592747688293,0.0293489694595336,-0.0060486840084195,0.0108649749308824,-0.0541442626416683,0.0198533926159143,0.057803954192996,0.0623351678818464,170
1733407182205819000,0.0315823022216558,0.0957110755220055,-0.0863952579051256,5.3181116697937245,-2.5659286383882165,7.829692339661717,0.0132793122902512,-0.0863076001405716,-0.056924533098936,0.6482700458082901,0.1143687169859426,-0.2961698544983191,0.6920615146461639,0.0365715809166431,-0.045202437788248,0.0984360128641128,0.0010669529438018,-0.0014792680740356,0.0814916789531707,0.0042251702398061,0.0158162973821163,-0.036654783180356,0.0169520545750856,0.0564611612819135,0.0457049355983734,171
1733407182245819000,0.0227028301954269,0.1294379885569214,-0.1788905862510204,5.345546204686165,-2.554913615638017,7.814597646382451,-0.0182393621653318,-0.0190055426210165,-0.0365440919995307,0.6485733906304129,0.1156503627638006,-0.2969703408056611,0.6912208476470967,0.0857918560504913,0.0290005803108215,0.2384351938962936,0.0249029695987701,-0.0921992063522338,0.0297652781009674,-0.0068817753344774,0.0167630333453416,-0.0063344637185335,0.0234640501439571,0.0472920586593449,0.0122299514979124,172
1733407182285819000,0.1225058512061834,0.1367830906227231,-0.128882985022664,5.335226470723748,-2.556423143418133,7.821153643897175,0.0010381643660366,0.010961546562612,-0.0157221145927906,0.6490264637456291,0.1150259232912668,-0.2966499188586164,0.6910373486610482,0.3397767245769501,-0.2713904678821563,0.7541839480400085,-0.0449603497982025,0.0006500482559204,0.3023968935012817,-0.000579104758799,0.0146839916706085,0.0043640404284,0.0237273499369621,0.0720433458171784,0.0710579880416393,173
1733407182325819000,-0.2739788536995649,0.2203866719827056,0.2105102978736162,5.312276972290873,-2.5602698819741607,7.835503656288981,-0.0202988144010305,0.1123430281877517,0.036716591566801,0.6495986606226065,0.1138063693983416,-0.29588612845488,0.6910290048479137,0.332454651594162,-0.4808046221733093,0.2585439682006836,-0.1266939640045166,0.2800847887992859,-0.2039799690246582,0.0322496965527534,0.0129332672804594,-0.0202823250502347,0.0129121243953704,0.0270326760932803,0.0744955612748861,174
1733407182365818600,0.2511836690455675,0.1594341906309127,0.2057891145706176,5.296031939932703,-2.5680010607481,7.843966364207863,0.0701987594366073,-0.037982989102602,0.0521647185087204,0.6488270921827659,0.113254485687398,-0.2953683324267314,0.6920653750306036,0.1909425109624862,0.0869437232613563,-0.1693217903375625,-0.145141065120697,0.153132677078247,0.121078997850418,0.030935138463974,-0.0041513070464134,0.0344926367104053,0.0050685983151197,0.0591604833684861,0.016426818665862,175
1733407182405819000,0.4658177688509226,0.0790998401999473,-0.3043395051717758,5.312587353414297,-2.552908413295448,7.837694444331526,0.0270656011998653,-0.0437563955783844,0.0202641878277063,0.6478161202937908,0.1148608308999106,-0.295289317761694,0.6927809200241689,-0.0404632799327373,0.4138553738594055,-0.33399498462677,-0.0520189702510833,-0.0299599170684814,0.1048285365104675,0.0296205822378397,-0.0212358813732862,0.0892722746461629,-0.0027749277651309,0.0912837605990469,-0.0416623822093009,176
1733407182445819000,0.1749848109841346,-0.0794426622882485,-0.0998567970246076,5.313721910402179,-2.562708215036988,7.833726709744334,-0.0240113548934459,0.015676949173212,0.0315374657511711,0.6475225087211839,0.1146527099717682,-0.2957124629348876,0.6929094707029757,0.2532452940940857,0.8319168090820312,-0.4675424993038177,-0.0205317437648773,0.1018641591072082,0.0399611592292785,0.0286670755594968,-0.0324276983737945,-0.0071194766163825,0.017240485176444,0.0636903818830847,-0.0132598790675401,177
1733407182485819000,0.0948778395682573,-0.1863888330519199,-0.5774848306566477,5.340707532483339,-2.566044958244264,7.814258623686432,0.0183840095996856,-0.1965467482805252,0.017688550055027,0.646401515089427,0.1159812730151373,-0.296870414137502,0.6932396933107569,0.3012892603874206,-0.0577998273074626,-0.358826607465744,0.3379158675670624,-0.0478690862655639,-0.2589415311813354,0.0221277605742216,-0.026912560686469,0.0017617489755153,0.0388226062059402,0.1174497368603944,0.0246679927885532,178
1733407182525819000,0.0173614691674709,0.0462815664425492,-0.3959001830160618,5.350438068380951,-2.577850546850264,7.803709757143259,-0.1466044634580612,0.1559847742319107,-0.0034581844229251,0.6468750551468174,0.1156789635069795,-0.2978924552635471,0.6924097108509822,1.3702630996704102,0.1487303376197815,0.0395748913288116,0.0887840688228607,0.1625192165374755,-0.0092340409755706,0.0112811513245105,-0.0241898111999034,-0.0323532865941524,0.0414183028042316,0.1201600187323987,-0.0037105449557304,179
1733407182565819000,0.5060504105180501,0.3094841745838523,0.0200093533277511,5.315002013340592,-2.620188051842153,7.813818478703498,-0.156966283917427,0.0482800528407096,-0.1551529169082641,0.6484145891256311,0.1121145429831397,-0.2983897713961748,0.6913410908269565,0.7019935250282288,0.1793888062238693,0.107628509402275,0.0187984406948089,-0.0758719444274902,0.1960428953170776,-0.0047985594719648,-0.0020067803561687,-0.0687508801430463,0.0431209690868854,0.0579028845228254,0.0276022926747798,180
1733407182605818600,-0.0732563748687505,-0.0007595861956477,0.402705186855793,5.361449291738867,-2.6036829072430727,7.787559417331218,-0.0623521395027637,-0.0917529091238975,-0.30727219581604,0.6519058200264093,0.1128990087036047,-0.3003311246787593,0.6870763350487598,2.371037721633911,0.4117859899997711,0.3631408512592315,-0.0111021399497985,0.057259202003479,0.0541873574256897,0.0011113989166915,-0.0056471358984708,-0.0071937108963727,0.0589851923286914,0.1045582527138292,0.0637637393802404,181
1733407182645819000,0.0343827465951442,-0.0740422645494341,0.250259539937973,5.4098821909964085,-2.512294078834355,7.784082681131363,0.1751561462879181,-0.1194524317979812,-0.2735746502876282,0.6556669212457675,0.1165193158997268,-0.2992415322251236,0.6833583998115754,3.9771106243133545,0.1023784428834915,0.4131609797477722,0.0049984455108642,0.0826146006584167,-0.0784456133842468,0.0238551832735538,-0.0099633187055587,-0.0533142415583133,0.0560624077916145,0.0805634830117225,0.0701198304086923,182
1733407182685819000,0.7124819146454334,0.3403983682855963,-0.3709714934647083,5.47832502810359,-2.4006088968500494,7.771448825007677,0.1622635424137115,-0.1536026298999786,-0.2615009844303131,0.6576612007318116,0.1224119000042567,-0.2979625905874375,0.68096652373586,6.8796234130859375,0.3123466074466705,0.92014080286026,-0.052297294139862,0.2557470202445984,0.0456060171127319,0.0464393757283687,-0.0181985907256603,-0.0239081143319606,0.0277450047433376,0.1078773141339421,0.0141588737338781,183
1733407182725819000,0.841050426891446,0.1322333183638751,-0.6811825210183858,5.541591923877596,-2.2986865455977616,7.757395165213942,-0.0215822160243988,-0.0233480036258697,-0.3594911396503448,0.6615560231480863,0.1269087409224505,-0.2972828375285316,0.6766540520062475,6.351030826568604,0.3466192185878753,0.7146725058555603,-0.0369126349687576,0.121373027563095,0.1770907044410705,0.0587237104773521,-0.0206607859581708,-0.0561930118650197,0.0138448504731059,0.0909593509502708,0.017862988948822,184
1733407182765819000,0.2870703904628753,0.2122334684044122,0.002301262679696,5.536076375326514,-2.268104506459832,7.77032420489192,-0.1205104365944862,0.1695484817028045,-0.2143812775611877,0.6660936759196071,0.1259162093666882,-0.2965953964635901,0.6726777861475309,3.819191217422485,0.3434098660945892,0.2289911657571792,-0.0880602151155471,-0.1777476668357849,0.1948704719543457,0.0595239028334617,-0.0297559462487697,0.0309679697155952,0.0137190176174044,0.1207002630889415,-0.0202332252115011,185
1733407182805819000,0.0714566319704055,-0.0073697981156408,0.1881388915896415,5.524540835833549,-2.252008234922588,7.783205898296832,-0.0929971635341644,-9.84005164355e-05,-0.239426776766777,0.6698940778161626,0.1244713279969565,-0.2960976442714543,0.6693841513233154,1.6300537586212158,0.066034235060215,0.1087413132190704,-0.004689797759056,0.041798323392868,-0.0766244530677795,0.0560439638793468,-0.035670630633831,0.0736520961880683,0.0511379092931747,0.1142407116860151,-0.0143663790047168,186
1733407182845819000,-0.1425607972413301,-0.2433484453752636,0.4105196599990129,5.568868053337932,-2.2169928895123303,7.761638794133066,0.0127203622832894,-0.1096143499016761,-0.2145326286554336,0.6727261070192243,0.1261270146430965,-0.2972516476985012,0.665712424706879,1.8264250755310056,0.1333998590707779,0.1834520995616912,-0.0872099548578262,-0.0123764611780643,0.0455095171928405,0.0602131001651287,-0.0359035544097423,0.0585381136864423,0.0811235755681991,0.1644150477834045,0.0253261644363403,187
1733407182885819000,-0.1843394993066787,-0.1342595634944736,0.3090636110842227,5.608702635598182,-2.1474146186344325,7.75251265386939,0.1937125623226165,-0.049598429352045,-0.1012980490922927,0.6740375846644304,0.1296720506398369,-0.2965080341029106,0.6640343132316616,1.2148817777633667,-0.030322665348649,0.1487738788127899,7.314980030059814e-05,-0.1043255627155304,0.1030281782150268,0.0597860068082809,-0.0443978421390056,0.0205067814558744,0.1054520159959793,0.188198658952862,0.1154383970379829,188
1733407182925819000,0.1424263572067022,0.1414005212903022,-0.1082785884112119,5.631190946260094,-2.064243583472818,7.758799771314859,0.1806331127882003,-0.0654938369989395,-0.1128090098500251,0.6744880572696876,0.1335450630378804,-0.2942397259751297,0.6638181862121859,0.8766993284225464,-0.155615821480751,0.0830215662717819,-0.0182626694440841,-0.0296820774674415,-0.0459915995597839,0.0431230925023555,-0.0019859112799167,-0.0381242712110281,0.1233782768249511,0.1104217379197478,0.0991337434470653,189
1733407182965819000,0.0847451526105403,0.1440396376222372,-0.2749023982852697,5.663583395820856,-1.986228177508712,7.755585485443472,0.1409525573253631,-0.0649815797805786,-0.12312001734972,0.6753270231145879,0.1373801254309542,-0.292748846961602,0.6628410973413635,0.9263443350791932,-0.0556258372962474,0.0651709288358688,-0.0367303341627121,-0.0161467269062995,0.0397725105285644,0.0262862648814916,-0.005535690113902,0.0150175363898277,0.1128319054841995,0.1189974046938121,0.1344295132339,190
1733407183005819000,0.1529986046254634,0.0504335715554654,-0.3042635173261165,5.691247647815943,-1.929582599570602,7.749632129997014,0.0904165878891944,-0.0685514509677887,-0.0800264105200767,0.6759068874342554,0.1403204122980859,-0.2918713861335151,0.6620205744376566,0.4839714467525482,-0.1415402144193649,-0.122592844069004,0.0274831354618072,-0.0004239678382873,-0.0364688038825988,0.0094494372606277,-0.0090854689478874,0.0682943685472011,0.1022855415940284,0.127559773594886,0.1696089631646871,191
1733407183045819000,0.4507499635785817,0.1015050026230514,-0.2070224557578563,5.729432709303498,-1.8751595199875533,7.734840803578495,0.1224056556820869,-0.1136222928762435,-0.1346360743045807,0.6763788293101215,0.1435826891841776,-0.2915765266504718,0.6609682244400151,0.9054955244064332,-0.2156994342803955,-0.1504658162593841,-0.0595650076866149,0.0211274325847625,0.0594875216484069,0.024802079424262,-0.0081976354122161,0.054506666213274,0.1105497702956199,0.1281613927498459,0.1956903298825025,192
1733407183085819000,0.380705536493659,0.1874133537940681,-0.1870452511340379,5.7613195474296806,-1.7984116497412324,7.729379031041264,0.1217757910490036,0.0097175342962145,-0.1807694435119629,0.677808794670416,0.1470916581681196,-0.2903022287095483,0.6592904821773699,0.9026507139205932,-0.299030601978302,-0.1521133184432983,-0.0518229007720947,-0.0733848810195922,0.0242819190025329,0.0401547215878963,-0.0073098014108836,0.0408598336547613,0.1188139989972114,0.1287204879373311,0.2216512850910425,193
1733407183125818600,0.269013924768567,0.2907115234442055,-0.1489414381891489,5.755396002599596,-1.7221448410101234,7.751130259600282,0.1069751530885696,0.0718298852443695,-0.1913443505764007,0.6802941795911829,0.1488233078108342,-0.2874960198464172,0.657569379038143,0.7911393642425537,-0.3921338021755218,-0.1401437371969223,-0.0460345149040222,-0.0060565620660781,0.0132378339767456,0.0358730852603912,0.0074400133453309,0.0906096607297658,0.1158690601587295,0.097145346108824,0.0875666397720575,194
1733407183165819000,0.5710463220417499,0.302784530814737,-0.177617497575283,5.7699967748820775,-1.6306686265788972,7.760054155290127,0.1275477111339569,-0.0506656542420387,-0.3298716843128204,0.6830706299632929,0.1517456968923654,-0.2851676695883763,0.6550321577426059,0.0021169350948184,-0.2108280956745147,-0.0747328400611877,0.0224869549274444,0.0533943176269531,-0.0778181552886962,0.0019008442759513,0.0200091879814863,0.1376180801421404,0.1365669518709182,0.0721400841899216,0.0771294169098138,195
1733407183205819000,0.5104594591319561,0.3062393474437296,-0.2351817977935075,5.836120229130983,-1.4850843898631632,7.739806901553273,0.1276466846466064,-0.2239372134208679,-0.5303353071212769,0.6877890884066089,0.1577446621048986,-0.283718693604661,0.6492814655523029,-0.065408319234848,-0.0721787139773368,-0.0579337552189827,0.0921699702739715,0.0342482477426528,-0.017429769039154,-0.0503056272864341,0.0009283237159252,0.2947235355645418,0.1930318474769592,0.1708427427433431,0.168667298400402,196
1733407183245819000,0.5698351926863193,0.1964034465879201,-0.1750765809208154,5.9567585328996175,-1.3206307636350392,7.677457120624184,0.0484188050031662,-0.3044674098491668,-0.664385199546814,0.6935530932213622,0.1658785171227033,-0.2846804317694948,0.6406446166061345,-0.0845585763454437,0.0316927693784236,0.0649907067418098,0.1253499686717987,-0.0221919566392898,0.0358751416206359,-0.0728816092014312,-0.0691301971673965,0.3351367944955825,0.2714836895465851,0.2484048519819974,0.3399263668596744,197
1733407183285819000,0.2497691260725259,-0.0454128938492387,-0.020192308679223,6.062542966407537,-1.1398665655318647,7.623428593316674,0.1875066757202148,-0.1171735376119613,-0.5714430809020996,0.6998236421399492,0.1739216845883471,-0.2847184049656705,0.631611876472911,-0.6762133836746216,0.3353224992752075,0.2170199900865554,0.1124379634857177,-0.0381946414709091,-0.0157106518745422,-0.0446164608001709,-0.0907463133335113,0.3570189559578895,0.3553216755390167,0.2144568435423076,0.3347305517822503,198
1733407183325819000,0.3192518276214599,0.136966411300376,-0.2787795319795608,6.117858610916137,-0.902512392135337,7.611022116208076,0.4164809882640838,-0.0663084909319877,-0.580967903137207,0.7052468061607573,0.183000456604509,-0.2801012254902954,0.6250447951979626,-1.1755704879760742,0.5555034875869751,0.0553434006869792,0.0167661905288696,-0.0274023413658142,0.1153517365455627,-0.0089589692652225,-0.1408226788043975,0.3539788576096296,0.4850568175315857,0.1666260018311441,0.3514256659954786,199
1733407183365818600,-0.284751007604599,0.3942513928957283,-0.7123562424391507,6.092036187395453,-0.691132325689867,7.653744821125269,0.2157509475946426,0.3067575097084045,-0.2652218639850616,0.7101651846738873,0.1886323630791719,-0.2723700535414695,0.6212066093575942,-2.327216148376465,0.2843870818614959,-0.2079367041587829,-0.0611693561077117,0.0817488133907318,-0.0175330638885498,0.0266985222697258,-0.1908990293741226,0.3540951774656772,0.614791989326477,0.1181266132086515,0.365738853508234,200
1733407183405819000,-0.0389829338669776,0.5814370023485272,-0.4168821807682514,5.977051963865756,-0.6276750949755311,7.749274402600526,-0.0003574257716536,0.4452379047870636,-0.0711801275610923,0.713754430394932,0.1859100812428875,-0.2652063334770846,0.6210133341399703,-1.4602056741714478,0.0679709911346435,-0.0206738673150539,-0.0434696525335311,-0.0024242959916591,-0.0014629960060119,0.04534263163805,-0.2133551836013794,0.1544382820397615,0.7207948565483093,0.0469043745160102,0.3317424758821725,201
1733407183445819000,-0.03011982845366,0.5094437062181532,-0.2234106959789991,5.865986375084519,-0.6258616888780146,7.833829585596918,-0.0616861805319786,0.2403565943241119,-0.0511651113629341,0.7164118177404774,0.1812247896613683,-0.260275664520759,0.6214243918279312,-0.5417748689651489,0.2183106392621994,0.0341889187693595,-0.0161934047937393,-0.0291608963161706,0.0143465995788574,0.0618188753724098,-0.2042883038520813,0.0315104060292243,0.758317232131958,0.0629062457680702,0.3052531128853559,202
1733407183485819000,-0.213138308289647,0.4387634654477238,-0.135378776782751,5.834723806336521,-0.6427194463070481,7.855781305164098,-0.0768167600035667,-0.0082554100081324,0.0095540937036275,0.7175625750039624,0.1790328130123181,-0.2596418353654767,0.6209970731495252,-1.1968365907669067,0.3502638339996338,-0.030746940523386,-0.0316320210695266,-0.1354712694883346,0.165947139263153,0.0826301574707031,-0.2030624002218246,0.0847767167925834,0.7200462222099304,0.0181397600635886,0.1887169837385416,203
1733407183525819000,0.0333569106787443,0.530389025221765,0.0310275909483432,5.838273607772589,-0.6807748900655657,7.849936086267232,-0.1189637705683708,0.0172325558960437,0.0717279016971588,0.7172418635463498,0.1777258869448884,-0.2611094609901203,0.6211276444893915,-1.5977100133895874,-0.1454029679298401,-0.2356594651937484,0.0745087265968322,0.0786410421133041,0.0556932687759399,0.0947926938533783,-0.1444902867078781,0.0081079031318426,0.6539419889450073,-0.1339258014954626,0.2009782071575522,204
1733407183565819000,0.2542091543465852,0.384527871260792,0.2366051085948944,5.820179732677341,-0.7444063083030283,7.857591569456457,-0.1532649099826812,0.083581693470478,0.073926642537117,0.7171006334404948,0.174592083709075,-0.2624726927390168,0.6216046686501402,-1.5624297857284546,-0.0737398564815521,-0.1191804707050323,0.0013302266597747,-0.1786422282457351,-0.0533394813537597,0.0748085975646972,-0.1243688985705375,0.1356803900778293,0.5954245328903198,-0.0238264273978769,0.3569008825361728,205
1733407183605818600,0.124382750993967,0.3731987410601228,0.4157213202953338,5.787648751428723,-0.7924832337297498,7.876894820341468,-0.0184904076159,0.1053870543837547,0.071299098432064,0.7170872574207658,0.1715729581688183,-0.2625887252778294,0.6224112650786071,-1.075150966644287,-0.0138311982154846,-0.1888125389814376,-0.0078560709953308,-0.0360430777072906,0.002992033958435,0.0898163318634033,-0.1298555135726928,0.0612666618674993,0.5674765110015869,-0.081911828880757,0.4542795990094542,206
1733407183645819000,-0.1949929952681064,0.6907685338787735,0.0609387450873851,5.755975263792276,-0.7863868896160274,7.900679600554704,0.1391718238592147,0.0563057102262973,0.1302347630262375,0.7161061370407295,0.1712023199490568,-0.2605133860206177,0.6245114953399022,-0.6534531712532043,-0.0407901667058467,0.0371604040265083,-0.0113589763641357,-0.0548625886440277,-0.0850385427474975,0.0936776995658874,-0.0882305055856704,0.022245734077692,0.4862869083881378,-0.1158212588757276,0.4094678128585219,207
1733407183685819000,-0.0254769710838794,0.9057446520548312,-0.2306464924514293,5.743429085952044,-0.7854360186319798,7.909898095276952,0.0647356510162353,0.006615970749408,0.1480223387479782,0.7140401368671101,0.171687954915984,-0.2592887677105653,0.6272473113388347,0.1596983075141906,-0.0810879468917846,0.1507926285266876,0.0162878483533859,-0.0806403309106826,-0.08665132522583,0.0985006093978881,-0.0776982754468917,0.1948714147150516,0.408941388130188,-0.0656685500882565,0.5069651872754096,208
1733407183725819000,0.2820762354373932,1.016481301142648,-0.0376420406520366,5.739041664648056,-0.7885832306165248,7.912769851320982,0.1194634884595871,-0.0084929559379816,0.093208335340023,0.7122491871064879,0.1721537975101909,-0.2586969119782195,0.6293966076328658,0.4404271841049194,-0.0883882567286491,0.1997102946043014,0.0219223648309707,-0.0717106908559799,-0.0654346346855163,0.0827654004096984,-0.080139547586441,0.3553454697877168,0.3608988523483276,-0.0824650788493454,0.5148769833132625,209
1733407183765819000,0.5449439125359058,1.094923627281934,-0.2161123556643724,5.74626986233592,-0.7676661878593266,7.9095801153689616,0.056289903819561,-0.0395250953733921,-0.0033076456747949,0.7111590659605208,0.1736873499698208,-0.2579852012309803,0.6304990161237538,0.7440682649612427,0.0382387675344944,0.2935981750488281,0.0114852488040924,-0.054778441786766,0.0408710241317749,0.0496507473289966,-0.1051728576421737,0.4671440490186214,0.3828548192977905,0.0086380644857883,0.6713046856045722,210
1733407183805819000,0.5139321036785841,1.1721724327877163,-0.3021113077282905,5.759774071553349,-0.7307415747616439,7.903252665913104,0.1203760579228401,-0.0678054392337799,-0.1141726225614547,0.7114773835706276,0.1754997034831207,-0.2573832172698589,0.6298838133610045,0.6018730401992798,0.1782374233007431,0.5847209692001343,0.0073588639497756,-0.0422461777925491,0.1095842123031616,0.0342378579080104,-0.1501427292823791,0.3583680324792861,0.4307487905025482,0.0188887517999857,0.7991995363727211,211
1733407183845819000,0.8009820358753204,1.3188148002542557,-0.5178162516355514,5.808062009382248,-0.6280876212991774,7.876694329333305,0.2819157540798187,-0.2071336507797241,-0.3220521807670593,0.7123822469902229,0.1808912672109797,-0.2562785856946363,0.6277827830148396,0.1123427748680114,0.1677669882774353,0.7560663223266602,0.052980750799179,-0.1240935623645782,0.0269312262535095,0.0188249684870243,-0.1951126009225845,0.2526502344667911,0.4786427915096283,0.0285366509154438,0.9259748815916478,212
1733407183885819000,0.6126034903109073,0.984766970039159,-0.8635808231294154,5.927906532424688,-0.3963919485883787,7.802127456387877,0.3737785816192627,-0.489085704088211,-0.7261677384376526,0.7160650864014011,0.1927765259980321,-0.2550282938820881,0.6205229337576511,-0.3954996764659881,0.0644700527191162,0.9393085837364196,0.0715636610984802,-0.1123425811529159,-0.0182912945747375,0.0244570989161729,-0.224397212266922,0.0937123029202222,0.5955129265785217,-0.018996303827688,1.0541535177372396,213
1733407183925819000,0.2434814241051673,0.9240900907583536,-1.1575965026855468,6.112524848672747,-0.0644220845579635,7.668328642272948,0.4507079124450683,-0.5439164042472839,-0.8800453543663025,0.7215666538027874,0.2101984783510288,-0.2546382522571891,0.6085371052440203,-0.3936817944049835,0.0339854881167411,1.2310311794281006,0.0738155543804168,-0.1024783104658126,0.058813989162445,0.0203722678124904,-0.2412153333425521,-0.0459603716641664,0.6731759905815125,-0.0842766583159565,1.051211034544557,214
1733407183965819000,-0.4004448407083749,1.1654206204399469,-1.691086708793044,6.191569159293175,0.2082525820747017,7.602070747989416,0.0331021659076213,0.028516074642539,-0.624703586101532,0.7284545923322029,0.2212042033980953,-0.251934415900502,0.5974542638753356,-0.3320546448230743,0.2453497052192688,1.510467529296875,0.0239518135786056,-0.1156382411718368,0.1439256072044372,0.0162874348461627,-0.2580334544181824,-0.177265030875802,0.7508390545845032,-0.1506999722942709,1.0457564224004745,215
1733407184005819000,-0.0955120458185672,1.3763720862098037,-2.3224703028976914,6.138177760845422,0.2989707629465498,7.642236754161119,-0.3011170327663421,0.2254327237606048,-0.5270701050758362,0.7361900482630982,0.2200361533034684,-0.2488743705484425,0.5896354823835647,-0.0749530866742134,0.6664792895317078,2.03497314453125,0.0575575605034828,-0.2029283791780471,0.1795805692672729,0.0454378202557563,-0.2390377968549728,-0.2009779148966073,0.7101202011108398,-0.3450779774691909,0.94447631457448,216
1733407184045819000,-0.2207598892092704,0.4247773544648662,-2.2024071686685085,5.956967791736125,0.1818535094435326,7.787930004209279,-1.415706753730774,0.7948450446128845,-0.7542675733566284,0.7531926037615516,0.2022111540079402,-0.2490717462918966,0.5742602255960073,-0.5559415221214294,1.3871630430221558,2.5297133922576904,-0.0797188356518745,-0.3956807255744934,0.2636446356773376,0.0866861194372177,-0.2710634469985962,0.092043492925167,0.665837287902832,-0.3039003100369125,1.0320778795294463,217
1733407184085819000,-0.3764823658406734,0.5560660489223898,-2.325153258371353,5.652853327491879,-0.1827202458080835,8.011382201242446,-1.806492805480957,1.0777984857559204,-0.6251852512359619,0.7711968995090054,0.1697887517761843,-0.2504095699242444,0.5601091800275477,-0.5982059240341187,2.1119933128356934,3.013826370239258,-0.1338749229907989,-0.4657868146896362,0.2994431257247925,0.0922579541802406,-0.2900889813899994,0.156252053463459,0.7766739130020142,-0.3827363482015207,1.0402581172451375,218
1733407184125818600,-0.4105348575681448,0.3271040024265647,-3.0761738702476022,5.430128275689483,-0.6907233795627952,8.136767991799116,-2.1115992069244385,0.2642692625522613,-0.5724494457244873,0.7871029519613025,0.1341598647224177,-0.2591166157769873,0.543441480253181,-0.2277594059705734,2.605106830596924,3.2662172317504883,-0.1168844252824783,-0.2579250633716583,0.1490914821624755,0.0701014995574951,-0.1994945704936981,-0.1610071390360593,0.8915866613388062,-0.4473320083612576,0.68644562917836,219
1733407184165819000,0.4924591075390577,-0.5074444952249527,-3.352952583798766,5.49095011639893,-1.2481038720846176,8.028828426083923,-2.10907244682312,-0.3942574858665466,-0.7141972780227661,0.7982989895659288,0.1047218385401993,-0.2822711646233927,0.5216080862570511,1.069585919380188,2.8628525733947754,2.850665330886841,-0.1338081657886505,0.1196448355913162,-0.2861565351486206,-0.061508223414421,-0.0276127159595489,-0.4089104712367057,0.8912203311920166,-0.5510156701976433,0.4535470469512045,220
1733407184205819000,0.6338128670781851,-0.5185362364731728,-3.8996220049530255,5.683138575640321,-1.7085200741529465,7.807258389535546,-1.6689807176589966,-0.5114336013793945,-0.390689492225647,0.8052688772909566,0.0830869273056664,-0.3082809724993821,0.4996013859121204,-0.6027266383171082,1.9833869934082031,2.184170722961426,-0.0037972629070281,0.161440297961235,-0.2686686515808105,-0.1480581760406494,0.0395582094788551,0.4417816442251205,0.9491448402404784,-0.2920313738711178,0.508669397377409,221
1733407184245819000,0.7706155391842127,-1.4747941742561756,-6.305284385800361,5.884666525635123,-2.19776138868928,7.530666138467192,-2.047672986984253,-0.7642396688461304,-0.2225846499204635,0.8061710732235186,0.0620122695765721,-0.3349587280260095,0.4837824170930679,-1.1585239171981812,1.4940993785858154,1.1992321014404297,-0.205831378698349,0.2426484525203704,-0.2421661615371704,-0.2346081286668777,0.1067291349172592,1.3070347844809294,1.0070693492889404,-0.0303693097027018,0.5630614973003044,222
1733407184285819000,0.9707868138730524,-2.3760367656514045,-7.696863831883668,6.230073954254388,-2.814592433567345,7.030976495152712,-3.090787649154663,-1.3061684370040894,-0.7363331913948059,0.8058003321683502,0.0345240632207292,-0.3746038619795684,0.4573465395017499,-1.2665685415267944,1.001237154006958,0.8479482531547546,-0.1237468719482421,0.3679439425468445,-0.2940167188644409,-0.2747007310390472,-0.0730957388877868,1.098908166873455,0.9197139143943788,0.4067083215499296,0.4110573836049064,223
1733407184325819000,-0.0318365692436695,-5.768251977041364,-7.802608517903089,6.742334325328469,-3.696625735971332,6.086563893464208,-5.475020408630371,-1.6210891008377075,-0.8362454771995544,0.801864103843839,-0.0129660330977715,-0.4353199680507185,0.4090748690807176,-1.1216646432876587,0.9848260879516602,-0.0744062662124633,-0.1807049512863159,0.4781668782234192,-0.4111145138740539,-0.2559346258640289,-0.388530820608139,0.4898275899916887,0.6328860521316528,0.9741959647294132,0.1671336408260278,224
1733407184365818600,-0.916997356018424,-7.680838579756021,-4.6491985555008055,7.115884729370475,-4.855500003507733,4.686009113764762,-6.448512554168701,-0.8485512137413025,-0.302825927734375,0.7880312551683376,-0.0954041056053995,-0.5019741792210991,0.3434044778706193,-0.3166642487049103,0.3677290976047516,-0.8703057765960693,-0.0272051692008972,0.4416757524013519,-0.2932547926902771,-0.2768457233905792,-0.482466459274292,-0.3901970029383897,0.4479912221431732,0.7966470754109323,0.3623551658866927,225
1733407184405819000,-0.3524333817332983,-8.967565320223569,-4.424990863925219,7.251325465473532,-5.828750577145814,3.100697778390348,-6.45538330078125,-0.7930710315704346,0.0259795412421226,0.7628172015974772,-0.1893937645981981,-0.5532073857715857,0.2760461328293754,0.3134111762046814,0.1222954764962196,-1.6027029752731323,-0.1198689937591552,0.2797845304012298,-0.2431150674819946,-0.2884509265422821,-0.1994823813438415,-0.6968383553117513,0.4110586643218994,0.7869643241778016,0.3502849715277552,226
1733407184445819000,0.3270961113810539,-10.686140339922904,-3.3020945032209155,7.342728322407603,-6.391100967034697,1.1868171903423963,-6.5419769287109375,-1.3973089456558228,-0.0427133478224277,0.7199566146122175,-0.281385779139138,-0.6002592827225955,0.2053610994047344,0.7833957076072693,-0.0094420425593853,-1.844883680343628,-0.0813695788383483,0.2333177328109741,-0.2378066182136535,-0.2722605466842651,0.0363494455814361,-0.3180067959964275,0.3551273643970489,0.9524985852494836,0.2814328229673206,227
1733407184485819000,0.8356827623784542,-10.825635319852829,-0.9448526005409658,7.329293086773156,-6.444190167665481,-0.9613803222980348,-5.812006950378418,-2.252827882766724,0.2244143635034561,0.6565830990566979,-0.3615146966889361,-0.6467796209042292,0.1410029235785872,1.003601312637329,-0.2082023322582245,-1.834835410118103,0.0195682048797607,0.1323156654834747,-0.1919239163398742,-0.2436119168996811,0.1265648156404495,-0.4467068256676196,0.1868379414081573,0.8911508209697901,0.2607179517187178,228
1733407184525819000,1.8502210396945475,-9.698820324400067,1.5917159417197106,7.004435109707713,-6.162915896260738,-3.021054040572047,-4.923617362976074,-2.488081216812134,0.7956804037094116,0.5804333342337707,-0.4288814477821162,-0.6856322567390656,0.0952174785086592,1.0242316722869873,-0.266495019197464,-1.7003021240234375,0.0699275434017181,0.0656922459602356,-0.1261590123176574,-0.1826485842466354,0.1979133635759353,-0.6449439174234867,0.1473366320133209,0.9257277749627828,0.409947851460427,229
1733407184565819000,3.633137890923023,-7.657297545170784,4.015943030044436,6.457524865534901,-5.745293710780143,-4.63274981726408,-3.987513542175293,-1.501854658126831,1.0884535312652588,0.5097500648754268,-0.4875996023295982,-0.7060107139448364,0.0628525001599013,0.982088565826416,-0.6049474477767944,-1.5440115928649902,0.131483644247055,0.0136890411376953,0.0279046297073364,-0.1216852515935897,0.26926189661026,-0.8423229310452938,0.1078353151679039,0.9605601650215684,0.5598289816524833,230
1733407184605818600,4.124874529406428,-5.932001692783833,5.29202913403213,6.021902328461408,-5.259395276930928,-5.678544233587384,-3.2717654705047607,-0.5604392290115356,0.9598087072372437,0.4576571245722723,-0.5363758368768634,-0.7083968770339272,0.0320135508995938,0.5575047731399536,-0.6117455363273621,-1.2117778062820437,0.1006771028041839,-0.0948044061660766,0.1311578750610351,-0.0634573623538017,0.2776168584823608,-0.8856354185491799,0.0138313993811607,0.9505636716641486,0.4148373770676553,231
1733407184645819000,3.42773222271204,-4.50984532212913,6.580655570641159,5.789045758745074,-4.733717498140037,-6.344226987656951,-2.6101949214935303,-0.1763126850128173,0.5909104943275452,0.4201588934835778,-0.5728995594333136,-0.7037411798898369,0.0009145119209735,-0.155891865491867,-0.5567120313644409,-0.8977242112159729,0.1049481928348541,-0.1840203702449798,0.2877847552299499,-0.0287162065505981,0.3131422400474548,-0.3363286346286535,-0.0245360359549522,0.8681691007677466,0.4562470996901392,232
1733407184685819000,2.66708862696588,-3.9945603425368654,7.368193603053688,5.63884642944932,-4.273366762523353,-6.790593037062883,-1.730247974395752,-0.3724860846996307,0.4405865669250488,0.391469143332719,-0.5976250443328089,-0.6993341177952356,-0.0229799990255863,-0.7651349902153015,-0.1528694033622741,-0.4260252714157104,0.0853083729743957,-0.2241967320442199,0.3743130564689636,0.0060249529778957,0.3486676216125488,0.2144359468847513,-0.0629034712910652,0.7857013185046613,0.4977242615256458,233
1733407184725819000,3.3402304648697374,-4.234280952803791,7.325633395221829,5.417610154899955,-4.030952675388753,-7.111352931159734,-0.7520407438278198,-0.6544190049171448,0.4346401393413543,0.3694731937247153,-0.613252622010586,-0.6974950249350573,-0.0301923552886533,-0.8084675073623657,0.42763552069664,0.4153473377227783,0.1184573769569397,-0.2375167906284332,0.3992987871170044,0.0517244935035705,0.254240334033966,1.3777923282712696,-0.135469764471054,0.875668735808134,0.3053551119551062,234
1733407184765819000,4.234847646775841,-3.921608795833588,7.120972407898306,5.195314726686477,-4.0088855127483605,-7.287520229926705,-0.1415271610021591,-0.3506582081317901,0.4044736921787262,0.3574439877874341,-0.6223591792907561,-0.6958657764399404,-0.0259565510066046,-1.0976355075836182,1.2487386465072632,1.3013837337493896,0.1451010704040527,-0.2940103411674499,0.4013688564300537,0.0828260481357574,0.0706967264413833,1.6099392884135246,-0.3106361627578735,0.8348923426531255,0.0353015419404953,235
1733407184805819000,4.258305094730853,-3.706241121056676,6.915980581185221,5.095243410128354,-4.091225650043786,-7.312372347110509,0.1330255717039108,0.0450315773487091,0.4214281737804413,0.3559606734856481,-0.6279066397828877,-0.6917806637077422,-0.0215611803850784,-1.737714767456055,1.993226408958435,2.1326377391815186,0.2158646583557129,-0.3486716151237488,0.456467866897583,0.1161175593733787,0.005117543041706,2.4053344640672205,-0.3040121793746948,0.6425109911881387,0.3602397446352988,236
