time_imu,phone_acc_x,phone_acc_y,phone_acc_z,phone_gravity_x,phone_gravity_y,phone_gravity_z,phone_gyro_x,phone_gyro_y,phone_gyro_z,phone_ori_w,phone_ori_x,phone_ori_y,phone_ori_z,watch_gyro_x,watch_gyro_y,watch_gyro_z,watch_acc_x,watch_acc_y,watch_acc_z,headphone_gyro_x,headphone_gyro_y,headphone_gyro_z,headphone_acc_x,headphone_acc_y,headphone_acc_z,frame_imu
1726742246574307800,-2.522899644000828,26.514146724939344,-5.959294188857078,0.0793174924054648,9.652365447217225,-1.7308818358257412,-1.184200406074524,-0.3967096507549286,0.4122972786426544,-0.3592187579828965,-0.4345696531276664,-0.6319807211741071,-0.5317062407223148,0.4247387647628784,0.8639845848083496,-0.6518074870109558,19.518672920322416,-14.71745337305665,8.97957490696907,0.048149287700653,1.0741764307022097,20.553452021634577,0.0403164327144622,1.856470455478132,1.0798910394534469,0
1726742246614077400,0.0638560938388109,21.08255889809132,-3.347531143271923,0.2342219397854059,9.722436762309076,-1.2608584319785237,-1.3528821468353271,-0.4670577347278595,0.4786721765995025,-0.3704556920082763,-0.4364363430563044,-0.6113993856134519,-0.5463302531958454,0.492579847574234,0.9755779504776,-0.4449756741523742,15.984363652420043,-16.269774000716207,5.962584462574124,0.1439374685287475,-0.4697478413581848,21.866685660755632,0.5557916164398193,3.0275363883286714,1.6341550073899327,1
1726742246653846500,0.4044518113274127,7.999575443592667,0.4929248984199017,0.3612438436439261,9.766599144640564,-0.8083608940802514,-0.9040661454200744,-0.2583471238613128,0.3016151487827301,-0.3807314032269457,-0.4357295533740675,-0.5927517963578764,-0.5602042175072132,0.8236986398696899,1.2908397912979126,-0.2470938861370086,7.351408472469449,-8.444832654973863,1.1260828817859292,-0.1215002536773681,-1.827951550483704,7.453205297645926,0.0671298131346702,1.458240368209779,-0.2930450078930706,2
1726742246693615600,0.3181432453250512,-8.78431069354415,-3.064124536013603,0.4682023258998989,9.79182009513676,-0.2672573268922045,-2.126314163208008,0.2244079858064651,0.3299128711223602,-0.3896585992706405,-0.4283577164609642,-0.5745746237640941,-0.5783941978150245,2.337541580200196,2.246629476547241,-0.4801190793514251,-1.925869278135896,1.8350100265592333,-1.269948039624095,-0.3191414475440979,-1.1188509464263916,-10.096681578356026,0.3702664971351623,-2.184305402527749,0.8766048476144671,3
1726742246733385000,0.3890291282027959,-15.296598830401896,2.353857374808192,0.6039661199448629,9.770480954509972,0.5859230617213994,-1.665259838104248,0.1908911913633346,0.1606533676385879,-0.4020360520723873,-0.4132364136406894,-0.5471397488544035,-0.6068284355623065,0.8507542610168457,0.1026262119412422,-0.7758914828300476,-13.142238192021846,13.15403618184328,-9.745810623633862,-0.3593698740005493,0.694369912147522,-7.524304202219843,0.4521952271461487,-1.219190277615562,0.6482675088882446,4
1726742246773154000,0.4122204360349104,-15.505663605642315,4.194355477389693,0.5390257745333016,9.76377122773826,0.7406929138030857,0.7545585632324219,-0.0085007799789309,-0.447283923625946,-0.4062821499756006,-0.4072983839518429,-0.5443741342881362,-0.6104913994447408,-0.3882079422473907,-0.7473896741867065,-0.2205139994621276,-13.248999946129322,10.272198304259776,-11.773114907896518,0.0332121290266513,-0.5430291295051575,-9.01278744074106,0.0412317812442779,-1.2262167421862482,-0.2201781072659417,5
1726742246812922000,-0.4162817306570708,-14.100837724494934,-0.9715081138849258,0.3535834650838747,9.794715816578268,0.3300115604363381,1.0759854316711426,0.1421468257904052,-0.3747405409812927,-0.4025886022739531,-0.4097836029519686,-0.5614726106199665,-0.5956075611046919,-0.9857943654060364,-0.7958774566650391,0.3471443057060241,-10.56280037598014,8.134363268744945,-7.182281739863753,0.0036970726214349,-0.0059485137462615,-10.56210713301897,-0.1597763895988464,-2.19964413369596,-0.7804194325789808,6
1726742246852691500,-0.5342136980764568,-11.280075370121002,-1.7289935378611088,0.2546905081227422,9.803152221012114,-0.0611206866587046,0.9575033187866212,0.0902515426278114,-0.1918654292821884,-0.3957470251386531,-0.4133315894844248,-0.5764315092588991,-0.583325017427,-0.6977311968803406,-0.5741005539894104,0.6591616272926331,-8.345630522465706,5.19407846288979,-4.085659832610189,-0.0832467377185821,0.0601088255643844,-9.641958034971356,-0.2933408617973327,-1.80193134829998,-0.435812470155023,7
1726742246892460800,-0.4764879967514425,-9.469684821033477,-1.500576411896944,0.1870889076126739,9.796642985248566,-0.4014677540153265,0.7474766969680786,0.0192844998091459,-0.142536774277687,-0.3901101483283288,-0.4177282806643319,-0.5881940523301241,-0.5721406941709397,-0.6065991520881653,-0.2798441350460052,0.6318255662918091,-5.856264607015252,5.893052076664566,-4.128614008195698,-0.1408115774393081,0.0829779729247093,-10.173986936354636,-0.2318490445613861,-1.9451381883598864,-0.2530588700666092,8
1726742246932230000,0.6136562872994691,-7.869868867227435,-0.349946314157918,0.1255533656759187,9.784483176377416,-0.6469397674158215,0.5076783299446106,0.1286882162094116,-0.1790385991334915,-0.3855771519274713,-0.4196106623844183,-0.5974208232964612,-0.564221267752728,-0.4980230927467346,-0.0575418286025524,0.3437559604644775,-5.257902408024669,5.859317564845084,-3.3986838228821754,-0.0921058058738708,-0.0033605615608394,-10.124065259844064,-0.2139465063810348,-1.8568118162617089,-0.0254681941223796,9
1726742246971999200,1.5446021622367203,-5.781664416322112,-1.3737374999225138,0.0660970091999741,9.7790827786386,-0.7318133687116205,-0.1313937902450561,0.0179389864206314,-0.1380610316991806,-0.3845669623423449,-0.4184975920454025,-0.6018071660624631,-0.5610669397795874,-0.0655811727046966,0.0084752710536122,0.0441578030586242,-4.934108260798454,4.460053993999958,-0.824800718358159,0.0380458310246467,0.0176836885511875,-9.181876179423927,-0.2466478794813156,-2.021345083597302,0.0993012455010786,10
1726742247011768300,0.527061926625669,1.6841548637032508,-1.3903718238592149,0.0345280048513086,9.792300572130085,-0.5291799782255664,-0.912811517715454,0.3606728017330169,-0.086631067097187,-0.3893235182997351,-0.4130381920355352,-0.5969758135345854,-0.5669624913134996,-0.007840372622013,-0.5403589606285095,-0.2356454282999038,-2.8649948793321847,1.6530471932560205,1.028166697435081,0.2007659077644348,1.872833132743836,-0.5295001866232604,-0.6650887727737427,-0.5434805985176936,-0.7081986843682825,11
1726742247051537400,-0.3534759495887905,9.168901547038557,1.970202340859175,0.0705111175814876,9.798862999385594,-0.3843425412891432,0.1369097679853439,-0.0539033971726894,0.2620268762111664,-0.3885743474769068,-0.4083984211517464,-0.5939753748467382,-0.5739460487332648,0.2326947301626205,-0.2942984700202942,-0.1718456596136093,6.333558294126391,-8.331851587960124,2.817412459424138,0.2674700617790222,0.3615357875823974,10.844466277050971,-0.3955538868904114,2.433647681490332,-0.0876255851513706,12
1726742247091307000,0.2419545067988336,10.074212556916477,-1.280444299197197,0.1493476443698629,9.800056593084337,-0.3271125510592013,-0.5258707404136658,-0.1214308142662048,-0.0056697279214859,-0.3886536063228581,-0.4108759991926117,-0.5897957375573788,-0.5764290241879875,0.4564367532730102,-0.7060529589653015,-0.1378203779458999,5.816287985935807,-5.380692921391129,3.373745488719642,0.546031653881073,0.9471325278282166,15.33583310868144,0.1548849791288375,1.6709974220968782,1.664863741647452,13
1726742247131076000,-0.8931433830264955,10.937821437096597,6.610723961168527,0.0885419145449996,9.797761175623537,-0.4079454986620694,1.3716634511947632,0.4113844335079193,-0.18187315762043,-0.3873651602428946,-0.4092169399166145,-0.5944248715423315,-0.5737149276007798,-0.7411206960678101,-0.9518041610717772,0.7202602624893188,7.890462742444872,-8.266745201799273,0.7201549334913492,0.3480923473834991,-0.5774767994880676,12.755019328111407,0.1712058335542678,2.5505890304371714,-0.1797264525532722,14
1726742247170845200,0.0202478382587432,4.757915243068338,-0.8237794124864042,0.0143185520993953,9.748102533963324,-1.0698843169629573,1.4015405178070068,0.5977074503898621,-0.2579521834850311,-0.3679914852024871,-0.4115015074756137,-0.6206572540770408,-0.5568062899952472,-0.6000208854675293,-0.4282006025314331,0.8866843581199646,5.805363856339454,-5.897658693677187,1.8013591013699768,0.2542190551757812,-0.894079327583313,2.068084038418532,0.0324602015316486,0.3788590683767572,-0.7687035680830479,15
1726742247210659000,0.0397775274439249,-2.535104753318429,-3.759761698842048,-0.0182296211709734,9.719954297843575,-1.3009826448351145,-0.0666536316275596,-0.1176781430840492,0.0626935884356498,-0.3623009601921242,-0.4128451559749049,-0.629198325917873,-0.5499149071320653,0.3330927193164825,0.5301600098609924,0.275455892086029,1.857777154162526,2.073856776601076,3.260628520366549,-0.0192962866276502,0.0200287401676177,-3.0901106256633994,-0.0648435279726982,-1.6060954724669456,-1.391211051162332,16
1726742247250430000,-0.637658071264252,-5.02483014973104,0.0243346691809594,0.0768163323726505,9.720758599963784,-1.2928123439915478,0.2843616008758545,0.0102448621764779,0.3571689128875732,-0.3603959687094513,-0.4164618665721359,-0.6264779344942888,-0.551543090863224,-0.089798092842102,0.3078632950782776,0.3013169765472412,-3.8493940389722585,1.829094080513716,-2.460125500179827,-0.252747505903244,0.2820158004760742,-4.359809074440598,-0.132118821144104,-1.340433780735731,-1.3322707864157854,17
1726742247290200000,1.258306701669097,-6.442777962779998,-0.1924232909105718,0.165644827040378,9.69140917136073,-1.4898027966871856,0.5333024263381958,-0.0474961847066879,0.0598314777016639,-0.3537057218803899,-0.4230537852426253,-0.6300668975073652,-0.5467479791995629,-0.1879670023918151,0.1564589291810989,0.298502653837204,-4.891486093646288,3.5694542310416697,-3.287076674570143,-0.3453283309936523,0.2218951433897018,-5.232780241727829,0.1174733862280845,-0.8328697507843374,0.1544768604844808,18
1726742247329966800,1.557440162630379,-6.162255971047282,0.5373721621073783,0.1199973663834389,9.666468791371583,-1.647832819608599,0.3316651880741119,-0.216954305768013,-0.1991112828254699,-0.3530220536754297,-0.4261952222485619,-0.6343293481277386,-0.5397770794094693,-0.8694866895675659,-0.0961400866508483,0.0849849283695221,-5.196159945338964,6.595739742526412,-1.7371102088212966,-0.3010186851024627,0.0829414203763008,-5.828483450642228,0.3981654047966003,-0.9253311768606304,0.1263850033276248,19
1726742247369738000,0.3593652633557096,-0.0322772987484931,1.5064862204626202,0.0246050105549395,9.646192311540243,-1.7665565219275652,0.3244297206401825,-0.2002344578504562,-0.208429142832756,-0.3553527971051219,-0.4279685230379459,-0.6378967441302308,-0.5325926708403208,-0.976710319519043,-1.0895215272903442,0.1389407664537429,-3.3579812256157395,2.9367414341598748,0.3888262991070747,-0.1724566221237182,0.249641865491867,-1.990180276135355,0.1253109872341156,-0.6089828155957162,-0.9257532016649842,20
1726742247409508600,0.1270460153864696,14.905069702076911,0.6984425756379962,-0.052227286571823,9.60257879526317,-1.9895161131381984,0.7825877070426941,-0.2241878658533096,-0.0663120597600936,-0.3546165657221372,-0.4321217042836846,-0.6439782002995751,-0.5223123136599707,-0.4181549251079559,0.5843449234962463,-0.3568978011608124,9.36483094637394,-8.146620108249783,3.6452187893390655,-0.0714843273162841,0.9911473989486694,4.831811961667239,-0.1215688660740852,-0.0526303646471118,-1.2904739641718566,21
1726742247450524700,-1.3214809507235885,24.646592273128032,-10.267373660582304,0.051207332406938,9.569839724221826,-2.1414744149304927,-0.514931321144104,-0.4558925628662109,0.5612397193908691,-0.3523971933596896,-0.4434114870968335,-0.6423169470914606,-0.5163635662875269,-0.1928496360778808,1.6758724451065063,-0.2922813892364502,15.967974827677011,-19.31032827605009,6.929465501180291,0.0563059858977794,0.8850018978118896,20.651796660530565,0.0326978005468845,3.327662951980531,0.3455096468847244,22
1726742247490295600,0.4097128005955368,21.07591405324936,-9.68066682807207,0.0959127355739474,9.684040103897452,-1.5429020803205669,-2.1485579013824463,-0.7797404527664185,0.040220271795988,-0.3710624786422135,-0.4410185060468652,-0.619813514998166,-0.5325847427211893,0.6506709456443787,1.7487787008285522,-0.1274335831403732,14.886241082966327,-19.77546507689953,3.88377532426268,0.069645419716835,-0.2264277189970016,21.856568755888937,0.3157876431941986,3.457636362588405,0.2665506947265006,23
1726742247530066400,-0.3903288126245141,6.455635106265545,1.0104536383509637,0.1163424697382375,9.77630337705314,-0.7620547046530991,-1.63410484790802,-0.4720191061496734,0.1441882848739624,-0.3962410323799267,-0.43539089898541,-0.5910065506908974,-0.5514880115634867,1.4159963130950928,1.7248389720916748,-0.1855270564556121,8.108302944815158,-8.35573222976327,-0.0993739819437265,-0.2719636559486389,-1.4459927082061768,6.00298661558926,0.4119014739990234,1.4864173920325934,0.3631033904381096,24
1726742247569837600,-0.078938566957321,-11.085382819104192,2.9390801062405107,0.1130559862803202,9.801640062883497,-0.2922901709377765,-1.191367745399475,0.5396851897239685,-0.0144941322505474,-0.4052340476892526,-0.4242010573971748,-0.5787539324346311,-0.5664649949161421,2.1722888946533203,2.502136468887329,-0.4836058914661407,-2.860709749358892,2.901015456262231,-4.0683302198857065,-0.4195163547992706,-1.1058140993118286,-11.855698498558995,0.6320676803588867,-2.8789658292785285,0.60033506996613,25
1726742247609608400,0.8113292423665524,-16.819619713819026,3.1282255445241924,0.1291430789972655,9.802065594819188,0.2706430055414326,-1.1269451379776,-0.0444552339613437,-0.0238316375762224,-0.4129662343362432,-0.4091955475281769,-0.5645883903397377,-0.5858822452858786,-0.0490802191197872,0.069134309887886,-0.7680869698524475,-15.130351452624796,19.06100630922317,-6.903902605378628,-0.5305294990539551,0.3013836443424225,-4.089821628464758,0.4059233069419861,0.2466333122648298,1.9208584642365567,26
1726742247649379300,0.3861629251167178,-14.554420865672826,4.704789217558503,0.1040497917350381,9.803278477740289,0.2351968126995489,1.037541389465332,0.1009710580110549,-0.1308788210153579,-0.4130529494526682,-0.4092938130233641,-0.566115601768324,-0.5842765623806199,-0.8417351841926575,-0.5149301886558533,0.0843969732522964,-8.761718922507763,8.554415896242856,-9.768629189163446,-0.2649255096912384,-0.2893938422203064,-9.625229603010416,0.5366796255111694,-1.1783869964536278,0.0954761981870513,27
1726742247689150200,-0.7604445660427213,-12.34784956306219,-0.2194447149574756,0.0691186677092453,9.803262111127376,-0.2483226353249512,1.251134753227234,0.0990475788712501,0.0723332986235618,-0.4027347784186967,-0.4171782954575637,-0.5819133958864123,-0.5702138303156351,-0.9573733806610109,-0.5194005966186523,0.542288064956665,-7.663903227046132,8.092585151201487,-5.318710804730653,-0.2504356503486633,-0.0305404383689165,-10.410624778175354,0.2293432801961898,-1.842764293947816,-0.2570030228488147,28
1726742247728921000,-0.0764006733770016,-10.2343657094717,-2.078077024644613,0.1398468895069789,9.784404265922308,-0.6451774339184164,0.765110433101654,0.2265753149986267,0.0707355365157127,-0.3904184772640971,-0.4255277963611338,-0.5931449978045954,-0.5609621181568873,-0.5688741207122803,-0.4604094922542572,0.695350170135498,-5.850342231228948,5.536183342832326,-4.475353854462504,-0.0742075443267822,-0.0034261825494468,-10.034843838602304,0.062205072492361,-1.35384987327829,-1.7413471157386895,29
1726742247768692000,-0.2474052099527791,-9.12890388317108,-0.7743500495374203,0.103005004522996,9.76231985988617,-0.9256827667772768,0.6251239776611328,0.3402928113937378,-0.1995142996311187,-0.3825482220690273,-0.4269332773404095,-0.6040899473882516,-0.5535884449907201,-0.7361198663711548,-0.0819136947393417,0.583217203617096,-4.302259387269616,6.857993671640753,-5.192181689357757,-0.0733408704400062,-0.0133100589737296,-10.06489410895109,-0.1535970568656921,-1.6042727870844304,-1.4388975159667432,30
1726742247808463000,0.3489377947025001,-8.173672365826368,-0.5898375317513942,0.0682518811123445,9.74845850779414,-1.0645561807427557,0.1092690527439117,0.0759895890951156,0.035122238099575,-0.3775491676522147,-0.4253103707448034,-0.6110551120450148,-0.5506172492781496,-0.6073440313339233,-0.2140636295080185,0.2443151324987411,-4.760824993035197,6.617165976914763,-2.378503155764937,-0.0331616103649139,0.0243348143994808,-9.59694809589982,-0.0263841766864061,-1.740205982879549,-1.1853387152876704,31
1726742247848234000,0.8684365195322782,-6.904400618028641,0.303613528984785,0.1007660299571696,9.74542016301155,-1.0895097855396567,0.0893976837396621,-0.1972136497497558,0.0657893866300582,-0.3772952275127388,-0.4281546808690106,-0.6101090966050362,-0.5496352100313356,-0.1755793094635009,-0.3006873726844787,-0.0970336124300956,-4.4283097792148585,5.94662759950757,-1.99540692474246,0.0318988189101219,0.0339374281466007,-9.133989808133244,-0.2026769369840622,-2.27325282913372,-1.406028534935415,32
1726742247888005000,0.1833756957758218,-2.1389690079808235,-1.5903544441081583,0.1374472992856521,9.747144502586126,-1.0699027294024823,-0.4662233591079712,0.0305786896497011,0.1321779787540435,-0.3778547296571224,-0.4302083643155421,-0.6078409499954279,-0.5501600142950617,-0.1063736081123352,-0.4181959331035614,-0.3231809735298157,-3.7651048134356735,4.408998929545283,-1.6014736578851938,-0.2163320034742355,2.383800745010376,-1.76838461413756,-0.6411663293838501,-1.599354473774135,-0.1753770069058053,33
1726742247927775000,1.2916586439117788,9.775682030284404,3.1902795573771,0.1285517620406113,9.746489838069676,-1.07694767947793,0.8646231293678284,-0.0813783407211303,-0.1607813090085983,-0.3775777639603415,-0.429655370942238,-0.6085271677826978,-0.5500237142751843,-1.9995487928390503,-1.429179549217224,-0.0448809303343296,0.8271008119940757,-4.398880271112919,-0.1684761597424745,0.1849129348993301,0.3192331194877624,10.366726015216113,-0.1750911325216293,2.009304078800231,0.4699829622389748,34
1726742247967545900,0.2806441933402791,12.863479702830316,-5.799067386543751,0.0029190466619344,9.723268536958098,-1.2760983789473772,-0.3208240568637848,-0.0012319961097091,-0.4154682457447052,-0.3766112329164292,-0.4294531712014568,-0.6169545216763603,-0.5413880921405351,0.5776209831237793,-0.3187340795993805,-0.7281467318534851,12.210014625298976,-11.411461862397193,4.079878618860245,0.4234564304351806,1.604464411735535,13.541647844463586,-0.3086720108985901,0.5284522119402885,1.6398450357250869,35
1726742248007316700,0.5823688033059239,14.483371060937642,1.445299345833063,-0.2033366251182742,9.729339381304383,-1.2120137370496988,0.6783117055892944,-0.3746505975723266,-0.481581449508667,-0.3839492756290132,-0.4218822899936217,-0.619524685953652,-0.5392470291051101,-0.5309445858001709,-0.5366154909133911,-0.4030035138130188,8.400749183097481,-11.665859817314148,2.1360493211418388,0.0608996488153934,0.1332940310239792,12.241720261639356,-0.0240144785493612,0.9350127590499818,-0.5040174799183383,36
1726742248047087600,0.1648698423461988,7.737054387974738,-4.264007690286636,-0.3776546975556761,9.683306528925897,-1.503773892764002,0.0937545299530029,-0.1979044079780578,-0.2971368134021759,-0.3876210549020492,-0.4282976991653597,-0.6270823017266973,-0.5225693999354047,-0.5159778594970703,0.1345207542181015,-0.1501066088676452,5.733247299155592,-8.958679418456553,2.6688024451464414,-0.0283370204269886,-0.0209598373621702,4.922456985971332,-0.3696070909500122,0.764693455658853,-0.8618864403016865,37
1726742248086858800,-0.1417507960326969,1.9802607935369008,-1.742906035618484,-0.4074189540373161,9.719003865250944,-1.2431119090162217,-1.0986216068267822,0.3174203038215637,0.0961736664175987,-0.3926658267266417,-0.4203638213830939,-0.6218322332179896,-0.531443645940728,1.0659594535827637,0.4525066614151001,-0.2655587196350097,2.841189056330919,-4.560146353346109,2.5334300981044766,-0.1548057943582534,0.0009029550710693,-0.5012435216929764,-0.2682725489139557,0.2342360779086127,-0.1224065555501729,38
1726742248126629600,-0.0729505603225901,-2.71194191417098,0.6488417285796254,-0.3553118597790599,9.768549694186447,-0.787106582192704,-1.264052152633667,0.883525013923645,0.0587143972516059,-0.3947957104646413,-0.4058604437866303,-0.6127059374361621,-0.5513664004108196,1.5339442491531372,0.5840096473693848,-0.5037305951118469,-0.4641378529399633,0.8170254081815481,-0.6769891609817743,-0.1962175667285919,0.0932310745120048,-3.1149019525706767,-0.1411872953176498,0.0221031746686901,-0.0801229179036803,39
1726742248166400500,-0.3584235255261883,-5.323606760078668,1.8137024501144885,-0.3125514531999826,9.795077635627983,-0.3593741407819092,-0.7505874633789062,0.842705488204956,0.1093537732958793,-0.3922077508757183,-0.3877037164901298,-0.6066372973781655,-0.572581976699971,1.0735907554626465,0.347948282957077,-0.2904695272445678,-3.135138100391626,3.4519273372918367,-2.334905421578884,-0.1125083640217781,0.1672327071428299,-2.573418994143605,-0.0699977725744247,0.1032048744766507,0.3483136349221691,40
1726742248206171400,1.170621403953433,-3.834579331678152,2.667932092052698,-0.2650147538634948,9.799285024189947,-0.2723832916038111,0.2727758884429931,0.5273652672767639,-0.024631343781948,-0.3836500106310442,-0.3781318988599245,-0.6090188418474566,-0.5821727642008414,0.0487581938505172,-0.3542371690273285,0.0490353144705295,-4.406643890851736,3.5240251897752284,-2.530982412691414,0.0066295736469328,0.1706462204456329,-1.4692708807900547,0.0118498727679252,0.1261671045269351,0.5058360371150076,41
1726742248245940700,0.3614970512200147,-1.3580758204102514,0.8326900103032588,-0.2782986531274393,9.788208918902278,-0.5328165446296333,0.8775655627250671,0.3278854489326477,-0.1103241145610809,-0.374382332703896,-0.3778390553905372,-0.6200030100911689,-0.5767770368749774,-1.004268765449524,-0.3794133365154266,0.0240131858736276,-1.3083429444700478,1.9821441230654715,-1.7356448124438524,0.059615384787321,0.1352425962686538,-0.3249393352059647,0.0178559105843305,0.3575615384019911,0.2907591071792878,42
1726742248285711600,-0.1848894613396376,0.1500268953382968,-0.8374211304783821,-0.333155959409289,9.76705565623641,-0.8148773633021861,0.5006502866744995,0.3984701633453369,-0.1686721742153167,-0.3668409471580919,-0.3773844105335457,-0.6317659285555038,-0.569105077815651,-0.5458124876022339,-0.304568201303482,-0.1366978585720062,0.7107493917644023,0.0605576368153095,0.4794467734917998,0.002874149242416,0.2087721824645996,-0.2973161093410104,-0.0821490883827209,0.0910328271784353,-0.1458146570712793,43
1726742248325481500,-0.4573584219329059,-0.1291980423212051,-1.0783376725316047,-0.3405091351836919,9.750596688866615,-0.9901029973048716,0.2780915200710296,0.2002875655889511,0.2844454944133758,-0.3600178289513321,-0.3763146499599056,-0.6394282501618765,-0.5656023111665207,-0.785194456577301,0.074538916349411,-0.1356174945831298,1.0610393317282198,-0.1723228982985019,0.0373667308419942,-0.1226146668195724,0.4096888303756714,-0.4022252213191241,-0.1972974389791488,-0.0516753837435273,-0.2298213484725914,44
1726742248365252400,2.869236462424696,1.7277110968351364,-1.670565898811817,-0.3711865244548767,9.754880065274238,-0.9353737013168631,-0.5782590508460999,1.0353739261627195,-0.4509702622890472,-0.3573923206536578,-0.3691517292259634,-0.6414185752063434,-0.5697192000235382,-0.3808400332927704,-0.3130523562431335,-0.1209549903869628,-1.840827772927284,-1.6854092476785183,1.83922779038474,-0.1487206220626831,0.5630939602851868,-0.4294732571961357,-0.2745699882507324,0.0034623634687421,0.045710689485725,45
1726742248405022200,0.2900569319929927,-0.4633434876918792,-0.1735000523190945,-0.4750089371748268,9.77140040744245,-0.6815289963684976,-0.6739159822463989,0.9284790754318236,-0.1791959404945373,-0.3498320801655222,-0.3441277996598745,-0.6452320252470424,-0.585550328714069,-1.0000468492507937,-0.1888408958911895,-0.0403431020677089,0.3934814314365387,-1.38812375267148,1.0935767427176235,-0.1203297227621078,0.493693083524704,0.1351347297606524,-0.2773935496807098,0.3871502556536346,0.3133596643103286,46
1726742248446035000,0.3519091751961037,-0.4490139335662126,0.1406149238705634,-0.4835903030373156,9.78490403213799,-0.4383929881675169,-0.3371661603450775,0.2797426283359527,-0.1073419377207756,-0.3471743399526428,-0.3317668073979464,-0.6420923673707237,-0.5975936858676625,-0.2262888252735138,-0.1261446475982666,0.0606274530291557,-0.4051303681761026,0.7074971119701862,0.2282137123465538,-0.0776153951883316,0.3626493513584137,0.0499137489324435,-0.2503968179225921,0.3632271994808688,0.3872770603710785,47
1726742248485805800,-0.3212465451026335,-0.7847475249111652,-0.6890905176639557,-0.5879514622764661,9.784401927834748,-0.3003131722651422,-0.4458885490894317,0.6366649270057678,-0.420521467924118,-0.3475329894379215,-0.320388500417014,-0.6423884487672199,-0.6032488532880382,-0.3580186069011688,0.0165981799364089,0.0459731481969356,0.423220151618123,1.4028390912443398,-1.1647627410531043,-0.0490371547639369,0.2314956933259964,0.2264409670529887,-0.2898813486099243,0.133510736154858,0.2273506475101225,48
1726742248525576700,-0.3931688583560287,0.1146849483221769,0.9507365440130232,-0.702777097710967,9.779952547210454,-0.1703770979929715,-0.1512378603219986,-0.1171264499425888,-0.008513362146914,-0.3495129868869049,-0.3104132280267489,-0.6421296151612476,-0.6075803568380449,-0.4026958048343658,-0.2068677693605423,-0.0511211119592189,0.2445622050791978,0.1006792193233966,-0.0181662096790969,-0.0288382023572921,0.2340118288993835,0.0626601300864713,-0.3782995939254761,0.068371530003217,0.1080190058932639,49
1726742248565347600,-0.473667094111815,-0.0550356585234403,0.9862310512423514,-0.6213810363326221,9.7844726549834,-0.2199369371875189,0.4567419588565826,-0.5804464817047119,0.3317410051822662,-0.3510788928375882,-0.3191334120535684,-0.6398183560896242,-0.6045907386444788,-0.06473109126091,-0.2126334607601165,-0.1155170798301696,-0.0520920062869787,-0.8716326121598481,1.4518769706577062,-0.0464573204517364,0.1678481101989746,0.1171450913580134,-0.4261431992053985,0.3833964560780674,0.1325842415602412,50
1726742248605118500,-0.1511985329335555,-0.085594462916255,-0.8889350446164608,-0.4971812772227451,9.790341254755852,-0.2691104804782196,-0.2579587697982788,-0.3895550668239593,0.2834725081920624,-0.3534346157913598,-0.3314662210287493,-0.6354926908581484,-0.6011349303010283,-0.7477977871894836,-0.0572451017796993,-0.0793746560811996,0.6358814900457859,1.1239987689882516,0.4923595926873386,-0.0658634379506111,0.1169905215501785,-0.1031382755138445,-0.3953084349632263,0.18059903413672,0.1790102853742428,51
1726742248644889300,-0.4852433674739673,0.5807458782792091,2.4709189891338346,-0.4230568142825737,9.795724116837976,-0.1875987202983349,0.1568433493375778,0.6195458769798279,0.2439437210559845,-0.3506495036385413,-0.3304284609632103,-0.6327573825632574,-0.6062013124015618,-0.3011878132820129,-0.1840234845876693,-0.1435396522283554,-0.0890793824225664,-1.029343632259965,0.9722819478016346,-0.0855563208460807,0.1581064462661743,-0.1497066960737574,-0.3177425861358642,0.180461452296935,0.295262884871941,52
1726742248684660200,-0.5719080534376204,0.0986626188039779,0.9064648560881614,-0.2579820239488035,9.795974292206765,-0.3777958961246535,0.5384416580200195,1.1142828464508057,0.4234476089477539,-0.3318994347481702,-0.3281661301543074,-0.641536609987887,-0.6087533018386923,0.2462885677814483,-0.0058090728707611,0.125147134065628,0.8466752810359001,-0.345177126994729,-0.5947917931579053,-0.1059557422995567,0.0504464693367481,0.0785442704101093,-0.2274438440799713,0.2524825680159963,0.2132161044999025,53
1726742248724431000,0.92278646081388,-0.3801543323516845,-0.9048328709721564,-0.1659194975296035,9.791312145614624,-0.5225601582270115,0.1660009324550628,1.0308525562286377,-0.0269002933055162,-0.3142568980424159,-0.3204877284308141,-0.6510996607875114,-0.6120453377132152,-0.7958905100822449,-0.06785599142313,0.1151655316352844,0.4043190517932176,2.3126029888778925,-0.3823516232002526,-0.0596458874642849,-0.0149581134319305,-0.0018898077892401,-0.199656143784523,0.1281145305339712,0.1832154271801933,54
1726742248764202000,0.4217826661609113,-0.2920055087774992,-0.384310246454738,-0.218125814378634,9.789653272491693,-0.5343151856895536,-0.1317844092845916,-0.136714369058609,-0.3112474083900451,-0.3111586977743326,-0.314095070607691,-0.6546653952113101,-0.6131376409287939,0.1282937675714492,0.2674880027770996,-0.3953903615474701,0.3566168048977852,0.2106646116524934,0.977767247344926,-0.0242398902773857,-0.027107086032629,0.0438994981781812,-0.1529977619647979,0.1719953285782597,0.0864257717743981,55
1726742248803972600,0.0416266533087939,-0.0483078115731477,-0.0321078604657202,-0.3097775315072387,9.78911843496263,-0.4976097683005034,-0.0448869727551937,0.068027064204216,-0.189027264714241,-0.3137499936833036,-0.309520083402016,-0.6554146442652266,-0.6133433434945569,0.2460872381925583,0.0776429921388626,-0.1984171569347381,0.0856862328529357,-0.3195224612563848,0.3519019052051007,-0.0391613021492958,-0.0257538557052612,0.142754511448834,-0.0768971815705299,0.1697333019304089,0.1425899502705782,56
1726742248843743500,0.8204493912808597,0.0360860433816909,-0.0360066214699298,-0.3890445084350183,9.786576349264385,-0.4919154291164129,-0.0308984871953725,0.1895722299814224,-0.3390428423881531,-0.3155793932287681,-0.3059771991846361,-0.6568551291303192,-0.6126410507606577,-0.4961306750774383,0.0116392122581601,-0.1224622055888176,-0.4709223985135555,0.9871510886967182,0.4169399753700941,-0.0520845726132392,-0.1226038932800293,0.1479290919419843,-0.0447253249585628,0.1096672845569439,-0.0991878482544794,57
1726742248883513300,-0.3377655355639755,-0.1577110201001167,-0.0402197821855545,-0.5009532700421289,9.78240169392824,-0.473336437385343,-0.0412341877818107,0.6355341076850891,-0.216530293226242,-0.314430837264684,-0.2966044007299119,-0.6604235547256893,-0.6140031052132869,-0.3908601701259613,0.0605295225977897,0.0076734940521419,-0.1094242513149976,-0.552463202124834,-0.3554378242462873,-0.0513813681900501,-0.1679081171751022,0.0463047509553143,-0.0886956676840782,0.0350075913620647,-0.2417569018675014,58
1726742248923284200,-0.5790086061578243,-0.0998322471052408,-0.468504889043048,-0.4928457687690853,9.781236741802095,-0.5048875772837549,0.0310328006744384,1.4517452716827393,0.2021569311618805,-0.3004774746892552,-0.2831341843518166,-0.6675156441478926,-0.6196541532667026,-0.5484119653701782,0.0733305364847183,0.0827535316348075,0.2173591408550739,-0.0414443555444479,0.1296673403333872,-0.0254101548343896,-0.1952306479215622,0.0420332933143479,-0.1530447602272033,0.1265793842554092,-0.2828061023482121,59
1726742248963055400,-2.0020473856702448,0.4681523492783307,-0.7787620207607746,-0.174581180352997,9.79085154236555,-0.528322082754597,-0.0276091396808624,3.2398569583892822,1.1906704902648926,-0.2602089386998067,-0.2626029132174666,-0.6767397133873573,-0.6366744264353273,-0.7422517538070679,-0.0492548160254955,0.0737589672207832,-0.1645890891760587,-0.2899976760864257,1.6888327923864126,-0.0457209683954715,-0.2061321139335632,-0.0743837440640199,-0.1784882247447967,0.1451033578636124,-0.258414716277644,60
1726742249002826200,-2.102274185051024,0.2356745497465133,0.5937363292882218,0.4264826240127906,9.781066061410309,-0.5650060920294374,0.2830768525600433,3.072972297668457,1.5836482048034668,-0.1977519596191211,-0.2396290577736607,-0.686574983218062,-0.6573331003106828,-0.893396258354187,-0.1867271363735199,0.2197438776493072,-0.6501829871207475,-1.227992811948061,-0.1110036294609308,-0.0604322552680969,-0.187880277633667,-0.1133959314249455,-0.1697670519351959,0.1214424871578346,-0.1596752876440994,61
1726742249042597000,-0.6487719512790441,-0.6319324601590633,-0.2936380418827757,1.1440724197238683,9.723613404873014,-0.5592966283414512,0.1196163296699523,3.30535101890564,1.6528291702270508,-0.1306203651527743,-0.220747588036412,-0.6926663662701135,-0.6741083580737646,-1.437766194343567,-0.018990496173501,0.1119598224759101,-0.0854226134806871,-0.1873106240719556,-0.4930371996879577,-0.0473475456237793,-0.0902717635035514,-0.2350318496624939,-0.1595132797956466,0.0322601375511381,-0.1761595538519322,62
1726742249082368000,-0.177601569353789,-1.1198562623560429,-1.282176822078228,1.8445646213680504,9.626605567538736,-0.3105663437973707,-0.3464550971984863,3.4511964321136475,1.668735146522522,-0.0615692382016225,-0.1970447229809682,-0.6906575512827808,-0.6930907978511133,-1.624372482299805,0.0129384091123938,0.0736577734351158,0.2232294941931963,-0.4717997658699751,0.0628115897545591,-0.0815848112106323,-0.0145228179171681,-0.1951888101011514,-0.1553423255681991,-0.0949506308098323,-0.1713948419344611,63
1726742249122138600,0.9240823458433152,-0.4204571166455745,-0.3738829969972372,2.46311445286274,9.491787931770086,0.0970533387101255,-0.3427139818668365,2.7817203998565674,1.3884096145629885,0.0022094150538113,-0.1746116948699599,-0.6815881547640665,-0.7105937627001132,-0.6623486876487732,0.0231681428849697,-0.0252612195909023,-0.1540951676905155,0.0906254428207874,0.8849719862043857,-0.1213270276784896,-0.0225705727934837,-0.0065452666289784,-0.1652975082397461,0.0289077058676746,-0.1359169387800619,64
1726742249161909500,1.559048474609852,-0.3411205450803041,0.5373884556550532,2.850771708190441,9.369656174573302,0.5030415110256523,-0.3089264035224914,2.3330094814300537,0.8713168501853943,0.0515527723131388,-0.1531172058332429,-0.6714961972631232,-0.7231807837953026,-0.1701472550630569,-0.1037091091275215,0.0488600768148899,-0.4293178839713334,0.4020405854672193,0.2477765640158206,-0.1141075417399406,-0.0861662775278091,0.0218378359801019,-0.1967372149229049,0.0803018181345425,-0.1560436348771676,65
1726742249201680400,0.7075733920767903,-0.3086632135897875,1.9972925923585887,3.081699940192699,9.27719416397512,0.7792332184690982,0.1035479977726936,1.956538200378418,0.6949484348297119,0.0901300146938641,-0.1332675899341836,-0.6652141865240485,-0.7291135324132303,0.3161861896514892,-0.1067221015691757,0.0668059885501861,0.1450654735386371,-0.4752472759753465,0.0340250922638922,-0.1067853346467018,-0.1229931414127349,0.0134744397002505,-0.2122913748025894,0.107064746508887,-0.1222824359801597,66
1726742249241451300,-0.2553308518528938,-0.4874374799847603,2.2943226512998343,3.289831526236236,9.190959065067767,0.9347069079712031,0.336578756570816,1.628770112991333,0.7795636057853699,0.1254959924876871,-0.1159919774354207,-0.6624870349619861,-0.729319959910673,-0.1231073141098022,-0.0021454689558595,0.0807765275239944,0.521323382973671,0.7444780583649874,-0.3021415567360818,-0.1183917894959449,-0.1703238040208816,-0.0455811448219232,-0.2491652965545654,0.1528788415701594,-0.1569296969966963,67
1726742249281237200,0.471665618096292,0.0189636436671018,0.7084909453131258,3.4748765434637665,9.118059248551726,0.9780744866631924,0.2121485918760299,0.7748569846153259,0.4163340032100677,0.1512236341779755,-0.1060491594772574,-0.6624844557006586,-0.7259472704701703,-0.4777287542819977,0.0891420990228653,0.1243035793304443,0.415873880508542,0.5750257470667361,-0.1543979500293731,-0.0994388461112976,-0.1137355342507362,-0.1515810294451192,-0.3146281540393829,0.0714111168948234,-0.2136882703226059,68
1726742249321007900,0.17876082239151,0.2291243974506855,-0.1525625512957573,3.520580017757416,9.097338532084226,1.0071430524982512,-0.0421447716653347,-0.0373896211385726,-0.0597160682082176,0.1584249256712916,-0.102896002449177,-0.6618628308852984,-0.7254320084249394,-0.2294904738664627,0.1491357684135437,0.1245574355125427,0.1573597224444151,0.2613631177544593,-0.3348269978940487,-0.1128178164362907,-0.0724921599030494,-0.1752407767728902,-0.3631492853164673,0.1134656995923723,-0.1442230496314354,69
1726742249360779300,-0.2474757544383406,0.5758861632883548,0.1648730937492102,3.480395891407132,9.115841572502257,0.979106094733253,0.0892842561006546,-0.2466808259487152,-0.1248695105314254,0.1542595531406341,-0.1036811907217038,-0.6628195036004517,-0.7253443685549185,0.2450557947158813,0.0943401157855987,0.0918651968240737,-0.136337392681837,-0.3945540291041136,-0.0272036487460136,-0.1203151866793632,-0.0574299357831478,-0.0548277468272251,-0.3250863254070282,0.1250051572086289,0.0231541221934603,70
1726742249400551000,-0.3629959845408797,0.3264168969452381,-0.433202104993537,3.479797340992093,9.119905168679356,0.9427176343388854,-0.0298661347478628,0.032718077301979,0.1065079346299171,0.1529092553678516,-0.104757406550842,-0.6640486897007865,-0.7243507222652128,0.0474764145910739,0.0929935649037361,0.1315273195505142,-0.237915022149682,0.330074250409007,-0.3424235905028879,-0.1144141480326652,-0.0619492717087268,-0.0470595879106083,-0.295176237821579,0.1737403273483738,0.0081781690561911,71
1726742249440322300,0.0318178645431995,-0.0183709384709596,-0.4332879566460847,3.5371886227309703,9.094639794519544,0.9727319565914572,-0.1041017770767211,0.1696782857179641,0.2149675041437149,0.1564831034265165,-0.10576156384304,-0.662735968388553,-0.7246437422165187,-0.0011675567366182,-0.0133482161909341,0.0801530182361602,-0.1576519833892583,-0.9167816674411297,-0.1642740318775176,-0.0804523453116417,-0.1054751053452491,-0.0033801382493635,-0.3051372468471527,0.2098428104082122,-0.0476525397019227,72
1726742249483823000,0.38762276853621,-0.0489034393787384,-0.4237602498441934,3.609646540698409,9.060229575395583,1.0262011695157736,-0.0611441880464553,0.0287736374884843,0.1477027088403701,0.1623285472540932,-0.1058928385456659,-0.6606549829482374,-0.7252387100631985,-0.1848889142274856,-0.0600761994719505,-0.3389430940151214,0.0922761326372623,-0.216170807853341,0.3905224355004728,-0.0095598911866545,-0.1144267693161964,-0.0497927392015466,-0.3234098255634308,0.2009565615813247,0.064707477370603,73
1726742249523594500,0.0610188245862722,-0.1784767447531223,0.6456634638696909,3.6719904764086007,9.031635933595895,1.0566137703709304,0.082079641520977,0.2557923197746277,0.2023772746324539,0.1676130622303815,-0.105747302178059,-0.6595037528173654,-0.72510564624572,-0.3296085298061371,0.0828207731246948,0.1007405221462249,0.8765496102958917,0.457360906150937,-0.3025790713705122,0.0768124088644981,-0.0989656746387481,-0.0660801219972549,-0.3159225583076477,0.1877329411372542,0.1173372163966298,74
1726742249563366000,0.5285188474357128,0.1662619908243417,0.0625075287740677,3.694254038403928,9.024479047578572,1.0400220434669405,0.0655651986598968,0.0244887415319681,-0.0201777573674917,0.1705081583687086,-0.104670308394425,-0.660316407956168,-0.7238462095035543,0.2088333368301391,0.0061971493996679,-0.0317300371825695,-0.4240829059273004,-1.0874059451282023,-0.8535457513272762,0.1802519857883453,-0.0662182196974754,-0.1617544320057146,-0.3158226311206817,0.1596636520052328,0.1294703655897174,75
1726742249603137500,0.2485802085489034,-0.2787316011846065,-0.2094430339682847,3.654566755659878,9.046896046569945,0.9839670518331228,0.0183731541037559,-0.0547927431762218,-0.1905687749385833,0.1660901863092251,-0.1055806788927159,-0.6623325160025435,-0.7228985892914509,-0.0489603765308856,0.0666595324873924,0.2081184536218643,0.1144540621757507,0.2257031908303499,-0.5908368449870497,0.2178680449724197,-0.0701152831315994,-0.1751048754335381,-0.298452615737915,0.1278478972207289,-0.0116112579105654,76
1726742249642909000,-0.099324589844048,-0.3769628428339958,-0.5235873093176633,3.615059797918797,9.066717183849216,0.9467623796850444,0.0509254857897758,0.0961570963263511,-0.0506865605711936,0.1644520012945188,-0.1040498294808917,-0.6640046589255569,-0.7219604935956238,0.0213441438972949,0.1285271644592285,-0.0298208855092525,-0.0543470917373895,0.4045896854281425,-0.838887111377716,0.2267663925886154,-0.0543180890381336,-0.169426647134032,-0.2946328222751617,0.1456739060268737,-0.122132643112773,77
1726742249682680300,-0.2762535206332802,-0.0843067611932754,0.2344488073438405,3.648785834170878,9.047299951195717,1.0015577266465872,0.0886783525347709,0.6517251133918762,0.2994363903999328,0.1726825137973464,-0.099185437898917,-0.6626439602945499,-0.7219736958043695,0.3228600621223449,0.0265238862484693,-0.2478652000427246,-0.3129705553948879,-0.5125532165408134,-0.7251367404919117,0.2224390506744384,-0.0779313147068023,-0.0957696829746011,-0.2927555441856384,0.2498220253035426,-0.0940817572871223,78
1726742249722452000,0.3067477353572845,-0.1424924081802368,-0.0423801750898361,3.736310680627823,9.002983839607237,1.0754780453167856,0.1330742985010147,0.7988575100898743,0.3279391527175903,0.1874275104274397,-0.0924562653056069,-0.6607705482410249,-0.7209057490209954,0.3179715573787689,-0.0052167330868542,-0.0912901684641838,-0.4733867428004741,0.6732762779384851,-0.133409887862578,0.2357844710350036,-0.0708468332886695,-0.2121150479228235,-0.3191881477832794,0.1380867023008875,-0.0832276607196778,79
1726742249762223400,-0.1062526355415582,-0.1114309149622917,-0.2695673208676278,3.813075648139417,8.963244534415006,1.1362684679746626,0.1636144071817398,0.5473724603652954,0.3083475530147552,0.2013472779762706,-0.0857195015875388,-0.6593319345073088,-0.719300328060142,0.3550978899002075,-0.044189166277647,-0.0263325423002243,-0.5954653085052967,0.3659352528631687,0.7940635617237538,0.2915751338005066,-0.0336367301642894,-0.2269439298727549,-0.4053049981594085,0.127132433294598,-0.059201413600496,80
1726742249801994800,0.2171142261832952,-0.2467950786978006,-0.7020832702279091,3.9112376239448783,8.919940230217575,1.1433640522588044,0.1655303537845611,0.8945123553276062,0.3749616742134094,0.2141923566831998,-0.0812063129120902,-0.6596288291173601,-0.7158330867472715,0.3199167251586914,0.0379663184285163,-0.1184844374656677,0.0674462272852659,-0.6014578269183636,-0.0474772059679031,0.3651983141899109,0.0065347403287887,-0.1638443717559799,-0.4902838170528412,0.1287544906716328,0.0339249312414904,81
1726742249841766400,-0.1341512808144092,-0.1328296768218279,-0.7702467058718204,4.044631072129309,8.842187128451465,1.275572309246659,0.1022661253809928,1.143010139465332,0.608029305934906,0.2356966594770854,-0.0724499522978019,-0.6555264394123387,-0.7137809412510184,-0.1890085637569427,-0.007327873725444,0.0064573609270155,-0.8034925573915243,0.1585901410222053,-1.1290296758275478,0.4005707502365112,0.0427136197686195,-0.2172179605524055,-0.5185791850090027,0.067893418496917,0.1450128391691018,82
1726742249881536800,0.2045338538125157,-0.4109837703794241,-1.2374544677764177,4.195559884743393,8.746546487817168,1.4372206687957048,-0.1365864127874374,0.9603024125099182,0.5036442279815674,0.2572115565320631,-0.065639725028108,-0.6499335109402902,-0.7121237170168356,-0.2301064729690551,0.1559347063302993,-0.0550919510424137,-0.1434504395574331,-0.3936585415691137,-1.0276081867694855,0.4209475517272949,0.1327839642763137,-0.2111283567067235,-0.5091175436973572,-0.0215335969030973,0.0163838951228768,83
1726742249921308200,-0.7326473353177309,-0.3296750219583511,-0.1908499041140079,4.312876642873883,8.649675428605079,1.6590939260743558,-0.0223072189837694,1.3156650066375732,0.6753767728805542,0.2782937586528804,-0.0579307910529237,-0.6419141473556419,-0.7121396281099794,0.5612934231758118,0.0699871033430099,-0.0787087976932525,-0.8998428075999021,-0.9640946227580308,0.0995418127913028,0.3955735266208648,0.1681343466043472,-0.0785236660134978,-0.5252981185913086,0.0629217858304968,-0.0503148359800456,84
1726742249961079800,-2.189477836729586,-0.9622767596811056,-0.3846072201073169,4.57784392260015,8.458222297900914,1.9162975860618048,0.1239521950483322,1.7231743335723877,1.5696035623550415,0.3137681668403115,-0.0495341358875462,-0.632330910987767,-0.7065787254916117,1.0905179977416992,0.1255630105733871,-0.1010963320732116,-0.2855646620750427,-0.6126812317222357,-0.6621101562798023,0.3170467913150787,0.0854166522622108,0.0674233396000228,-0.4706505835056305,0.1155585436857771,-0.1156512269379105,85
1726742250000851200,-1.7847838141441343,-0.9540870234847068,-0.6933278629727662,5.086386734455823,8.088508111020921,2.2079593959681687,0.1129616647958755,2.1105759143829346,2.31678318977356,0.3644849991368039,-0.0478420695814069,-0.6205936968776272,-0.6926220065325446,0.5131112337112427,0.0605645179748535,-0.0908898934721946,-0.5210825599551201,0.308680749246478,-0.806488232076168,0.2578829526901245,0.0530391260981559,-0.0777246245902962,-0.4615744054317474,-0.0039522561735589,-0.2062821587845683,86
1726742250040622600,-1.5406979944050312,-0.8440776657581329,-1.151096327011287,5.67219164969027,7.533326882109045,2.691764803060889,-0.4375261664390564,1.802568793296814,2.642216920852661,0.4233501517153311,-0.0519689088492941,-0.6000478521347528,-0.6767690786528329,0.2639240324497223,-0.0383441634476184,0.0037110429257154,-0.2171522201061248,0.2937988219350576,0.0046504561543464,0.2048548012971878,0.0641582980751991,-0.0116799951731751,-0.4439481198787689,0.0427120373927056,-0.167147906813398,87
1726742250080394200,-0.902375540947914,-0.8278513381004333,0.9187158503741024,6.19760142519474,6.838644243526458,3.315580007737875,-0.0757631734013557,2.646578311920166,2.89418363571167,0.4847510668539028,-0.0585387195543649,-0.572298601484089,-0.6588353314656266,-0.1539557725191116,-0.1497629284858703,0.1983835250139236,-0.1815051526635885,0.628350510019064,-0.4171300180494785,0.1527590602636337,0.0623666197061538,-0.1343268839764874,-0.3671103715896606,-0.0518547314989613,-0.0302020725101698,88
1726742250120165600,0.3885889832198619,-0.523684266886115,0.3350976315289735,6.550556200453639,6.1316533275127405,3.957706821914017,0.4202359020709991,2.585557699203491,2.6503634452819824,0.5532416842092694,-0.0529175679512046,-0.5435189353898414,-0.629055390295507,-0.2093585729598999,-0.0579133406281471,0.1786214113235473,1.0073071570187806,0.4494254369765519,0.460704955881834,0.1492574959993362,0.0879745706915855,-0.135269946113415,-0.2481478750705719,-0.0629972759192343,-0.1465658224984537,89
1726742250159937000,0.5725888753086328,-0.1436941851854324,-0.4290507574677467,6.695309539303183,5.620879395604133,4.443977596206963,0.0705205351114273,1.6712727546691897,1.6617281436920166,0.6015580404220324,-0.0464598218946452,-0.5208278872230906,-0.6039103686710108,0.2721079289913177,-0.0851987600326538,0.1698275804519653,0.4686351643592119,0.0474041407316923,1.228472119897604,0.1611776649951934,0.0181151814758777,-0.1285445833811536,-0.2296806424856186,0.0643510971144074,-0.2675831430467776,90
1726742250199708700,-0.1427449216365814,-0.4700917929083109,1.358214936619997,6.689988636541366,5.223479913941025,4.912199795851111,0.232664480805397,2.143265962600708,1.664315938949585,0.638420573903267,-0.0395793604930573,-0.4979769007974554,-0.585552525963059,0.3029159009456634,-0.1038919687271118,0.0994912981986999,0.6749088475763797,-0.0940717838823795,0.7884639150857925,0.1689881384372711,0.0317533873021602,-0.2157557790453545,-0.1864353716373443,-0.0802368631395511,-0.2995335661947727,91
1726742250239480000,-0.8537731303423642,-0.0899444748193025,1.7025012522548435,6.542695550081134,4.7718058212548495,5.531130151095986,0.3593451082706451,3.034384489059448,2.354522943496704,0.6866554783347841,-0.0240744139907832,-0.4662738096544065,-0.5572374344282228,0.2480654418468475,-0.1865756660699844,0.056122787296772,0.2964151419132947,0.0658902300149202,0.8607248491764068,0.1323534250259399,0.0239126905798912,-0.1419710329209454,-0.1215969249606132,-0.0253409304639208,-0.2785901834199205,92
1726742250279251500,-1.0264034871548413,-0.3151908617928624,1.7188795556038616,6.302026845309138,4.164019668097794,6.25426088552773,0.3519761264324188,2.884630918502808,2.839551448822021,0.7419443515024526,-0.0109224088445325,-0.4254434566607189,-0.5180705718273263,0.1794600039720535,-0.2724157869815826,0.1857860386371612,-0.0149140760153532,0.6911281609714031,0.9206921188831328,0.0754991844296455,0.0306280758231878,-0.2685858720822259,-0.0828372314572334,-0.1094675881332252,-0.3301979863865301,93
1726742250319015000,-0.2951841388136148,0.7336395612254738,0.1012701709538698,6.161577341133356,3.61797159371227,6.7168176067560905,0.387934148311615,1.219877004623413,2.306485652923584,0.7860718258385108,-0.0045877585964633,-0.3968835749824867,-0.473870749956471,0.0490258410573005,-0.3289965093135834,0.2136308401823043,0.1612631596237421,0.2855792751222848,0.7689245173573493,0.0112680681049823,0.0723415538668632,-0.2821400944538414,-0.0597808547317981,-0.1499074245439376,-0.3340975511083379,94
1726742250358785800,0.1939379332572221,0.6514741959750652,0.4458925866752862,6.161320736023783,3.187179253274202,6.931839829096198,-0.0732789188623428,1.0544722080230713,1.746471881866455,0.8106945327557554,-0.0086802725873669,-0.3827521121148399,-0.4429445741645044,-0.0814080685377121,-0.2399272322654724,0.3359473347663879,0.127404144641757,0.2473217329204082,-0.1721674154758453,-0.0490057617425918,0.0874442160129547,-0.2099977452415972,-0.0697121322154998,-0.1290357552984263,-0.2838729643947444,95
1726742250398557200,0.0373918652832508,0.4473655818372964,1.655517382761836,6.021135435742139,2.8334388805955646,7.203328035023808,0.039608433842659,1.8423075675964355,1.975441575050354,0.8311320489046962,-0.0102609369381412,-0.3641801737380097,-0.4201035274000903,-0.0199550930410623,-0.34445521235466,0.323563814163208,-0.1102624557048082,-0.4423538911551237,0.5945943343570456,-0.0986502990126609,0.0577473752200603,-0.1560968263691291,-0.0659352019429206,-0.1379146702022291,-0.1439522881323471,96
1726742250438328800,2.298418396180868,0.9225380390107631,1.6183201632678508,5.696569135099649,2.51014859123826,7.577508553662896,0.4245991110801697,1.3129295110702517,1.2140512466430664,0.8564064266537477,-0.0044804183287754,-0.3370971607348778,-0.3910416352624394,-0.4956574440002441,-0.169862300157547,0.3007374107837677,0.5018371767371893,0.1624181748777627,0.0861807383716106,-0.109044037759304,0.1267959177494049,-0.1976944545128382,-0.0626343414187431,-0.2067423419085331,-0.1322954238146543,97
1726742250480584200,1.5873229674577711,0.5185962960973381,0.9024731561034918,5.446691872477532,2.458892743514478,7.775460398736596,0.5414814352989197,0.8577927350997925,0.6874939203262329,0.872691393748454,0.0082890720135284,-0.3217035095544009,-0.3672165241869305,-0.0373492613434791,-0.1652213633060455,0.3114583492279053,-0.0253998141944408,-0.3175029381275177,0.4328758687138557,-0.1177688688039779,0.1042685508728027,-0.1660546316839754,-0.101940780878067,-0.1278032817608676,-0.2141993799162097,98
1726742250520355600,2.69527018083334,0.8278162667870521,1.2108557991862297,5.223551810133457,2.5381322844460605,7.902074269783497,0.6787375211715698,0.900536298751831,0.3071959614753723,0.882039980519947,0.0221740899051982,-0.3108289662437207,-0.3534107295325534,0.2782936692237854,-0.0208764392882585,0.2609346508979797,0.3365677040815353,-0.1796352671384811,-0.4580838866632431,-0.1165790557861328,0.0809345915913581,-0.0958663208826445,-0.1000895127654075,-0.1234585944869089,-0.1269084426798392,99
1726742250560127000,2.095640153864026,0.6440230031862855,0.0648281537413597,4.944660049951076,2.717436127673089,8.020989403021336,0.5067155361175537,0.815060555934906,-0.1501513421535492,0.8874711000972374,0.0386560040809114,-0.2992475243089719,-0.3483557704427078,-0.001923095434904,-0.1191950216889381,0.2451598197221756,0.0541021770656108,-0.7053782201200723,0.3551426406919956,-0.0918276607990264,0.0302058942615985,-0.0410821940014371,-0.0877676755189895,-0.0777008966548368,-0.1333103730108588,100
1726742250599898600,0.0894108063340187,-0.326458105738461,0.3824170165866613,4.655597316627204,2.900973078425229,8.128969885268807,0.4907975494861603,0.9235728979110718,-0.0284587293863296,0.8910390871610132,0.0540099030306861,-0.2874383614436624,-0.3471475793283529,-0.1687056869268417,-0.0356435626745224,0.1684673726558685,0.2245622041016817,-0.0809241330176591,-0.2243674852471798,-0.0696107298135757,0.0022752988152205,-0.0294819940577144,-0.0749446302652359,-0.0537880285159451,-0.0923444668994285,101
1726742250639670000,-0.5752367594689131,-0.4575651965513825,-1.2807529267549511,4.530757177254557,3.0908880397766825,8.129516413235663,0.6727921366691589,-0.6015579104423523,-0.0582810752093791,0.8924034324566036,0.0669737703571411,-0.2846480811355046,-0.3436657758411702,-0.1969224214553833,-0.0316570773720741,0.1080987676978111,0.1245195291161537,-0.1619300990998745,-0.0245849176149815,-0.0275352746248245,-0.032790157943964,-0.0199636007901513,-0.0329371765255928,0.0028500625187414,-0.0072047077852446,102
1726742250679441400,-0.6676449940532445,-0.2199856899663805,-2.0053017112910747,4.844928340610862,3.241468185083568,7.886059539049864,0.1863143593072891,-0.8957169651985168,0.1507218480110168,0.8862655719229259,0.0688612546202268,-0.3052555996249175,-0.341482769304229,0.0336298383772373,-0.0429944172501564,0.0669499933719635,-0.0344423678278923,-0.2493050156921148,0.3122890028715133,-0.0011727914679795,-0.0357608310878276,-0.1006532263656146,-0.0461119525134563,-0.0230135903447633,-0.0229903989821323,103
1726742250719211800,0.9408101932823656,0.2396227028504013,-1.37145085029006,5.013718973129987,3.196954505096376,7.798236294168233,-0.3858601748943329,0.0765892937779426,-0.0155981285497546,0.8837000282537211,0.0631975685992988,-0.3136983662593701,-0.3415753210951739,0.4219530820846557,-0.0614873543381691,-0.0035069892182946,-0.0940571708351373,-0.3866799347281456,-0.1862145724635571,0.0216235406696796,-0.0488305762410163,-0.1099796201754361,-0.0441667437553405,0.0157376274003705,0.0309114354890771,104
1726742250758983400,0.0108919808924198,-0.0910626651942729,-0.1052659625917673,4.85696861475557,3.024707886904478,7.964382549658417,-0.4369245171546936,0.6725776791572571,0.1359593272209167,0.8882188983929313,0.0576379232139799,-0.3010105944914797,-0.3422540169825733,0.428764671087265,-0.0624246299266815,-0.0105741526931524,-0.1890267803400754,-0.817191412398219,-0.1058849712729454,0.0598001815378665,-0.0683285593986511,-0.1200932553728111,-0.075433649122715,0.0345976542877266,-0.0354430715863243,105
1726742250798754800,0.768035459563136,-0.2056955910682678,0.5909124675065278,4.695981641724705,2.925059764194488,8.097046806785464,-0.2343025803565979,0.4072555005550384,-0.1679948270320892,0.8913725037736625,0.0554196438733586,-0.2899899398595038,-0.3439326174671657,0.0183158628642559,0.0320772156119346,0.0169725865125656,0.1928606594145298,0.1813765578478574,-0.1464624077897519,0.0871047377586364,-0.0353648029267787,-0.1623422418310307,-0.0896140933036804,-0.0397390174978645,-0.0114307525277952,106
1726742250838526200,-0.2289575164511799,-0.0825590407431125,0.7560399013429879,4.536275940676033,2.897092437599599,8.197526119622587,-0.075468435883522,0.4852361679077148,0.0289828479290008,0.8934596173135072,0.0566019630392737,-0.2807822954790777,-0.3459585762559994,0.0114228036254644,-0.0135101359337568,0.0061407783068716,-0.1681020657330751,-0.0383551573574542,0.2294377011835575,0.1032096147537231,-0.0519076809287071,-0.0237675916164182,-0.0776906982064247,0.0681759343658806,-0.0599316686703823,107
1726742250878297900,0.6812585088640452,-0.0598056494042277,0.5024328045427799,4.413752261552214,2.903219688308239,8.261990700748562,0.1563212275505066,0.273687869310379,-0.0891758650541305,0.8955341879183066,0.0595322241906571,-0.2742473472946935,-0.3453446718083403,0.0273061618208885,-0.0691989064216613,0.067774511873722,-0.4058621895819902,0.2971785275012255,0.3150046915709972,0.0878333672881126,-0.0733185857534408,-0.0743320047436282,-0.0491959676146507,0.0379749030353268,-0.1354476225015707,108
1726742250918069200,0.2398141337692737,-0.099613635918498,-0.0135012866079807,4.329818717585503,3.001984598442912,8.271102812486886,0.2995671331882477,0.2096887528896331,-0.0985873565077781,0.8956915577798092,0.0659610497444696,-0.2719195641736592,-0.3456090566077758,-0.2138769030570984,-0.0406549908220768,0.1928653120994568,-0.1619727691978216,0.2735153278410434,-0.2093663885354995,0.0474008992314338,-0.0673177540302276,-0.1405044035676401,-0.0547241158783435,0.040562800636678,-0.167474398821406,109
1726742250957840600,0.2273863216117024,0.1723655683964491,-1.0584212581843138,4.280746059119701,3.1032015779048203,8.259282026311755,0.1145086288452148,-0.0282812006771564,-0.1704273819923401,0.8950349031213028,0.0716522344937451,-0.2715875110827129,-0.3464371343621301,-0.2688557207584381,-0.041460383683443,0.2825792133808136,-0.0912614026367664,-0.268210207170248,0.4625602283596992,0.0191509798169136,-0.0561150051653385,-0.0876743105307687,-0.0602117888629436,0.069793525630352,-0.1368099694964941,110
1726742250997612000,-0.0900277691885828,0.1693146563932299,-0.9153530959427356,4.243668374352157,3.1297458859592675,8.268395307093858,-0.1633013635873794,0.1480714678764343,-0.1711804568767547,0.8939947558674519,0.0726767868533864,-0.2704574974443869,-0.3497775424944588,0.1442780494689941,0.0039188149385154,0.3789803981781006,0.2995008329689502,-1.2363807010650634,-0.3620410949688404,0.0242337714880704,-0.0196433030068874,-0.1945012844947166,-0.0571067333221435,0.014696291379095,-0.0408161178106209,111
1726742251037383700,-0.4545625076040625,-0.0172279059156775,-0.5449971040278673,4.1224794509634375,3.051878510163724,8.358324584344029,-0.3520692884922027,0.2548427879810333,-0.0116544431075453,0.8953160913515745,0.0703230414252154,-0.2624856468666914,-0.3529379625575613,0.3794895112514496,0.048080950975418,0.386642575263977,-0.0369657488256692,0.8395271628469229,-0.0653846185803413,0.0416938476264476,-0.0105720218271017,-0.0971845821406692,-0.0693839415907859,0.076789827958215,-0.0822304481095634,112
1726742251077154800,0.2978840454220771,0.2139677448511123,-0.2094739405632019,4.143210688824952,2.9324621494054792,8.390760288524627,-0.3841403126716614,-0.0057398080825805,-0.0330850780010223,0.895632129950363,0.0636211614293504,-0.2610414371537225,-0.3544755417363146,0.2474236190319061,0.0163106638938188,0.26020348072052,-0.0246896200984716,-0.1440624339759349,0.7263689857006073,0.0588418543338775,0.0070935888215899,-0.1088047037777025,-0.0555584654211998,0.076007801601896,0.0133080153584713,113
1726742251116925400,0.3514189439937472,-0.0533157028630375,-0.1528881299883127,4.085934265637397,2.801858916461468,8.463162092390656,-0.4117062389850616,0.1097855865955352,-0.0496775582432746,0.8964914095628344,0.0575338533322987,-0.2553207546520335,-0.3574971346349457,0.8098717927932739,-0.2665552794933319,0.3188353180885315,-0.2991816840171813,-0.0227086754143238,0.4981985645065084,0.0807066708803176,-0.0168322846293449,-0.0580364934403914,-0.0744557157158851,0.1148329054255038,-0.0483580941553926,114
1726742251156696800,0.1432408884599804,0.1044163600251078,-0.430613184478879,4.105120319883525,2.677795606680214,8.493985100677609,-0.39710134267807,-0.3455991148948669,-0.0790501609444618,0.8960666033826779,0.050193813072735,-0.2537870398010275,-0.3607456967453092,1.2651718854904177,-0.2939531803131103,0.3990997076034546,-0.1308084001272916,-0.2625017663955688,0.8079869462013244,0.0750598609447479,-0.0186638832092285,-0.1031545233957469,-0.1186396032571792,0.0533302611113525,-0.100428267636476,115
1726742251196468500,0.2755705068051814,-0.3741939626425504,-0.4233089989453554,4.284485537908971,2.57057471062839,8.438347969129682,-0.3004948496818542,-0.7126639485359192,-0.1368796229362487,0.8927638130162302,0.0400752858101716,-0.2610708040682552,-0.3649778714317714,1.2215574979782104,-0.3698258399963379,0.5150437355041504,-0.4974965171843767,0.9192144475460052,0.9231459417760371,0.0699037238955497,-0.026364367455244,-0.0329381601102883,-0.1217192485928535,0.0981785159483086,-0.0099224268991441,116
1726742251236240000,-0.1078434118643403,-0.1871124711513519,-0.8306395075142383,4.503597659911215,2.511283732748032,8.341549390631913,-0.2925909161567688,-0.6008386611938477,-0.0928582176566124,0.8881308883214794,0.031204523713391,-0.2715246106805117,-0.3694918940660063,1.7364184856414795,-0.243898332118988,0.679228663444519,-0.1283066464394331,-0.7312514970451593,-1.5833949803590774,0.074428342282772,-0.0306256935000419,-0.0049707815705827,-0.0876724645495414,0.0686900852999417,0.1045957351800054,117
1726742251276011300,-1.3937345782905817,-0.4292949414871633,-0.7480822203367948,4.640122099597752,2.3549814104020594,8.312263090392946,-0.5511231422424316,-0.2379795461893081,0.270583301782608,0.886773465105432,0.0203160358323345,-0.2752812931811762,-0.3707295595943297,1.0855283737182615,-0.1140562891960144,0.6652949452400208,0.2619815419137478,0.2507148824900388,-0.8799182099461555,0.0788086727261543,-0.0336785167455673,-0.014744719930971,-0.071270041167736,0.1105563880169298,0.0336709496305557,118
1726742251315779600,-0.6649857117161154,-0.0353502764530479,0.0028249942928552,4.751588670395314,2.0904731264896688,8.320018526825308,-0.5772348642349243,-0.1560056060552597,0.3898761570453644,0.8883934720773038,0.0061554125622641,-0.275243926621779,-0.3673688323595565,0.0248973332345485,-0.0957699120044708,0.6611670851707458,0.1691743711397051,1.1030880829066037,-0.876274885007739,0.0574074499309062,-0.0514667630195617,-0.041932983878185,-0.1086348369717598,0.0963016070273704,-0.1003101485489867,119
1726742251355551200,-0.2113674992248415,0.1054337203741073,-0.1029348892956972,4.824245910327136,1.823694267296791,8.340933889082073,-0.5829789638519287,-0.1934395283460617,0.4124487936496734,0.8906105545990117,-0.0071127544622567,-0.2732766734162384,-0.3634310262663234,0.2077561020851135,-0.2013208866119384,0.5633285641670227,0.2988081745296717,-0.4554226315647363,0.6444708930842578,0.0351570844650268,-0.0512371100485324,-0.0981475728207733,-0.1326514631509781,0.0887781253205146,-0.0620898193852277,120
1726742251395322600,0.5361924508035183,0.2396468143783509,0.3428612512677907,4.909868138033152,1.6408489520706235,8.328937161818146,-0.4615944027900696,-0.3425062298774719,0.2675245106220245,0.8912103806877212,-0.017130419902192,-0.2739506010653953,-0.3611119117825467,0.2286073118448257,-0.0838437378406524,0.5237995982170105,0.3817114986658096,0.201661220985651,-0.1442917126871645,0.0206479132175445,-0.0364371538162231,-0.1669253501038998,-0.1181147992610931,0.0693300545707577,-0.0446947767417179,121
1726742251435074800,0.0472305377304553,0.0295905438825488,0.2231505837380886,5.045535668629408,1.4720229559771716,8.279257477369905,-0.2814124226570129,-0.3696747422218323,0.2297578752040863,0.890822461891369,-0.0275230796587723,-0.2777009476567953,-0.3585528241013629,0.4257342517375946,7.21985416021e-05,0.5632622838020325,0.4264502195805311,0.0206570035815238,-0.2700835998266935,0.0264845099300146,-0.0156017625704407,-0.1912165089366957,-0.1230052486062049,0.082744799973024,-0.099378484588908,122
1726742251474844400,-0.6175216574907303,-0.0688996409639716,0.0944277577131986,5.19508500958383,1.3532390479035674,8.20671772633791,-0.1573668718338012,-0.4608651101589203,0.3566692173480987,0.8903399780488988,-0.0353729248843316,-0.2834124063646747,-0.3545713422826185,0.6207937598228455,0.1279875487089157,0.5403102040290833,0.4012973658844828,0.1074871457725763,-0.322837138762325,0.0233649238944053,-0.0083201713860034,-0.2453492820699699,-0.119886614382267,0.0424960930870845,-0.1053319952989928,123
1726742251514615000,0.1832008506655693,0.2813405415739864,0.1763800647348165,5.34620846798718,1.1869036265168338,8.135090998497605,-0.3514338135719299,-0.2749111950397491,0.3399123549461365,0.8904149469031007,-0.0451471998517606,-0.2884224858420401,-0.3491925607895572,-0.2863316535949707,0.0706451684236526,0.4177762567996979,0.55856005769521,0.5386375058680772,-0.6300586291112006,0.0326300002634525,0.0007114601321518,-0.1625498019007965,-0.110912024974823,0.0761380814846372,-0.1305052524622529,124
1726742251554386000,0.2607148829787969,0.1025614528734236,0.4246504766821861,5.422670945420861,1.005505002967641,8.108882790529728,-0.2880435585975647,-0.108043797314167,0.3858289122581482,0.8914701071524499,-0.0542566788076128,-0.2891681956150989,-0.3445561967660502,-0.1127374991774559,0.0491980910301208,0.2522607445716858,0.4123141422003507,-0.3549456568151712,0.6828237123541534,0.0278463196009397,-0.0130989346653223,-0.156947616245877,-0.1005764529109001,0.0360878266301122,-0.110952063670475,125
1726742251594156500,1.078721703413129,0.5638909703943878,0.2371674186527728,5.448770432317256,0.8239978044774383,8.11186268312335,-0.4311162829399109,0.1416608393192291,0.2821983993053436,0.8933539304729895,-0.0622667480199705,-0.2872855166736776,-0.3398655129583752,0.2807770669460296,-0.1401276737451553,0.2103879153728485,0.083697689384222,-0.6052794310331344,0.224555043708533,0.0149751864373683,0.0242425259202718,-0.1876761877150274,-0.0832120776176452,0.0522889262317214,-0.1721558163695968,126
1726742251633927200,1.4717337637722492,0.3126553519658744,0.58919280410707,5.368350157168507,0.6376929964471608,8.181964393353462,-0.4189234972000122,0.3007988333702087,0.0318528711795806,0.8952089486947569,-0.069803743567501,-0.2792191593628297,-0.3402425134386955,-0.1400002837181091,-0.0579459927976131,0.1241722702980041,0.2073909968093037,0.4892874917656183,0.1108779572546482,0.0159539878368377,0.0077769514173269,-0.1648435388611629,-0.0523503720760345,0.0366048339582514,-0.0888686166155617,127
1726742251673698000,0.5354641365289687,-0.0703705537667497,0.5629325736910105,5.314767620062828,0.529757924243994,8.224535707101225,-0.2031534016132354,0.0259821899235248,0.0092718526721,0.8957940052056109,-0.074454514696511,-0.2740837688149301,-0.3418883404979233,0.3978149890899658,-0.177558347582817,0.2289435714483261,-0.5036176304131746,-0.0893885945022106,0.3451237893722951,0.033665120601654,0.0145694483071565,-0.1508498838926665,-0.0358150377869606,0.0102952011677145,-0.0998617289280518,128
1726742251713468700,0.7273381229937076,0.0436293349007144,0.7118225739538669,5.32610149950385,0.5203548302024602,8.217801430410146,0.0273684654384851,-0.0831473544239997,-0.1461515426635742,0.8950371834289699,-0.0756229401114666,-0.2743900481026398,-0.3433654292375196,0.5100589990615845,-0.4677600860595703,0.4659755527973175,-0.7132499764084815,0.3170464265316725,0.0856143366605043,0.0578273274004459,-0.0238366164267063,-0.0659604731063824,-0.016158415004611,0.0748463657402433,-0.0294895540263736,129
1726742251753239300,-0.069963763064146,-0.0299162687055766,0.2336427516579627,5.367434211367368,0.5663671512495726,8.187811950337887,0.0647467300295829,-0.1762077957391739,-0.105693869292736,0.8933888164107315,-0.0749154096604691,-0.2773543710939764,-0.3454255216629823,1.7243034839630127,-0.5609721541404724,0.7240737080574036,-0.3169365364164114,-0.4732826979041099,-0.0205643568620085,0.0784184336662292,-0.0207356140017509,-0.1126928429231979,-0.0150334006175398,0.0198230141425272,-0.0490636440422851,130
1726742251793010000,-0.0817144066125154,0.023628895531781,0.0496270774781703,5.418539544704556,0.6055972648106515,8.151261796575785,0.0804693698883056,-0.1096386238932609,-0.0271988771855831,0.8922016756752577,-0.0742510685296088,-0.2808702527432577,-0.3457959458659742,2.907029151916504,-0.383227676153183,0.8419814109802246,0.1490665258735418,-1.1882301258802412,-0.4646516476809978,0.0929194763302803,0.0201427266001701,-0.1546021308319643,-0.0201353076845407,-0.0315073852383648,-0.0296216034578043,131
1726742251832779500,-0.1636696362435817,0.0897542860094457,-0.4290811526060104,5.447523062604666,0.6187799139235168,8.130928618121146,-0.009481742978096,-0.0858524665236473,0.0370097942650318,0.8917978897413316,-0.0741132629779667,-0.2827459096374555,-0.3453384904252152,3.588031530380249,-0.2560901939868927,0.988192617893219,0.5016577285170555,-0.7476590264886617,-1.607441041857004,0.078733816742897,0.0276596639305353,-0.1291641035189852,-0.0151804788038134,-0.0251555114440154,0.0042437841827515,132
1726742251872550400,0.0441068527519702,0.2575003048464656,-0.2958896567344665,5.470637396210432,0.5912442202115431,8.117446620735526,-0.1018877401947975,-0.0585691817104816,0.0281374957412481,0.8915503000368963,-0.075883828623403,-0.283490804651629,-0.3449823238280642,2.1743149757385254,0.3422140181064605,0.5398144721984863,0.8758334248505533,0.1069108071893453,-0.865678087669611,0.068849429488182,0.0602393448352813,-0.1082375074821524,-0.0020582531578838,-0.0399938644751906,-0.0086921356146951,133
1726742251912321000,-0.0921907924413681,0.2349563184745609,-0.1479851603776216,5.482436555075645,0.5424109965248033,8.112894948780536,-0.1357953697443008,-0.0134068988263607,0.0808328315615654,0.8915282285403535,-0.0784749307937057,-0.2831945743548776,-0.3447025072715954,-0.3734119534492492,0.4692513346672058,0.2555530667304992,0.5553359810821712,1.4777315428823232,-1.1751268986791372,0.056958619505167,0.0485482774674892,-0.0260893742110463,-0.0098963351920247,-0.0118608670237706,-0.0215099374662968,134
1726742251952091600,0.0008890577942132,0.1551229033030569,-0.0773345840930938,5.483628395208716,0.4750010826619342,8.116315570878982,-0.1523792445659637,0.0120048532262444,0.129755437374115,0.8919907883277565,-0.0815346753259384,-0.2820197977847549,-0.3437577636366961,-2.3469066619873047,0.4211938679218292,-0.2763799130916595,0.2631372878201305,1.3571622126966714,-0.1610387032181024,0.0502875000238418,0.0429699569940567,-0.0318754467991995,-0.0182232204824686,-0.0035655235907615,-0.0403854439089307,135
1726742251991862500,0.1772480797410011,0.1334529963519424,0.178438166308403,5.494166740357875,0.413921285136044,8.11253254520893,-0.1107226014137268,-0.0362538881599903,0.0745711848139762,0.892297143382401,-0.0844571073720769,-0.2815012473598525,-0.3426803597550364,-3.957247734069824,-0.0754181370139122,-0.4249294400215149,-0.0492699346035718,1.5074205787032842,1.408212016454339,0.0484473444521427,0.023880336433649,-0.04456641025485,-0.026866428554058,0.0337620916628628,-0.0541032365115359,136
1726742252031633200,0.3453700192183256,-0.0212023625046014,0.2076929023653268,5.489897976997495,0.3828763777267188,8.116945685476065,-0.0441054590046405,0.0870293006300926,0.0418506786227226,0.8926706638293687,-0.0856946068329538,-0.2807265103980469,-0.3420351131952412,-1.4814467430114746,-0.2353254109621048,-0.0806552991271019,-0.6394580333583056,-1.0568272669911385,3.049724839261174,0.0418022833764553,0.0168524961918592,-0.1287483805912546,-0.0452379696071147,0.0557270291879307,-0.1304010705685708,137
1726742252071404000,0.1788748041599988,-0.1203963482389226,0.0656260261207818,5.466951401174068,0.3828605956356972,8.132419148939848,0.0361619181931018,0.0154836066067218,-0.0007898812764324,0.8931377023419584,-0.0851539267316078,-0.2794831325628709,-0.3419692615098285,-0.4608674943447113,-0.4312627911567688,0.1887637823820114,-0.0570811928763985,-0.1370470022559166,-1.004206852915883,0.0327034816145896,0.0330019928514957,-0.1374795301879756,-0.0418954640626907,0.0189801335775991,-0.0952844841403886,138
1726742252111174700,-0.0183598325550556,-0.0295250774309039,-0.1266553721010685,5.476391429692506,0.3908999270433559,8.1256831186831,-0.0102610420435667,-0.0408019088208675,0.0037038889713585,0.8929706495380534,-0.0849490893293513,-0.2801591038694261,-0.3419035525695054,-1.833582162857056,0.0052865613251924,0.0360160544514656,0.3916629838377237,1.1879635838985445,-0.927913010047376,0.0022272244095802,0.0102188745513558,-0.0780281467146705,-0.0045070797204971,0.0771794209308456,-0.0587777037291321,139
1726742252150945300,-0.1605231549113988,-0.0009344313059002,-0.2193511914551258,5.501238870701194,0.3790686194742098,8.109442762500047,-0.0170618034899234,-0.1037851274013519,0.0356481410562992,0.8927039250802912,-0.0859374896149452,-0.2813329541437235,-0.341388568054425,-2.664951801300049,-0.4734616279602051,-0.3411814272403717,-0.2843912343814969,-0.3799415663838386,1.0442769974976778,-0.0128116374835371,0.0635928735136985,-0.1377911716867238,0.0185133013874292,0.0364774127528769,-0.0874993101568892,140
1726742252190715100,0.1255254912883043,-0.0140896444225683,-0.067703416916728,5.50892825616002,0.3578070741282775,8.105187443143128,-0.0773296281695365,0.1181493997573852,0.0701614394783973,0.8928127574950223,-0.0869764870964765,-0.2813992668888838,-0.3407855414602015,1.3167948722839355,0.351236879825592,-0.0713316425681114,0.8063537920415401,-3.160805625611544,0.9651795684505252,-0.0216994304209947,0.0728739872574806,-0.150042723095091,-0.0071546300314366,0.0070555519553861,-0.1161097752272151,141
1726742252230485800,0.5001876559644938,0.0440689318943768,-0.1657932042688131,5.474542586955428,0.3063823909099213,8.130553355067969,-0.1480802148580551,0.0384457856416702,0.0017108204774558,0.8935601891588728,-0.088728374219943,-0.2785397802575479,-0.3407243914944842,5.57636022567749,-0.2118650823831558,0.9918171763420104,-1.0586416229367257,-2.9138229153871533,-2.9185338695570824,-0.0127766840159893,0.0587268508970737,-0.0891889254779554,-0.0263572800904512,-0.0134829232591611,-0.114636277741706,142
1726742252270256400,0.0591980388998985,-0.1460921862378716,0.1738970157474279,5.479488226664066,0.2807660296216607,8.128146878448128,-0.0498163141310215,-0.0129746617749333,-0.0324845537543296,0.8930337123983544,-0.0904848316611701,-0.2781948041499312,-0.3419225942121267,1.1320044994354248,0.5558997392654419,0.1051012501120567,1.0664102111116052,3.265336259666085,-1.698829870265722,0.0073255216702818,0.0201627500355243,-0.0606699198170565,0.0104014473035931,0.0522933877777075,-0.0021511832595861,143
1726742252310022100,-0.032782910183072,-0.0602861446638591,0.0624245997309684,5.482584439113736,0.2768118121031672,8.126193990814686,-0.027187256142497,-0.0075723072513937,0.0119301937520504,0.8929110609029012,-0.0908059081080867,-0.278269122280643,-0.3420971523608651,-1.857019305229187,0.3787184953689575,-0.0994834527373313,0.4938415018081665,0.79328037545681,-0.7943196553766727,0.0041741570457816,0.0282382108271121,-0.1251002150809392,0.0153043000027537,-0.0008502042132138,-0.073781517554284,144
1726742252349792800,0.124274614444375,-0.0737698590825311,-0.0169850370705127,5.502846890419721,0.2620139280796982,8.112977950888872,-0.0376994833350181,-0.0783600583672523,-0.0026867894921451,0.8925119219918551,-0.0920203335550119,-0.279079747591311,-0.342153947464655,-1.2921870946884155,0.1797783076763153,-0.5893489122390747,0.5307524517066776,0.0268558582216501,0.4123965597867965,-0.0201486013829708,0.0421188063919544,-0.1632572560504079,-0.0084089962765574,-0.0103780149047379,-0.1245795978734735,145
1726742252389563400,0.1630062038987874,-0.0060011035783216,0.0135527245342731,5.532500270405412,0.257990864842385,8.09291423702538,-0.0215634778141975,-0.0607945136725902,-0.0182442981749773,0.891834453597282,-0.0929845597237584,-0.2805887853755694,-0.3424253315395626,0.00177390454337,-0.2522104680538177,-0.2853847444057464,-1.0289933575175705,-0.9511673366457224,3.037055911824107,-0.0227368380874395,0.0393211543560028,-0.0965612808768637,-0.00079628219828,0.0417952696076594,-0.0978008052097167,146
1726742252429334300,0.4959329211294651,-0.0184602789885364,0.0118470896601676,5.531769033521414,0.2623695731169544,8.093273717987536,0.0023922943510115,0.0746768936514854,-0.057127047330141,0.8916263212545951,-0.0929292433340266,-0.2805744798998295,-0.3429937203895356,0.5132209658622742,-0.1664574444293975,-0.1342047601938247,-0.3910317001968622,-0.0268991128414869,-1.1572083801507949,0.0080043254420161,0.0048028565943241,-0.0844655593510251,-0.0105464495718479,0.0799657728468999,-0.0652977531476411,147
1726742252469104600,-0.0964537105828523,0.0642904301354661,-0.057365562775731,5.508696200969815,0.2782300083380192,8.10846719546616,0.0201691128313541,-0.0080479532480239,-0.0660102590918541,0.8915526308713573,-0.0920257516803264,-0.2794897054509842,-0.34431172821334,-0.0130891986191272,-0.6191232204437256,0.1880873441696167,-0.5289693676821887,1.1753320658624171,0.7541083487585186,0.0234939567744731,0.0020321358460932,-0.1365364589178934,0.0187563933432102,0.0301226802811608,0.0210792567147407,148
1726742252508796200,-0.1151730241000652,0.0939169038479216,-0.0416711500376462,5.541331227114797,0.2994802103060297,8.085439955621958,0.0390597730875015,-0.1195827350020408,-0.0681619495153427,0.8906092992104081,-0.0919569647404911,-0.2816046935308694,-0.3450474078011962,-0.3018466830253601,-0.045017410069704,0.0029270083177834,0.7562994290620089,-0.548716416811943,0.1568658014476299,0.0059401988983154,0.0238372590392828,-0.0537650312328478,0.04936408624053,0.0232611170987365,-0.0073088931038597,149
1726742252548563700,0.0196364283621311,0.1084939481949433,-0.1202747311532497,5.556459238141775,0.3124366311812773,8.07456083421111,-0.0060073346830904,0.0571128129959106,0.0104532474651932,0.8901993274268013,-0.0917456463825509,-0.2826565380018576,-0.3453015717881742,0.2235158830881118,-0.020186735317111,-0.0643431097269058,0.0216718797124922,-0.6469114181041717,-1.3192574294552206,-0.0006917634746059,0.0466155372560024,-0.0349482966395909,0.0604912005364894,0.0006444308168021,0.0207141314630862,150
1726742252588331500,0.2569710202753543,0.1247253356202505,-0.1507622238755226,5.526970693328976,0.2938110238295048,8.09547093577087,-0.0726662203669548,0.0626455321907997,0.0026183822192251,0.8907230025918144,-0.092046899803174,-0.2806656546124218,-0.3454946580115517,-0.5441203117370605,0.4198435842990875,0.3657730519771576,1.040970064906776,-0.4432084621578455,-0.4530018341585993,-0.0174682028591632,0.0466070100665092,-0.0457132787350332,0.021711966022849,0.0139954678996698,-0.0332849208714789,151
1726742252628099300,0.2960276039004326,-0.0928499322035349,0.0916647227406501,5.510360334789753,0.2798969734358601,8.107278862464428,-0.0394606702029705,0.0768822580575943,-0.0120250601321458,0.8908185729131729,-0.0925483254732328,-0.2794255167934817,-0.3461192193590874,0.547447919845581,-0.1879074424505233,-0.233881801366806,-0.3113134358376264,-0.3842816414147615,0.428365697813034,-0.017868373543024,0.0256716404110193,-0.034424724856636,0.0053635966032743,0.0554056152138393,0.0154661683566053,152
1726742252667866600,0.2241185519874095,-0.1032769076664,-0.0951800373852252,5.547254187422991,0.30453957605483,8.081188727918267,0.0426154918968677,-0.1945839971303939,-0.1071121916174888,0.8897286275807701,-0.0924616458564068,-0.2818242008555607,-0.3469999023103595,-1.8293464183807373,-0.3572823107242584,-0.3496551513671875,-0.6357295143544673,0.5024468330681324,1.4054726546183227,-0.0125435572117567,0.0022193016484379,0.0322712480336194,0.0030651618726551,0.107578897442948,0.0422449678702279,153
1726742252707634400,-0.4496767813891172,-0.0332148718595504,0.0703302582889795,5.59361904823482,0.3239607359647751,8.048407571300864,0.0001293779350817,0.0256748646497726,0.0285356696695089,0.8886107540118819,-0.0927278403669286,-0.2846874833350951,-0.3474559402059842,-0.5197556018829346,0.1746229529380798,-0.1714095771312713,0.964689081519842,1.6682845098763703,1.8071647189088165,0.0171757210046052,0.044710885733366,-0.0856884522094856,0.0167586281895637,0.0023228785731713,0.0855951387696899,154
1726742252747402200,0.2345423308461904,0.2664826709915883,-0.0430015218585729,5.554039317518472,0.2986985949416644,8.076745192512869,-0.0619331263005733,0.1538979560136795,0.0103604346513748,0.8895864445346847,-0.0929210480341354,-0.2820749606329632,-0.3470378743413957,3.153101682662964,-0.2230722606182098,0.6041449904441833,-1.2870689780339597,-0.9626549453437327,-1.6155974603056906,0.0332674980163574,-0.0016381110763177,0.0206710480898967,-0.0008166261250153,0.0836660338706336,0.0012790554797538,155
1726742252787169800,-0.105699093312025,0.2758727411547675,0.078035425838828,5.508664052265882,0.2825748143429867,8.108338600650429,-0.0198488961905241,0.1461280435323715,0.0584502629935741,0.8904590938438119,-0.0926905693365464,-0.2792816395808898,-0.3471208018321282,1.4620442390441897,0.4228954613208771,0.5395776629447937,0.3777474173404276,2.477024320271611,-2.1887276028841733,0.0340931266546249,-0.0134786907583475,-0.0388002616432961,0.0472266301512718,0.0485975882999598,0.101276646360429,156
1726742252826937300,0.251454887202382,0.2327145856960676,0.0585147328108549,5.4805625778973095,0.2723122904605232,8.127709656074643,-0.012765409424901,0.0127618638798594,0.0022079378832131,0.891153418564282,-0.092435689499287,-0.2775928463784252,-0.3467612555755838,-0.4001988172531128,0.6539508104324341,0.3559570908546448,0.3623711306408047,-1.432309515878558,-0.7874757808312773,-0.0041479598730802,0.0313740223646163,-0.1127208999739028,0.043693009763956,-0.0206805374374496,-0.0522785464016022,157
1726742252866704100,0.2211988651484251,-0.0778655308983288,0.1006681134074926,5.50243947866261,0.2846646810280159,8.112491044154762,0.0389856696128845,-0.1294991374015808,-0.0470102056860923,0.8905986212287427,-0.0924261543896367,-0.2789901154773455,-0.3470677254566363,0.4155644178390503,0.7925576567649841,-0.5155596137046814,0.7886939244493841,0.2977852612227201,0.4574059143364429,-0.0643696784973144,0.0435776337981224,-0.07743290250157,0.0136724282056093,0.0016813024379807,-0.0775629494888708,158
1726742252906471700,-0.0060930561780929,-0.2052762331450358,-0.320997209984064,5.591316616511344,0.3258841052427887,8.049929081779718,0.0535456947982311,-0.3424445688724518,-0.0742382705211639,0.8885917004702546,-0.0926299553104896,-0.2845830621415229,-0.3476161711904478,-0.562766432762146,-0.3113183677196502,-0.8111459016799927,-3.1483474183157085,1.4099901320427657,5.448165452161431,-0.0670532509684562,0.0431615822017192,0.0179098454564751,0.0266378223896026,0.0703787096737418,0.0545934540141606,159
1726742252946239500,0.1081377186357974,0.0142488901048898,-0.0273696529626846,5.617595551627874,0.3290197363873943,8.031485078072548,-0.0675162971019744,0.1941505521535873,0.0026209100615233,0.8879560336059628,-0.0931788726478245,-0.2860523186724954,-0.3478876924352765,2.3786211013793945,0.2107757478952407,0.3129318058490753,-0.2686561973720788,-2.2428291954278943,-1.2570777443960308,-0.0533158108592033,-0.0102308224886655,-0.0266846161408582,0.0207065492868423,0.0636372451900504,-0.0027246848566923,160
1726742252986007300,0.0428413628607988,0.1911221634504385,-0.0780319187074899,5.561086897942423,0.304627236071974,8.07167271155417,-0.0926416665315628,0.1197941750288009,-0.0553739033639431,0.888576323756357,-0.0934933530928825,-0.282344136600212,-0.3492463039550418,-1.1033133268356323,-0.3455711603164673,0.2693053781986236,-1.1597937204688786,4.711050031518936,-1.2680112263426184,-0.0465493537485599,-0.0070341052487492,-0.0888691554716788,0.0236807577311992,0.0326541875031776,0.0172978236385097,161
1726742253025774600,-0.0877834973931312,0.1518612528922967,-0.0461450805813074,5.557935740435124,0.282387073218543,8.074651435104013,-0.0790546089410781,-0.0687124878168106,-0.0226218346506357,0.8882312481270185,-0.0948667413394782,-0.2816161465647175,-0.3503397776732408,-1.200467824935913,0.2719742357730865,-0.0342479906976223,0.9332437035508452,-1.298046006861329,1.1807833170056343,-0.0323668718338012,-0.0104788905009627,-0.0663761960341129,0.0618122816085815,-0.0060361754625249,0.1051552961583714,162
1726742253065542400,0.0031821371674537,0.0892447655847296,0.122730307611823,5.582340698373318,0.2689877308813855,8.058256765142083,-0.0585458576679229,-0.0311889480799436,-0.0102486126124858,0.8874996120294013,-0.0963160231824606,-0.282606566361017,-0.3510003028596351,0.9729456901550292,-0.1063737049698829,0.0291552171111106,-0.4186094429522752,-1.7569675864577292,-0.7278963413983583,-0.0179090481251478,0.0298820044845342,-0.0674750880535692,0.0419737510383129,-0.0084300848617363,-0.0073158594174747,163
1726742253105310200,0.0005436053574085,0.0434972694862633,0.1990583450108766,5.592311472767591,0.2638583686362952,8.051510213491321,0.0082607790827751,-0.0796381086111068,-0.0006411117501556,0.8872444308841746,-0.0968555916955043,-0.2830304328172313,-0.3511552330786847,0.1725115478038787,0.5517152547836304,-0.1011798903346061,1.1162861487843097,-0.6770476131707429,-1.0341489867150784,-0.0199945382773876,0.0137268211692571,-0.0400830268962541,0.0127784255892038,0.0144487646251218,-0.0105168274370953,164
1726742253145078000,0.0477098456799983,-0.0049493660356849,0.1062894604206085,5.623704974418878,0.2759430481783114,8.029208365312218,0.0241045430302619,-0.1090078502893447,-0.0223617348819971,0.8865883434786931,-0.0970158283918081,-0.2849776246014235,-0.351193475293843,0.614773154258728,0.1799642592668533,-0.029066476970911,-0.3942686362914741,2.140277167969942,-0.126680506542325,-0.0234596319496631,0.0019018067978322,-0.0345805478892987,0.0308061596006155,0.0641542548014782,0.019358755348355,165
1726742253184844500,0.1470738907516002,-0.0259225411606021,-0.0857148744255304,5.667993028956651,0.294222837767098,7.997354260411858,0.0312245618551969,-0.2288937717676162,-0.0915523916482925,0.8855389940663144,-0.0972767178202844,-0.2877249581376299,-0.3515284789262446,-0.1798132061958313,-0.1149054691195488,-0.240771472454071,-1.2653624653995037,-0.4910287824749946,2.235062360818684,-0.0434484481811523,0.0162842888385057,-0.1162612120624165,0.0518450103700161,0.0097753385871415,0.0204987945122411,166
1726742253224612400,0.1134457619160413,0.1489336567414924,-0.1844073038458824,5.774344448697566,0.3411295686369762,7.919025404584407,-0.0040486077778041,-0.419085294008255,-0.2207022011280059,0.882448521693494,-0.0982110974974237,-0.2942730900381447,-0.353613728978958,2.035867214202881,-0.2358204424381256,0.3269000053405761,-0.4390691703960299,-2.838644048023224,0.0666778732612729,-0.0729085206985473,0.0529261752963066,-0.0334897843773709,0.0628111436963081,0.0029137736922508,-0.0078893621562252,167
1726742253264379600,0.2054483383089304,0.2510516036311164,-0.1186135199427604,5.922660448464751,0.3907441519597545,7.806394466182589,-0.0853581503033638,-0.6059009432792664,-0.4281032383441925,0.8772911160999116,-0.1010197958530112,-0.3029515515526093,-0.3582954952732224,2.811257123947144,-0.0348653309047222,0.0892326012253761,-0.3110400257237255,1.17758364418149,-2.220954048228264,-0.0936756879091262,0.0518275313079357,-0.0479789586446946,0.0458259880542755,0.0149657742365496,0.011566612767952,168
1726742253304147500,0.4719646010428667,0.1295455040520057,0.0306651873767375,6.168802031689882,0.526615534565039,7.605192094880342,-0.0957930833101272,-0.972063422203064,-0.7918251752853394,0.8673616473046503,-0.1041528873287486,-0.3184262832913787,-0.3680228206920977,6.888145923614502,-0.5496026277542114,0.902449071407318,-0.0010207213498651,-3.824126911246776,-1.7830553829163311,-0.1051777750253677,0.0597605220973491,-0.0763620629662415,0.0378154180943965,-0.0364283357470296,0.0316933065817691,169
1726742253343912200,-0.1440764625012874,-0.1571547744568437,0.0599696077942848,6.410899307960271,0.668616250238195,7.390785958611965,-0.2296964824199676,-0.8750708103179932,-0.7789318561553955,0.8554104636292692,-0.1087419985253131,-0.3336914427109465,-0.3809177219409525,-1.4035277366638184,0.4162243902683258,-0.6680441498756409,1.8702466135047373,9.47917570295632,1.867162822145224,-0.1060228422284126,0.049939289689064,-0.0223851060157641,0.0464462153613567,0.01256900844326,0.0415394134167581,170
1726742253383679700,0.2018973678290843,0.3908953604660928,0.3527718199074268,6.710611737853288,0.8208700278457254,7.103819028523564,-0.0524963103234767,-1.3164454698562622,-0.8076635599136353,0.8413717431126904,-0.1150314185794348,-0.3529501220088465,-0.3927946198727411,-2.254194736480713,-0.0780219659209251,-0.3225949108600616,-0.3962997037276625,-0.4093769197046756,-1.7442706019699572,-0.0942665264010429,0.0356553643941879,-0.0829553100517019,0.0401829704642295,-0.0248933488099137,0.0290658418717212,171
1726742253423447600,-0.0430605585694313,-0.075480845985189,0.2236871748328208,7.049542079412936,1.118155668983236,6.724884593355656,0.5368267297744751,-1.1983318328857422,-1.0285615921020508,0.8249183779532995,-0.1160421358596535,-0.3790257738132013,-0.4029682794667263,-0.9097797870635986,0.1441121995449066,-0.724556028842926,0.6103716396056116,-0.5104869316607713,0.2948211507201194,-0.0844392105937004,0.0575808733701705,-0.0204871725731063,0.0134984524920582,-0.0519111241615843,-0.0019567423954751,172
1726742253463215000,1.2809995949923991,-1.84055114794299,0.1892646807491779,7.097209839516878,1.8173574654906988,6.518989095801115,1.2566161155700684,-0.4252672791481018,-1.825272798538208,0.8110702580978109,-0.0913333802945016,-0.3991018184884929,-0.4177811945000219,1.8168318271636963,0.1981889605522155,0.3952623009681701,0.1769235239617526,-3.1611317888259887,1.4445792148649692,-0.0744561776518821,0.0796092003583908,-0.0768856347491964,0.020979156717658,-0.091189524710644,0.0369412719715386,173
1726742253502982000,-1.4889987868279215,-0.6794321702197194,0.1349789638102054,7.0441451888054605,2.550800042839348,6.328019364699721,1.174674153327942,0.0663643702864646,-0.9996795058250428,0.7985256891062071,-0.061537642217431,-0.4166220470453693,-0.430111658789563,-1.710849046707153,-0.0896759033203125,-0.9174014925956726,-0.512745085851103,5.395248100966215,1.4678110373705624,-0.0660598278045654,0.0239351689815521,0.0454577285048086,0.0309340208768844,0.0845089144355617,0.0474998927237465,174
1726742253542829300,0.1885392890840768,-0.3122510089486837,-1.5347124902546403,6.86792119141519,2.8918536601632834,6.374891005989909,-0.2927168309688568,0.4121181964874267,-0.7014154195785522,0.7949162335237543,-0.0444636534285448,-0.4159254767651614,-0.4394738927512272,0.574284553527832,-0.1829944998025894,-0.002821757690981,-1.116041234112531,-1.7099954074025152,1.395308111217618,-0.0353504456579685,-0.0097892619669437,-0.0862918249301146,0.0229680798947811,0.0141866019910201,-0.0353388851260649,175
1726742253582600200,0.915747648218274,0.2812532286167145,0.1237310090869665,6.639604603216052,2.9473277101039885,6.587814210224151,-0.5758095979690552,1.2389098405838013,-0.946905255317688,0.7916380363609228,-0.042916305370926,-0.4028314025171167,-0.4573776119217638,1.3977453708648682,0.3001525104045868,0.0449286513030529,0.6575261894904076,-0.7766764466583729,-0.2434761634081602,-0.0203873291611671,0.0219419114291667,-0.0861360041807405,0.0176682844758033,0.005437961832559,-0.0392314744011033,176
1726742253622370800,0.0407172103136777,1.1241934147775172,-0.5225105469316244,6.295088570478558,3.0026617670521136,6.8939294928967945,-0.7991492748260498,0.3238436877727508,-0.8759319186210632,0.7885526685124749,-0.0388694461188716,-0.3834013190980174,-0.4792465234717649,1.6153801679611206,-0.0928689241409301,0.0040165744721889,-0.7960176914662123,0.288790638384223,-0.6146867263257503,-0.0038015644531697,0.0267136394977569,-0.0512076338010374,0.0671528726816177,0.0279243688025744,0.07655877284843,177
1726742253662141400,-1.1653279737204312,0.2080366012364626,-0.7170037759840489,6.175045309993624,2.980291822072864,7.01121030293107,-0.3948977291584015,0.0528967566788196,-0.1402787268161773,0.7844705281138139,-0.0416379327621131,-0.375225334391946,-0.4920145720433566,2.033444881439209,0.0290017444640398,0.0104371886700391,0.0316750950716435,-0.5072001650750637,-0.3488964397788047,0.0125168701633811,0.0080301845446228,-0.055011620060727,0.1014126315712928,0.0932502474995795,0.0238318091091816,178
1726742253701912300,-0.3222995247542858,0.0094353523433208,-2.022508866679668,6.190038880985975,2.827843252545595,7.060956622874737,-0.7476266026496887,-0.2054791301488876,0.0059529999271035,0.7838317842249336,-0.0504642425487753,-0.3707354362294767,-0.4955969866578117,2.1576621532440186,-0.1176850646734237,0.0382640920579433,-0.3021963556632399,-1.3492653219670057,0.0882142900258302,-0.0339958742260932,0.0246248636394739,-0.1191302646927069,0.093200609087944,0.0226093660585815,-0.0555836980273714,179
1726742253741683200,0.55866264128685,0.3045449646160006,-0.5479881025373935,6.226504863595962,2.646009306319058,7.099271448221803,-0.6923252940177917,-0.1065301820635795,-0.2929688096046448,0.7799919528315852,-0.0633840445477003,-0.3660878969184696,-0.5035620464019529,1.344345211982727,-0.0338138081133365,0.0928094312548637,-0.0048410102903842,0.4737649284631013,-0.6819593506097793,-0.0225687883794307,0.0169682931154966,-0.0332778586597414,0.0882587730884552,0.0751722366937436,-0.0053521489959181,180
1726742253781454000,-0.3371183237016201,-0.5478551238074898,-1.1530629509091377,6.307808351320028,2.542075469113886,7.065394313061237,-0.5828003883361816,-0.8040100932121277,-0.2633909285068512,0.7731517130101926,-0.0750474262339444,-0.3662417775816206,-0.5123195565387032,0.2230090796947479,0.0118300020694732,0.1235574185848236,-0.0856212047927081,1.1473024876862763,-1.004320834684372,-0.0057435445487499,-0.0429118350148201,0.0926856267536059,0.0809930935502052,0.1537898828673176,0.058611124123726,181
1726742253821224000,0.357924380365014,-0.5672092280969023,0.7859925565361976,6.559073853430151,2.513246264992654,6.843430308759212,-0.0525620356202125,-1.0752522945404053,-0.2395515739917755,0.7625838185213984,-0.0885930947916501,-0.3784619344405568,-0.5170917877047938,0.2306070774793625,-0.0591663010418415,0.2496039718389511,-0.1951939246676862,0.3787508952945471,-0.1503624109029769,0.0252462700009346,-0.0233749691396951,0.0340214823845657,0.117750659584999,0.1154818069214466,0.1423606715593487,182
1726742253860994800,-0.9618214171290396,-0.727301882636547,0.0118412444412708,6.786614781081676,2.516369073188305,6.616655689305067,-0.0167101211845874,-0.6214625239372253,0.2910819053649902,0.756247227126103,-0.0970306083561373,-0.3914454203825565,-0.5152142092770626,0.6904830932617188,-0.1045554131269455,0.3544924259185791,-0.1277604107335209,-0.2852671404331922,0.5540829122811556,0.0338724479079246,-0.0554556101560592,-0.0026489989759546,0.136454164981842,0.1487268821230158,0.066173997126054,183
1726742253900765700,0.7007803709357977,0.370506652431935,-0.0899152487248182,6.978022903600334,2.431906244650483,6.446968984729051,-0.0213091168552637,-0.6366757750511169,0.0240509510040283,0.7538922781593445,-0.1062599189399092,-0.4000061056210694,-0.5102453179231993,-0.160857617855072,0.0268714819103479,0.2650568187236786,0.2887874235138297,0.6687564624264836,0.0549170005798339,0.0099825272336602,-0.0452005006372928,-0.0156796604102361,0.1656739860773086,0.1630482346759177,0.0570264761476311,184
1726742253940536600,0.6684288379073142,0.9050348232850433,1.1613339356482029,7.044491225764155,2.473482994402945,6.358254928487539,-0.3048831820487976,0.2618258893489837,-0.2548331022262573,0.7481362582371733,-0.1096365098118389,-0.4047209403582945,-0.5142693631945421,-1.350132703781128,-0.193596601486206,0.6035895943641663,-0.2153834568679332,1.3855121088683604,0.6312438933730125,0.0391387939453125,-0.0678645893931388,0.0917506839910522,0.2404177486896515,0.2062817386594601,0.0819666552073787,185
1726742253980307200,-0.0430266562998294,0.2892296143233775,-0.4566290847450494,6.775072227326035,2.272117103102058,6.716119103097915,-1.2245575189590454,1.5581060647964478,0.1327792108058929,0.7543126956636732,-0.1106892841116752,-0.3812100531410471,-0.522913970592614,-1.539861083030701,-0.2100457847118377,0.6822582483291626,-0.1389563430085778,1.4424860419780017,-1.2256716755241155,0.0202281847596168,-0.1001684367656707,0.0743126652889186,0.2822482287883758,0.2977926773441955,-0.1008418534060474,186
1726742254020077800,-0.4941115509212017,0.4195044920958578,-0.7380103236556053,6.366638725951313,1.892396193731576,7.214923780271411,-1.0823380947113037,1.1545649766921997,0.0953512266278266,0.7634545810701763,-0.1147996822495285,-0.3449091115729506,-0.5338499173389077,-1.842581272125244,-0.2724025249481201,1.0191650390625,-0.1092249293506145,2.854061397385597,-0.8446206865936517,-0.027661619707942,-0.0745157748460769,-0.0766413045993074,0.3726060688495636,0.2097080598463304,-0.0738439061328535,187
1726742254059848700,-2.141800432014465,-0.6225958920150995,-1.8959025944173336,6.27539018279612,1.6745483925767242,7.347499774593114,-0.0876180380582809,-0.6085400581359863,0.2189517319202423,0.7659865220961458,-0.1215077153633748,-0.3325922935690172,-0.5365472506832143,-0.8619504570960999,-0.3498397171497345,1.4571491479873655,-0.3981966233901679,0.3029436668992042,-0.4746154078125953,-0.1222891584038734,-0.0314391963183879,-0.1639042487170547,0.4158946871757507,0.1722485544206574,-0.2287614458898082,188
1726742254099619600,-3.703406189891696,-1.0543310662612315,-3.1044378417015075,6.809284293529391,1.735631222309917,6.840439894771576,1.012443780899048,-3.0619237422943115,0.4741815626621246,0.7581704685277325,-0.1350413456157809,-0.3646895368466332,-0.5233956710359269,-1.3142993450164795,-0.2389051169157028,1.798075795173645,0.2229386945530772,-0.159558693793416,-1.29250532386899,-0.2272851467132568,0.0269746240228414,-0.219415744591318,0.4778306782245636,0.0631055996984941,-0.0799294776908122,189
1726742254139389400,-6.233888544106483,-3.2164012561053035,-3.245972218504548,7.781441811233758,1.7957421382710337,5.6916492143541575,1.384512424468994,-3.535547971725464,1.5030463933944702,0.7423407116229561,-0.1595074503014568,-0.4293763086464476,-0.4890028666606774,-1.714446187019348,0.459015429019928,2.047698497772217,1.004802334591001,1.9706927547246216,-2.0791654044032097,-0.2550894021987915,0.0793250277638435,-0.1621820645669475,0.4219726622104645,0.1396479054693132,-0.1318606308602727,190
1726742254179160300,-6.954519862937927,-4.0220112440422175,-4.960034144693613,8.59349995239675,1.2698764356926082,4.550774713888764,0.2640579044818878,-3.3759255409240723,2.818329334259033,0.7352782685784044,-0.1968174278011786,-0.4787880081917117,-0.4374822506253481,-0.592580258846283,1.2990814447402954,2.7368810176849365,0.7520069925650954,3.113858580997586,-3.023116818320751,-0.2380784302949905,0.0662878304719924,-0.0280589778005611,0.370350033044815,0.1828785599086433,0.0355235072782379,191
1726742254218931200,-4.365431005975604,-4.438505302275717,-0.5841074636667967,9.200970171472427,0.0491854620573576,3.3926556486338373,-0.2902090847492218,-2.6430504322052,3.655408382415772,0.729630299019052,-0.258678548293294,-0.5100079526486389,-0.37498918617015,-0.7900155782699585,2.1480329036712646,2.831085205078125,0.5602982796646654,4.285656627514959,-3.428382211053372,-0.1679324209690094,-0.0349676012992858,0.1814070808502845,0.3760294020175934,0.1935187397307716,0.1849251719738356,192
1726742254258702000,-1.8260919760882848,-3.399504491615295,-0.0054722939312458,9.33789968482852,-1.3395182733260094,2.6794959808573124,-0.832798421382904,-1.2569795846939087,3.577594995498657,0.7322303821505017,-0.3155856445649038,-0.5136043480252637,-0.3169462477017766,-2.166287660598755,2.2316973209381104,3.516631603240967,-1.411932498282194,2.8718939911961554,-1.4290765253067017,-0.136758416891098,-0.073111392557621,0.0142654485140461,0.4192123413085937,0.0024547653202869,0.2542304711292498,193
1726742254298473000,1.0205378099918363,-3.535408169054985,1.6500490343533456,9.10723390315473,-2.847982369732857,2.2622261159457264,-1.591438055038452,-0.3271561563014984,3.85947585105896,0.7367663681387477,-0.3770672922938355,-0.4924213892671895,-0.2692893042563081,-1.9776650667190552,1.7101484537124634,3.78271746635437,-2.144926747341454,1.6896090374559165,-0.8021224380820989,-0.1183203160762786,-0.1327674835920334,0.2011107840286567,0.4631880223751068,0.1010374947091564,0.3228821469478309,194
1726742254338246700,5.701236542388797,-3.305051891721785,3.696772743226588,8.539476685786246,-4.335144881044328,2.1105131672166286,-0.9981014728546144,0.1895925551652908,3.722821712493897,0.7460263368629994,-0.4332895161460933,-0.4523869661457907,-0.2259448542166032,-2.446815490722656,1.3364654779434204,4.23615026473999,-3.05793854085505,-0.1781394756227731,-1.0797884558618067,-0.0857332944869995,-0.2846310436725616,0.2669796607282944,0.4650596976280212,0.1795812536626122,0.5024133691899478,195
1726742254378017500,11.072359671401976,-1.027588313025236,1.4669443375386295,8.019304226413368,-5.354455487328767,1.7863268058024346,-0.9653390049934388,-0.9650426506996156,2.0180296897888184,0.7455850531741941,-0.4741091135059071,-0.4291191331301635,-0.1875642338183187,-2.428191661834717,0.818896472454071,4.197470188140869,-3.5327678836792704,-0.055944590061903,-0.616809709829092,-0.0182033628225326,-0.3397006392478943,0.1735192684762179,0.4116584658622741,0.2576701449880376,0.3467279001006856,196
1726742254417788200,11.88821778936982,-2.619783270433545,4.956888832405209,7.65355543603301,-5.904771740552783,1.65140702483356,-1.071223497390747,1.7755693197250366,1.050111174583435,0.7439706600888643,-0.5004442073496564,-0.4066414478536055,-0.1752311437988673,-2.110928773880005,0.4022466540336609,4.326451301574707,-4.856553311952949,-2.330001282924413,-0.0956986544318497,0.0202306862920522,-0.3696217238903045,0.1380673308801371,0.3230313956737518,0.1804225450586527,0.2361856045411899,197
1726742254457558300,10.352054515784978,-0.8019295458585023,3.659960431396961,7.336008074241876,-6.119258540841937,2.215410442626476,-0.8636569976806641,3.2040133476257324,-0.0730296671390533,0.7560599258882951,-0.5088879736587031,-0.3578806112520911,-0.2032925276537992,-1.6030043363571167,0.0558782070875167,3.882641315460205,-4.555655471667647,-2.4848694808140395,0.1075309118490666,-0.0121688311919569,-0.218449205160141,-0.1686680473190732,0.3535407483577728,-0.187575193292275,0.3677026643944904,198
1726742254497255700,6.756778445744514,-1.1361463028997183,2.367801144486666,7.129291907954215,-6.024910278105735,3.0073312201678752,0.5992327928543091,2.326181411743164,-0.7277438640594482,0.7715097289814904,-0.4968616551827273,-0.3159070790372646,-0.2410476528773643,-1.1875240802764893,0.0353530123829841,3.018808603286743,-3.483610177278518,-3.0604888098597525,0.3873375949192792,-0.0318039953708648,-0.1035478487610817,-0.0664802820296725,0.3555175364017486,-0.1044159946989268,0.232014986059349,199
1726742254537099500,1.8935656759023665,-2.560364866781234,0.8658210032716392,7.051320779523253,-5.662370512899756,3.792996152184904,1.866448879241944,1.1493480205535889,-0.3758967220783233,0.7914493054000896,-0.4637346841545382,-0.3025907442303037,-0.2588378286493107,-1.1408495903015137,0.0709335282444953,2.202709674835205,-2.5244541799664497,-3.068618924823403,0.0703635760366916,-0.0927559956908226,-0.0818852707743644,-0.1601806433503516,0.2721010148525238,-0.1390891482085455,0.0705773923173081,200
1726742254576870400,0.833584913316369,-2.321758355236053,-0.4972942726105451,6.903427389082312,-5.319635518360138,4.496059665621817,1.86187756061554,1.094085931777954,0.1530879139900207,0.814250158746737,-0.4270624457593349,-0.2972917987726477,-0.2573556869290486,-0.8519526720046997,0.1787697225809097,1.238363265991211,-1.2800988467603922,-3.538535653425753,0.4690314702004194,-0.1358159780502319,-0.0310098938643932,-0.1684443215657956,0.1909714341163635,-0.2020819488820619,0.0940161995039321,201
1726742254616643000,0.729491501635313,-2.32818049723804,-0.3741390175849199,6.562348345056176,-5.073793210342526,5.230926138293743,1.286990523338318,1.9496034383773804,0.1069672256708145,0.8367282189287395,-0.3949298748621566,-0.2780780121782338,-0.2580481483256858,-0.4268245697021484,0.1261420845985412,0.4904379546642303,-0.6033616147130727,-3.7001726147979497,0.7756868510991335,-0.0948613137006759,-0.0287064407020807,0.0516352480959612,0.1030174940824508,-0.0079086125626781,0.1847722099018283,202
1726742254656413700,0.1721872892200946,-2.736126799617708,0.2512403676688671,6.0847594743907445,-4.792290683139861,6.014983927375078,1.3954169750213623,2.2891016006469727,0.0544708557426929,0.8578840992018968,-0.3621176011478242,-0.2493832599407802,-0.2659204493226416,-0.343428760766983,0.1172154396772384,-0.0041954829357564,0.0520405683606862,-2.999524053548276,0.7096446453928947,-0.012542669661343,-0.0215476900339126,-0.0453417602752102,0.0414341390132904,-0.0469958795912098,0.2216162685765884,203
1726742254696184800,-0.822725081127882,-1.433902045767009,-2.128730522561073,5.464782824963331,-4.406303699111938,6.847701994729042,1.5832587480545044,2.137449026107788,0.1455668956041336,0.8801359626207816,-0.3224205474232272,-0.2165856464878474,-0.2729402887648657,-0.5515334606170654,-0.0811591669917106,-0.22846320271492,0.3204898449838161,-1.959612850044668,0.3665834876388311,0.0431520231068134,0.0268439687788486,-0.0363749889914412,0.0551031082868576,-0.0856225291001144,0.3087890684591606,204
1726742254735955700,-1.082466442899406,0.8329521683707832,-5.120494171240925,4.8057490073889495,-4.12333343744427,7.488209391009807,0.6226392388343811,2.266844749450684,0.0702899992465972,0.8964703293661874,-0.2914025207341823,-0.1824613221706583,-0.2795234716142601,-0.8058339357376099,-0.0696374252438545,-0.2754413783550262,1.0402017108827828,-0.95529559555687,0.4246960693895816,0.0768603682518005,0.041930865496397,-0.1209047818182501,0.0340247005224227,-0.1502982687587384,0.0973422569204121,205
1726742254775725600,-3.8100849418908354,2.6744007035449147,-8.426323184815049,3.983814199855924,-4.267592270775139,7.879547380676865,-1.4711167812347412,2.2744898796081543,0.5083194375038147,0.904484167320199,-0.2833964078965988,-0.1339454134099402,-0.2892291135177407,-0.813886821269989,0.0199165306985378,-0.1292654424905777,0.9851946939319371,-1.050371880306676,0.2554354812711477,0.0486902743577957,0.0772798433899879,-0.1068631503890268,0.0113808745518326,-0.1592351791937835,-0.0469403271788032,206
1726742254815496400,-4.853559975355863,3.890618614286184,-8.13506586405635,3.350749520796537,-5.223141475766897,7.593527376049757,-3.9792792797088623,1.097168207168579,1.1120001077651978,0.8956776765934668,-0.3249803098258717,-0.0850037442212567,-0.2914167939469557,-0.3872896730899811,0.1134204864501953,-0.0877655446529388,0.3435281907439231,-0.9386004082784056,0.525269490250945,-0.0044871163554489,0.0041231103241443,0.0519867512476397,-0.027570592239499,-0.0716675713073462,-0.0960217123737558,207
1726742254855267300,-3.723570149259269,0.6425684204638004,-1.9647884991168976,2.605328336362541,-6.738056209617853,6.631835722780227,-4.972589015960693,1.3362902402877808,2.1584997177124023,0.8732073861473597,-0.4015119971148952,-0.0256630881832486,-0.2750243600315047,-0.0050997142679989,0.1552262008190155,-0.1241453886032104,-0.1721943034827709,-0.6808641027189791,0.3669885613083839,-2.95103527605e-05,-0.1166018396615982,0.0385447159796487,-0.0849529132246971,0.049906798601849,-0.0870616676582954,208
1726742254895038200,7.23400315927267,1.6370944218426942,4.279917207080126,1.904215518601984,-7.703402293741703,5.762112159112095,-3.742845058441162,2.6266884803771973,0.4049033224582672,0.8504061867406971,-0.4532773235118395,0.0274536901932281,-0.2656977374722346,0.229590818285942,0.1624685674905777,-0.2433727830648422,-0.2346516364395618,-0.2511826461322605,0.4248901306569576,0.0090089086443185,-0.1352357566356659,-0.0452177548696286,-0.1278133243322372,0.0282530984334414,-0.0417477863372769,209
1726742254934809000,0.0836944745138287,-2.921521653196216,2.5447575478047133,1.420911485160142,-8.23560713621378,5.130903337052464,-1.4147989749908447,0.0973313301801681,0.6233306527137756,0.8277910712328314,-0.4826774736281305,0.0736152093433432,-0.2763425820156381,0.2253060638904571,0.1569966822862625,-0.31132572889328,0.0518991140633821,0.2653653391331434,0.3695791623234749,0.0415495485067367,-0.1464540660381317,0.0508324346799403,-0.0923101231455802,0.183466588929668,0.0844829762767069,210
1726742254974580000,-1.5912280120722948,0.3257844442605972,-0.2765826064571738,1.5220952930048106,-8.499439274430275,4.64899309605658,-1.2407385110855105,-2.288980722427368,0.3188672661781311,0.8200094530403068,-0.5089041181496725,0.0631183064595775,-0.2541989009328487,0.2094200402498245,0.1003168895840644,-0.2540089786052704,-0.0851414584517478,0.692450641746819,0.242101952445507,-0.0201220717281103,-0.16628298163414,-0.2722496004878543,-0.1872105747461319,0.1583760416137986,-0.3668504680119455,211
1726742255014350800,-2.5566853014856576,-0.2173673241615295,-0.4819964579746126,1.969656689675152,-8.736048474678396,3.996534565219283,-0.8450273871421814,-4.271856784820557,0.49924236536026,0.8114183809144876,-0.5439409297717636,0.0190185008575903,-0.2129946426032025,0.2554506659507751,0.1095655113458633,-0.1005652993917465,0.0699193394005298,0.379998557268083,0.536194788891077,-0.1008696556091308,0.0068172365427017,-0.3615949221039191,-0.2036650031805038,-0.1589949772297404,-0.1048002904419321,212
1726742255054121700,-2.8103090571597216,0.1800175444543361,-0.0697206019580364,2.571188458612561,-8.757095354360342,3.587850011692941,1.3788020610809326,-6.676537036895752,0.5068153738975525,0.8136160127377744,-0.5597181259931894,-0.0615319086186751,-0.1447706901394309,0.1139987111091613,0.0298660993576049,-0.1103578731417656,-0.1450169582217931,0.5324658314958215,0.3181120099365711,-0.1064649745821952,0.0108865480870008,-0.0196438307838747,-0.1735050529241562,0.0489871767060132,0.1247293998740147,213
1726742255093891600,-3.3885356460943816,-0.2341828498840331,-0.4838540685400366,3.473379582904279,-8.476071842846274,3.501745261166989,3.5233678817749023,-8.755767822265625,0.5227526426315308,0.8225644356323895,-0.5353454892733801,-0.1867241048226039,-0.0438977597573177,-0.08381849527359,-0.0221569929271936,-0.182606041431427,-0.1287625735133886,0.6749236067540944,0.0662941346406936,-0.0968087688088417,-0.0167917199432849,0.0303452643901226,-0.1823981255292892,0.1315554739012382,0.0825262253188993,214
1726742255133662500,0.5127048999711871,-2.252071071025729,-7.25468588181734,4.776085982792079,-7.984786455261707,3.09880012807548,1.4730159044265747,-8.595064163208008,-0.7432347536087036,0.8078334347550762,-0.4726230456906584,-0.3444308725004411,0.07348383926386,-0.0527604408562183,-0.0559422820806503,-0.1543153375387191,-0.3114537210911512,0.3816983469232917,0.1811468407452106,-0.089093767106533,-0.0618336610496044,0.1053847118669189,-0.2028421312570572,0.1800966741051524,0.2120481932316906,215
1726742255173433300,9.872627323776484,1.4848621254146095,1.9559207175284623,5.719461350387334,-7.640354593676328,2.254582469324768,2.710025787353516,-2.914912223815918,-2.0805556774139404,0.7767802498082981,-0.4410677815903034,-0.4364716464063156,0.1075371853546119,-0.1465340703725814,-0.052700575441122,-0.1123055145144462,-0.2018395001620054,0.5909839253075421,-0.0956324390615336,-0.0168631598353385,-0.1231669336557388,0.113025097951712,-0.206336423754692,0.278084042262379,0.2041797431452199,216
1726742255213204200,5.285370260664821,-0.5421481443375349,-0.4445853034690022,6.62742842773199,-6.577608458030223,2.997103256142139,3.421165704727173,-0.1166054680943489,-2.8954074382781982,0.8022256727563812,-0.3623580177756368,-0.4646363344644634,0.09614353790998,0.0179083999246358,-0.0186206363141536,-0.0160595327615737,-0.3315069135606289,0.2239296052865683,-0.0037327567875385,0.0711795687675476,-0.2318487167358398,-0.05230524717886,-0.2975206077098846,0.6767023799296468,-0.1093005975358653,217
1726742255252975000,3.5295717179864643,-0.765264241284132,1.9799092036202548,7.29581050388813,-5.436165802288056,3.659183601805568,3.32916259765625,-1.220293402671814,-2.323294878005981,0.8234917342620507,-0.2827052116731524,-0.4832300901175671,0.0918029104946566,0.2267920970916748,-0.114023320376873,0.0288862381130456,-0.5984364332705736,0.0577210982151329,0.2140402255654334,0.1226290240883827,-0.3003197312355041,-0.0225758359650266,-0.3858676850795746,0.5683516030650586,-0.1708903812773525,218
1726742255292746000,1.1770137353390455,0.2308618887677788,1.7108178297013044,7.880700642365217,-4.421612911924719,3.809762870329618,1.9388115406036377,-0.929541289806366,-1.3971847295761108,0.8283210745481537,-0.2167985151087832,-0.508679224532013,0.0901565085380544,0.1361956298351287,-0.1538238376379013,0.0467276871204376,0.1493196238517761,0.2750980669878423,0.0141992103108437,0.1063613295555114,-0.1909066140651703,-0.2816438901684246,-0.3151105940341949,0.2028853924857452,-0.0431547716249478,219
1726742255332515800,-0.4418523713737726,1.11850017157197,-1.208600129213929,8.148937153020501,-3.95922044134736,3.753636201699078,0.9137510657310486,-0.8550925850868225,-0.6557526588439941,0.8263444784236637,-0.1857447788855119,-0.5235615494658145,0.0923958086893433,-0.0422476157546043,-0.1784825325012207,0.1066562011837959,0.4755032965630292,0.2663397371232509,-0.0029494951720698,0.0812988951802253,-0.0942888185381889,-0.2391593048560432,-0.1939188092947006,0.2018485237186774,0.0551223093270091,220
1726742255372286000,-2.7800819689393044,-0.6134653678372501,-1.5001859512746334,8.3882000826478,-3.6374396797701714,3.546479890428483,1.0014265775680542,-1.3998055458068848,-0.2991186678409576,0.8193497297076108,-0.1620104709736116,-0.5412323439809514,0.0973973102040436,-0.2107263803482055,-0.1976853460073471,0.1476715356111526,0.2931184384554624,0.0324905031077563,-0.2338075868308544,0.0673529878258705,-0.029300233349204,-0.1871126720807515,-0.1076303422451019,0.0866868886623065,0.221786967234686,221
1726742255412056600,-1.91963242957294,0.3277086903214454,-1.3848483842626214,8.670532338672876,-3.431641212849319,3.0357994820222256,1.2067204713821411,-2.610541343688965,-0.3059364557266235,0.80119060232035,-0.1374756268506435,-0.5712422866583367,0.1134734478826656,-0.1209333762526512,-0.1310719698667526,0.1465285718441009,0.2997013239771127,-0.2657978853315115,-0.2503396377031691,0.0948075428605079,0.0031106863170862,-0.1905289833302609,-0.0959059819579124,0.1923917449948377,0.0312002395349321,222
1726742255451827500,2.98697524535954,1.7061156433597209,-0.71295903063789,9.067530253797768,-3.056295449823141,2.146936187467724,-0.2368674874305725,-2.1425893306732178,-1.3219845294952393,0.7723189750985124,-0.1110216968104945,-0.6149885366910005,0.1139591038769532,0.2326156347990036,-0.0142771266400814,0.1623997539281845,0.158493694910407,-0.7225726621575653,0.0148877907966263,0.0847543403506279,0.0057814330793917,-0.0362946058151661,-0.1464476436376571,0.1603892993986606,0.0621772236740449,223
1726742255491598300,3.2710978919327256,3.3258842518702147,0.0116522977404296,9.25746012045741,-2.737808176833391,1.724592234162241,-2.104898452758789,0.9844845533370972,-0.5407880544662476,0.7621378565687547,-0.11342075953858,-0.6318275055127014,0.0841165020017726,0.2777921855449676,-0.0554057583212852,0.0856690257787704,-0.0198591312021017,-0.5542438019312917,-0.0780061997443437,0.1342090964317321,0.0164744798094034,0.040735051931045,-0.1011502370238304,0.3295954173834994,0.2975670153621584,224
1726742255532611300,0.6978109997361898,3.060131666985154,1.5032896163783966,9.145200353455545,-2.8630586505725977,2.082925195328146,-2.647573471069336,1.54850971698761,0.0164603702723979,0.7773853299891063,-0.1539211684605993,-0.6083655489432455,0.0432623284824009,0.0175680480897426,-0.1649569272994995,-0.0857892781496048,0.0659989510864019,-0.2704645619682967,-0.3133697838455438,0.1714298129081726,0.0160646978765726,0.0035048240749572,-0.1302371323108673,0.2039413678120821,0.0836941274539567,225
1726742255572382200,-5.454383596023917,-1.7127911756008862,3.435389459466934,9.12289850527644,-3.0263810808137057,1.945279934918136,-0.9384635090827942,-1.7678889036178589,0.1136203929781913,0.7737032371818005,-0.1807951031978595,-0.6067383772962235,0.0237676259733086,-0.2054304182529449,-0.1514600217342376,-0.1509401202201843,0.2717167539864778,-0.072368632248789,-0.2909574610292911,0.1593402028083801,0.0648151189088821,-0.1560525123033672,-0.1179351136088371,0.0298576658195583,0.1387011626711115,226
1726742255612133400,-4.091512358030677,-1.149067451532185,-1.0269130441121757,9.21645123372078,-3.176955965423584,1.0650712175928057,-0.5262390375137329,-1.41377592086792,0.2801413536071777,0.7440581557241382,-0.1953059899613714,-0.6383980351481185,0.0260975982999542,-0.0843306258320808,-0.0684050768613815,-0.0934643074870109,0.4202852672100067,-0.2068387697540223,-0.1315045656979084,0.1331522464752197,0.0983503833413124,-0.1390620501390658,-0.0328360237181186,-0.0585381913182558,0.1966830489805899,227
1726742255651903200,-0.6962234382838011,-5.755207202029228,-0.9226526053011416,9.21434403230846,-3.228885182364285,0.9168170310154556,0.4749519526958465,0.0042787459678947,0.2832375764846802,0.738908091281172,-0.19880739281962,-0.6432192181130247,0.027559704870737,0.0339028127491474,0.0428599826991558,-0.0519640035927295,0.2893623007923364,-0.1370943485289812,-0.0790682942842133,0.1424459367990493,0.1106602996587753,-0.0021578361918363,0.0174406990408897,-0.0251510476147406,0.1742484230009839,228
1726742255691672300,-1.3358137197196482,-1.8121859080716969,0.835250873767212,9.08449833973348,-3.610680852182209,0.7779919862363487,0.0615798830986022,0.3037912845611572,1.8998361825942995,0.7328752666827512,-0.2065720694878521,-0.6462673027101344,0.0506012385155836,0.1496872007846832,0.014624030329287,-0.0946092009544372,-0.1369534787535667,-0.0864668618366122,-0.0258271362284198,0.2131443917751312,0.0494822189211845,0.1752170671037398,-0.0160820875316858,0.0341663159490446,0.0244708604979678,229
1726742255731442400,3.884002995538711,-0.0422977575033903,-1.3647557365655898,8.676727101659774,-4.449823107364773,1.041089307372272,-1.7052464485168457,1.5481107234954834,2.201645851135254,0.7407398662403715,-0.250888784188118,-0.6196563854188676,0.0662214067961281,0.1539527773857116,0.0668859034776687,-0.1084060445427894,0.2277963637173175,0.1279512571305036,-0.0312626052806153,0.1594177335500717,0.0692665129899978,0.0383047423444688,-0.0536359325051307,-0.0628552188337314,-0.0928137831779196,230
1726742255771212300,1.415450151014328,-0.7852396923422813,0.998496074053645,8.199663716173172,-5.290346295511722,0.9737277626957744,-1.175114631652832,-0.3277106583118438,2.328859329223633,0.7372039413102077,-0.3019963761384908,-0.599292824797724,0.0785920978593989,0.1368973702192306,0.0340248420834541,-0.0700632482767105,0.1151321075677871,0.1594413510240614,0.0791553697794675,0.0602518543601036,0.0955982655286789,0.0343966746557969,0.0205403640866279,-0.0959091736436821,-0.0186810661493451,231
1726742255810982400,1.4899012886255978,-0.1124058974742889,1.123420092317462,7.786283406046032,-5.936694234514236,0.5475830654004589,-0.7896800637245178,-0.8397113680839539,1.5747720003128052,0.7200064763854725,-0.3394898437328553,-0.5973505495914572,0.0975177466233962,0.0454790405929088,0.0612178444862365,-0.0430948100984096,0.4162660946965217,0.2223135483920574,0.0440191744685173,-0.0219348445534706,0.1096867024898529,-0.045513833473064,0.0448782630264759,-0.1655160312952473,-0.0539296974423807,232
1726742255850752500,-1.1377999153256415,1.469939866092801,-0.4792828151017427,7.328157360741495,-6.516168193161487,0.0896263487808406,0.4546328783035278,-1.362305760383606,2.37516188621521,0.6977414828554606,-0.3608352241483184,-0.6043411859211727,0.1331407304424997,0.0168796200305223,0.0764660388231277,-0.0115021979436278,0.3834983820825815,-0.0172752521887421,0.1179413015033118,-0.0488621145486831,0.0950356796383857,0.1430817249760497,0.042365375906229,-0.0590303861488355,0.1148376820653211,233
1726742255890522400,-1.1246411585450171,0.8856634755998849,-1.9906874950051308,6.533292346441745,-7.3117007314592595,0.1597217936669476,-0.4615527391433716,1.0700825452804563,3.792397737503052,0.6910609578406386,-0.3923570495559101,-0.5813023311480972,0.174866572861662,0.0228826515376567,0.118297055363655,-0.0273376870900392,0.1551893926680088,-0.175567871569097,0.1318535252660513,-0.0220791194587945,0.1108951941132545,-0.0239476951403892,0.0272338893264532,-0.0880801513853017,0.1970025815248489,234
1726742255930292500,-1.5392209075897931,-0.5329407555311918,0.939418446663022,4.986272747799754,-8.442772215312718,0.1646080678711645,-0.8983079195022583,1.702473759651184,4.490304470062256,0.6787693511530647,-0.4655455670295988,-0.524284892879439,0.2183231161258658,0.1079914197325706,0.0897421091794967,-0.1044565066695213,0.0624964959233999,-0.3610682313486933,0.0651262599050998,-0.0091819297522306,0.0721042081713676,0.066512097373465,-0.0001751400995999,0.0204183725200593,0.0274564887126325,235
