time_imu,phone_acc_x,phone_acc_y,phone_acc_z,phone_gravity_x,phone_gravity_y,phone_gravity_z,phone_gyro_x,phone_gyro_y,phone_gyro_z,phone_ori_w,phone_ori_x,phone_ori_y,phone_ori_z,watch_gyro_x,watch_gyro_y,watch_gyro_z,watch_acc_x,watch_acc_y,watch_acc_z,headphone_gyro_x,headphone_gyro_y,headphone_gyro_z,headphone_acc_x,headphone_acc_y,headphone_acc_z,frame_imu
1733298511216484900,-2.117151436187327,15.911340501785276,0.397386037659645,-0.5360728430118411,9.790863232803344,0.1483423306516837,-0.6587631702423096,0.05822129920125,-0.1892380565404892,0.5384824381770617,0.5547240099786502,-0.4297882256929525,-0.4664761504282,-0.0136057855561375,0.0123821943998336,-0.6942031979560852,-0.0098270773887634,0.0617240071296691,-0.0545491278171539,0.2248860746622085,-0.0001651607453823,-0.2873679121047258,0.2296909987926483,-0.1366816760748624,0.4190753799635917,0
1733298511256484900,4.621817504361272,11.913012038886546,-1.118123739475012,-0.7028084426973015,9.773816820934414,0.385947090408951,-0.6570438742637634,0.0957652330398559,-0.8333670496940613,0.5418165405408193,0.5523430234026434,-0.4186160040458816,-0.4755130829541174,0.1103451922535896,0.022985091432929,-0.7095821499824524,0.0232934951782226,0.0209150910377502,-0.0541911721229553,0.1780230849981308,0.0272857528179883,-0.2779500954180955,0.1483616828918457,-0.0885612037673592,0.3092554803945124,1
1733298511296484600,5.799886886233091,1.5212152952998876,-0.6377857892971486,-1.2196296919461338,9.712978613612057,0.5839165076719597,-0.1808994710445404,-0.5932785868644714,-1.7565686702728271,0.5322504895926533,0.5558160759471731,-0.4016180188142209,-0.49646854297232,0.2330532521009445,0.0171105843037366,-0.6994507312774658,0.0228841304779052,-0.0063844621181488,-0.0558713674545288,0.1229893118143081,0.0418368726968765,-0.2427648002684116,0.0955190956592559,-0.1202227087050676,0.3171877346985042,2
1733298511336484900,2.778601082731784,-9.484697096726295,-0.7842097647726536,-1.881374156718701,9.602910803696512,0.6441487484578042,-0.0537660010159015,-0.3974476754665375,-1.605617642402649,0.5103455315674572,0.5628957297525115,-0.3876931141893441,-0.5219098723797766,0.3266798853874206,0.0084329396486282,-0.6589545607566833,0.002675175666809,-0.0483625829219818,-0.0573006123304367,0.0679555386304855,0.0563879944384098,-0.2073813521981239,0.0426765121519565,-0.1520975641325116,0.3250973387792706,3
1733298511376484900,1.920439362041652,-15.74315251133442,-0.8039139976739883,-2.3519943574152884,9.49234088947773,0.7307410633049904,-0.3063108026981354,-0.1722631603479385,-0.9904229640960692,0.4974720695776862,0.5682885609042394,-0.3738859245227278,-0.5383112872181863,0.2624391317367553,-0.0150067126378417,-0.5669400691986084,0.0090388655662536,-0.0860614776611328,-0.0346994996070861,0.0533498339354991,0.061465922743082,-0.0752425802499055,0.0301025193184614,-0.2457384092517197,0.3996531058087945,4
1733298511533314000,1.6177984774813057,-0.0391004227668046,-0.6827361802011728,-1.492252527926862,9.687433837988973,0.3117844508828595,0.2917003035545349,0.454743355512619,1.3794386386871338,0.5123274983265735,0.5647460675574432,-0.4064053359165187,-0.5034055992619673,0.0013292219955474,0.028851555660367,0.1118540912866592,0.0029968619346618,-0.1230496168136596,-0.0171124786138534,0.0118675138801336,-0.1741168349981308,-0.1820901494773104,-0.2323294878005981,-0.0891316697322297,0.2401583258307539,5
1733298511573314000,1.6009366283990445,5.108280001834035,-0.3955617448419332,-1.065383644542843,9.746993695938588,0.1773901185601949,0.4798851013183594,0.1321497410535812,0.9210614562034608,0.5228066797855527,0.5622017363808338,-0.4181923344349457,-0.4855075623098684,-0.0879979953169822,0.0471214801073074,0.238869234919548,0.0126600265502929,-0.0818960070610046,-0.0234959721565246,0.0081896455958485,-0.1163080930709838,-0.2212871279537677,-0.2441229373216629,-0.0825705850504338,0.3306350991621613,6
1733298511613313800,-0.5324922811113297,7.225917467972636,0.3124129215121269,-0.7282044574994594,9.779498373702168,-0.0388750667454442,0.5607095956802368,0.0430501997470855,0.824571967124939,0.5250464139018505,0.5608302645316164,-0.4329566851005351,-0.4715338440674079,-0.0798247531056404,0.0498772636055946,0.2954542636871338,-0.0015978813171386,-0.0617103278636932,-0.0205638706684112,0.0048325173556804,-0.0582945384085178,-0.1883224314630031,-0.2597823739051819,0.0252127671897411,0.2976029634583741,7
1733298511771665000,1.1060914294410495,0.1987187377929687,-0.3455612309414893,-0.0897529982346575,9.788096106177568,-0.5962575913941487,0.277259349822998,-0.1072250604629516,-0.0111188311129808,0.5232637818669501,0.5603962676910622,-0.4651415906239464,-0.4424866677524684,0.1086865738034248,0.0455841422080993,0.4215672016143799,-0.0139601230621337,0.0261162221431732,-0.0262284129858016,-0.1203377991914749,0.0620709508657455,0.0284467464255751,-0.2200440913438797,-0.1166011298075783,0.4988162214808165,8
1733298511811665000,-0.3073843162277713,0.1356879888623952,-0.4739841241717338,-0.1145939090378582,9.784536952391266,-0.6481479741618037,0.0018977941945195,0.1092682406306266,0.0023856030311435,0.5211902161050285,0.5623461871749879,-0.4656319528156769,-0.4419439257516461,-0.1172746568918228,-0.0025163278914988,0.3031021356582641,-0.0088031888008117,0.0197315216064453,-0.0213306993246078,-0.0850022137165069,0.0561114326119422,0.0475356581568717,-0.1726304441690445,-0.1218975100494921,0.321762056876719,9
1733298511970286300,4.205594079762697,10.0955043512702,-2.958518966203928,-0.3970178254017606,9.798067465093732,-0.1032156881316099,-0.8794295787811279,-0.1659180521965026,-0.8238367438316345,0.5283869981911616,0.5525356061705918,-0.4471766313727807,-0.4642679884448297,0.0240603685379028,0.0382518209517002,-0.1089759543538093,-0.0134017467498779,0.0405946969985961,-0.0030216574668884,-0.0331063345074653,-0.1197269260883331,-0.0590318931193323,-0.0948416516184806,-0.1018179227634333,0.0851049258336424,10
1733298512010286600,5.44482958573699,0.5211076943963766,-2.9206320108801123,-0.8748971669137477,9.762886261597275,0.301674797740858,-1.2569351196289062,-0.2491988092660904,-1.6239951848983765,0.5268937641675304,0.551091531876036,-0.4253433780461881,-0.4876106755763739,0.0270676091313362,0.0510737188160419,-0.1652655303478241,-0.002345323562622,0.0254315733909606,-0.0002255737781524,-0.0312542282044887,-0.0841093957424163,-0.0153121354222297,-0.0579129382967948,-0.0318500132471323,0.0363940864175558,11
1733298512050286600,3.577390869259834,-9.298121216669678,0.3370551953375339,-1.5848166837252675,9.642437342920898,0.8259279688224196,-1.13366436958313,-0.2473970651626587,-1.9732574224472048,0.5199266752515336,0.5492153456759195,-0.3952871055573657,-0.521331893476987,0.0249184370040893,0.039209920912981,-0.1937254667282104,-0.0054983496665954,0.0074449777603149,-0.0097040235996246,-0.0364247485995292,-0.0709257125854492,-0.0102636198610067,-0.0473116487264633,0.0482572504296898,0.0764189670855179,12
1733298512208637400,-1.030102780064195,-9.45739174117148,0.3378792981367558,-2.134432679725438,9.528169158706069,0.9102480278886854,0.8314562439918518,0.0689380094408989,1.5630462169647217,0.4993785012941697,0.5525331366181734,-0.3850940149059074,-0.5450052400087453,0.1128317788243293,0.0758123472332954,-0.1111198738217353,-0.0036869049072265,-0.0223519206047058,0.0013259649276733,-0.0206207334995269,-0.0436740517616272,-0.1831005320962518,-0.1498380750417709,0.2181206450131721,0.0207945671549998,13
1733298512407264000,2.107415639592707,4.557389748114347,-1.0277263332564384,0.2263321546499617,9.792259071075916,-0.4804710019730031,0.2016009986400604,0.084120288491249,0.3350594341754913,0.5215240471902882,0.5366390990363282,-0.486328778339485,-0.4511270693589125,0.0867237523198127,0.0412448942661285,0.0482528768479824,-0.0080655217170715,0.0004857182502746,0.0056155025959014,-0.0893754437565803,0.0395955108106136,0.1248801608557812,-0.0534175597131252,-0.1350426584298722,-0.0684749721113825,14
1733298512447264000,1.1040968215577305,2.3331366583406923,0.3894984262149781,0.2852879822918214,9.78870751607418,-0.5198324868287891,0.1338232457637787,0.0946532189846038,0.0644879639148712,0.522595631034886,0.5370866383531625,-0.4878955050403193,-0.4476492310622812,0.0887629315257072,0.0504222027957439,0.0631118565797805,-0.0038200616836547,-0.0031910240650177,0.0174383223056793,-0.0811972692608833,-0.0098570361733436,0.2837012062907219,-0.0227181240916252,-0.0474905038408935,-0.117547680809535,15
1733298512487006000,0.6138731449205428,0.7094996839642524,-0.0424795438110828,0.291434321293421,9.78443583010435,-0.5918345507875085,0.171390563249588,0.0176302045583724,-0.0390921384096145,0.5211079321613775,0.5392379299297351,-0.4892827604449623,-0.4452767494042947,0.0114324558526277,0.0312722064554691,0.0879251211881637,-0.0118862390518188,-0.0027395188808441,0.0137466788291931,-0.050373051315546,-0.0677718445658683,0.0636711017938796,0.0271189473569393,0.073755958421342,-0.0454111037509515,16
1733298512645949200,2.192609705014527,11.806427979433536,-2.394212181550264,0.2387017703468911,9.803038239243628,-0.1177540992349851,-1.3854656219482422,0.3457951843738556,-0.5714653730392456,0.5342541359699241,0.5292965500552591,-0.4752356785133169,-0.4566933667114694,0.1115667819976806,0.0498788617551326,-0.0256840661168098,-0.0013849735260009,0.0177911818027496,-0.0010352581739425,0.0417869016528129,-0.0326484628021717,-0.1062709931821562,0.006718710064888,0.2283030711304396,-0.0225765004020184,17
1733298512804892200,0.1948901194155216,-16.431845554113387,1.4895378621406852,-2.040370978845656,9.507665884381533,1.2694802759818733,0.1846809685230255,-0.1715089380741119,-0.9738681316375732,0.5097094786788274,0.5392527229824156,-0.380106589427378,-0.5521973086591755,0.0884571969509124,-0.0046625691466033,-0.0580483302474021,0.0026920437812805,-0.0062507688999176,0.0104455649852752,-0.1397168338298797,0.0470585823059082,0.0651015592886833,-0.0918429866433143,0.035521746862703,-0.0772294980171136,18
1733298512844892000,-1.291735216279328,-16.151628098285197,0.4350518975786864,-2.193324136894196,9.499937335956096,1.0539919704999774,0.747626781463623,0.1831110566854477,0.2277178168296814,0.4985131879722031,0.547627895761726,-0.3825768602439615,-0.5524700706809093,0.0204344727098941,-0.0018352509941905,-0.0750370994210243,0.0002568960189819,-0.0207744538784027,0.0161198079586029,-0.0690959319472312,0.0220612026751041,0.0748088650077581,-0.0457445681095123,0.0896118818640708,-0.0401595946972258,19
1733298512884892000,-0.4080487398408353,-11.147767671346664,-0.3459785795707255,-1.954129888588935,9.57402723903954,0.830505286675319,0.2479325234889984,0.8917611837387085,1.0365970134735107,0.5051784429335974,0.5531291227513597,-0.3894922208130968,-0.5358531266304473,0.043813832104206,-0.0041435193270444,-0.0561265237629413,0.0035765171051025,-0.0114239156246185,0.0158684253692626,0.0015249699354171,-0.002936178818345,0.0845639508247375,0.00035385414958,0.1436487386085093,-0.0030973449608311,20
1733298512924892200,1.1055286079265176,-3.059804919248819,0.3564162408243864,-1.5125428901530802,9.66735258846879,0.6518417141132057,0.4780823886394501,0.6075459718704224,1.248300313949585,0.520167419325497,0.5549391172660066,-0.3985070878728651,-0.5125041950150624,0.0223237201571464,0.008620798587799,-0.0349117182195186,-0.0070475935935974,-0.0221312344074249,0.0182251334190368,-0.0594119653105735,-0.0107635632157325,-0.0373082786530256,-0.0581734739243984,0.2058929402712732,-0.0001440298468805,21
1733298512964892200,-0.2317249353379011,4.364931824281811,-0.3162614136338234,-1.0942140177078543,9.737814364182949,0.3847951073622331,0.7807260751724243,0.0815877541899681,1.0455236434936523,0.5273230644559289,0.556619217866049,-0.4129842070448802,-0.4914768993617742,0.0423727966845035,0.0170885324478149,-0.0121275093406438,0.0046199560165405,-0.0167475640773773,0.0207541584968566,-0.1203489005565643,-0.01859094761312,-0.1590881536722183,-0.1167007982730865,0.2680597658488899,0.0027551256607286,22
1733298513122772200,1.8655211924180388,2.8327544054627416,-1.324189917421341,0.085752850082051,9.789925659692289,-0.5660322932720184,-0.2008606791496276,-0.0051915906369686,0.176929086446762,0.5260532992495034,0.5532327584979788,-0.4720096718933254,-0.4409176117732787,-0.0265729837119579,-0.01079529710114,-0.0231339540332555,-0.0068089365959167,-0.0138483643531799,0.0155277401208877,-0.123596467077732,-0.1331026703119278,0.4776236131852492,-0.0733979344367981,-0.2384431742096319,-0.0811369811838958,23
1733298513162772200,0.5207334542565047,1.2273071677714589,-0.7774842559099197,0.112382891058037,9.794849087569116,-0.4676499892467632,-0.3036767840385437,-0.1427177786827087,0.0429523959755897,0.5284908317857065,0.5489479539867166,-0.4716986928393162,-0.443682319805369,-0.055771879851818,-0.0012864269083365,-0.027567783370614,-0.0033074021339416,-0.0119614601135253,0.0160184502601623,-0.1070976853370666,-0.1285935640335083,0.2209796694397926,-0.0686535984277725,-0.0953918535050004,-0.0569319571314379,24
1733298513202772200,1.1340034456521273,-0.2803033805459737,1.2864333104789256,0.087787936106231,9.798601133579016,-0.3874100391009822,0.1019971966743469,0.5936055183410645,-0.3070522248744964,0.5320461916722239,0.5493359649188805,-0.4668858661070648,-0.4440432151839028,-0.0237969048321247,0.0102633303031325,0.0151888011023402,0.0010808706283569,-0.0097143948078155,0.0136127471923828,-0.0750088915228843,-0.0865558832883834,0.128021399757266,-0.1026187390089035,-0.0075628364697098,-0.0288434518422931,25
1733298513242772200,-0.2867923772390932,0.1565647726744413,0.2140729587912559,0.0337550614171661,9.799722831085324,-0.367003137823008,-0.1124320402741432,-0.0719345659017562,-0.022671652957797,0.5322018883839947,0.550911331723442,-0.4639058712192206,-0.4450272438354622,-0.0364021770656108,0.0304249506443738,0.0401798374950885,-0.0102098584175109,-0.0066341757774353,0.0038435012102127,-0.0429201014339923,-0.0445182025432586,0.0352805722177028,-0.1365838646888733,0.0801761641945689,-0.0008300941485911,26
1733298513282772000,0.8584746590968221,-0.3095119393736124,0.0808452590951696,0.0433912335622124,9.799527600774168,-0.3711418085303157,0.0070113344117999,-0.0259180609136819,0.0047685820609331,0.5319738305897665,0.5504506090237218,-0.4646795588671952,-0.4450626882472091,-0.0312750600278377,0.0281704775989055,0.0547776222229003,-0.0066167116165161,0.0006027519702911,-0.0107735693454742,-0.0070761516690254,-0.023578843101859,-0.0421843602567911,-0.093315303325653,0.0739532710917294,0.0873392972895875,27
1733298513322772200,0.7705949347876012,-0.1231008944898843,-0.8488064478456974,-0.0114833320984034,9.802409293690324,-0.2881396453958936,-0.412080317735672,0.2602898776531219,-0.2761260867118835,0.5342190024864341,0.5506920371128267,-0.4598144337690493,-0.4471230353195344,0.0118875904008746,0.02373125590384,0.030772952362895,-0.0006548762321472,0.0129027962684631,-0.0121444463729858,-0.0235573407262563,-0.0137483887374401,-0.043590719923377,-0.073738969862461,0.0713883159745484,0.0066507631260901,28
1733298513362772200,0.0894992426692973,0.6713567080527544,1.0514835678756236,-0.0894992152698338,9.804472655960916,-0.1862787054746411,-0.0440477542579174,0.7112855315208435,-0.156659185886383,0.5389799417923918,0.5534546504498276,-0.4507610463397812,-0.4472170436086237,0.0104473531246185,0.0126475514844059,0.0186292715370655,-0.0078617334365844,0.0046494305133819,-0.0188560187816619,-0.0400385335087776,-0.0039179353043437,-0.0449795439332723,-0.0541626401245594,0.0688181732255965,-0.0740412416361272,29
1733298513402772200,0.6912143048848957,0.3293810074478387,-0.1953308489203453,-0.1553620092885568,9.803030055937173,-0.2164724211484193,0.1400428563356399,0.859046220779419,-0.263336181640625,0.5437729844085689,0.5629639243353305,-0.440577622753899,-0.4396293541448019,-0.0189954899251461,0.0100657232105731,0.0017693309346213,-0.0202693939208984,0.0107332468032836,-0.0067084282636642,-0.0357100591063499,-0.008928757160902,-0.1059475151151418,-0.0788927152752876,0.0390277959220111,0.0427286962665617,30
1733298513442772200,0.1381661972778849,0.3131745535343885,-0.7833738984704017,-0.2439601475328207,9.80023311869502,-0.2575048896900378,-0.0458825416862964,1.3799892663955688,-0.0865615308284759,0.549724678168139,0.5751581043640213,-0.4269920962172162,-0.4297367917254172,0.0058771017938852,0.0022300644777715,-0.013315612450242,-0.0216854810714721,0.0157566964626312,-0.0044130980968475,-0.0313815809786319,-0.0139395780861377,-0.1667950747877359,-0.1036227941513061,0.0091777243204414,0.1594712347056716,31
1733298513482772200,-0.001354775609821,-0.0453074607133865,-0.1876396916295401,-0.2217548915959894,9.802127554139494,-0.1987246926097199,-0.2026878297328949,1.4371392726898191,0.0852482169866561,0.5646454593646322,0.5856040024003013,-0.408901078724645,-0.4135738304095618,-0.0125509072095155,0.0098466519266366,-0.0409742072224617,-0.0012090802192687,0.0097705423831939,0.0153167247772216,-0.0511286929249763,-0.0224662721157073,-0.0853700065106153,-0.1144346967339515,0.0199777160804718,0.1028838166955858,32
1733298513522772000,-0.6308896731078625,-0.301782221904397,0.9049147040367126,-0.1466273708268068,9.804218973460792,-0.1618150030865333,-0.0047047091647982,1.31141996383667,0.2468319237232208,0.5781400342190884,0.593727391555884,-0.3946366092528037,-0.3968675545850461,0.0208432674407959,0.0277782473713159,-0.0660814866423606,-0.0090510249137878,0.0053055584430694,0.0126468241214752,-0.0620852075517177,-0.0350228585302829,-0.0829986012041568,-0.1033527925610542,0.0029824498768895,0.0896972220599651,33
1733298513562772200,-0.188579895089101,-0.2272258703529834,-0.0208674497281201,-0.0183691906135121,9.80508055872619,-0.1745592425158247,0.0184234138578176,1.450627088546753,0.3429212868213653,0.5907679232204505,0.6020966437646464,-0.3825959701177037,-0.3769527651676951,-0.0209891349077224,0.0457552783191204,-0.0798972323536872,-0.0093679428100585,-0.0063191950321197,0.0156648159027099,-0.0730417221784591,-0.0475794449448585,-0.0804606071591377,-0.0922708958387374,-0.0141156191140413,0.0764467684078961,34
1733298513602772200,-0.3830485559558496,-0.164705993553996,0.0046621648584492,0.1527563111690338,9.80361165521741,-0.1903629060483537,0.0566940382122993,1.7678790092468262,0.4879144728183746,0.6052542419437653,0.6114517511437911,-0.3685546946811085,-0.3520815625317676,0.0220052041113376,0.0454446449875831,-0.0775287523865699,0.0026426911354064,-0.0146195590496063,0.0081253051757812,-0.0587041676044464,-0.0537260584533214,-0.0756020612120628,-0.0664383694529533,-0.0163577720176428,0.0690584117222577,35
1733298513758545000,0.4770712765321135,0.1809445961713791,0.5845779672553763,0.9950633961912244,9.750056006118657,-0.3415668275430798,0.3363063037395477,1.3290854692459106,0.3176987469196319,0.6554148095146085,0.650941255141645,-0.3060891126057498,-0.2302530712461817,-0.1788743734359741,0.0018960506422445,0.0700437948107719,-0.0102549791336059,-0.0296400785446167,-0.0107297748327255,-0.1758081316947937,-0.115440547466278,0.0261454746127245,-0.1057045310735702,0.0928679701837245,0.027939735335065,36
1733298513798545000,0.2097258694976568,0.2603214997470379,0.2337176069924607,1.1153150387298316,9.73322528282702,-0.4367756526313722,0.4620664417743683,1.228208065032959,0.2614122331142425,0.6590324348175197,0.6597893589543701,-0.2948683810743339,-0.2083431380703706,-0.1367309242486953,0.0052258009091019,0.0384119637310504,0.0061634182929992,-0.0052175819873809,0.0046700835227966,-0.1220706701278686,-0.1129085719585418,-0.0236012403398752,-0.0972650498151779,0.0783002507874742,0.1315608259297907,37
1733298513838545000,0.2732731896482407,-0.0308458046406507,-0.6164052206814289,1.2424062449648976,9.712548405501249,-0.5414902284180745,0.2943279147148132,1.636910080909729,0.2446745038032531,0.6622337744314555,0.6695443620220182,-0.2816356976253153,-0.1839513422736522,-0.0110637983307242,0.0401837304234504,0.0342040993273258,-0.0158233642578125,0.0154969096183776,-0.0058274865150451,-0.0683332085609436,-0.1103765964508056,-0.0720943453520536,-0.0888255685567855,0.0633217677664011,0.2344114710081368,38
1733298513996956400,-0.9068350045748056,-0.1731780538231134,-1.40606506755352,1.743159425857663,9.646585110250117,0.2742064701766706,-1.165389060974121,2.117973566055298,0.1369433104991912,0.7128259226004607,0.6688812696508318,-0.1965126149724798,-0.0765500387368949,-0.0979627445340156,-0.015156808309257,-0.0152836218476295,-0.008941113948822,0.020641952753067,-0.0115470737218856,0.0403898768126964,-0.0153182363137602,-0.0259210684394347,-0.1036416217684745,0.2311604515892453,-0.0022205341560154,39
1733298514036956400,-1.5525423075862228,-0.7945569712638855,-1.7060791107416151,1.7714619757562875,9.598934301280975,0.9448726934809236,-1.632847547531128,2.2612104415893555,0.3259644508361816,0.7386260030010295,0.6510310335659288,-0.16728267680897,-0.0510573403199921,-0.0494066588580608,-0.0012448814231902,-0.04535523802042,-0.0036462545394897,0.0131439566612243,0.0046392679214477,0.0276640821248292,-0.0417504534125328,-0.0436339745432138,-0.134075790643692,0.1746271201202645,-0.0656900312677025,40
1733298514076956200,-1.768229715836793,-0.4348053754717111,-1.208497107230872,1.8316762059614065,9.463939555379747,1.8025583941571413,-1.822678565979004,3.476853370666504,0.8221817016601562,0.7692823452547431,0.6254735689293113,-0.1299150315773616,-0.010475016519606,-0.0064320284873247,0.0063358065672218,-0.0300841405987739,0.0011813640594482,0.0023038983345031,0.0086682885885238,0.0090407151728868,-0.045525312423706,-0.0900625482410192,-0.1352872997522354,0.1159618820559699,-0.1016487950079143,41
1733298514314842600,0.1306849198780953,-0.1284966160535812,0.5154004226654768,0.9181250448741018,8.446102236518263,4.898038876290619,0.2072269469499588,1.6468342542648315,0.0553268939256668,0.8349361883670231,0.4938934613053967,0.0796163519923963,0.2293731997852277,-0.1450844556093216,0.0389981418848037,0.0010890264529734,-0.0017279982566833,-0.0247566401958465,0.0186202973127365,-0.3360588550567627,-0.0649263933300972,-0.0971720971184317,-0.1160682737827301,0.3285597541928291,-0.0590484560950659,42
1733298514354578700,-0.6344747650530189,0.0653711745768785,0.1420516786754131,0.6823587982561439,8.421775019991397,4.977799518486857,-0.3053130209445953,1.2256197929382324,0.0838217362761497,0.8335392183344641,0.4860266870286069,0.0999046045910393,0.2429188056381164,-0.1775079071521759,0.0771382823586463,0.065303698182106,-0.0009698271751403,-0.0187310576438903,0.0036910772323608,-0.3387564122676849,-0.0713815689086914,0.0219263476639054,-0.1709704995155334,0.3899480331460013,-0.2629362305563874,43
1733298514394578700,0.0196371224818751,0.1667564963430166,-0.0208978266000747,0.4090745392246172,8.351513735285401,5.123988443097472,-0.3709196150302887,1.4941041469573977,0.0129369245842099,0.8331554961277433,0.4731262444378843,0.1220689895510772,0.259041743706824,-0.1120476722717285,0.0722383856773376,0.1151749193668365,-0.0075321197509765,0.017757773399353,-0.0268146395683288,-0.3471983671188354,-0.0556987524032592,0.0261713830888271,-0.1199884563684463,0.3014789463751949,-0.1399769182279706,44
1733298514434578700,0.1445664105758536,-0.6058575231820345,1.458345289888978,0.0969485357619356,8.280770804542303,5.25260254805088,-0.2328313142061233,1.5218639373779297,-0.0543484762310981,0.8327066851367619,0.4596441661380684,0.1446342151116856,0.2727781328387973,0.0067287813872098,0.0206590853631496,0.1065202429890632,-0.0019007325172424,0.0470105707645416,-0.0333707332611084,-0.3556403219699859,-0.0400159396231174,0.030944004318118,-0.0690064132213592,0.2119776670124381,-0.0177237266086041,45
1733298514474579000,-0.2514574992845766,-0.5507680886447429,2.126955329582095,-0.1869807527967728,8.255009171298147,5.290580688789486,0.1706527322530746,1.178581714630127,-0.0352089293301105,0.8309152484730032,0.4508476224840216,0.1642920294022851,0.2816459063608388,0.0396454520523548,0.0154222454875707,0.0627658441662788,-0.0115631222724914,0.0169975459575653,-0.0180965811014175,-0.3561742305755615,-0.0256538428366184,0.0180985512703657,-0.0684589296579361,0.1995255971964448,0.0397412048883736,46
1733298514514579000,0.6753725926306098,0.3606581892430782,-0.9023825552105904,-0.3988423739477992,8.346604335933923,5.132787251102924,0.4500808119773865,0.2557984590530395,-0.1787920892238617,0.8237330292346972,0.452517394004672,0.1831084031096918,0.2883803795219428,-0.0512833893299102,0.0210361368954181,0.0088016744703054,0.0037872791290283,0.0042698979377746,0.0112757682800292,-0.3567081391811371,-0.0112917432561516,0.0053659109473228,-0.0679114460945129,0.1866053436131216,0.0967057856477797,47
1733298514554578700,-0.693469244204834,-0.1157820959091186,-2.198234266898036,-0.473255334973149,8.345850302696228,5.127689635702968,-0.4639913737773895,0.2478015124797821,0.029338052496314,0.8237984395142087,0.4512500926050972,0.1869062293368932,0.2877423321124893,0.0710281431674957,0.0639576688408851,-0.0021403227001428,-0.0064985752105712,0.0118070244789123,0.0137490630149841,-0.3470692038536072,0.0117939757183194,-0.1047509988069534,-0.0311394929885864,0.0854101923905313,0.0580890547446906,48
1733298514712534500,0.3201111478645354,2.028457545951009,1.6190777036368846,-0.4407190564949065,8.115625250527263,5.487511374121904,-0.4396857619285583,0.0049033793620765,0.0882574170827865,0.8266099094837877,0.4296769292046984,0.188659824101514,0.310646563613248,-0.0356024280190467,0.0247499141842126,-0.0123918950557708,0.0227805972099304,0.011744737625122,0.007271409034729,-0.3032472133636474,-0.0866957381367683,0.1385945787577889,0.1571776419878006,0.0847841146477498,-0.1850052880053408,49
1733298514752534300,0.790672092654556,2.6707325364261862,1.1393231793701648,-0.4496478840881958,8.013691062706709,5.634620920708775,-0.497649997472763,0.4613256454467773,0.151087075471878,0.8288428321794671,0.4209292527344038,0.1885015896934623,0.3167100613721351,-0.033158179372549,0.0383561626076698,-0.0276474803686141,0.0261151790618896,0.0166864097118377,-0.00893235206604,-0.1868720054626464,0.0508037582039833,0.0320177710294723,0.1938198804855346,0.1872813614448532,-0.0289940392941236,50
1733298514792534300,0.1937088737417012,3.0426702445745466,0.4153495643734932,-0.5938398992605507,7.954197255730628,5.70512770460844,-0.0044013764709234,0.323537677526474,-0.6304919719696045,0.8304332578980708,0.4136509197401911,0.1949675578861128,0.3182155031911458,0.0917659103870391,0.0234932210296392,-0.0120540056377649,0.0060794949531555,0.0169698596000671,-0.0335812717676162,0.0200725644826889,0.1866759359836578,-0.0114922848731279,0.2495271861553192,0.2078960054556839,0.189257081964612,51
1733298514832534300,-0.6093124859414994,2.287151152235269,-2.030093622720241,-0.8116461993612348,7.850646864885091,5.820563179036975,-0.9797712564468384,0.0794853195548057,-0.1102519035339355,0.8360359525077032,0.4037562037574167,0.2005362512955907,0.3127458437066175,0.0943569019436836,0.004037391860038,0.0199933424592018,0.0001550316810607,0.0007770955562591,-0.0339457988739013,0.1527949571609497,0.2285934090614318,-0.0520493361890316,0.2444828897714615,0.1372706549439579,0.1914718354046344,52
1733298514872534300,-0.0063097676686942,0.0197924957066774,-1.4521476042926311,-0.7064142121043055,7.499946006032824,6.278708513563871,-1.8393393754959104,0.0539513155817985,0.6714548468589783,0.84522496832274,0.3798145458966037,0.1887216541538909,0.325145925215839,0.1149034574627876,-0.026074331253767,0.0390312820672988,0.0104517936706542,0.0034199655055999,-0.0380129665136337,0.2855173349380493,0.2705109119415283,-0.0902571940302848,0.2394385933876037,0.0659401335712522,0.1924059013843536,53
1733298514912534500,0.1911215971948578,-1.283446988144517,-1.8157535374253988,-0.5450145300867035,7.0260893076330415,6.819635007151961,-1.883095979690552,0.1611333340406417,0.7602016925811768,0.8537731711577642,0.3494979271745223,0.1736276891990103,0.3446391106580576,0.1343551725149154,-0.0570654831826686,0.0440615266561508,0.0083292126655578,0.0140400826930999,-0.0238323360681533,0.3348296880722046,0.2564187943935394,-0.1434381645977497,0.1660495549440384,0.0103603765000589,0.1896682931140065,54
1733298515070253600,-1.319185825523734,-2.812813441196084,-4.539907867437601,1.0760247924793511,5.293804327011108,8.184631566736101,-1.28864324092865,-0.8019038438796997,1.6626962423324585,0.8389774226165205,0.2744926313432289,0.085753900944646,0.4619708106214363,0.0193817242980003,-0.0860627740621566,-0.1696460247039795,-0.0220317840576171,-0.0141178667545318,0.0437375307083129,0.3346947729587555,0.1398916095495224,-0.1510580467506311,-0.2487026900053024,-0.186464437305089,0.153857614341285,55
1733298515110253800,-1.616202586591989,-3.121117466084659,-3.962749199995398,1.6940139944165944,4.814117315022648,8.37406575883329,-1.1636435985565186,-1.1979414224624634,1.106393814086914,0.835228378058633,0.2657850634853312,0.0489874604907749,0.4789072605999306,0.0394204147160053,-0.0716466680169105,-0.1552626192569732,-0.0104085803031921,-0.0216055810451507,0.0534268617630004,0.3254256248474121,0.0711927115917205,-0.0196650699347257,-0.2957592606544494,-0.0185552455293014,0.0534023582331836,56
1733298515150253800,-4.165653991301357,-3.3327944696500897,-5.533682758188247,2.4916581180408595,4.300201577956974,8.454010233163833,-1.3848938941955566,-2.383502721786499,1.8579380512237549,0.8285710288517353,0.2625908780669908,0.0033855633900407,0.4944741279791815,-0.0456369556486606,-0.0276368074119091,-0.1161035746335983,0.0023636221885681,-0.0399442315101623,0.0687522441148758,0.3037150502204895,0.0176190435886383,0.0638093320876359,-0.3022806048393249,0.1333370783546939,-0.0066349079698324,57
1733298515190253800,1.0700120349958535,-2.69974644946456,-2.40251940664649,3.7715123423904178,3.4021450692519544,8.388771160534024,-2.1929447650909424,-2.6747756004333496,2.208607912063598,0.8146257123088465,0.2588373933099798,-0.0727660355819783,0.5138999951937102,-0.0594132207334041,0.0114070512354373,-0.0397918932139873,0.0123436450958251,-0.0361855924129486,0.0508568882942199,0.2595203816890716,-0.002306317910552,0.0992091467708349,-0.2752971351146698,0.2135271980093792,-0.0073255205824971,58
1733298515230253800,1.5738719497323037,-2.140011064379662,2.536988082846999,4.59748210452795,2.250593399688601,8.364709901466965,-2.4910190105438232,-1.4118987321853638,2.1034326553344727,0.800334627436959,0.2344173305051341,-0.1362607547502769,0.5347392712495631,-0.0500628612935543,0.0581890456378459,0.0266114305704832,0.0057069659233093,-0.0266876518726348,0.041521742939949,0.2153257131576538,-0.0222316794097423,0.1355950498819351,-0.2483136653900146,0.2947099819632247,-0.0083383508868515,59
1733298515270253600,3.1834669547528027,-1.3840370678797362,4.456005010870099,5.371614127400517,1.137733572091162,8.125374491125346,-1.5410394668579102,-2.3898582458496094,1.3232598304748535,0.7838730901551059,0.2137582849017161,-0.2000714734566663,0.547559812441998,0.0215551331639289,0.0851677730679512,0.0660824105143547,0.0028361678123474,-0.0096364319324493,-0.0006500333547592,0.1789827644824981,-0.023453390225768,0.0529302106767892,-0.2347280383110046,0.3238979729268699,-0.0002174421429634,60
1733298515427976200,2.2708494212538004,1.1365526186782866,1.820145634904504,6.121725223216414,0.6704710112594068,7.631863244184851,0.3292523920536041,-0.001088751014322,0.2065332531929016,0.7384815558734521,0.2342155614811074,-0.2366988535231432,0.5863119344922212,0.6108913421630859,-0.1792701631784439,-1.909498810768128,0.1835436820983886,0.1982475817203521,-0.058013841509819,0.1022367775440216,0.0474094003438949,-0.0970169522224925,-0.3912873566150665,-0.0187240353581029,-0.3623466903192922,61
1733298515467976200,0.6564554915189743,0.1769116873934864,0.9480003970474004,6.073195877847075,0.9383373003628104,7.642394575071334,1.332494854927063,0.2110297679901123,-0.0551352314651012,0.734316126197177,0.2455270034345977,-0.2237471826809854,0.5919741602432812,-0.2647847533226013,-0.4433059096336365,-2.3733937740325928,0.2272011041641235,0.0271597206592559,-0.0811862647533416,-0.047542318701744,0.0266236905008554,-0.110481066891551,-0.5044799447059631,0.0047184798892587,-0.324188407240808,62
1733298515507976000,-0.1334936936885118,0.2369599133819341,-0.5518722504943608,6.034602235558629,1.2624090224213895,7.6262892434448,0.7642974853515625,0.1216329038143158,0.2330959588289261,0.7287079022606591,0.2598354565969538,-0.2089329713899774,0.5981784467265137,-0.6456570029258728,-0.5264827609062195,-2.061903715133667,0.0951559543609619,-0.0061175227165222,-0.010858342051506,-0.1973214000463485,0.0058379787951707,-0.1190057341307401,-0.6176725625991821,0.0268591461572796,-0.2873474538385868,63
1733298515547976000,-0.4293471100658178,-0.0545782701447606,0.5777390976786613,5.946635198292136,1.3484949221163989,7.680460978615283,0.5055901408195496,0.5581209063529968,0.4536088407039642,0.7228981628803762,0.2623184899783744,-0.1989836263294048,0.6074643047264366,-0.8295320272445679,-0.4466667771339416,-1.6439459323883057,-0.0763800144195556,-0.1097280979156494,0.0181090980768203,-0.2002313137054443,0.0060780942440032,-0.0343786549419164,-0.4788225889205932,0.0454335347784683,-0.2450096565857529,64
1733298515587976000,-0.3793482766658067,0.1946468121789395,-0.1543447585374116,5.815234092968702,1.3738544043004512,7.7759864684373134,0.3811873197555542,0.4903591573238373,0.5056104063987732,0.7161834571895458,0.2607897069160569,-0.1884774799288945,0.6193110866955804,-0.8416864275932312,-0.2776969671249389,-0.948530912399292,-0.1734503507614135,-0.2081062793731689,0.0366734862327575,-0.2031412273645401,0.0063182092271745,0.0544067129701375,-0.3399726152420044,0.0621168854886665,-0.2041723270237445,65
1733298515627976200,-0.09694295540452,0.2782106460504234,0.258847920063138,5.712094036489725,1.3889018974371254,7.849415277263522,0.3669660687446594,0.3381452262401581,0.2738475203514099,0.7107647564817129,0.2592468420610809,-0.1805056295842427,0.628507965928771,-0.4921446740627289,-0.1389636993408203,-0.3153237998485565,-0.1810683012008667,-0.2192646861076355,0.045892596244812,-0.2203934341669082,0.0259280521422624,-0.002418751579523,-0.1289627701044082,-0.0126986649882048,-0.2910059763461351,66
1733298515667976200,-0.6798287683218717,0.0444121193088591,-0.3321972339123487,5.628344324657321,1.4618398540064692,7.89652774157226,0.3350260257720947,0.1947392225265503,0.2385071367025375,0.7070984907232379,0.2601223752015685,-0.1724108055008891,0.6345254750187476,-0.1420180946588516,-0.0484295450150966,0.1125198155641555,-0.1427042484283447,-0.2054876685142517,0.0531521439552307,-0.2625313103199005,0.0591540709137916,0.0056558338046073,-0.0589175447821617,-0.1014783338118344,-0.2535664725288749,67
1733298515707976200,-0.2638449976980686,0.3073515464693307,-0.5211357514470816,5.6105462176382535,1.454481746328622,7.910539900311827,0.014666024595499,0.0344183854758739,0.2427360862493515,0.7032913067861644,0.2601854986972964,-0.170229921926348,0.6393016531552915,0.4626462459564209,0.0279606748372316,0.6078305840492249,-0.0695517659187316,-0.1587864160537719,0.0379274487495422,-0.3046692013740539,0.092380091547966,0.0137403560608625,0.0111276805400848,-0.190560894572176,-0.2163105085849762,68
1733298515747976200,0.2056891613274812,0.5169948522500694,0.1261117667436599,5.574811471912264,1.396121911818534,7.946238405680656,-0.1194635555148124,0.2535829544067383,0.1113736778497695,0.7018049691418882,0.2569042688830425,-0.16986700940249,0.6423512472439026,0.3546923398971557,0.1348989903926849,0.8941421508789062,0.0164528489112854,-0.1291167736053466,0.0711433291435241,-0.320493996143341,0.0713553875684738,-0.0063788873821496,0.1257575452327728,-0.2082817351039499,-0.1671612777516245,69
1733298515787976000,0.1113444057226181,0.2664791455939412,0.1191618014752864,5.52116405287683,1.3297050275810065,7.994936677876114,-0.1144647970795631,0.0946047529578208,0.1033346652984619,0.7017793717545335,0.2522525237027003,-0.1695297272834073,0.6443089912135977,-0.0565678998827934,0.1484072506427765,1.0595616102218628,0.0822588801383972,-0.1263121962547302,0.0287011265754699,-0.3363187909126282,0.050330676138401,-0.0263438170462846,0.2403874099254608,-0.2254404117083177,-0.1182899870768189,70
1733298515827976000,0.6832435452014207,0.3113882546395063,0.4754302313268184,5.487661596247554,1.296617435362935,8.023387111812829,-0.0285440292209386,0.1414319276809692,-0.001732128788717,0.7016729279689683,0.2497110839769255,-0.1690132479952248,0.6455494719031937,-0.197705328464508,0.1590343713760376,1.155529499053955,0.0415454506874084,-0.1101590394973754,0.0079191327095031,-0.3268276453018188,0.0324195511639118,-0.0768371559649705,0.362871915102005,-0.2121317615956068,0.013196750703454,71
1733298515867976200,0.1853746875733137,-0.0992312124721705,0.1780219867229461,5.436210810473561,1.291992698171735,8.059079187440872,-0.012004867196083,0.1671372801065445,0.0043055973947048,0.7026913713744716,0.247336902779838,-0.1671100548588714,0.6458510923399892,0.1357594579458236,0.1698183715343475,1.2397902011871338,0.0384244322776794,-0.0117477774620056,-0.0081543177366256,-0.3465523719787597,0.0456369966268539,-0.1288128423959016,0.3753065168857574,-0.1580014909466728,-0.007290157008171,72
1733298515907976200,0.2523778472661971,0.2444124213449656,0.0488964251160621,5.384470686364174,1.286080989909917,8.094680662176012,0.0215134769678115,0.1819183528423309,0.0431492403149604,0.7025664938911941,0.2452002793809093,-0.1648118776195482,0.6473903402361537,0.2704320549964905,0.192661851644516,1.3037127256393433,0.0101452469825744,-0.0327396988868713,-0.0164425075054168,-0.3574967682361603,0.048457384109497,-0.1466886908262968,0.3790512681007385,-0.143281987655349,0.0781616825670003,73
1733298515947976200,0.2562421214789152,0.2677669934473932,-0.1683615934520959,5.343496286419033,1.278737495279312,8.122946971717477,-0.1060030683875083,0.0777040645480156,-0.0903851687908172,0.7034485194738532,0.2431556633343451,-0.1634634529110526,0.6475454869354105,0.1972627639770507,0.130924716591835,1.341240167617798,0.0191112160682678,-0.0094045996665954,-0.0450467318296432,-0.3684411644935608,0.0512777715921402,-0.1625841790944337,0.3827960193157196,-0.1265111778574064,0.1626356170207261,74
1733298515987976200,0.0640992549449205,-0.1094052543535828,0.3079430826216936,5.331832152110338,1.271340955287218,8.131766822510958,0.0047766105271875,-0.0432147458195686,-0.0950307101011276,0.7051567444627594,0.2419965254116508,-0.163807645568313,0.6460329308882682,0.2878041267395019,0.070227064192295,1.3272231817245483,0.0125012993812561,0.0590786039829254,-0.089718148112297,-0.3523022532463074,0.0574399232864379,-0.1366325762361288,0.3536621630191803,-0.1055713387465104,0.1754500904083251,75
1733298516027976000,0.1469534792423248,-0.1326090198084712,0.4018967930823564,5.331129556798935,1.337491005282104,8.121610754677652,0.2197976410388946,0.051490195095539,-0.1088163331151008,0.7057840878012053,0.2444337580689961,-0.1617567295149247,0.6449462333640562,0.2557167708873749,0.0818873420357704,1.2181165218353271,-0.0019099712371826,0.030909240245819,-0.028035283088684,-0.3276379108428955,0.0602331683039665,-0.1175087735712528,0.3570669889450073,-0.0674083064276725,0.1719445665054023,76
1733298516067976000,-0.0714162999600172,0.007647446013242,-0.1020171899288892,5.316962499758601,1.402686969422549,8.11989927458465,0.0046186177060008,-0.0457564741373062,-0.0242189336568117,0.7060014233355097,0.2464405845108558,-0.1589571680883109,0.6446407515305331,0.2042341232299804,-0.0174194294959306,1.037997126579285,0.0316135287284851,0.0946883559226989,-0.018048346042633,-0.3029735386371612,0.063026413321495,-0.0964689081519842,0.3604718446731567,-0.0274708848474547,0.1678106815710663,77
1733298516222953000,-0.2708937471657991,-0.0116907300546765,0.1042412957191467,5.250982837894559,1.6731171907298266,8.111611338710784,0.1873001456260681,0.0271520987153053,0.0032090072054415,0.7072473292177153,0.2544555442710776,-0.1472252786790091,0.6429450686964036,0.1028095111250877,0.023248104378581,-0.091394767165184,-0.0185903310775756,0.1359962821006775,0.024450659751892,-0.1629990041255951,-0.0067430259659886,-0.0493732442809967,0.2587965130805969,0.1573379307377152,0.1863191836155019,78
1733298516381945600,0.0247281985431909,-0.0885287628024816,0.2266939554333686,5.21617923553884,1.827317718490958,8.100788331401347,0.058981355279684,0.1273222118616104,0.0835615918040275,0.7014472915937928,0.2605759238322829,-0.1381120217324721,0.6488428553581755,-0.0053281476721167,0.0888562500476837,-0.5332998037338257,-0.0015020966529846,0.0339612364768981,0.0313867926597595,-0.0623027458786964,0.0143040120601654,-0.0367421486532664,0.137910783290863,0.1635043809455819,-0.0626493894967483,79
1733298516421693000,-0.105590956762433,-0.0795250798746943,-0.0315343714267015,5.191473833349347,1.8394129376932973,8.113910263302921,0.1378197073936462,0.0427205339074134,0.1072025746107101,0.6999766880123579,0.2604215763456465,-0.1359643978085528,0.6509430005793774,0.0098398858681321,0.1021428108215332,-0.5705825090408325,0.0171532034873962,0.0079218447208404,0.0176272392272949,-0.0712907016277313,0.001544072991237,-0.0361387827825034,0.1477040797472,0.1516406598110217,0.0582846366822952,80
1733298516461693000,0.1310690968900918,0.2003340640351176,-0.1013116720080375,5.201416550692915,1.860475161074847,8.102733620250225,0.0967068970203399,-0.0181577373296022,0.0646163746714592,0.698008880075699,0.262050174694534,-0.1349269151475598,0.6526163922725738,0.0850009471178054,0.1461610943078994,-0.5792110562324524,0.0146446228027343,-0.0194519758224487,0.0105800032615661,-0.0745432674884796,0.0092890514060854,-0.0231008896023035,0.1312907934188842,0.132733376840502,0.0655552989721298,81
1733298516501692700,0.1434066004157066,0.1182891102939844,-0.1333943249672651,5.192371074450016,1.8775772486537687,8.104589477249979,0.0305339731276035,0.0747696831822395,0.0017607804620638,0.6974583934991938,0.2624937582142286,-0.1337084633277177,0.6532771099982562,0.176414743065834,0.1513496786355972,-0.5311816930770874,0.0126802921295166,-0.0462599992752075,-0.0058196783065795,-0.0780498087406158,0.0127116134390234,-0.0393359850883483,0.1132025271654129,0.1274445131847635,0.112300245142728,82
1733298516541692700,0.0773755006253719,-0.0684676792874932,-0.1377788236618042,5.164579396682977,1.8738453686490653,8.123189548301696,-0.0098847914487123,0.0721423327922821,0.0224681254476308,0.697605208017146,0.261242890226399,-0.1326074991940327,0.6538459279375718,0.1831144541501999,0.1166721731424331,-0.4409961104393005,0.0222949981689453,-0.0750006437301635,-0.0087599158287048,-0.0815563425421714,0.0161341745406389,-0.0553758502632379,0.0951142683625221,0.1222968846306204,0.159007635781914,83
1733298516581693000,0.0953963104844093,-0.0747924983948469,-0.1325853466719389,5.151646265351772,1.8858565628297623,8.128620341178774,0.0861331522464752,0.006046388298273,-0.0122906677424907,0.6974238876791785,0.2612567568578367,-0.1315317823442678,0.6542508548866364,0.4219635426998138,0.042257159948349,-0.2637471556663513,0.0248571038246154,-0.0858498811721801,-0.0308655500411987,-0.0833398029208183,0.0259775221347808,-0.0667389557987451,0.0491839125752449,0.1056275624457746,0.1122568443924188,84
1733298516621693000,0.0656628509998321,-0.065825348085165,-0.3169002960592508,5.146663800764084,1.902776571840048,8.127833574715256,-0.0343710258603096,0.0225465465337038,-0.0260098911821842,0.6976608442545743,0.2616882516920092,-0.1308246048494621,0.6539675187150121,0.2633262276649475,0.0202903989702463,-0.0724860578775405,0.0080823302268981,-0.1465491354465484,-0.0266897231340408,-0.0851232632994651,0.0358208678662776,-0.0780348413169384,0.0032535567879676,0.089040456917975,0.065502692002058,85
1733298516661693000,0.0127753104209899,-0.146648212685436,-0.2643190449506044,5.135207171726226,1.8852873846396805,8.139147580412029,-0.0393291674554348,0.0396072790026664,0.0189242418855428,0.6979692147843013,0.2604903143340498,-0.1310105275562906,0.6540795828718425,-0.0913738161325454,-0.0067458003759384,0.1061722338199615,0.0157288312911987,-0.1399419605731964,-0.0211823880672454,-0.0806254595518112,0.0322036854922771,-0.0292354468345642,-0.0198562778532505,0.0722008562001399,0.0642442163735628,86
1733298516701693000,0.0518611201405525,0.0025287878252565,-0.2500269002258777,5.141162280738353,1.8803610341534016,8.136527753302454,-0.01485594548285,-0.0759665668010711,-0.0404612049460411,0.6980719019806461,0.2605038822022371,-0.1314924918466967,0.6538678120880065,-0.1448192000389099,-0.0313290171325206,0.1936574131250381,0.0119640231132507,-0.0789770483970642,-0.0121482461690902,-0.0774061679840087,0.0246495679020881,-0.0298141235053539,-0.0285962671041488,0.0760600158463232,-0.0008043021202087,87
1733298516741692700,0.1120347260743379,-0.0601787205003201,0.0234890121370553,5.155508201476931,1.8772279968246817,8.128169090279936,-0.0634663254022598,-0.0139600569382309,-0.0389673821628093,0.698814418383557,0.2607821532289542,-0.132557056492746,0.6527478523143174,-0.007437371648848,-0.0536056086421012,0.2952848374843597,0.0206878185272216,-0.0463680922985076,-0.0014238953590393,-0.0751030594110488,0.0266211777925491,-0.0143844991832971,-0.0158913526684045,0.0912321034770458,0.0357354763783514,88
1733298516781692700,0.009509586623311,0.0634852146998047,0.0243278010487556,5.145206587693095,1.8636974841222167,8.13780493363142,-0.0424387380480766,0.0334516614675521,-0.0011471885954961,0.6993531360047243,0.2597388692445069,-0.1327521914721948,0.6525471859340758,-0.0370999239385128,-0.0470199882984161,0.350980132818222,-0.0039021372795104,-0.0401538014411926,0.0190203338861465,-0.0727999433875083,0.0285927876830101,0.0010509703576564,-0.0031864382326602,0.1063982180247083,0.0722908908374607,89
1733298516821693000,0.1146393556147813,0.2688410524196922,0.1770049186348915,5.134947059485316,1.845687926309556,8.148382441747188,-0.1068293452262878,0.0523996539413929,-0.0738125815987587,0.7002014231060756,0.2584566884101516,-0.133222566359711,0.6520505206006215,-0.03334566578269,-0.0688407570123672,0.381802350282669,0.0031798481941223,-0.0144107639789581,0.0120757967233657,-0.0667807757854461,0.0264832228422164,0.002623918762803,-0.0116939358413219,0.1057838489860296,0.1042217142358422,90
1733298516861693000,-0.1232370880901813,0.0381445833466947,0.2719412103921175,5.1048219703346485,1.8329237218044696,8.17016289640069,-0.0339616984128952,0.0793872028589248,-0.0397562086582183,0.7016586650183188,0.2564991467398132,-0.1328375339783337,0.6513350786881886,-0.1195460632443428,-0.0460531003773212,0.3790156245231628,-0.0155329704284667,-0.0040617883205413,0.0176693797111511,-0.0607616081833839,0.0243736580014228,0.0042032969087362,-0.0202014334499835,0.1051658266855403,0.136165835507214,91
1733298516901693000,-0.1496919642955064,0.1001252387024462,0.2019283474892377,5.078305719330906,1.8358860787414013,8.186007531264424,0.0058320863172411,0.0663759186863899,-0.044287908822298,0.7023206344338502,0.2554700836432583,-0.1317755555463282,0.6512419786891176,-0.0772904902696609,-0.0484544187784194,0.3423199355602264,-0.001565396785736,0.0292852818965911,0.007478728890419,-0.0517779774963855,0.0174930728971958,-0.0009504325926303,-0.02046899497509,0.0410419852886349,0.1227912440188229,92
1733298516941693000,0.0752075089365243,0.0660055269576609,0.5682593216717243,5.046887083238363,1.866264996522665,8.198558969801663,0.0972955226898193,0.1424676179885864,-0.1293897479772567,0.7034136476700231,0.2552608386675652,-0.1297371641559718,0.6505531744319114,-0.0666604787111282,-0.0215136129409074,0.2574929296970367,-0.0145509243011474,0.0389997959136962,0.0141168236732482,-0.0368125177919864,0.0034688869491219,0.0210357737660408,-0.0245856270194053,0.0602248246643692,0.1282930563054978,93
1733298517097399800,-0.0685527272224426,0.0603549538500607,-0.0881014773011207,4.902445586816966,1.970975371058285,8.26145644774139,0.0765878483653068,0.0114480853080749,0.1209210380911827,0.7000871998516147,0.2545199619738036,-0.1183322804583385,0.6565781653625805,-0.0408536493778228,0.0301926154643297,-0.050987359136343,-0.0178526639938354,0.0422484278678894,0.0090301036834716,0.0401594154536724,-0.0301116649061441,-0.026840439173521,-0.0179571267217397,0.0723858847776893,0.001167904418346,94
1733298517137146600,0.0111368955641984,0.0309698694117367,-0.181246793988347,4.893235275401175,1.9628015630833804,8.26886000199616,-0.0081981131806969,0.0737251713871955,0.0945158526301384,0.698722570286253,0.2540870984567552,-0.1176657505733944,0.6583169931728978,-0.0623557493090629,0.0290082022547721,-0.0794248580932617,-0.0047733783721923,0.0312586426734924,0.0049927234649658,0.0387357026338577,-0.0025319531559944,-0.0218054315478424,-0.0238396637141704,0.1483372982835397,0.0427212481790455,95
1733298517335885600,0.1241834290295839,-0.1223857319578528,-0.0494780243963003,4.850369070360064,1.887360976043344,8.311568678388,-0.0655949264764785,0.0898936241865158,0.0282731633633375,0.6958803385604316,0.2499695243448212,-0.1172313028650594,0.6629649567012423,0.0411011353135108,0.0247726589441299,-0.1537099480628967,-0.0004318356513977,-0.0224866569042205,-0.011934608221054,-0.0122959343716502,0.018979700282216,-0.0624120279437629,-0.0578380487859249,0.1080248785116244,0.0374523884150083,96
1733298517375633700,0.1489715410664677,-0.0011916940025985,-0.139729957729578,4.839796530680358,1.86013979164064,8.323859420162439,-0.0452895537018775,-0.0008260274189524,0.0262241456657648,0.6956770805595978,0.2485308195332195,-0.1176167905549537,0.6636506589165556,0.0922697782516479,0.0223079547286033,-0.0910570099949836,0.0039666891098022,-0.0347604751586914,-0.014281615614891,-0.0224476493895053,0.0281041990965604,-0.0869151170607656,-0.0599406734108924,0.0491811603415757,-0.0197685303092002,97
1733298517614120700,-0.2237666698098182,-0.0511326597355306,-0.0584960281103849,4.795494447617233,1.7691218423709272,8.369218903324008,-0.0878726691007614,0.0001333893451374,-0.0002516407403163,0.7002672191349796,0.2424402221189383,-0.1204630024662073,0.6605582394779524,0.0955987349152565,-0.007708853110671,0.1072721257805824,-0.0119734406471252,0.0036250948905944,0.002089574933052,-0.0766077637672424,0.060313943773508,-0.0811290444726124,-0.0559944994747638,0.0408858174793887,-0.0008930267206771,98
1733298517654120700,0.0179278708785772,0.1418758837170899,-0.0131178402483463,4.7948663788467645,1.745353574901074,8.37456786313653,-0.0862587243318557,0.0076400353573262,-0.0315655134618282,0.7007970502802997,0.241387706033093,-0.1214407628700348,0.660202729163319,-0.0096616437658667,-0.0125898411497473,0.0855939909815788,-0.0004255175590515,-0.0051833093166351,0.0135472863912582,-0.0646721869707107,0.0445322841405868,-0.0220171860188245,-0.0552148595452308,0.0531851352859288,0.0450330276861786,99
1733298517813114000,-0.0682145813092589,-0.0265825942382216,0.0748749159812927,4.726732461558282,1.6763371756896377,8.42723445444107,0.0237715691328048,0.042065642774105,-0.0028980006463825,0.7028116009221667,0.2357282015462912,-0.12150236829051,0.6600949919827193,0.0130045199766755,0.0185801163315773,-0.0060028382577002,-0.0107080936431884,0.0046848654747009,0.0104513317346572,-0.0418106690049171,0.0537928268313407,-0.0626520061455201,-0.0781293883919715,-0.0047371377823117,0.0317002751786727,100
1733298517853114000,-0.1154170619890093,0.0190095286354422,-0.128687170189619,4.710488890504837,1.6668077153220773,8.438212944573163,-0.0739633068442344,0.0443216189742088,0.0218758024275302,0.7029837418864309,0.2347094469852245,-0.1211707983098399,0.660335526888025,0.0348986349999904,0.0216810461133718,-0.011119170114398,-0.0051825642585754,0.004037857055664,0.0051703006029129,-0.0327198877930641,0.0311712734401226,-0.0628097996562719,-0.0650342106819152,0.0011640388106927,0.0343222485795617,101
1733298517893114000,0.1361877550780773,0.0496760311864316,0.1879150197058916,4.7059354649841785,1.6452691066004337,8.444977616402506,-0.0082460138946771,0.0302319023758173,-0.011066204868257,0.7030595124936858,0.2336814830857722,-0.1217330157298574,0.6605160661797153,0.0060478104278445,0.0277000050991773,-0.0169903095811605,-0.0024466514587402,-0.0044179558753967,0.0069859772920608,-0.0236291103065013,0.0085497219115495,-0.0629144290745258,-0.0519390292465686,0.0070318713981658,0.0369333078607916,102
1733298518051655000,0.0435188237309455,-0.0009871113412082,0.0320651173025369,4.720194291961193,1.6027080219857397,8.445204410895705,-0.0600278228521347,-0.002007414586842,0.0349648185074329,0.7033055460413611,0.2325112667098197,-0.1239068639523844,0.6602628049514091,-0.0131439929828047,0.0229690056294202,0.0023299930617213,-0.015591561794281,-0.0185863673686981,-0.0007728934288024,-0.0120090330019593,-0.0119320955127477,-0.0888972033892292,-0.0355271063745021,-0.0078493646476214,0.0140829247041256,103
1733298518091654700,0.0590220978111028,0.0311222834944725,0.0949029740095138,4.721600067105889,1.5842157952226696,8.447907824635505,-0.0207825452089309,-0.0157916508615016,0.0016291385982185,0.7032508132679345,0.2318525345109904,-0.1245832551424396,0.6604255144052704,0.01395979616791,0.0065068346448242,0.0134376380592584,-0.0031803846359252,-0.0107850432395935,-0.0060623884201049,-0.0147414458915591,0.0004042321816086,-0.0440969158798456,-0.0399891100823879,0.0120773182194679,0.0066598962806165,104
1733298518131654700,-0.0560597408741712,-0.0035490707837045,0.0795762255400419,4.734778697630762,1.580430139204115,8.441237845352292,-0.0040268348529934,-0.0552606284618377,0.0081232385709881,0.7031607022977377,0.2322186338991012,-0.1252643120961322,0.6602639086167289,-0.0219832919538021,-0.0034431610256433,0.0119041902944445,-0.0082095861434936,-0.0137473344802856,-0.0002450793981552,-0.0169419907033443,0.0021382351405918,-0.0338414793252944,-0.0454722046852111,0.0216626734927296,0.0052777942724525,105
1733298518171655000,0.0424085244014859,0.013108049506694,0.2494330259859561,4.749286823193729,1.5817295313648878,8.432840019363164,0.031906995922327,-0.0110974349081516,-0.0006911826785653,0.7029380656388142,0.2328588267657941,-0.1257838379745475,0.6601767743337872,-0.0265048071742057,0.0071335830725729,-0.0017538979882374,-0.0101987123489379,-0.0068142116069793,0.0018320679664611,-0.0191425364464521,0.003872238099575,-0.0235585702419281,-0.0509552992880344,0.031236849784851,0.0038901393063366,106
1733298518211655000,-0.0472159246832132,0.0682473145350813,-0.0336871655464172,4.750176173248887,1.5877920462742448,8.431199266418814,-0.0144403632730245,-0.0118568418547511,0.0022472084965556,0.7027978449679283,0.2331558135338304,-0.125566011509214,0.6602625632999312,0.0218914896249771,0.005647805519402,0.0153633039444684,-0.0001598596572875,-0.0022940039634704,0.0026488304138183,-0.0175254270434379,0.0076241977512836,-0.0246709153980016,-0.0440555848181247,0.0416058297164738,-0.009690496148169,107
1733298518369711000,-0.0143315999522805,-0.0908848244093358,0.0247568401157856,4.763230592872202,1.5872610081374643,8.423931321242451,-0.0210859142243862,0.0179171711206436,-0.0061815558001399,0.7029004470044404,0.2336081264434411,-0.1261992986799847,0.6598726918530853,0.0219900272786617,0.0249839536845684,-0.0025664949789643,-0.0077378153800964,0.0027209818363189,-0.0074815899133682,-0.013983542099595,0.0040650493465363,-0.0471437407964142,0.0107703236863017,0.0522296794583089,-0.001466530601072,108
1733298518409468400,0.0094444124326109,-0.0893086611337959,0.0516378327786922,4.754567978467047,1.586732308088243,8.428923722702264,0.026814766228199,0.0288577042520046,0.0077627557329833,0.702916422762868,0.233257566822882,-0.1258388358643588,0.6600485431275573,0.0175481401383876,0.0261444505304098,-0.0078553333878517,-0.0036910772323608,-0.0070492029190063,-0.0057048797607421,-0.034489095211029,0.0257659349590539,-0.0151124675396189,0.0007495837053284,0.0470465594656765,0.0350263280285755,109
1733298518449468400,0.0427153983935713,0.0645231794454157,-0.211963419291377,4.75436661067605,1.5924138608559966,8.427965691325069,-0.0043435553088784,-0.0204379502683877,-0.0034105884842574,0.7026650673766838,0.233519724028123,-0.1255463651344719,0.6602791097279539,0.0134146464988589,0.0062517039477825,0.0128382937982678,0.0034384727478027,-0.0110201835632324,-0.0079488307237625,-0.0256251990795135,0.0149007299914956,-0.0170540106534957,-0.0064476863481104,0.0634210999550297,0.0297821209318935,110
1733298518489468400,0.1011141036093234,-0.0579348870962858,-0.0025590368330478,4.76420323729664,1.587081559917331,8.423415772935748,-0.0144333690404891,-0.0193941015750169,-0.0132737550884485,0.7028589237246677,0.2336457588500898,-0.1262338798005704,0.6598970534985793,0.0046967891976237,0.0082794874906539,0.008080756291747,-0.002378761768341,-0.0096971690654754,0.0001291632652282,-0.016761302947998,0.004035523161292,-0.0189852709770202,-0.0136449569836258,0.0797867630181834,0.0245297533616423,111
1733298518648011000,-0.057682665900886,0.0199948864109814,-0.0362643225580453,4.768723345069587,1.5482072009913623,8.42809077900946,-0.0679226294159889,-0.0167754236608743,0.0089882519096136,0.7040994929525368,0.2320574741881511,-0.1282040645626305,0.6587540924930847,0.0326972641050815,0.0212922785431146,0.0442097969353199,-0.0009294748306274,-0.0033447742462158,0.0051193684339523,-0.0223978217691183,0.0055103115737438,-0.067135389504116,0.0014253566041588,0.0145761881137848,-0.0118861350374121,112
1733298518688011000,-0.0043573184266686,0.002372282089293,0.0961176104962825,4.777347965551913,1.5318619231291115,8.426192836433648,-0.034190833568573,-0.0327437482774257,-0.0166839063167572,0.7044192777488427,0.2316800510783191,-0.1292597412189262,0.6583385606781033,0.0251053906977176,0.0057604042813181,0.0245795045047998,0.0015791058540344,0.0024992227554321,0.0002259463071823,-0.0122581804171204,-0.0010135285556316,-0.0314063611328601,0.0163396522402763,0.0355074397761374,0.0254696645602583,113
1733298518728011000,0.0117003746658563,0.0018429975181818,0.1891033527076244,4.7859804770797485,1.524161285623908,8.422689796748758,-0.0247011538594961,-0.0024690516293048,-0.0092517938464879,0.70464230474098,0.2316590912689475,-0.1299860971936199,0.6579642109697096,-0.0025360900908708,0.0152214430272579,-0.0011720638722181,-0.0136768817901611,-0.0025141835212707,0.0030311346054077,-0.0018910178914666,0.0003709578886628,-0.0160176533430814,0.0164114162325859,0.0645148134758696,0.0260256910078227,114
1733298518768011000,-0.0691232205867767,-0.0454562215343117,-0.0017944822013378,4.776722234869003,1.5153465493969618,8.429533963555096,-0.0446129478514194,0.0290081687271595,0.0113005712628364,0.7048641828959795,0.2309231497543586,-0.1299534148191291,0.6579918390299915,0.0202115662395954,0.0105164367705583,0.0383857302367687,0.0002289414405822,0.0007478296756744,0.0013770908117294,0.012733737938106,-0.0045707519166171,-0.0483346995800733,0.035352949053049,0.0376323595082387,-0.0017329612724483,115
1733298518808011000,-0.000833528214693,0.0209669463135302,0.1188169335603713,4.775769464188814,1.4957599515259266,8.433570671725272,-0.0292600523680448,-0.0086168246343731,0.0076320962980389,0.7049345098223738,0.2301077695141082,-0.1306061578660524,0.6580728984569139,0.0402390696108341,0.0193040706217288,0.0219412446022033,-0.0114926099777221,0.0038597583770751,-0.0002126842737197,0.0066774841398,-0.004205756355077,-0.0457844305753707,0.0347373969852924,0.0279408404467627,-0.000523000960797,116
1733298518848011000,0.0805973852813243,0.0639751901738345,0.0499228455543518,4.775741407138109,1.4971940759822726,8.43333218679428,0.0148389311507344,0.0122126843780279,-0.0117308562621474,0.7049569641278955,0.2301583255210474,-0.1305636687455445,0.6580395631361504,0.0433589629828929,0.000991481472738,0.0008020043605938,-0.0006695985794067,0.0017186105251312,-0.0042041540145874,0.000621230341494,-0.0038407607935369,-0.0432166259139776,0.0341218449175357,0.0182496136462315,0.0006833060890436,117
1733298519005695000,0.0756757109701633,-0.0809013366639614,0.1309229664176702,4.780214168637991,1.494976546063274,8.431191083112358,0.0136970663443207,0.0072087296284735,-0.0188266858458518,0.7059457013486107,0.2300422362043872,-0.1311848253567722,0.6568956143015702,-0.001093721948564,0.0030004105065017,-0.0138729447498917,-0.0110863447189331,-0.008709043264389,0.0050564855337142,-0.0158887729048728,0.0191301144659519,-0.097863970106421,0.0617597289383411,0.030777287715394,-0.0730898957280442,118
1733298519045694700,0.0113259883955121,0.0034834582015872,-0.0551274284601211,4.773486029426754,1.494239463960379,8.435133098736404,-0.0190664380788803,0.0146343018859624,-0.0014977338723838,0.70604329727439,0.2297422886484933,-0.1309442469686419,0.6569436771510273,0.0443669706583023,-0.0028978521004319,0.0228078365325927,-0.0018505454063415,-0.0072222352027893,0.0011881589889526,-0.026628740131855,0.0190723445266485,-0.0790372963577508,0.0458178594708442,0.0546205018512904,-0.0390472312748432,119
1733298519085695000,0.0201323951855301,0.0136995856590569,0.056768765926361,4.777548456560075,1.491205795352906,8.43336959619522,0.0067890579812228,-0.0303909815847873,-0.0204319525510072,0.7062137769620084,0.2297413930862007,-0.1312886511886422,0.6566919801795706,-0.0211491882801055,0.0087955016642808,0.0044155144132673,-0.006803810596466,-0.0101698338985443,0.0104645043611526,-0.0373687073588371,0.0190145727246999,-0.0601800356745719,0.0298759955912828,0.0784876265857368,-0.0050032151147723,120
1733298519125695000,0.0068769000321626,-0.0138620827443897,-0.0110141459673643,4.777486204978824,1.4990153000600634,8.432019935151935,0.000171736581251,0.0142370797693729,-0.0007345380727201,0.7063283615129262,0.2300219527783034,-0.1310592280359844,0.6565162951833232,0.0361529849469661,0.0018453440861776,0.0107989786192774,0.0027123093605041,0.0022067725658416,0.0025064498186111,-0.0646298378705978,0.0362568125128746,-0.087746672514081,0.0117152407765388,0.0609178118972107,-0.0069213236957788,121
1733298519165695000,0.0424891884222626,0.0647976124726235,0.085780925399065,4.774644551812112,1.4953240443266926,8.43428495747447,-0.0067862709984183,-0.0029620167333632,-0.0334804467856884,0.706556220493515,0.2297257009196131,-0.1311383291441852,0.6563589486024487,0.0013393419794738,0.0105431219562888,-0.0025517144240438,-0.0106748938560485,-0.0045743286609649,0.0037257224321365,-0.0887837037444114,0.0364892035722732,-0.0655371787935495,-0.0058212578296661,0.0572545036166906,0.0526319583825767,122
1733298519205695000,-0.0406862306535244,-0.058026803163439,0.0610579875528812,4.778512040895223,1.506369316084683,8.430127837795018,0.0210477262735366,-0.0136885531246662,-0.0230525061488151,0.7068235631137639,0.2302495036762406,-0.1310276783901166,0.6559095914451527,0.0067607387900352,0.0038146984297782,-0.0187447983771562,-0.0065745711326599,-0.0031712651252746,0.0026794672012329,-0.1129375696182251,0.0367215946316719,-0.043316579157114,-0.0233577564358711,0.0535548453811556,0.1122026299871504,123
1733298519245695000,-0.0295411517828702,-0.019498481196165,0.0043026656299829,4.777392389215529,1.5088415514171123,8.430320145496726,-0.0204736851155757,0.0080356569960713,-0.0162389185279607,0.7070418074380033,0.2302610218309278,-0.1309700324736974,0.655681718283321,0.0041697495616972,0.006187095772475,-0.0042133275419473,-0.0056129097938537,-0.0081537365913391,0.0035786628723144,-0.0597171187400817,0.0455526486039161,-0.0106482352644205,0.002893004566431,0.0668303238766267,0.0840682762622833,124
1733298519285694700,0.0083449267581105,-0.0314278423123061,0.0846118816196918,4.777963174840807,1.5117926563076671,8.429468497103452,0.0235760286450386,-0.0113120879977941,-0.0233562439680099,0.7072865334145244,0.2303491442659008,-0.1309808857751579,0.6553847397698751,0.0221101343631744,0.0007231413619592,0.0125247733667492,-7.68899917602539e-05,-0.0054547786712646,-0.0025544017553329,-0.0064966604113578,0.0543837025761604,0.0220627787262201,0.0291437655687332,0.0801112091995775,0.0559757158525288,125
1733298519325695000,-0.0664563394650816,-0.0947838776744902,-0.0954793125927448,4.773306873467564,1.52352357224226,8.42999398228228,0.0115357739850878,0.0248508304357528,-0.0051671215333044,0.7074726252377713,0.2305984648873156,-0.1304387622125394,0.655204152177771,-0.0070549417287111,-0.0014574017841368,-0.0072444705292582,-0.0039692521095275,-0.0064523220062255,0.0055135041475296,0.0121870525181293,0.0480543449521064,0.0326905557245016,0.0311898067593574,0.0934058307869359,-0.0580656738691031,126
1733298519482729700,0.1382616387426853,0.0376806190967559,0.2229495082080364,4.776435819143057,1.5086745242871342,8.43089239242673,0.0022124846000224,0.0140545228496193,-0.021857988089323,0.7078763588940067,0.2300517891529918,-0.1312260669209356,0.6548030592217088,6.235623732209206e-05,-0.0116671621799469,-0.0189177729189395,0.0005985498428344,-0.0025244653224945,0.000533103942871,-0.0681933760643005,-0.0171601083129644,-0.0387522851825691,0.0171106178313493,0.0659703003806527,-0.0320128322761622,127
1733298519522730000,-0.0584019200861454,-0.0085272975876927,-0.0245487503230571,4.761511806255578,1.5014619625598191,8.440616498583555,-0.0585205368697643,0.0350590236485004,0.0052828108891844,0.7082071004223648,0.2291465253990034,-0.1309205787331171,0.654824050883593,0.0281328745186328,-0.0044066398404538,-0.0100839994847774,-0.0121004581451416,-0.0074751377105712,-0.0032449811697006,-0.0425826236605644,-9.19364392757e-05,-0.0183633396863937,0.0250315740704536,0.05712744317092,0.0360829746417701,128
1733298519562729700,-0.0934966143429279,-0.0232215933725237,0.2196113036960363,4.760992458556593,1.4935606879159806,8.442311027541756,0.0293677039444446,-0.0247963462024927,-0.0149213206022977,0.7083571874682416,0.228787129928951,-0.1312188529141613,0.6547276054637774,-0.0103577943518757,-0.0158778317272663,-0.0033488650806248,-0.007276177406311,-0.0167396664619445,0.0037278980016708,-0.0229020342230796,-0.0077319182455539,-0.0391004227668046,-0.0114909671247005,0.0388614629117771,0.0603787731170654,129
1733298519602729700,-0.0263064076453447,-0.0781685506992042,0.0392296021044254,4.766825694754719,1.5091529554538428,8.436244274848699,0.0177473332732915,-0.0017299079336225,0.0111675020307302,0.7082223220097504,0.2296432380072095,-0.1309016296178718,0.6546372200750837,-0.0325528420507907,-0.0085585601627826,0.0120187066495418,-0.0031078457832336,-0.0088871717453002,0.0050088912248611,-0.0032214447855949,-0.0153719000518321,-0.0598363368034362,-0.0480135045945644,0.0205939117500558,0.0846723796352744,130
1733298519761000200,-0.1265612640768289,-0.0572219165213406,-0.2210088955342769,4.750363220253586,1.5099037738211452,8.445390873378514,-0.03633414208889,0.0092252828180789,0.0128607908263802,0.7080070818123402,0.2291022651796537,-0.1300655797171579,0.6552260520152091,0.0438005179166793,0.0100525142624974,-0.0012691360898315,-0.0091629028320312,-0.0009627044200897,0.0024035573005676,-0.0481313280761241,0.0157149787992239,0.0133703582712681,-0.0677137896418571,0.0086849295557738,0.0045772425043745,131
1733298519920228600,-0.1056400566011667,0.0100528997197747,0.1539507907837629,4.769245323117077,1.4671695245966314,8.442280632403492,-0.0072639072313904,-0.0762679055333137,-0.0073973978869616,0.7079995474303622,0.228131196292479,-0.1323618161931852,0.6551130795485075,-0.1093155294656753,0.0062068030238151,-0.039468053728342,-0.006188690662384,-0.0135000646114349,0.0064237862825393,-0.0081119928508996,0.0200344230979681,-0.0524623420032905,-0.0389907024800777,0.0342790989910019,-0.0320197985897772,132
1733298519960228400,0.0918517697453498,0.0074415481775999,0.2992705313444137,4.79246925457716,1.4724744991369545,8.428193654862046,0.0264483448117971,-0.0282328967005014,0.0004441933997441,0.7077499431796207,0.2292544032867485,-0.1331320649226789,0.6548345985202007,0.0747459158301353,0.0092041902244091,0.0020106132142245,-0.0039629936218261,0.0008546113967895,-0.005750373005867,-0.0096065923571586,0.0090856263414025,-0.0406610962122678,-0.0309194028377532,0.0291643908923491,0.0036627602912485,133
1733298520000228400,0.1027232923716306,-0.0108120475240051,0.0684293931037187,4.781298456743359,1.476512230220437,8.433829614922404,-0.0208362452685832,0.0589298419654369,-0.020880926400423,0.7080673993570391,0.228932457087499,-0.1326057736627938,0.6547108198261492,-0.012626807205379,0.0180193074047565,0.0259946417063474,-0.0090789198875427,-0.015525996685028,-0.0005003213882446,-0.001885678153485,0.001577672548592,-0.0474380430012941,-0.029069161042571,0.0350157107364386,0.0020572247907519,134
1733298520040228400,-2.2211831808e-05,-0.0844122673943638,-0.0842027162969112,4.763136777108907,1.4761916199639438,8.444156363147497,-0.0033472620416432,0.0260137356817722,-0.033460684120655,0.7085827396577501,0.2281400781651166,-0.1319846961719256,0.6545553774698549,0.0121262092143297,-0.0015201456844806,0.0136109432205557,-0.0031989812850952,0.0048300921916961,-0.0090034455060958,0.0077089997939765,-0.0023128136526793,-0.0316939459025859,-0.0313047654926776,0.0350035819072276,0.0066113809637725,135
1733298520080228400,-0.1692091501921415,-0.1210185352578759,-0.1553162339180707,4.7629339480131865,1.4834689174905418,8.442994918152689,0.0166563373059034,-0.0137472823262214,-0.0058211935684084,0.7088297499711339,0.2283683335093609,-0.1318141036043331,0.6542425869058609,0.0153174754232168,-0.0065524545498192,-0.0064754164777696,0.0027805566787719,0.0016171336174011,-0.0009322762489318,0.0173036772757768,-0.0062032998539507,-0.0159311441034078,-0.0335403680801391,0.0349964945793151,0.0111608609616756,136
1733298520120228600,-0.0702235830441117,-0.0294400294959545,-0.1977496004998684,4.767497602666914,1.4785305843055248,8.441285191625356,-0.0409913770854473,-0.0258833039551973,0.0020204116590321,0.7088682811224505,0.2283363241830198,-0.1321996257351837,0.6541342319319539,-0.0204447843134403,0.0026909511070698,-0.01395776681602,-0.0082777738571167,-0.0066151320934295,0.0029215961694717,0.0191334281116724,-0.0061756442300975,-0.0212567230403423,-0.0333864688873291,0.0406655166590586,0.0001291793376207,137
1733298520160228600,0.0487719219535589,-0.0428049763731658,0.0817664290606975,4.77838753773272,1.4706471375793218,8.436503802567719,-0.0028028793167322,-0.0213704369962215,-0.0061606811359524,0.7089349785002592,0.2284179472665564,-0.1329784159597531,0.6538755544652537,0.0399770177900791,-0.0005897438968531,-0.0013943046797066,-0.0059208273887634,-0.0009087622165679,-1.430511474609375e-05,0.0214002579450607,-0.0042047603055834,-0.0176321028023958,-0.0221465993672609,0.0377978522682562,0.0076660045832395,138
1733298520200228400,-0.0201478850156068,0.0064322250045835,-0.0124076461523771,4.78116752384007,1.4630090439163148,8.436256549808382,-0.0524876788258552,0.0033301315270364,0.0022368030622601,0.7089966377899586,0.2282087605196035,-0.1333843396546342,0.6537989784879749,-0.0261583290994167,-0.0045852842740714,0.0015526162460446,-0.0034757852554321,-0.0125054419040679,0.0069811791181564,0.0210334938019514,-0.0002369889989495,-0.0216442610532045,-0.0178141444921493,0.042054705995135,0.0222352126836776,139
1733298520240228400,-0.0467863010942935,-0.0225575765058398,0.1120516772091388,4.781320084053278,1.4466586514875293,8.438989189642667,-0.0283752158284187,-0.0068447613157331,0.0049972385168075,0.709223021831525,0.2275262242855732,-0.1340265011929174,0.6536600520226638,0.0018898174166679,0.0043633626773953,0.0012909607030451,-0.0046353936195373,4.142522811889648e-05,0.0033494979143142,0.020666729658842,0.0037307818420231,-0.0256540812164545,-0.0134816914796829,0.0463153591142967,0.036804859175533,140
1733298520437119000,0.0016810849547386,-0.0306843304686248,-0.1592144104003906,4.781933832037448,1.4227629582457244,8.442703241729737,-0.0178492739796638,0.0146517362445592,0.0031275420915335,0.7093607833137942,0.2265827664317077,-0.1349154367379026,0.6536554370109322,0.0152133461087942,0.0109644336625933,0.0240498036146163,-0.001311719417572,0.0027547478675842,-0.0008548349142074,0.0023803992662578,0.0055938828736543,-0.0754707401497056,-0.0216886363923549,0.0818426726346835,0.025089967360557,141
1733298520477119000,-0.0019505495458841,0.0559347993202507,-0.0687917966753244,4.783171264877915,1.408119515865296,8.444457391920686,-0.0465929061174392,-0.010106585919857,-0.0078889923170208,0.7095350102633571,0.2260179724681325,-0.135529976685719,0.6535347672877184,0.0351236723363399,0.0154589442536234,-0.0057746050879359,-0.0125539898872375,0.006202608346939,-0.0019385367631912,0.0013859346508979,0.0112623926252126,-0.0380658190220594,-0.024228474125266,0.0714819490747526,0.026176205394417,142
1733298520517119000,-0.1074085275784134,0.0433589569941163,-0.0447276149988174,4.793160451711714,1.3900197955511508,8.441791387581825,-0.0501434952020645,-0.0454089269042015,0.0035010010469704,0.7097026969355046,0.2256426025808756,-0.1366522363727022,0.6532485810495002,-0.0127759436145424,-0.0027315111365169,-0.0086889695376157,0.0003585815429687,-0.0107766985893249,-0.0006686449050903,0.0013243786524981,0.0056592575274407,-0.0119353524655103,-0.0238938909024,0.0718426721459254,0.0145963883683085,143
1733298520557119000,0.012590601503849,-0.0109923725269734,0.2057020208090543,4.80858335403204,1.3771836948536336,8.435121408298611,-0.0193062219768762,-0.0262924917042255,-0.0023840521462261,0.7097338262885482,0.2257028230763001,-0.1377923281733046,0.6529543629100594,-0.0161413811147212,0.0025757425464689,0.0061303237453103,-0.0091619491577148,-0.0074641406536102,0.0005180388689041,0.0018607503734529,0.0024644543882459,-0.0084983637541532,-0.0188571438193321,0.0800543279131874,0.0240993991203606,144
1733298520597119000,0.0452259199097752,-0.0088293492741882,0.1085755255311727,4.801984978680312,1.372626469940692,8.439622226849197,-0.0331550240516662,0.0543580055236816,-0.0080181080847978,0.7099890564651709,0.2252261799962264,-0.1377395874402826,0.6528526207752982,0.0395458489656448,0.0092527139931917,0.0155185647308826,-0.0064627528190612,0.0013342797756195,0.0003311038017272,0.0023971220944076,-0.0007303485181182,-0.0050561143457889,-0.013820394873619,0.0882668604632839,0.0336015330895781,145
1733298520755207400,0.0197846046611666,0.0690809888802468,-0.0427834951937198,4.787323416121303,1.3485856691397726,8.451818276077509,-0.0301249511539936,-0.0008280199253931,-0.0009423187002539,0.7102826107232927,0.2236794776483756,-0.1380024509453774,0.6530095050844302,-0.012972486205399,0.0078007052652537,0.0008034022757783,-0.0052682757377624,-0.0049767792224884,0.0082639008760452,-0.0138083733618259,0.0258296784013509,-0.0237594653921783,-0.0117385061457753,0.1318103254451416,0.0797876032683998,146
1733298520795207400,0.0036927170380949,0.0252789642937481,-0.0844803641945123,4.782465454696118,1.3370216342046857,8.45640501934588,-0.0356480777263641,0.0162561926990747,-0.000111212109914,0.7104748485654329,0.2230060573874898,-0.1382448691864246,0.6529794861844059,0.0104966219514608,-0.0011561448918655,0.0253309160470962,0.0010196566581726,0.0007859766483306,0.0017807483673095,-0.0097874300554394,0.0156309343874454,-0.0201116446584463,-0.0060536563396453,0.1607885278493165,0.1451750713929533,147
1733298520835207700,0.0174891872003674,-0.0199953248023986,-0.155920045030117,4.778396013300121,1.3284266782082617,8.4600594502002,-0.0338613614439964,0.0068935574963688,0.002430428750813,0.7106960106290042,0.2224721147406789,-0.138431145474742,0.6528815154198088,-0.0122001692652702,0.0051924050785601,0.0334357134997844,0.0023909211158752,-0.0047776997089385,0.0106047987937927,-0.0696535781025886,0.0268019139766693,-0.0572866523206233,-0.0167620480060577,0.1773101486591622,0.0706608054175972,148
1733298520875207700,0.1577688877671957,0.0519900072172284,-0.177011348375678,4.774585807362199,1.3086648699007928,8.465288583025336,-0.0807926878333091,0.0251006446778774,-0.0037204383406788,0.7109016941547103,0.2215132297950768,-0.1390046181272748,0.6528616998767391,0.0414907559752464,0.0158926658332347,0.0586508587002754,0.0029926300048828,0.0025946497917175,0.0074735134840011,-0.1295197308063507,0.0379728935658931,-0.0944604909390211,-0.02747043967247,0.1938333038389682,-0.003852145383507,149
1733298520915207700,0.1826373715639114,-0.0486319289609789,-0.1513853242099285,4.7634839831113815,1.2852372325621544,8.475126670950651,-0.0607965067028999,0.0315784066915512,-0.009655182249844,0.7114753123168384,0.2200641606505318,-0.1395011102330718,0.6526210086638998,0.0423696003854274,0.0353203192353248,0.0729718059301376,-0.0146359801292419,-0.0009163916110992,0.0093947649002075,-0.3690275847911834,0.0258214175701141,-0.0232820913881063,-0.0530937165021896,0.2239240523286163,-0.0478022001385688,150
1733298520955207700,0.2647977683782577,0.1384258893936872,-0.2861789945811033,4.755992750573158,1.2626308484785258,8.482728378126025,-0.1032150387763977,0.0061951344832777,-0.0357804410159587,0.7120574616248458,0.2187782590284694,-0.1401331232857939,0.6522828354633363,0.0786647573113441,0.0391927696764469,0.0915685966610908,-0.0036054253578186,0.0091163516044616,0.0074073076248168,-0.6085354685783386,0.0136699406430125,0.0478910474658012,-0.0787169933319091,0.2537669087381102,-0.0920788564994931,151
1733298520995207400,0.3608443594649433,0.1064490348964929,-0.1432739139467477,4.756761689119041,1.2332564315646886,8.48661778678,-0.1040810272097587,-0.0142664546146988,-0.0480993427336216,0.7130899461324807,0.2174314203589341,-0.1415149533115939,0.6513063018985213,0.0471923202276229,0.0508578941226005,0.088170401751995,-0.0159968733787536,0.0087220072746276,0.0122321993112564,-0.7445558309555054,0.0090361526235938,0.0028092122018337,-0.1467994153499603,0.1839500798639841,0.2306787872858345,152
1733298521035207400,0.3447264606177807,0.1937104811768978,-0.2153448784232139,4.755072713118791,1.205850099853426,8.49150146716833,-0.1050718948245048,-0.0252979360520839,-0.0777541622519493,0.7145948949263092,0.215965021725491,-0.1428741530603551,0.6498464188964352,0.0965055376291275,0.0676071494817733,0.0767914429306984,-0.0078697204589843,0.0197799205780029,0.0144959092140197,-0.7360124588012695,0.021627552807331,0.0139735802948474,-0.1482047438621521,0.189766912916582,0.4136094427078962,153
1733298521075207400,0.3830313490927219,0.1943102006357163,-0.0882727422147989,4.757768820334971,1.1868449551321565,8.492668757382035,-0.1089144721627235,0.0031564757227897,-0.0985856503248214,0.7161611356281737,0.214969470309718,-0.1441614547787306,0.6481658152220848,0.1231504678726196,0.0858866646885871,0.1014750152826309,0.0015551447868347,0.0170274674892425,0.0139887481927871,-0.7274690270423889,0.0342189520597457,0.0255190566599369,-0.1496100723743438,0.1935009118131361,0.5946060613274574,154
1733298521115207700,0.3645256783261895,0.2403880611997097,-0.1671434498339891,4.741258999560773,1.1756325831789525,8.50345435529053,-0.0653585419058799,0.0277243927121162,-0.1307029128074646,0.7181167038323817,0.2134943990044102,-0.1444459492553241,0.6464238976384145,0.1425710320472717,0.1179132536053657,0.107761412858963,-0.0081231594085693,0.0164413154125213,0.0161267071962356,-0.6791208982467651,0.0352864600718021,-0.0124526543378829,-0.2003329247236251,0.1950922361251898,0.7425358382560312,155
1733298521155207700,0.1587459161058068,0.2507908703356981,-0.4659527934074401,4.723480181764066,1.186627878315374,8.511817109966277,-0.0971865728497505,0.0190366264432668,-0.1696766465902328,0.7204891319066269,0.2127575320511337,-0.1440566688152805,0.6441097554341748,0.2084038406610489,0.1359584182500839,0.1541232466697693,-0.008633017539978,0.0176505446434021,0.0101840943098068,-0.6307727694511414,0.0363539680838584,-0.0500116928815841,-0.2510557770729065,0.1947632233665324,0.8887756162710487,156
1733298521195207700,0.0816901489540934,0.265436577738449,-0.3626069852232932,4.709406355965137,1.1613581202413883,8.523093706262111,-0.1992553174495697,0.0310694705694913,-0.1508811265230178,0.7232684142390491,0.2106278558553205,-0.1451863171961754,0.6414357198362532,0.2039233297109604,0.1406296491622924,0.193475991487503,-0.0045568346977233,0.0150244235992431,0.0086763352155685,-0.588477611541748,0.0542068406939506,-0.1497574307471513,-0.3089686334133148,0.2054059970045462,1.0017306720606982,157
1733298521235207700,0.0601499327972531,0.2525365449592471,-0.3557838612049818,4.690544711367786,1.1211366575554012,8.538865860411525,-0.2188269942998886,0.028385404497385,-0.190629094839096,0.726389122580651,0.2076492341405656,-0.1466997122475866,0.6385294303713437,0.2071188688278198,0.1410776972770691,0.2011792510747909,-0.0124874114990234,0.0185893177986145,0.0052302479743957,-0.5461824536323547,0.0720597133040428,-0.2483294486582279,-0.3668814897537231,0.213420066106785,1.113336066807061,158
1733298521275207400,-0.077852762748301,0.1456207693338394,-0.3536304825633764,4.6760666886821385,1.0821556964498014,8.551825879749655,-0.2163030058145523,0.0262083932757377,-0.1729647070169448,0.7297280147014695,0.2048134758228557,-0.1484239692916567,0.6352312590190662,0.2347305119037628,0.1386072337627411,0.211728885769844,0.0031772255897521,0.0274844616651535,0.0009664893150329,-0.5398725867271423,0.0594089403748512,-0.259426012212038,-0.481458306312561,0.2973147759004496,1.079052835063636,159
1733298521315207400,-0.1566451444342732,0.2591806591488421,-0.5773270097464323,4.649364267456531,1.032790338647738,8.572464178630709,-0.2557490170001983,0.0844402760267257,-0.1678544878959655,0.7329829965783777,0.2011432843082597,-0.1498911447606616,0.6323052276048425,0.2084064930677414,0.1177706718444824,0.2028219550848007,-0.0024822950363159,0.023827314376831,-0.0011700317263603,-0.5335627198219299,0.0467581674456596,-0.2676671863347292,-0.5960351228713989,0.3775629641516134,1.043276880544424,160
1733298521355207700,-0.2728524800181389,0.2246586502134799,-0.5551812289118766,4.627157111823559,0.9715443542420864,8.591618376433848,-0.276701420545578,0.0195387955754995,-0.1690319031476974,0.7362728771311607,0.1971354277023062,-0.1519440965951658,0.6292478264428805,0.1538465917110443,0.1321772933006286,0.1543521583080291,-0.015414535999298,0.0196483433246612,-0.002334214746952,-0.5018002390861511,0.054024588316679,-0.2452554480403661,-0.6923083066940308,0.5255157200969756,0.8309238774135709,161
1733298521395207700,-0.3598611936464905,0.0908815364737063,-0.2818687301665544,4.611364499408007,0.906004106708616,8.607256090548635,-0.2423615455627441,0.0529578551650047,-0.1051910519599914,0.7391870177451241,0.1932526321374007,-0.1542902492549411,0.6264587929195213,0.22365203499794,0.1265332549810409,0.1517190933227539,0.0005298852920532,0.0395004153251647,-0.0175459384918212,-0.4700377881526947,0.0612910091876983,-0.2174240227848291,-0.7885814905166626,0.6688435561880469,0.6159653679594397,162
1733298521435207700,-0.1732055263519287,0.2219117626581341,-0.2605097157955169,4.586617303903401,0.8517381173834204,8.625999369463324,-0.1596350818872451,0.0809502080082893,-0.0967176929116249,0.741291169226162,0.1897066303803118,-0.1555885926548168,0.6247327629231676,0.2440758198499679,0.1301314085721969,0.1369973868131637,-0.0135872364044189,0.0369142144918441,-0.0129929929971694,-0.4403928816318512,0.1162421032786369,-0.2761883464425802,-0.8372677564620972,0.7240338207513094,0.5267705424636602,163
1733298521475207700,-0.1038841528445482,0.1702978222116828,-0.3494932366281748,4.543033305981755,0.821200867235288,8.65198604363501,-0.1504255384206771,0.1700537353754043,-0.0880403816699981,0.7433746126033018,0.1864820772084876,-0.1552285831634551,0.6233159400718317,0.3680901825428009,0.1249958723783493,0.1131637021899223,-0.0069458484649658,0.0536506325006485,-0.0096997618675231,-0.4107480049133301,0.1711931973695755,-0.3267465672910213,-0.8859540224075317,0.7739503096301108,0.433677248224616,164
1733298521515207400,-0.1855377691805362,0.1527772169597447,-0.5941559794723987,4.477144245010615,0.7655489034444093,8.691345994120836,-0.2127693891525268,0.1635423004627227,-0.009191601537168,0.7452043519825332,0.1815650563416511,-0.1545923892201567,0.6227404893431421,0.3845735490322113,0.1321772933006286,0.1333890706300735,-0.0113950371742248,0.0386748909950256,-0.0084568858146667,-0.3825498819351196,0.1635303944349289,-0.3802344118505716,-0.921862781047821,0.7544425491489469,0.5235457351982593,165
1733298521555207400,0.1290901980325579,0.2386126490250229,-0.2098912891924381,4.416900204189122,0.7081444699630141,8.726964419990777,-0.1483596116304397,0.2124210000038147,-0.0700734332203865,0.7468250411949283,0.1768304237955067,-0.1542065163894714,0.6222569009011978,0.4344673454761505,0.1234403774142265,0.1681121736764907,-0.0139426589012146,0.0485235303640365,-0.0142089873552322,-0.3495569229125976,0.1941768676042556,-0.3429395772010087,-0.8946402668952942,0.7132119094204157,0.233164905013144,166
1733298521595207700,-0.1339057816207408,0.0644880350667983,-0.6067465809762478,4.333185563670098,0.6615534722451121,8.772470033624767,-0.2034402042627334,0.2548607289791107,-0.0097502274438738,0.7486907558022823,0.1716990156221825,-0.1524727506131304,0.6218791649923692,0.5381505489349365,0.077338770031929,0.1500799059867859,-0.0210275053977966,0.0550484508275985,-0.0147332474589347,-0.3532439470291137,0.1059291735291481,-0.2803746922165155,-0.8710305094718933,0.5980151756512001,0.2612044200614095,167
1733298521635207700,-0.1381695765450596,0.2999903335189446,-0.5801607718676328,4.254250850903988,0.5677581306839361,8.81756122123897,-0.2883524298667907,0.1860419958829879,0.0252319909632205,0.7501150865601669,0.1649506328418155,-0.1523836918968104,0.622011108665026,0.459765762090683,0.0457611382007598,0.1362027823925018,-0.013559341430664,0.035555675625801,-0.0096743628382682,-0.1391001343727111,0.1023755371570587,0.201291803151369,-0.6908211708068848,0.3578530686944723,-0.2113508403509855,168
1733298521675207700,0.2630696294113993,0.1700244851630181,0.6343395213007926,4.2048096513867375,0.4862860083946957,8.846099917981029,-0.0712735801935195,0.1564193964004516,-0.0827903896570205,0.7514607409536803,0.1597057326433276,-0.1531943309515326,0.6215563003718386,0.3760551810264587,-0.0451779328286647,0.1773562729358673,0.0157423019409179,0.0232407450675964,-0.0145363807678222,0.0750436931848526,0.0988218933343887,0.6884551423698664,-0.510611891746521,0.1154487997009884,-0.6873141556411981,169
1733298521715207700,-0.4757929271593689,-0.1134723576620221,0.0977501801341772,4.154633415593207,0.541286266811192,8.866589748302102,0.1817589998245239,0.0600430592894554,-0.0009536133147776,0.7523212559153951,0.1600539920959314,-0.1493735422114493,0.6213556908958207,0.2938734889030456,-0.0959168002009391,0.1798758804798126,-0.0016822218894958,0.0022860616445541,-0.0015155524015426,0.4322737455368042,0.1004357188940048,0.7569318817466497,-0.0719419419765472,-0.4498053762048483,-1.3467723361074924,170
1733298521869921800,-0.4629202938437461,0.3632803544402122,1.2977929088830946,4.294241500508785,0.1824480778031982,8.814566715598106,-0.111541248857975,-0.3729528188705444,0.280740886926651,0.7444140717876377,0.1522786009082573,-0.1655095060352581,0.6287014748341204,-0.2186779826879501,-0.0657987892627716,0.420417308807373,0.021734595298767,-0.0815754011273384,0.0194549560546875,0.8770223259925842,0.0358126871287822,0.7071389461822808,1.915345549583435,-1.301045919329673,-1.9012452706195413,171
1733298521909921500,-0.0083978259891271,0.522947805837728,1.4944599748432634,4.423156341974437,0.0613871829746291,8.752274217814207,-0.3118531703948974,-0.3038507103919983,0.1980763971805572,0.7407528322734401,0.1527169096745349,-0.1744584077111592,0.6304976045731661,-0.1625164449214935,-0.0167617369443178,0.5155131220817566,0.014696717262268,-0.0499009788036346,-0.0064328908920288,0.7327443361282349,-0.0050041712820529,0.0659679714262485,1.8556612730026243,-1.0365955030843614,-1.1971899696663022,172
1733298521949921500,-0.135240829616785,0.4016275842195376,2.0085674350887537,4.5191737069666384,-0.0606034761178772,8.703090792450308,-0.1353482604026794,-0.2539551854133606,0.2112069875001907,0.7381896341359061,0.1517679629661346,-0.1822974470271132,0.6315143534202065,-0.1908194571733474,-0.0015101854223757,0.5510875582695007,-0.0027414560317993,-0.0418718233704566,-0.0229799151420593,0.5884664058685303,-0.0458210296928882,-0.5130623351067304,1.795976996421814,-0.794078174770996,-0.5193135044559836,173
1733298521989921800,0.1448190975621342,1.2281206761114298,1.4272978251963853,4.581334979586303,-0.0925209194448776,8.670247676512599,0.0900022238492965,-0.1201857030391693,0.0698558986186981,0.7354347425587271,0.1533684802656947,-0.1855222434332754,0.6333998599611856,-0.2568717002868652,0.0233255494385957,0.5494807958602905,-0.0729244947433471,-0.0158871673047542,-0.0442428439855575,0.4800284802913666,-0.0946791470050811,-0.8694213658511638,1.5467240810394287,-0.6207778828077017,0.2325488189414143,174
1733298522029921800,-0.0427227049171924,1.48309949965626,0.8301666293054819,4.630162431119382,-0.0226364458617521,8.644736218637227,0.2501256763935089,-0.1895422637462616,-0.2441927045583725,0.7354635925673855,0.1577758150248533,-0.1853318788721805,0.6323386239255939,-0.2759497761726379,0.0116597851738333,0.5426440834999084,-0.0891732573509216,0.0126544963568449,-0.0566649287939071,0.4815762639045715,-0.0362511649727821,-0.856962866294384,1.353564977645874,-0.6705928840734064,0.7513788507293909,175
1733298522069921800,-0.7226014498606323,1.2016709875378755,0.3750327515542507,4.703111639735102,0.1422243774943519,8.604121299654246,0.3389036059379577,-0.1931426078081131,-0.3142550587654114,0.7376262006226342,0.1661665890066142,-0.183577153532309,0.6281686065119789,-0.4766658246517181,0.0104633327573537,0.5519108772277832,-0.1003926992416381,0.0037851268425583,-0.0455919355154037,0.4831240475177765,0.0221768170595169,-0.8186971407860517,1.1604058742523191,-0.7297674690324812,1.2655775694549083,176
1733298522109921800,-0.5976330079331994,1.1868525539167225,-0.1055161379605531,4.745287816685438,0.3102716351671144,8.576500302278996,0.2867553532123565,-0.0526274107396602,-0.3121682703495025,0.7396105802021135,0.1737397540145857,-0.1803736787458776,0.6247048336572089,-0.4929260313510895,0.0709410011768341,0.6265954971313477,-0.0783296823501586,0.0614324137568473,-0.0660371333360672,0.3993929624557495,-0.0232558622956275,-0.7578542572885751,1.077182412147522,-0.7662900041352957,1.3539083254672586,177
1733298522149921500,-0.9322554231658576,0.6951983330197632,-0.983070541384816,4.752802430099249,0.475566278796643,8.56475842655897,0.332287073135376,-0.1196502819657325,-0.3244057297706604,0.7424914421815506,0.1798242330630457,-0.1760172748956312,0.6207960072133528,-0.383491963148117,0.1170993894338607,0.6746224761009216,-0.0474984049797058,0.1002752855420112,-0.0771932005882263,0.3910456299781799,-0.0207441244274377,-0.6934644949644804,0.9564040303230286,-0.730028019664809,1.3547664036013185,178
1733298522189921500,-0.6006552783638238,0.7250530807964504,-1.8443916028887035,4.811906360974907,0.6674744597919285,8.518827280989289,0.2221844941377639,-0.248403325676918,-0.4831460118293762,0.7457145204908637,0.1886533313372057,-0.1734088049703413,0.6150195277177022,-0.2372838854789734,0.2064445614814758,0.6979577541351318,-0.0542696714401245,0.1565039455890655,-0.0942298769950866,0.3826982975006103,-0.0182323865592479,-0.6143968034684658,0.8356255888938904,-0.6994069636907428,1.355288527779281,179
1733298522229921800,-0.638833617849648,0.7170148088347167,-1.1959656885683536,4.8572673054412006,0.706338078128174,8.489901630756258,-0.4679528772830963,-0.0399692952632904,-0.4506503343582153,0.7513858238668436,0.1901141222559238,-0.176045779582131,0.6068639498701411,-0.0883364826440811,0.2704712748527527,0.7039160132408142,-0.0779860019683837,0.1972416043281555,-0.1279838681221008,0.3908134996891022,0.0324282422661781,-0.6909563115358353,0.7163872718811035,-0.796929107222706,1.4446895433716476,180
1733298522269921800,-0.5822054294377565,0.2192996804635971,-0.3985521588295698,4.809318098047376,0.6200177120901644,8.523873458462953,-0.3165728747844696,0.2036580443382263,-0.2781125009059906,0.7580642554116093,0.1830468333604337,-0.1785980112813708,0.5999459616491253,0.0818211361765861,0.2686726748943329,0.6471734046936035,-0.0784918069839477,0.2454399913549423,-0.1625059843063354,0.32748544216156,-0.0082506872713565,-0.320379954868555,0.6080769300460815,-0.8019513923641294,1.539913273768127,181
1733298522309921800,-0.622815087723732,0.7703490702677518,-2.17676068623662,4.783488660264015,0.66497482499592,8.535011523070931,0.1748821884393692,-0.1702013313770294,-0.3138707876205444,0.7616444246975046,0.1830159492376189,-0.177032954445338,0.595870956697009,0.1691344678401947,0.2552502751350403,0.5376889109611511,-0.0689688324928283,0.2792466878890991,-0.1870754957199096,0.2641573846340179,-0.0489296168088912,0.0584480973154306,0.4997665584087372,-0.8111418300356715,1.6359014126658438,182
1733298522468808000,0.3051782940834761,-1.3782476708233355,-2.464842299568653,6.391852662184834,0.5197768111187965,7.419193722450733,0.2731790244579315,-1.8054648637771609,-0.2246880382299423,0.7680971407097605,0.2224132379881504,-0.2688098435227571,0.5369361799629365,0.1318408846855163,-0.2132483124732971,-0.4324688613414764,0.2379088997840881,0.3127880692481994,-0.1647791266441345,0.5181528329849243,0.0101914759725332,1.4356744622670112,0.3147061169147491,0.5799383978212251,-0.0443110061550978,183
1733298522508571000,-1.212652619475126,-2.503544662928581,-4.382730515822768,7.028916055491567,0.6395088867627083,6.808505125850439,0.3865373134613037,-2.741842746734619,0.2303174436092376,0.75417718705429,0.2522219533861778,-0.298742230012314,0.5275925100569737,-0.0887814983725547,-0.3149366676807403,-0.989501178264618,0.130507230758667,0.2735067307949066,-0.0490862652659416,0.4947648346424103,-0.2221909463405609,-0.4066782186726108,-0.1018520668148994,1.2586883944630622,-1.7613683056347071,184
1733298522548571000,-0.4766308392882347,-3.363549381136894,-3.109119277516008,7.836406158086657,0.5966003769498318,5.86559299185276,0.7056990265846252,-3.471128463745117,0.7183782458305359,0.7259813497454121,0.2884200056163548,-0.343149938757303,0.521548660813643,0.3608205616474151,-0.3156548142433166,-1.4742242097854614,-0.0278589129447937,0.3012288510799408,-0.0460797473788261,0.2849847674369812,-0.1484454721212387,0.0582516979604959,-0.0380307808518409,1.3027837029077112,-1.423809106297791,185
1733298522588571000,0.0627682986021041,-4.83324754742831,-2.242893785096705,8.63027806969583,0.5793496016152203,4.6209345840469,1.545981764793396,-3.7108542919158936,1.1540271043777466,0.6825354758081428,0.3380851892583418,-0.3874226555592239,0.5193721192903821,0.4146994948387146,-0.1928073912858963,-2.061884641647339,-0.0609720945358276,0.2005289047956466,-0.0030884146690368,0.0752046853303909,-0.0746999904513359,0.5233768083721398,0.025790512561798,1.3470108210384846,-1.085847609770298,186
1733298522628571100,0.9505091649979353,-5.250984006938338,-3.9739986160233616,9.17232392270267,0.084596008197125,3.468672428126633,-0.4578599631786346,-2.605853080749512,2.2730422019958496,0.6332065807481221,0.3669560814211357,-0.4341545357895974,0.5252641413782624,0.4792196452617645,-0.1140908971428871,-2.418134450912476,0.0966259837150573,0.1356227248907089,0.0451942756772041,-0.0047410354018211,-0.0225586295127868,0.4119821337670087,0.0761036574840545,1.1655348944693804,-0.8054684605743736,187
1733298522668571000,4.382986536410451,-4.657994733157754,-2.0152286465436218,9.39354909133613,-1.0363144211206583,2.618716810245812,-2.495033025741577,-1.7939348220825195,2.3707215785980225,0.5988324610025779,0.3464442822144176,-0.4964463353119283,0.5243253789572007,0.8367817401885986,-0.2980208396911621,-2.4219937324523926,0.3725938200950622,0.1182048320770263,0.0631585121154785,-0.0846867486834526,0.0295827277004718,0.3007294979810714,0.126416802406311,0.9840561914213,-0.5251198526471853,188
1733298522708571000,4.26741486838162,-4.02557887339592,-0.4772264670938253,9.417841236549616,-2.092204918718338,1.7599201526530086,-3.281977653503418,-1.939521670341492,1.9962936639785769,0.5770548094957116,0.3081851958504362,-0.5615077289420782,0.5066938507942218,0.7163868546485901,-0.4351638853549957,-2.2862679958343506,0.2986366152763366,-0.033303827047348,0.1591219305992126,-0.1596917361021042,0.0488251820206642,-0.0860229174613952,0.1633301824331283,0.8861137766506523,-0.1054993329562246,189
1733298522748571000,4.170971679192781,-3.034261897191405,1.974757519945502,9.316164822882412,-3.0069074417978525,0.5813519544135779,-3.477527379989624,-2.323730945587158,1.9312269687652588,0.5508270036631211,0.2671182205765291,-0.6316701321861394,0.4756367611080036,0.5333030819892883,-0.3022452592849731,-2.187858819961548,0.1674032211303711,-0.0887142717838287,0.1765210032463073,-0.1782052665948867,0.0650418326258659,-0.5325286675989628,0.2672613263130188,0.905608312324062,0.2391105155445635,190
1733298522788571000,4.839096565717458,-1.6320526282832026,5.055421102827787,9.107277157774568,-3.597781330859661,-0.5327737284012138,-2.876011610031128,-1.3227301836013794,1.424829363822937,0.5267200547578963,0.2297620922515864,-0.6887476183520409,0.4420430556889707,0.3097387254238128,-0.1839460432529449,-2.0554232597351074,0.0898758769035339,-0.1858886182308197,0.1553366184234619,-0.2191304117441177,0.0046554878354072,-0.9107482324957848,0.3426475822925567,0.9999424004044384,0.4643060491137206,191
1733298522828571000,3.381320015627145,-0.0222168002441525,4.305283119004964,8.856642939305305,-4.016053796942532,-1.2655446900986134,-3.2878310680389404,-0.3789722621440887,1.4108238220214844,0.516332447377887,0.1833460019018516,-0.7286350710865982,0.410945417368555,0.4389688968658447,-0.0465228296816349,-1.8462464809417725,-0.0131621360778808,-0.182441234588623,0.1414638608694076,-0.2986355721950531,-0.073718674480915,-1.5442460422754287,0.348580002784729,0.9334314081426708,0.4702488831661641,192
1733298522868571000,3.1471149539113044,1.606794268386066,6.065292557376623,8.644176831188798,-4.213480449098348,-1.9222763682104649,-2.9595563411712646,-0.2869182229042053,0.8355403542518616,0.5118981211255874,0.1365892349007332,-0.7611518885579983,0.3741007506599949,0.6455411911010742,1.1864234693348408e-05,-1.574244499206543,-0.0753330588340759,-0.2248923778533935,0.1306103467941284,-0.3442743420600891,-0.037532951682806,-1.561459627404809,0.2674218416213989,0.9334460942551494,0.7421883399926126,193
1733298522908571000,1.5057009153038263,2.2369302005171776,7.209606969162821,8.531091134756803,-4.206011428391933,-2.387531534742564,-2.219871759414673,0.1297720670700073,0.5392472147941589,0.5122457240350279,0.1010220926804542,-0.7820004891505221,0.3404026540151925,0.7819810509681702,0.0428803972899913,-1.1049928665161133,-0.1292130351066589,-0.2782012820243835,0.1345213204622268,-0.3899131119251251,-0.0013472288846969,-1.5777835702180862,0.18626369535923,0.934856545574963,1.0144793867357074,194
1733298522948571000,0.8060995250195264,2.92374254411608,6.682601448899507,8.456170041546224,-4.194914572577178,-2.6582474411234256,-1.561410903930664,0.0316847935318946,0.4688969254493713,0.5142386003163703,0.0723565909805295,-0.7939127324319613,0.3162685974728564,0.6857000589370728,0.0448439978063106,-0.558106005191803,-0.1407530903816223,-0.3168370127677917,0.1426589637994766,-0.2954525947570801,0.1098070293664932,-0.980847604638338,0.1794051975011825,0.8782157899424433,1.348717186564952,195
1733298522988571000,1.2924538859426975,3.2576775616064664,6.856445273154973,8.380568564856052,-4.176451864169538,-2.914392239707708,-0.8975383639335632,-0.3089456558227539,0.2588615715503692,0.5111744108170367,0.0552479199789963,-0.8034552409976681,0.3001798871004173,0.4312153458595276,0.1104861721396446,0.0346080400049686,-0.1090449690818786,-0.3197524547576904,0.1482899338006973,-0.2241977155208587,0.0413745418190956,0.5911608893096446,0.2549350261688232,0.7073617951527238,1.5379425582170485,196
1733298523028571000,2.3333336422175166,2.797907840748131,7.648171989428997,8.303657174611091,-4.172030540595949,-3.132707658374309,-0.2806241512298584,-0.34652841091156,0.1666013300418853,0.5047648238732435,0.0482428318594788,-0.8107997743387234,0.2923849327435458,0.0646914169192314,0.1748747080564499,0.7274266481399536,0.0305104255676269,-0.2980713844299316,0.1557016372680664,-0.1529428362846374,-0.0270579531788826,2.1642373047500847,0.3304648995399475,0.5368460193414241,1.728336535257101,197
1733298523068571000,4.027432392308116,2.2670015136539936,7.488546075618267,8.25841401130557,-4.193136456988752,-3.222826905238628,0.0644033253192901,-0.1847881227731704,-0.0494895130395889,0.5004248859586495,0.0475410430822668,-0.813669643780903,0.2919872842314418,-0.3967635631561279,0.2532879710197449,1.426804542541504,0.1360227465629577,-0.262120246887207,0.1504001319408416,-0.1965637952089309,-0.0888795256614685,2.99312909181416,0.2521036267280578,0.0630287761691957,1.3272972357869148,198
1733298523108571000,6.373706180119514,0.1624421402752399,8.099393077650666,8.28883194592297,-4.162703324802219,-3.1839477240070697,0.5130344033241272,0.3021973967552185,-0.2333461046218872,0.5012547674934105,0.05283925111559,-0.8121232468181139,0.2939513609936265,-0.560163140296936,0.5081140398979187,2.310627222061157,0.4110726714134216,-0.1501812934875488,0.1261419653892517,-0.2610593438148498,-0.0010247081518173,1.4544576348006724,0.1095304191112518,-0.5608164583198726,-0.0277732653275132,199
1733298523148571100,5.40348167630434,-0.1938049545273184,8.275244734597205,8.394154022616148,-4.264049483601749,-2.7434412142843008,1.581847906112671,1.319848656654358,0.0711147710680961,0.513397913090428,0.0593308733258752,-0.7977195121584322,0.3107186983608918,-0.3054765164852142,0.5269594788551331,3.00229287147522,0.6111869812011719,-0.0162282586097717,0.1024290919303894,-0.3255548775196075,0.0868301093578338,-0.0839776753693819,-0.0330427587032318,-1.1842736433394252,-1.3827479048520326,200
1733298523188571000,3.58603360992074,1.7239862310931084,5.67925910385847,8.552717275631426,-4.444996417860686,-1.8064887193433936,2.610203742980957,1.8100675344467163,-0.183129221200943,0.5373031568955291,0.0705667090470061,-0.7662412334964984,0.3452534838170368,0.0766769722104072,0.574655294418335,2.894953727722168,0.3081673979759216,-0.0278645753860473,-0.0289363116025924,-0.2617506980895996,-0.0126454979181289,0.155244922247529,-0.048472411930561,-1.1638966257430612,-1.3904549720980226,201
1733298523228571000,3.2378695760697123,1.4898700167044996,2.4331378322720525,8.72416163752973,-4.421720171691477,-0.712605175698921,3.31909704208374,1.2424192428588867,-0.836044430732727,0.5594728473108921,0.1003314024815544,-0.725442183231804,0.3881462768777956,1.0969537496566772,0.4370553493499756,2.1607775688171387,-0.138641357421875,0.0001341849565505,-0.1619995683431625,-0.1979465186595916,-0.11212108284235,0.3944628436893224,-0.0639020651578903,-1.143499515206739,-1.3981304751619696,202
1733298523268571000,5.184654800984263,-2.781057535973192,2.2488953635990616,8.970013297897577,-3.944254342883825,0.3899637421717867,3.453988790512085,0.7795820236206055,-1.3777989149093628,0.5767271005825803,0.157598536600128,-0.6747444583538982,0.432745102140022,1.112235426902771,0.4052477180957794,1.5436371564865112,0.0515081286430358,-0.0406483262777328,0.0963538959622383,-0.1175799071788787,-0.2070015519857406,0.6674696374863386,-0.0422542728483676,-1.091096835535392,-1.0793392507895827,203
1733298523308571000,5.256073439031839,-4.712564527735114,1.2490357461072503,9.157320999360085,-3.286762786315381,1.2292618089705705,3.511455774307251,1.0327802896499634,-1.5784423351287842,0.5892957677873036,0.2096068157374757,-0.6272081555500505,0.4641181156569513,-0.7335469126701355,0.228104680776596,1.3110545873641968,0.2434759140014648,-0.2522847950458526,0.2750425934791565,-0.0938577502965927,-0.2507409453392029,-0.1260205813288688,-0.013553898781538,-0.8925074962757528,-0.8192693877160548,204
1733298523348571000,4.1399896809518335,-4.837456689555943,0.1578369845673441,9.279362155663966,-2.444507805939764,2.021933843270689,3.449432611465454,1.0642763376235962,-1.827588438987732,0.6017420992369967,0.2607585421731659,-0.5735111585987425,0.4909139075510054,-2.226367950439453,0.1394081562757492,1.2325282096862793,0.1204050183296203,-0.0869149416685104,0.0141424089670181,-0.0701356008648872,-0.2944803237915039,-0.918729878899455,0.0151464771479368,-0.6941723509728908,-0.5594736654087901,205
1733298523502949400,-2.8333815974503755,-4.860371408936381,-3.5749960830777883,8.995757395485043,1.323387661127746,3.6736072639554735,1.8018862009048464,0.5731557607650757,-1.728200078010559,0.6479063772655412,0.4087637013297419,-0.3815892961740602,0.5172226300441426,-0.5601511597633362,0.18110953271389,0.8781898617744446,-0.3005464673042297,0.3215489685535431,-0.1011761426925659,0.0686019137501716,-0.1696403920650482,-3.455323409470916,0.1173232942819595,-0.6265056128047406,0.0210005471890326,206
1733298523542721000,-3.4578280857682224,-5.303462382194399,-3.7180446638360616,8.819941394373775,2.0901443329267204,3.743034143663943,1.2195944786071775,0.4055905938148498,-1.3585435152053833,0.6544774907664925,0.4344628968114575,-0.3469875591834785,0.5123482893913385,-0.7949162721633911,0.1178067252039909,0.711738109588623,-0.254920482635498,0.3440342545509338,-0.1280949115753173,0.0859794840216636,-0.1134143620729446,-2.2137881021216512,0.0070953071117401,-0.7817701165355742,0.7966429837577045,207
1733298523701805600,-0.767289609631896,-8.492000648862122,-4.574702701964974,8.728758317670225,2.589844643765688,3.643058688695728,-1.5757508277893066,-0.954478681087494,1.174158811569214,0.6671582571844547,0.4468328647080572,-0.3385204429326542,0.490555040045713,0.3971809446811676,0.2540327906608581,-0.7299563884735107,0.3299378752708435,0.4238419532775879,-0.1559889912605285,0.2691317200660705,0.0676177367568016,3.985427772532403,0.0281582530587911,-0.5554607399730012,2.2561584864698347,208
1733298523741805800,0.3881868321597576,-8.195435284823178,-3.920915845133364,9.035240680089592,1.7161268958948552,3.404366252432764,-2.2894997596740723,-1.3551902770996094,2.192537546157837,0.6594484769856768,0.4198055481127526,-0.387542159009853,0.4885713837534672,-0.020864762365818,0.0610346309840679,-1.1699374914169312,0.5162080526351929,0.348749577999115,-0.2303686738014221,0.2652922868728637,-0.0630728378891944,1.496805661186576,-0.1244904622435569,0.9317509807750582,0.4244333268001675,209
1733298523781805800,1.6345821467608213,-5.131292044109106,-1.9985753256455063,9.354353976023196,0.4690334794944152,2.9062767377913,-1.9633867740631104,-1.8920842409133911,2.9555788040161133,0.6380243955596504,0.3848412797433286,-0.4513516534716144,0.4910230678701684,-0.0542205870151519,-0.2102700620889663,-1.624659776687622,0.2968277931213379,0.3794920444488525,-0.2316778898239135,0.2795781195163727,-0.1441098302602768,0.5846528225898743,-0.0412077829241752,1.5074866296768188,-0.174560740353167,210
1733298523821805800,3.2926170653015374,-2.314038282378018,-0.9496652615197002,9.5305762198478,-0.8516948627635836,2.147813408693671,-1.5213321447372437,-2.00164794921875,2.992473840713501,0.6014561817602083,0.3539782203502285,-0.5149673856343593,0.4977533528953438,0.1407030820846557,-0.2656940519809723,-2.34682297706604,-0.0663350224494934,0.2679685056209564,-0.1250064969062805,0.1305394470691681,-0.0113831758499145,0.2857908720463514,-0.1176003590226173,1.4404434302344915,-0.4519749753288924,211
1733298523861805600,5.110756621080637,-1.6488994259268044,-0.0006589023001492,9.510483279889822,-1.970834062891453,1.3553275446154176,-1.4715933799743652,-1.7852259874343872,2.38965392112732,0.5645752894168318,0.326640468714606,-0.5693887309946956,0.5003571285832447,0.7429492473602295,-0.0925671830773353,-2.8961331844329834,0.0769218802452087,0.251386821269989,-0.0703252553939819,-0.0184992104768753,0.1213434934616088,-0.0128209031283855,-0.19399294257164,1.3736566897712648,-0.7292796124503016,212
1733298523901805600,4.14652405115664,-1.1612132318779826,1.2116858202695846,9.37652489129901,-2.818398547852039,0.5547860921144485,-1.7185293436050415,-1.5951403379440308,1.820279002189636,0.5334513098907735,0.3016460323160116,-0.617027918303081,0.4936758881736655,1.0610543489456177,-0.6053779721260071,-2.981137990951538,0.5734034180641174,0.0705855041742324,-0.0391972064971923,-0.1184068545699119,0.1761568933725357,-0.486139841389656,-0.2459074854850769,1.014827177260071,-0.8060812587104738,213
1733298523941805600,2.33821323095262,0.1424237268581986,2.923439469516277,9.187923058372736,-3.4266698541775344,-0.102023016881477,-2.0975170135498047,-0.5032559633255005,1.4290294647216797,0.5144378925135815,0.2725524479245281,-0.6564426017491887,0.4797416336477042,0.635693371295929,-0.6233522295951843,-3.000626802444458,0.2689300775527954,-0.1491748988628387,0.1274908185005188,-0.1544172763824463,0.2310639917850494,-0.9105886580199004,-0.1795222461223602,0.8052735955893993,-0.4829316929981112,214
1733298523981805600,0.6585235299646854,0.7410685421824454,2.674135038346052,8.989809300735592,-3.894231544086337,-0.4343600428570062,-2.699094295501709,0.4674851298332214,1.315809726715088,0.5146365442357944,0.2288539151828334,-0.685399215427915,0.4615224697756795,1.068523406982422,-0.5427044630050659,-2.831861019134521,0.1712700724601745,-0.1333228945732116,0.1249486804008483,-0.1904276907444,0.285971075296402,-1.3332342246204614,-0.1131369993090629,0.595296966201067,-0.1588451386965811,215
1733298524021805800,0.4955880532145499,1.3029253033354875,3.3953438648045062,8.8001997520715,-4.269790073080361,-0.704111415054649,-2.390223741531372,0.3444210290908813,1.0873117446899414,0.5205593184538834,0.1806736532222648,-0.7094058949379692,0.4394523161275955,1.113439440727234,-0.6209068298339844,-2.46130895614624,0.1579976081848144,-0.3066359162330627,0.2099937200546264,-0.1734011173248291,0.2528572678565979,-1.7298633064329625,0.0037453845143318,0.5655876913096756,0.0453862250380218,216
1733298524061805800,0.1380208157241344,1.6329986769616602,3.490985674482584,8.638224060264228,-4.5352200018823146,-0.9915887788832188,-2.0451934337615967,0.1806908100843429,0.9388678073883056,0.5230278796786142,0.1418829081372825,-0.7283036432202002,0.4193863212148929,0.924621284008026,-0.5777151584625244,-2.0098190307617188,0.0236979126930236,-0.3914461135864258,0.274634838104248,-0.1558787524700164,0.2760353982448578,-1.126536178511381,0.0593919977545738,0.663633566454798,0.5158037427693605,217
1733298524101805600,0.3769435536116361,2.463721478845179,4.324121090465784,8.453322250899673,-4.789239771136641,-1.3322665486320853,-1.5824559926986694,-0.1887844502925872,1.0275570154190063,0.5197044472759811,0.1077606081058343,-0.7458648277717854,0.4024682915801703,0.8918870687484741,-0.4030441045761108,-1.4717191457748413,-0.0417234897613525,-0.4114153385162353,0.2849555909633636,-0.1383563876152038,0.2992135286331177,-0.5215285501569509,0.1150386109948158,0.7616267615646124,0.987131945604831,218
1733298524141805600,1.6372352916181083,3.816560275384784,4.987876091343164,8.252613216072321,-5.02563211376369,-1.6756478782512247,-1.0850160121917725,-0.2858879566192627,0.8140758872032166,0.5107108124865185,0.0823001212095794,-0.7606976763452562,0.3920972925047431,0.695606529712677,-0.5202473402023315,-0.9854578375816344,-0.0170282125473022,-0.4909012913703918,0.3149203062057495,-0.1814757287502288,0.3614024817943573,0.6055050564825535,0.1003045737743377,0.4587936423677951,1.354654321528971,219
1733298524181805600,3.485899164998531,3.735633219757676,5.565529848825931,8.076897752726078,-5.199837172546983,-1.973777861258388,-0.5815004110336304,-0.5225769281387329,0.6310026049613953,0.5004737376247099,0.0656471390688035,-0.7722209008446083,0.3858644536782585,0.4259849190711975,-0.2207006514072418,-0.2870998680591583,-0.0508171319961547,-0.475566565990448,0.3354589343070984,-0.2245950698852539,0.4235914349555969,1.7339982142806052,0.0855705365538597,0.1560299351453781,1.7228709633275865,220
1733298524221805600,6.0395858691900965,3.444835917726159,6.626922231775522,7.942852270373701,-5.308722494679689,-2.2133616934031246,0.0477877594530582,-0.5079924464225769,0.1136687695980072,0.488883399309536,0.0608177499280209,-0.7804814167072278,0.3848936071232406,0.1157540678977966,-0.2185271829366684,0.6085540652275085,0.2387422919273376,-0.4315639138221741,0.3543290197849273,-0.1449595093727111,0.2428662925958633,3.0105086811602115,0.2118169665336609,-0.4662725999463349,1.823535861864686,221
1733298524261805800,7.547713134858012,1.5936369729101656,6.254445009922981,7.964320005816221,-5.254970446226,-2.263909246727079,0.3768423199653625,-0.0710362419486045,-0.4893131852149963,0.4853821731648822,0.0693861642165851,-0.7814171794479403,0.3859753085114959,-0.9228481650352478,0.0995172038674354,1.6486343145370483,0.30384361743927,-0.4433112740516662,0.3778960704803467,-0.1914001703262329,0.2507706880569458,1.771050472345948,0.0497446060180664,-1.0556818232830614,0.6635293754279613,222
1733298524301805800,7.020414769127965,0.1393330673664808,6.109178460854292,8.109743206751347,-5.108648250624537,-2.074649680544436,0.9523959755897522,0.4354485273361206,-0.6882731318473816,0.4924109023972929,0.0832442519648261,-0.7738527573290883,0.389555963271433,-1.5327577590942385,0.3934828341007232,2.6953258514404297,0.5619468688964844,-0.3042989373207092,0.3257412910461426,-0.2378408312797546,0.258675068616867,0.5325087938547134,-0.112327754497528,-1.64467391718626,-0.4961462716192006,223
1733298524341805800,3.8440480017691847,1.6371569656848906,5.309741900855302,8.30861918093264,-4.976020233854651,-1.54156747071594,2.148939609527588,0.8844162225723267,-0.847629964351654,0.5056618061529434,0.104781339117269,-0.7534048976467653,0.4070723968442013,-1.4140145778656006,0.5960515141487122,3.301190137863159,0.4199207425117492,-0.2792228758335113,0.2310971915721893,-0.1231775060296058,0.1358955055475235,0.609306786853075,-0.0570865608751773,-1.92425716676414,-0.6330621948413551,224
1733298524381805600,2.636611655637622,1.3671113597810267,2.050438491612673,8.543411102625727,-4.750267650924623,-0.784504509935528,2.580606698989868,0.5441777110099792,-1.1792585849761963,0.5204542590913434,0.1377877362588009,-0.7218123984168784,0.4348892527025799,-0.717212438583374,0.6850175261497498,2.929351568222046,0.0644121766090393,-0.092164009809494,-0.010907232761383,0.0022737011313438,-0.049905702471733,0.9778940155297516,-0.1190942674875259,-1.5981658485114574,-0.8001026226922869,225
1733298524421805600,5.70458819090426,-1.4420739540457723,2.114575740480422,8.8017300303787,-4.309845896875858,-0.3537905319632962,2.623268842697144,-0.611453115940094,-1.7328290939331057,0.5240640249179921,0.1850224152499014,-0.6955609268085351,0.4553225615925475,0.9677647948265076,0.7358393669128418,2.4400575160980225,0.2866105437278747,-0.0098222196102142,0.0180636197328567,0.0659742504358291,-0.1769358664751052,0.3930903862923383,-0.272215723991394,-1.253446402156353,-0.9982000137165188,226
1733298524461805600,5.789824341902136,-3.0647613726124168,3.721405372440815,9.124853730997442,-3.592316343452036,-0.0516929285333724,2.9006166458129883,0.1936192661523819,-2.3109147548675537,0.525518985149779,0.2464085941426711,-0.66476944160677,0.4703127599931733,0.5959784388542175,0.5621563792228699,2.2137327194213867,0.475330650806427,-0.1051475256681442,0.1545726656913757,0.1291718780994415,-0.2853729128837585,-0.7013444345593453,-0.3779212832450866,-0.76633793493025,-0.7927253719225525,227
1733298524501805800,2.2930460554927588,-3.234456845016777,1.3399685013115403,9.40487361842692,-2.703462255117297,0.6403358391061424,2.3024697303771973,1.5642563104629517,-2.346334457397461,0.5459414410435891,0.2947576116096866,-0.6168224282019196,0.4843510929201468,-1.3937532901763916,0.545019805431366,1.8839937448501587,-0.0052399635314941,-0.0316463857889175,0.0196739435195922,0.2404261231422424,-0.347992479801178,-1.933150082793832,-0.3891337811946869,-0.360409621309489,-0.3214575209721922,228
1733298524541805800,0.4338479286164045,-3.97235347916484,-0.4870243691392242,9.553862402889132,-1.7051961904272437,1.4093904125839471,2.418440341949463,1.1871119737625122,-2.4293103218078613,0.5724318310875959,0.3338877184087536,-0.5627255810065053,0.4941463135512342,-1.8389853239059448,0.454662948846817,1.6294410228729248,-0.2059909105300903,0.2261720299720764,-0.1209738701581955,0.3240357041358948,-0.3107516467571258,-2.165362509387732,-0.290509283542633,-0.3175421010941266,-0.1092977023258805,229
1733298524581805800,-1.5242664995640516,-4.745073589412868,-1.2198371241517365,9.606941082125902,-0.6444240582678467,1.860584905059636,2.419426679611206,0.6531215906143188,-2.222482442855835,0.5877593269038333,0.3787495326678928,-0.5115519123000005,0.4994020077473176,-1.2352478504180908,0.3570318818092346,1.3561947345733645,-0.2293490767478943,0.3534061312675476,-0.0922158509492874,0.4076452851295471,-0.2735108137130737,-2.394791442742944,-0.191884770989418,-0.2735186157766729,0.1052218311890959,230
1733298524621805600,-2.285827210155129,-5.177724709460139,-1.6144076659992337,9.580362287279964,0.3480214105099439,2.06541554986164,2.2618587017059326,0.3222260773181915,-2.064614534378052,0.5949284736535386,0.4220249323590215,-0.4653902322611029,0.5013652600219594,-0.6305273175239563,0.3477328717708587,1.15476393699646,-0.2423255443572998,0.4475507140159607,-0.120389387011528,0.3722696900367737,-0.1544567197561264,-2.244581007531285,-0.1699475198984146,-0.4391498344168066,0.2279115145295858,231
1733298524661805600,-3.657162909632921,-6.087022743147611,-2.470533789208531,9.507543719306588,1.2697399498313664,2.040774883471429,1.8068548440933228,-0.1247765719890594,-1.783393621444702,0.5973755513969427,0.4630137564816848,-0.4261076163755675,0.4971851519726539,-0.5971579551696777,0.2692378759384155,0.9977615475654602,-0.1885424256324768,0.4601606428623199,-0.2051315307617187,0.3336382508277893,-0.1242523416876792,-0.9031956251591444,-0.1154646798968315,-0.6419803183775394,0.7412095580883323,232
1733298524701805600,-4.148977289527655,-6.831288035544753,-2.379394113255292,9.430286292102933,1.9662701159767808,1.8368078697614367,1.320959448814392,-0.2832678258419037,-1.273162603378296,0.5952609683106219,0.4967363774593816,-0.3995019778938529,0.4891988246885491,-1.0510249137878418,0.2198332846164703,0.7065291404724121,-0.1543760299682617,0.4862803220748901,-0.2049530744552612,0.2874015569686889,-0.1171805262565612,0.6080722766220569,-0.0359930247068405,-0.8547168409332633,1.1198596233569085,233
1733298524741805800,-4.098903637325764,-8.122560602748393,-3.498388059693575,9.359714041751625,2.395780307649821,1.6811888535045083,0.5002321600914001,-0.106436975300312,-0.5880851149559021,0.5932394015186553,0.5176608612560051,-0.3825054939368077,0.4835120579356827,-0.6062419414520264,0.3262482285499573,0.3016447424888611,-0.0239527821540832,0.603202223777771,-0.2352652549743652,0.231091171503067,-0.0466564521193504,2.7476263910144567,-0.0494926609098911,-0.9032150605119764,1.8781985954225064,234
1733298524781805800,-4.0025259145885705,-9.114827427023648,-3.838708394306898,9.350274013233184,2.45011833929792,1.655196480244398,-0.5294284820556641,-0.1111961752176284,0.3156150877475738,0.5947008477435755,0.5189703487824849,-0.3824633901737707,0.4803357442095772,0.4163370728492737,0.2238985449075698,-0.1307262629270553,0.231271207332611,0.7085748910903931,-0.3396746516227722,0.2386848628520965,-0.1056553646922111,3.884588686472177,0.0792309641838073,-0.5908396579986438,1.6625833756253123,235
1733298524821805800,-2.781455595380068,-9.79141034529209,-4.05347751866877,9.444368593469262,2.078339767234027,1.6293481916300951,-1.1311068534851074,-0.4395519495010376,1.4105414152145386,0.5928739234923629,0.5051615813067974,-0.4021668027877065,0.481221454227876,0.99815171957016,0.2143559604883194,-0.807858943939209,0.3701779842376709,0.6339883208274841,-0.23848956823349,0.2349054217338562,-0.1991061121225357,2.483898297694325,0.0726333409547805,0.4600068906150758,0.4339223090268671,236
