frame,pose_x,pose_y,pose_z,ori_x,ori_y,ori_z,ori_w,phone_acc_x,phone_acc_y,phone_acc_z,phone_gravity_x,phone_gravity_y,phone_gravity_z,phone_gyro_x,phone_gyro_y,phone_gyro_z,phone_ori_w,phone_ori_x,phone_ori_y,phone_ori_z,watch_gyro_x,watch_gyro_y,watch_gyro_z,watch_acc_x,watch_acc_y,watch_acc_z,headphone_gyro_x,headphone_gyro_y,headphone_gyro_z,headphone_acc_x,headphone_acc_y,headphone_acc_z
0,0.012585,0.192699,0.521743,0.146383,0.054953,-0.679361,0.716953,-0.5139482145631685,14.001566033881902,-5.482286917471885,-0.1597203140959143,9.58012263330519,-2.0895250319845973,-0.8107600808143616,-0.6812037229537964,0.5477188229560852,-0.1924735043564724,-0.2512948978126305,0.7371478854943134,0.5970073705675092,0.9230892062187196,1.265560269355774,-0.6235871911048889,-1.148144245147705,0.823782742023468,-0.8305803537368774,0.1593129634857177,0.2926210761070251,0.4632078786134719,-0.1018076986074447,0.0353892202239483,-0.0469422223083674
1,0.01524,0.190068,0.520349,0.143529,0.050649,-0.688403,0.709179,1.2064750268187374,11.358214256334303,-7.526222018539905,0.0084325976208754,9.719738024744393,-1.302695293971896,-3.2142772674560547,0.1460292935371399,0.3128502666950226,-0.2040274422427473,-0.2325757656474205,0.7157705569291305,0.6260621898469868,2.568447589874268,1.2908800840377808,-1.4494140148162842,-0.9455055594444276,1.009016513824463,-0.4717252254486084,0.0915938094258308,0.2009757906198501,0.6813841810703277,-0.197687029838562,0.3693288408242166,0.1292814828209579
2,0.018587,0.137122,0.503329,0.102619,0.016396,-0.694663,0.711789,0.9351233067523688,3.0553584612339733,-3.4694133096218107,-0.0061730403496796,9.805544669106602,0.1471587651566136,-3.7823758125305176,0.3815923631191253,-0.3662908971309662,-0.2247174062235192,-0.2217894018548911,0.6658126254052149,0.6760215881522532,2.378769636154175,0.8401616215705872,-2.2030675411224365,-0.3313251137733459,0.5316571593284607,0.2289329171180725,0.0719105377793312,0.0609564781188964,0.5831634608149528,-0.1167940571904182,0.370069941515103,0.5894827634969726
3,0.018629,0.09989,0.495453,0.085178,-0.002002,-0.697133,0.711861,0.1726755841936916,-6.393710857272148,-1.293912852579355,-0.1816537673540413,9.700402625155448,1.4281379292823373,-2.743637800216675,0.2426188141107559,-0.4983399212360382,-0.2377059761366682,-0.216859503402127,0.6165688829253061,0.7185475847992485,1.7429382801055908,0.5846806764602661,-2.063974380493164,0.3408882617950439,0.0326328575611114,0.646049976348877,0.0361475460231304,-0.0376796573400497,-0.0041530280262231,0.0910505279898643,0.0474102051462978,0.5303976103870198
4,0.02077,0.068036,0.489546,0.069261,-0.028208,-0.703038,0.70721,-0.8507301824498921,-14.271377831029891,0.7195759645596146,-0.3942546077661216,9.538488892668486,2.2432485898837444,-1.5481747388839722,-0.3337365090847015,-0.4341635406017303,-0.2383706835374735,-0.2131208242193999,0.5832715197684051,0.7466948515581309,0.7858868837356567,0.3434097170829773,-0.9047733545303344,0.9522398114204408,-0.5961313247680664,0.7523363828659058,0.0149321854114532,0.0424492508172988,-0.823655639976263,0.151009052991867,-0.4473077872354537,-0.3061339873731136
5,0.025156,0.029719,0.481276,0.027052,-0.067614,-0.7128,0.697577,-1.4817743885323404,-18.53865299867988,1.7617717718690633,-0.3500890470968559,9.446372334507108,2.6103391502618787,-0.2854279279708862,-0.2009326070547104,0.6031109690666199,-0.2395671621352001,-0.2036459656187166,0.570471785037643,0.7587475671887346,0.6635420918464661,0.1909746974706649,-0.0440747551620006,1.3559279441833496,-0.5900177955627441,0.8037256002426147,0.04941376298666,0.167193979024887,-0.7711819408953189,-0.049451470375061,-0.3189001646395772,-0.7694611815173178
6,0.024122,0.020855,0.480298,0.021573,-0.074009,-0.708926,0.701057,1.1520981244649735,-16.52804032149911,-0.2166144599676132,-0.095507132181432,9.51692003493905,2.364213787519186,1.3974378108978271,0.0119321588426828,0.3736916482448578,-0.2452236878620361,-0.1976253215552574,0.5834405524913585,0.7486032209882647,-0.8481877446174622,0.9094911813735962,1.2482668161392212,1.2945975065231323,-0.7107888460159302,0.993416666984558,0.1666614115238189,0.012167602777481,-0.4150269082903862,-0.2471572011709213,0.2657406752515584,-0.3575218639787286
7,0.022756,0.016165,0.480842,0.02022,-0.0712,-0.705831,0.704503,1.7650358882315456,-10.486811361277104,-1.265866469398886,-0.1083978217435535,9.6515336725682,1.7339327478289603,1.6559022665023804,0.2389512360095977,-0.2371612191200256,-0.2402119740906663,-0.2077348637440939,0.6069927995477471,0.7284944214682901,-1.2794291973114014,0.6571750044822693,1.4733177423477173,0.8945932388305664,-0.6186013221740723,0.7056893110275269,0.2413287460803985,-0.1810714900493621,-0.4408388104170561,-0.1657171547412872,0.1424934310935437,0.5593729084480553
8,0.02409,0.011887,0.478904,0.01135,-0.072172,-0.706115,0.704319,-0.1898781730050221,0.8212322122216225,-1.492003229340911,-0.1599744532537646,9.738842538186908,1.1400555122327058,1.477938532829285,-0.2076125591993332,0.1436132341623306,-0.2339748479711418,-0.2185265168474965,0.6277893804974467,0.7094944572539651,-1.3286504745483398,-0.4533952474594116,1.4861299991607666,0.1290106177330017,-0.0596770048141479,0.1506878733634948,0.1428488492965698,-0.0164053738117218,-0.3642471536457538,0.2358544170856475,-0.3943076896602288,1.1801043948307632
9,0.025216,0.009802,0.477159,0.008288,-0.075142,-0.707024,0.703137,-1.5676856623128057,7.805062925317883,0.5691057093679904,-0.0289475081551005,9.79471347849071,0.4828464258674532,1.9841879606246948,-0.263897180557251,0.4139961004257202,-0.2251290714948917,-0.216240219892593,0.6546921806053331,0.688429539049832,-1.3130947351455688,-0.2195160686969757,0.8221210241317749,-0.7774571180343628,0.7776862978935242,-0.305510938167572,0.0678114965558052,0.2104646116495132,0.2595265499770641,0.2796776294708252,-0.1233684593848884,0.0597193593602627
10,0.025872,0.006965,0.474858,0.002195,-0.082735,-0.707331,0.702021,1.5978997449211776,7.59631963711679,-1.5220307033360003,0.1781488279730081,9.80099825784862,-0.2812519865076989,1.7823928594589231,0.1229949370026588,0.380625456571579,-0.2246784061381114,-0.2188413177283913,0.6829702324350484,0.6596816477272486,-1.3459354639053345,-0.5392475724220276,0.325442373752594,-0.4324038624763489,0.4012932777404785,-0.2930341958999634,0.0032880678772926,0.0214206129312515,0.5855401268184185,-0.0210189819335937,0.2407115575330331,0.1013386330801993
11,0.030958,0.014533,0.468187,-0.010192,-0.090603,-0.714866,0.693292,1.8874520153276624,4.780709258678555,-2.450293549734354,0.1681196744550019,9.774391990473866,-0.7767914513401687,0.6631260514259338,-0.1300706416368484,-0.3058995604515075,-0.2178422228314792,-0.223839659821088,0.6996435866570428,0.6426037117722677,-0.6401378512382507,-0.436300665140152,0.2388433516025543,-0.2956739068031311,0.2542277574539184,-0.4085084795951843,0.0731489285826683,-0.0880306288599968,0.2785708576649427,-0.0109815914183855,0.3100485670009628,0.2450279228948056
12,0.0332,0.041837,0.469682,0.019095,-0.065287,-0.728352,0.681819,-0.0192033410243573,3.1544150477916,-0.562747353317216,0.0380576014662743,9.770384508398177,-0.8417517800938338,-0.1098090261220932,0.1722130477428436,-0.2790706157684326,-0.2134374562464587,-0.2298912284363246,0.7000481561763433,0.6415038148013862,-0.2439268827438354,-0.2539179623126983,0.0727347508072853,-0.194259762763977,0.2567950487136841,-0.2327726483345031,0.0875346437096595,-0.0683871358633041,-0.2548386844217777,-0.0805451646447181,-0.2501423067664727,-0.1001957466553896
13,0.034247,0.088597,0.472363,0.05278,-0.022035,-0.731412,0.679533,-0.548587493202649,1.2751882783651352,1.0529776788908989,-0.0094109280048287,9.770160636514424,-0.8451308280728757,0.2164186239242553,0.2252566963434219,-0.0110650975257158,-0.2145692257345597,-0.2346040137820847,0.6986062108141848,0.6409916655635465,-0.16944120824337,-0.0343466363847255,0.0778460875153541,-0.1184719800949096,0.1582293510437011,-0.0970901250839233,0.0325298048555851,0.1016263663768768,-0.1968055976480245,-0.0604036301374435,-0.2023069715432822,-0.1549208048596978
14,0.030947,0.195272,0.478649,0.081301,0.016934,-0.71862,0.690426,0.0541389745451975,0.0390817180663347,0.4007176663003862,0.0075117022208054,9.760536483600736,-0.9498879643596708,0.2231756895780563,0.0733595117926597,0.0504457950592041,-0.2156578619519533,-0.2371244697991853,0.7015716609547,0.6364440342072846,-0.3019004166126251,-0.0461398027837276,0.1483560055494308,-0.0175443291664123,-0.0564152598381042,-0.0804243087768554,0.0328643284738063,0.0354807749390602,-0.0848562117695808,-0.1165806949138641,-0.1327261799147352,-0.2064354496501386
15,0.02955,0.229725,0.485384,0.090863,0.025152,-0.710671,0.697178,0.3298580869076773,-0.5980062251597642,0.6783014126241207,0.037202977947914,9.750141930836438,-1.0506000630393624,0.4404365420341491,-0.0508161298930645,0.0780736282467842,-0.2155655488828353,-0.2373519951933362,0.7051451822146925,0.6324285754463426,-0.3625272810459137,-0.0499332100152969,0.2178338170051574,0.0458341836929321,-0.0345844626426696,0.0306634902954101,0.0331988558173179,-0.0306648164987564,0.027370822006464,-0.1727577745914459,-0.0631064810479059,-0.2579851657539606
16,0.027048,0.242256,0.493479,0.10243,0.039193,-0.699751,0.705918,-0.0303796986659755,0.8678735518872738,0.6249475697077811,0.0463910455658566,9.72153016885817,-1.288440850909054,0.7225888967514038,-0.0514344535768032,0.0254675559699535,-0.2120738773521872,-0.2386342338414869,0.7132642619662503,0.6239650953438657,-0.4894061386585235,-0.0196923781186342,0.210950881242752,-0.0322417020797729,0.0228686332702636,-0.0257242321968078,0.0743820369243621,-0.0961534455418586,-0.2768137848645448,-0.1247266605496406,-0.2306409760260954,-0.0464088460840284
17,0.025084,0.23126,0.500336,0.11103,0.041254,-0.693331,0.710819,-1.1610662246227264,9.431377009949088,-1.3263292675375935,0.1230301947406958,9.681085930266976,-1.5594330900132656,0.3436975181102752,0.3034400939941406,0.5625540018081665,-0.2127492498389915,-0.2405999883074144,0.7222330663950107,0.6125592510466786,1.59401273727417,0.5808700919151306,0.1117839515209198,-0.4857047796249389,0.8795620799064636,-1.1656321287155151,0.0322375781834125,-0.0254352539777755,-0.4820955344349145,0.0018089935183525,-0.2787302494777366,0.1784280833058059
18,0.024467,0.158717,0.505001,0.102325,0.056028,-0.690788,0.713584,2.1422442302592097,17.960896365344524,-4.855898062914609,0.5238490289937705,9.73193582753837,-1.0887550947148352,-2.5905182361602783,0.009470802731812,1.2062686681747437,-0.2316692192401472,-0.2210514566617969,0.7117916235619698,0.6251546358173501,1.987404704093933,0.9171988368034364,-0.0119324000552296,-1.4128220081329346,1.2252390384674072,-1.1016170978546145,0.0605698637664318,-0.1042706444859504,1.6984680512160062,-0.0403079651296138,0.7001889809139072,-0.093748616342619
19,0.0271,0.114731,0.503473,0.091032,0.048165,-0.698925,0.707742,3.0101579680263995,13.155759352374076,-0.5316062920570374,0.7628047193028032,9.776054370728136,0.1314757414622232,-2.963402509689331,0.7514723539352417,-0.118105761706829,-0.2575851956935832,-0.2024502529817684,0.6725403316430496,0.6635912454966054,2.5828473567962646,0.2581295371055603,-1.0675628185272217,-0.6936999559402466,0.9205874800682068,-0.0945396423339843,-0.0069157667458057,-0.2556974291801452,1.304466979819536,-0.22099269926548,0.3122008861966431,0.1029271443806588
20,0.028564,0.078388,0.49994,0.073542,0.02138,-0.703155,0.7069,0.5370043151756748,-0.8226245433628558,-1.6091192042022942,0.5993435381781309,9.741025142922997,0.9610388884492218,-1.1883330345153809,0.2113753110170364,-0.4900723993778229,-0.2678868137689221,-0.2038926056582683,0.6398659686801023,0.6908226948448893,0.9018132090568542,-0.7784985899925232,-1.7381521463394165,0.1267436146736145,0.0283037424087524,0.7734429836273193,-0.0865826308727264,-0.3627563714981079,0.1621972256034612,0.076218381524086,0.0838213888291269,0.6499985704645515
21,0.031174,0.038826,0.495508,0.036406,-0.011087,-0.710251,0.702919,-0.7956625944182276,-14.838498504060508,-4.846338791930675,0.4158822099454701,9.720594349312782,1.2278022578120231,-0.5716179609298706,-0.0473858080804348,-0.504632294178009,-0.2647703818056333,-0.2067947140591995,0.6282001695538011,0.7017815141312568,1.4149821996688845,-0.8826196193695068,-1.4887045621871948,1.030073165893555,-0.5775639414787292,0.9663466215133668,-0.0189448148012161,-0.405863881111145,-0.9263649038225412,0.2234314084053039,-0.2134185865357518,-0.3037412470176815
22,0.031879,0.028522,0.496949,0.034624,-0.013474,-0.712767,0.700417,-0.0919223781629931,-20.2786238576293,-4.342291537928581,0.1332222472028341,9.67335738184154,1.6058686779737472,-1.1764014959335327,0.2440844625234604,-0.82920241355896,-0.2599550628084526,-0.211968791226755,0.6108950144079383,0.717147117316513,0.4656348526477813,-0.0175993461161851,-1.0168787240982056,1.4203869104385376,-0.7872708439826965,1.221032738685608,0.0733483582735061,-0.3156938552856445,-1.2192705763101577,0.0268130004405975,-0.4332193483892828,-0.6380526235397904
23,0.032363,0.022829,0.499181,0.038421,-0.011621,-0.713947,0.699048,-0.2208514216839335,-20.54807675833701,-2.8821254623532293,-0.1198732742128893,9.620043140283226,1.900203798742592,-0.3310278654098511,-0.3433367013931274,-0.4258365631103515,-0.2534706045577577,-0.2157611554110554,0.5971295446847447,0.7298191493677878,-0.4868990480899811,0.8448489308357239,0.2506747245788574,1.513476848602295,-0.7053844928741455,0.937686324119568,0.1420047283172607,-0.188541904091835,-1.069465214768052,-0.0253507122397422,-0.2760842284809798,-0.1640390540778636
24,0.033426,0.016761,0.499186,0.033592,-0.020771,-0.713711,0.699326,-0.5984351180963218,-14.573888951730726,-0.4162563039548695,-0.221129873299133,9.597240356844663,2.0036118585079907,-0.2636851072311401,0.5064916610717773,-0.1555973887443542,-0.2502189559087741,-0.2170857744310585,0.5922144795959374,0.734538110424944,-0.3798607289791107,0.8730886578559875,1.320678472518921,1.0618908405303955,-0.4587211012840271,0.75568026304245,0.1699590384960174,-0.0455596446990966,-0.5300573090493679,-0.0535228252410888,-0.0719666273191571,-0.1521123963754624
25,0.033498,0.01449,0.496713,0.024905,-0.031766,-0.710914,0.70212,-1.4869287025555968,-4.2900919796139,1.1479814098611474,-0.2481192217073403,9.59668915270269,2.0030873962424693,0.3778603374958038,0.5770555734634399,0.4532394409179687,-0.2612866797289109,-0.2276746165192923,0.588247593923361,0.7306559816351041,-0.894669234752655,0.2092062085866928,1.5550973415374756,0.3322042226791382,-0.2914065718650818,0.1276134252548217,0.0438251048326492,0.0429534763097763,-0.5237748677790165,0.0086368545889854,-0.1634088664155453,0.5442462125953287
26,0.033114,0.012713,0.493894,0.01592,-0.039929,-0.708585,0.704316,2.30255081981048,8.307815463334322,3.3059698833495377,-0.034194258835318,9.6693469771564,1.6349141551941633,1.611159324645996,-0.4972396790981293,0.2926192283630371,-0.2643567092254804,-0.2255512754932659,0.6047885553183802,0.7165702516981792,-2.4021706581115723,0.3956429958343506,1.2453957796096802,-0.6984483003616333,0.4344929456710815,-0.1406804323196411,0.0785456597805023,0.0670081675052642,1.239493864649534,0.3970819115638733,0.7281392102435231,0.9465642267644404
27,0.033877,0.023542,0.489543,0.012701,-0.03759,-0.70444,0.708654,-0.7343888452228158,10.128036501562594,0.5455985770523548,0.005354560148713,9.76852806687653,0.8638378666304052,1.898335099220276,-0.0043800459243357,0.0850337147712707,-0.2524984381403655,-0.230807371310436,0.6345742541530413,0.693028132342231,-1.7031543254852295,0.0147076742723584,0.5787075161933899,-0.6652339696884155,0.5607763528823853,-0.4755480289459228,0.0755325555801391,-0.1479500830173492,0.2537958973705768,0.2068781554698944,-0.1728027907699346,0.0769539142124354
28,0.031553,0.052783,0.491839,0.034626,-0.019632,-0.694712,0.718186,0.7505534327559172,7.129573647505045,-0.8490683867175132,0.0922055333527736,9.801320913931727,0.3097745723651722,0.9868993163108826,0.1701662689447403,0.3587675392627716,-0.2508787946469795,-0.236931050527151,0.6542702575398149,0.6729441292936897,-0.8886653780937195,0.0215105600655078,0.3186675608158111,-0.5148372054100037,0.5598815679550171,-0.6071182489395142,0.0540343150496482,-0.0155956745147705,0.186539639699459,-0.0069195628166198,0.081608900411427,-0.0960397229544818
29,0.030422,0.098562,0.496941,0.059418,0.015754,-0.685146,0.725808,0.6450183708991855,4.082303800180554,-1.3152940787822007,0.1974411738715134,9.803616915914416,0.1431828107303474,-0.1126998737454414,-0.1073391214013099,0.121290273964405,-0.2527361075153974,-0.2358081328382281,0.6611310256087843,0.6659014742733947,-0.243041381239891,-0.283658891916275,-0.0375311039388179,-0.2702352404594421,0.1420080065727234,-0.4253568351268768,0.1208662539720535,-0.1255071461200714,0.0164297412753105,-0.1788457185029983,-0.1630360145151615,-0.1159131749428808
30,0.028401,0.198171,0.506325,0.086157,0.053608,-0.674148,0.731592,0.1687327283194288,2.0667460678130385,0.8438695759654045,0.2417232005272991,9.801011701852085,0.2282838367070071,-0.1294190883636474,-0.0560960806906223,0.1478833109140396,-0.2541126599034518,-0.2320830462736801,0.6591647923485795,0.6686299038004875,0.0881844833493232,-0.2480801790952682,-0.0602857507765293,-0.1419728398323059,0.1834731698036193,-0.1206963658332824,0.1212891489267349,0.0002246648073196,-0.2681774739444256,-0.1751881688833236,-0.1722493216056376,-0.0963396557491272
31,0.029344,0.229159,0.510997,0.089973,0.069525,-0.673198,0.730668,0.6261000276785343,1.0041232662856578,1.6331325324743986,0.2666380076837726,9.801357154288889,0.1807746646982617,0.3811139464378357,-0.1074347794055938,-0.0545351468026638,-0.2533127750391534,-0.2307831659913567,0.661454599412505,0.6671203426939656,-0.4640528559684753,-0.1293357908725738,-0.0041471146978437,-0.0476032495498657,-0.0169695019721984,0.0006566047668457,0.0858174636960029,0.0049690520390868,-0.2187935575723648,-0.157924011349678,-0.1916284142058342,-0.2498137689318507
32,0.029743,0.239403,0.514966,0.092958,0.080636,-0.669896,0.732186,0.3049331784822978,-0.0079629417032003,1.227660803514719,0.1963527210476808,9.804437584647536,-0.0696156757122604,0.8267986178398132,-0.1223039329051971,-0.2617339491844177,-0.246282373995175,-0.2346749474584043,0.6696843141739535,0.6601481845612327,-0.6666616201400757,-0.1471937745809555,0.0610451363027095,0.0201305150985717,-0.0532419681549072,0.015520304441452,0.0503457784652709,0.0097134392708539,-0.1690244412750005,-0.1406598538160324,-0.2107383344758301,-0.4033140394691377
33,0.032546,0.198725,0.515706,0.079729,0.072777,-0.670753,0.733783,0.3559589255109429,0.0120399818837642,0.2427530732979997,0.1022311523399781,9.798801040065287,-0.3787733628546819,0.6880848407745361,0.0491260513663291,-0.1992057412862777,-0.238788334130503,-0.2411249662942619,0.6790955878078927,0.6508980315718453,-0.5648612380027771,-0.2477901577949524,0.0424603335559368,0.0482816100120544,-0.0053426623344421,-0.0684914886951446,0.0067861191928386,-0.0103037878870964,-0.1042044708400964,-0.122645616531372,-0.0580123362466692,-0.2625152103990316
34,0.035341,0.157307,0.513148,0.066228,0.072546,-0.67908,0.727462,-0.2796345231073908,3.6989112165600058,-0.8519570938963442,0.0592182916700607,9.789872468200326,-0.5703485855685546,0.195536583662033,0.1910713016986847,-0.0347926244139671,-0.2364773457097864,-0.2465200912348281,0.6843299860842297,0.644204069700489,-0.0279072318226099,-0.3534449636936188,-0.1678347140550613,-0.1470004320144653,0.2105057835578918,-0.3261553049087524,-0.0141551867127418,0.0499671325087547,-0.2831318819701671,0.0122040361166,-0.1994504861336201,-0.0679674016151577
35,0.039051,0.113912,0.509906,0.05292,0.067743,-0.694805,0.714042,1.73378910157457,16.734143908846377,-2.371446222990751,-0.0363002364049316,9.795556359055638,-0.4649345928082242,-0.8344330787658691,-0.1660717725753784,-0.6415191292762756,-0.235820508587409,-0.2497974738575681,0.6791953246766618,0.6486013706617659,0.6209389567375183,0.52481609582901,-0.6394631266593933,-0.8909165859222412,0.8540756702423096,-1.057789325714111,-0.0875051245093345,0.0968227982521057,0.8425275137066841,0.174643337726593,0.1515771935202181,0.3229783738639205
36,0.044509,0.053117,0.500356,0.019708,0.030745,-0.715561,0.697596,-1.1401155718568712,16.533327906513215,-1.4407634559690952,-0.3644902782192453,9.796753459885716,0.2472535265224054,-2.57057523727417,0.3946005702018738,-0.740501344203949,-0.2325334720197372,-0.2511351794184125,0.6514021034965357,0.6771517420894172,2.565673351287842,0.8028154373168945,-0.8075618147850037,-1.155099391937256,1.236634373664856,-0.901593804359436,-0.1272720694541931,-0.0848909616470336,1.1692051074147225,0.0753089785575866,0.4634462174139916,0.0253803057763725
37,0.045071,0.039389,0.494404,0.000736,0.009415,-0.716984,0.697025,-0.3647675242580473,4.872324297058582,0.1761373420201241,-0.6182015295136719,9.718089088493585,1.1605752993006258,-1.8257184028625488,0.2615368664264679,-0.522567868232727,-0.2408803462155207,-0.2533488555147633,0.6137112403857176,0.7079190542226194,1.658733367919922,0.0529232360422611,-1.5923453569412231,-0.3424870371818542,0.4570112824440002,0.0762743353843689,-0.1466815173625946,-0.1921682506799698,0.5305126516014337,0.0512742139399051,0.4731947273597121,0.508849978108704
38,0.045638,0.03233,0.49092,-0.007278,-0.002877,-0.718196,0.695796,-0.597038183845207,-7.842139733302592,-1.7112684960782527,-0.7648136479724198,9.635247139155863,1.657548304067552,-0.9020937085151672,0.1721026003360748,-0.0758777260780334,-0.2440765144401533,-0.2534730035174212,0.5926550364636076,0.7245261429358415,1.176565647125244,-0.4446700513362884,-1.7493500709533691,0.4648674130439758,-0.2041401267051696,0.6078023314476013,-0.0526264905929565,-0.2862140238285064,-0.7721966708958149,0.3435526490211487,0.2775695716679096,0.4459005873186513
39,0.046982,0.030132,0.486638,-0.014694,-0.008271,-0.718244,0.695587,1.3287448042467236,-17.133859850758313,-3.98428532449901,-0.7803229864671826,9.57656231047511,1.962382607018948,-0.911337435245514,0.4923902451992035,0.0267747994512319,-0.2540002834772272,-0.2552030515686366,0.5786343733493867,0.7318043234148482,1.7409228086471558,-0.7072288990020752,-0.9255483150482178,1.1549094915390017,-0.6041774749755859,1.045446753501892,0.0265569910407066,-0.2042233347892761,-1.320444301152229,0.2284222543239593,-0.2211046109937131,-0.7981612063009291
40,0.048305,0.032818,0.485421,-0.018648,-0.008289,-0.717059,0.696714,1.574833488240838,-19.59927381273508,-3.3693174431443214,-0.8654016088157892,9.516691486880182,2.203191012522578,-0.0633439943194389,0.1573459208011627,-0.2748965322971344,-0.2596603061068334,-0.2589483145924366,0.5662281250982788,0.7381788605598075,-0.5487954020500183,0.1646572202444076,-0.2002230733633041,1.47713303565979,-0.9595746994018556,1.2534997463226318,0.0413795858621597,0.073656141757965,-1.2310931160509586,0.077016681432724,-0.4564655647464096,-0.4029521473541855
41,0.048797,0.03428,0.484529,-0.024899,-0.002789,-0.714772,0.698909,0.9872669701613486,-16.98746400539875,-2.007206229738146,-0.9263643923658876,9.545237197884918,2.0495532332107422,0.5575585961341858,0.1209361925721168,0.0382074378430843,-0.2551748114502173,-0.2628203947732578,0.5713381738619899,0.7344275929942152,-0.9952605366706848,0.6759255528450012,1.1079424619674685,1.313870906829834,-0.5273919105529785,0.7137823104858398,0.0988615006208419,0.1945327222347259,-0.4505214155197143,-0.0376802459359169,-0.1484922331169247,-0.3692724344618618
42,0.049655,0.036228,0.480049,-0.033464,-0.003952,-0.710897,0.702489,0.2500111181348562,-10.282178431004285,-0.7032020451247691,-0.8324005989026277,9.592498715275523,1.8604995648637408,0.4721666872501373,0.5513096451759338,0.6084640622138977,-0.2621345973449481,-0.2672730412739816,0.5776729539511647,0.7253581737334623,-1.1167033910751345,0.2952244281768799,2.0582854747772217,0.807756781578064,-0.4172991514205932,0.5136988162994385,0.103208877146244,0.1163747683167457,-0.1166799215316772,-0.3023597598075866,-0.1333120535112917,-0.2777083956167102
43,0.050109,0.03712,0.476198,-0.042016,-0.011176,-0.709355,0.703509,-0.7320916011311114,1.5600246261656283,0.5948262799493969,-0.4892505572887137,9.6642914473325,1.5913789648503065,0.7081907391548157,0.2426414042711258,1.3142802715301514,-0.2769896544569108,-0.265342802525036,0.5903011502765656,0.710221439069731,-1.5919207334518433,-0.4880662560462951,0.6269335150718689,0.0683214664459228,-0.0221183896064758,-0.0572723746299743,-0.0077649056911468,0.1326320767402649,0.2633247732162475,-0.1072133630514144,0.2206882852777838,1.2661997930064797
44,0.050077,0.037641,0.473189,-0.049157,-0.013181,-0.707202,0.705178,1.0567133582878858,9.25196210756302,2.877721089914441,-0.0661121063044061,9.726274733036757,1.2512293106287715,1.3172149658203125,-0.1968694627285003,0.8351612687110901,-0.2880272070010518,-0.2574884282944733,0.6081979669948626,0.693422777516663,-2.238473415374756,-0.3573438227176666,0.6244488954544067,-0.8302663564682007,0.4417340755462646,-0.3306315541267395,0.2339140325784683,-0.2244179844856262,0.7629033573716878,0.0406558811664581,0.5287453496679664,0.5861207762505859
45,0.051142,0.039141,0.466873,-0.057682,-0.012042,-0.702082,0.709654,1.1066622881315649,10.388300718164444,2.0760095707207915,0.2065570850021205,9.787487618890404,0.5769156159339472,1.897505521774292,-0.1100059077143669,0.3421768248081207,-0.2861268905933351,-0.2563934576595338,0.6362765782695086,0.6689888254888752,-1.684664011001587,-0.5196326971054077,0.5807682871818542,-0.7308758497238159,0.4884463548660278,-0.3491175770759582,0.2380720227956771,-0.0035041719675064,-0.1058545761346817,-0.1320057809352874,-0.0286303205482661,0.3146709295719861
46,0.051679,0.038903,0.464153,-0.062843,-0.016742,-0.700936,0.710253,0.8209702002845705,6.532454142051935,-0.7243336804807186,0.2517818906670436,9.802883925464748,-0.1022644974871538,1.0290242433547974,-0.2022828757762909,0.07089214771986,-0.2765795396733205,-0.2626066613550118,0.6604935878196255,0.6467532397356907,-0.8961957097053528,-0.5787118077278137,0.1032666265964508,-0.4463428854942322,0.4186798930168152,-0.4847778677940368,0.3212124705314636,-0.0645155757665634,0.1374579211443662,-0.2548756003379822,0.0271311680316925,-0.4548196241702884
47,0.051624,0.039007,0.459958,-0.0697,-0.023434,-0.69849,0.711832,0.1666899704454466,3.3274282664418218,-0.9146224435806274,0.3076612700056284,9.796537771308422,-0.3218330762863159,0.286301851272583,-0.0953506976366043,0.1094314083456993,-0.2731172488413456,-0.2613487471361551,0.6694070161083313,0.6395295363768031,-0.1843599677085876,-0.2035879641771316,0.0049579003825783,-0.2940317988395691,0.2735918760299682,-0.1961290538311004,0.1073664724826812,0.1792390644550323,-0.0698234778106212,-0.3996557593345642,-0.4300128804981708,-0.6704421504911035
48,0.05143,0.03933,0.456918,-0.07403,-0.02874,-0.697522,0.71215,0.0474228088995441,1.023264020085335,-0.6175777715921401,0.2985392761941067,9.793141699129343,-0.4191114376576617,0.2279286682605743,0.1513421237468719,-0.1030787900090217,-0.2726581329579055,-0.264218025744255,0.6719803354806789,0.635837152327899,-0.1785292327404022,-0.0086404187604784,-0.060514248907566,-0.0785057544708252,0.1142075657844543,-0.0090824961662292,-0.0493372082710266,0.114027515053749,0.0803635765254497,-0.1220289766788482,0.0726176385737955,-0.0618581980198621
49,0.051049,0.042566,0.453828,-0.073139,-0.019763,-0.694678,0.71532,0.2033536493183113,-0.0539186371922493,0.0162076960224658,0.2620193166408687,9.790835760274527,-0.4911575964864343,0.17491215467453,0.30396768450737,-0.1129141524434089,-0.2721766807872136,-0.2682564171821061,0.6731125927707605,0.6331490065785906,0.0306956265121698,0.1264504045248031,0.0478811301290988,-0.0271031856536865,0.0462336540222168,0.0115009546279907,-0.1116913631558418,0.0548090115189552,-0.0450648841291666,0.1024951338768005,-0.0581141891859471,-0.0082116557672619
50,0.051233,0.044052,0.453441,-0.070671,-0.013515,-0.694044,0.716328,0.7101475534137338,-0.4753180031239986,-0.4581540292900055,0.1963571232281625,9.791604406559468,-0.5062595962893217,-0.1077988147735595,0.4658161401748657,-0.2629565298557281,-0.2758701670097723,-0.2771198270968417,0.6700870521608142,0.6309386144316438,0.0262287072837352,0.0556755065917968,0.0228518787771463,0.0667821168899536,-0.065900444984436,-0.0109329223632812,-0.0920815095305442,0.045945256948471,-0.0741875182390213,0.0766278579831123,0.0283120483793318,0.0016162030249834
51,0.051889,0.044364,0.453612,-0.069173,-0.012282,-0.695981,0.714615,0.1007604769992176,0.0374076473742723,1.2369149540722368,0.1210023239085916,9.791987268397213,-0.5222460142439231,0.3310953974723816,-0.002714026486501,-0.0941928997635841,-0.2759732918893685,-0.2828469425293488,0.6682998900135365,0.6302472909106971,0.0015715635381639,-0.0101891010999679,-0.017904870212078,0.0181924104690551,0.0024300813674926,-0.0079203248023986,-0.0568579621613025,0.0541684180498123,-0.0167336926579475,0.0030707195401191,0.0359856517471373,0.0594170154128223
52,0.054419,0.044643,0.453169,-0.067422,-0.003105,-0.697089,0.713801,0.1389379214358981,0.1736702212542295,0.5611480283617973,0.0956938777920324,9.777679341581464,-0.7471470583785325,0.6864826083183289,0.0349841527640819,-0.0814171656966209,-0.2719755876890279,-0.2869569426538483,0.6750922995335068,0.6228446447037441,-0.1835160106420517,-0.0188763849437236,-0.0813390389084816,-0.0375288724899292,-0.0315276384353637,0.0218602120876312,-0.0805561542510986,0.0835082679986953,-0.0631556539518758,-0.0578327775001525,-0.0826291651035659,-0.0995561335776001
53,0.054515,0.044569,0.45297,-0.073295,0.008057,-0.696286,0.713967,0.3153582177164032,-0.0933411315202712,-0.1866622431658208,0.050505938105355,9.75992916535735,-0.9547732521831988,0.3181889355182647,0.2496367543935775,-0.1646201014518737,-0.2692000111748703,-0.2933035426404287,0.6801859457007725,0.6155090265090601,0.133327454328537,-0.0614672005176544,-0.0044229514896869,-0.0028395652770996,-0.0015054941177368,-0.0451396703720092,-0.1210836470127105,0.0865429043769836,-0.0460416202068328,-0.0599048361182212,-0.028859014737606,-0.0299498056489974
54,0.056887,0.042904,0.453004,-0.086551,0.021386,-0.696939,0.711567,0.2541416603346355,-0.1502414148718118,-0.0884825855731964,-0.0085863143197755,9.752935360947252,-1.0249706778727472,0.0938348844647407,0.2313179969787597,-0.2446574568748474,-0.2683861132063766,-0.2986689977675764,0.6804820288310274,0.6129518242506469,-0.0449211038649082,0.0139375943690538,0.0285202842205762,0.0037687420845031,-0.0307942032814025,0.0453389286994934,-0.1299324780702591,0.0710772797465324,0.0148690678298473,-0.0574992261826992,0.0191089704219251,0.054428340280056
55,0.057829,0.039338,0.451685,-0.098231,0.02817,-0.693883,0.7128,-0.2713695845166221,-0.3616781799405813,0.2654265678010881,-0.0823736559725366,9.744553317049146,-1.0987557527907192,0.329862505197525,0.0984454825520515,-0.0853925868868827,-0.2676366287357812,-0.3052706502997831,0.6803166791119886,0.6102045844796986,-0.0141826309263706,0.0353965498507022,0.0384996831417083,0.0133748054504394,0.0092806220054626,-0.0125350952148437,-0.1172833517193794,0.0742369592189788,-0.0031710312515497,-0.0391638875007629,0.0315532953228801,0.1677053215004503
56,0.059078,0.036644,0.451369,-0.099354,0.029393,-0.694546,0.711949,1.04210688691698,0.5869821423202752,0.4529086029171943,-0.1106127943792846,9.722899119123817,-1.274119772350788,0.5617977380752563,-0.0324092060327529,-0.1609912067651748,-0.2639575193046973,-0.3086180257808084,0.6853589887907391,0.6044538097535169,-0.2075321227312088,0.0124255586415529,0.0146772395819425,-0.0054895877838134,-0.0049540400505065,0.0141359865665435,-0.0782336071133613,0.0530397109687328,0.0189776721924543,-0.028068158775568,0.0728030781432986,0.158100311678648
57,0.059931,0.034257,0.449694,-0.110163,0.033505,-0.697262,0.707508,0.2469326605375856,-0.0164227270126342,-0.7113352288283408,-0.1495187631530687,9.69139280474782,-1.4916295737229286,0.4312766194343567,-0.0686090365052223,-0.0059134899638593,-0.2595028769399461,-0.3131959885849,0.6913466690035128,0.5971653264088518,-0.1645974367856979,-0.0988784879446029,-0.0258845016360282,0.0323545932769775,0.0452516674995422,-0.0818289220333099,-0.0608779639005661,0.0502370409667491,0.0027308862686157,-0.0467476285994052,0.0591845948964357,0.0724513420961797
58,0.061252,0.030869,0.446988,-0.147683,0.056371,-0.699167,0.697265,0.5307933682389557,0.1886041710138321,-0.6239153040505945,-0.1671739545701071,9.682391167646646,-1.5471763966389,-0.115114577114582,0.1434136778116226,-0.1419257372617721,-0.2578243731525833,-0.3142950004138474,0.6928944319099765,0.59551877019294,0.0623060166835784,-0.1064418703317642,-0.0084176929667592,0.0077608227729797,0.0461335182189941,-0.0036012530326843,-0.0590401701629161,0.0494157373905181,-0.0257154560148715,-0.0659865140914917,0.0226100373454391,0.0440786495707929
59,0.060745,0.030478,0.448312,-0.152087,0.068298,-0.695461,0.698955,0.018067133218795,-0.2848193966656923,-0.8655027311027049,-0.2257642733678221,9.698371411588788,-1.4356240472540258,-0.4161503911018371,0.1674865484237671,-0.1485911905765533,-0.2605539941909629,-0.3180259478059772,0.6870632786799744,0.5990953155898232,0.0365567132830619,-0.0649596154689788,-0.0485416091978549,-0.0034152865409851,-0.0100853443145751,0.0066903829574584,-0.0572023764252662,0.0485944338142871,-0.0541050996750593,-0.0852254033088684,-0.0140172733061015,0.0157195471793413
60,0.06095,0.030075,0.449324,-0.141792,0.065835,-0.695636,0.701178,-0.2094468881594948,-0.2536030051469802,-0.0921627353906631,-0.2559262056638486,9.716984342122077,-1.2981199488803743,-0.2112876325845718,0.0847848877310752,-0.0464793033897876,-0.2636545103396718,-0.3192556841481234,0.6813673806251487,0.6035732416619358,-0.070280522108078,-0.0027778425719588,-0.0469761379063129,-0.0061767101287841,0.0322736501693725,0.0555279850959777,-0.0490215718746185,0.0447338111698627,-0.0398871892303228,-0.096262477338314,0.0169658939786255,0.002218406701833
61,0.062455,0.027741,0.448694,-0.121112,0.028863,-0.704082,0.699118,0.2596789275271818,-0.3949263695478439,-0.5328184443257749,-0.1748342417986132,9.72512965465486,-1.249664983921498,-0.2055853456258773,-0.0850101709365844,0.2533560991287231,-0.2664687731820449,-0.3151940237755575,0.6814454580785451,0.6043832902504283,-0.1599928438663482,-0.1154493689537048,0.0578040033578872,0.0968384742736816,0.0234785676002502,-0.0307019352912902,-0.033108826726675,0.0484814941883087,-0.0287467865347862,-0.0851680636405944,0.0346939314361661,0.0506882769688963
62,0.062337,0.026614,0.447485,-0.110541,0.007819,-0.705234,0.700261,0.972458546477556,0.0719879623681306,0.6136147131800651,-0.1769850631569512,9.737954064914584,-1.1451270433433354,-0.1802309155464172,0.3384946286678314,-0.1974017024040222,-0.2691835905520524,-0.3150519904974199,0.6775894582801196,0.6075812740930008,-0.4697733223438263,-0.0463350676000118,-0.0534868314862251,-0.0044189095497131,-0.0015605092048645,-0.0168546736240386,-0.0280358791351318,0.0511695370078086,0.0073883566856384,-0.0713082402944564,0.0480517179202288,0.0180471133440732
63,0.062404,0.02586,0.447709,-0.101304,-0.006412,-0.704509,0.702399,0.1755129447777755,-0.5536112031161785,-0.1533611543275415,-0.2497334702372551,9.743905082273482,-1.079054150237888,-0.2854930162429809,0.6112213730812073,-0.2575192153453827,-0.2735324917351954,-0.3227938596970093,0.6714317350555328,0.608410764327034,-0.2283252924680709,-0.0259771700948476,0.1012633964419364,-0.0063899159431457,-0.0415348410606384,0.0369850099086761,-0.0229629315435886,0.0538575798273086,0.0436199460178613,-0.0574484094977378,0.0613864157896488,-0.0145792911030352
64,0.06144,0.024628,0.448711,-0.090228,-0.022473,-0.701402,0.706675,-0.7309990566540508,-0.3139110511153936,1.0733120263893157,-0.3368147376451641,9.746915370005368,-1.0269241500280797,0.1214170902967453,0.9335222840309144,-0.3754498064517975,-0.2829824674881118,-0.3374144993457867,0.6622008885963803,0.6062691865483621,-0.1725624203681945,0.0160060189664363,0.1331989616155624,0.0206077098846435,-0.0132598280906677,-0.000360369682312,-0.0250770188868045,0.0321140326559543,0.0192781164437532,-0.041713535785675,0.0406420261856168,-0.0446212320148944
65,0.061481,0.024396,0.449377,-0.087317,-0.027584,-0.70017,0.70808,0.2634022588992491,-0.0063005614489316,-0.2815770537436008,-0.4547886810427531,9.733343356248737,-1.107059543820843,0.1001163348555564,0.4100590944290161,-0.4208853840827942,-0.2866133465992883,-0.352098472225538,0.6576252685422314,0.6011725841416066,-0.4338060021400451,-0.0321157053112983,0.1739798039197921,0.0022945404052734,-0.1804406642913818,0.0045998692512512,-0.0193129982799291,0.0175855606794357,1.16904377937e-05,-0.021033713594079,0.0490820838812738,0.0225407715015113
66,0.060948,0.024489,0.449415,-0.088293,-0.020547,-0.697338,0.710986,-0.3075534257169813,0.1209855097711086,0.1930114660620689,-0.5720164822481573,9.727114106470346,-1.1074468626379963,-0.035617783665657,-0.0437793657183647,-0.0809399262070655,-0.2835327833800982,-0.3566604144307256,0.6551774004051321,0.6026152265980337,-0.1986891031265258,-0.1756988167762756,0.0513609535992145,0.0170914530754089,0.0564730763435363,-0.0275271236896514,0.0027208570390939,0.0052993930876255,-0.0116577045679092,0.0173884648829698,0.0587254529520869,0.1038050962589681
67,0.06137,0.02356,0.450183,-0.076924,-0.011199,-0.696742,0.713098,-0.5211131742890924,0.2365086624830961,0.7098012972593307,-0.5085433963775634,9.728308284690977,-1.1277389784298837,0.1744179278612136,0.6578860282897949,0.2800247371196747,-0.2887465984867058,-0.3587744224488804,0.6548126439637582,0.5992718738815028,-0.0338663198053836,-0.141506478190422,0.032538928091526,0.0161002278327941,0.025643765926361,0.0166770368814468,0.0189686026424169,0.0139255421236157,-0.0442681807935237,0.0192295890301466,0.0369433908633887,0.0394444138988852
68,0.061844,0.022851,0.44954,-0.073836,-0.015826,-0.697151,0.712937,-0.9447611228652298,-0.4064046258956194,-0.401644718017429,-0.37294754277803,9.712216981589794,-1.305421065673977,0.4531859457492828,1.5751527547836304,0.2112137973308563,-0.3018242773839621,-0.3704870783147181,0.655207813933003,0.5851018042730775,-1.2085685729980469,-0.1798465698957443,-0.2376849055290222,0.0158177018165588,-0.0903233885765075,-0.002576932311058,0.0177924670279026,0.0321092307567596,-0.0382312387168407,-0.0100475456565618,0.0218725899163633,0.0079058046884834
69,0.061919,0.022486,0.448983,-0.070178,-0.02074,-0.696488,0.713828,-0.2085644245028495,0.390832378232479,-0.8581634742558002,-0.0986416582143399,9.707162036287784,-1.3898425392881035,-0.1001176461577415,1.3186628818511963,0.5435762405395508,-0.3253877020676362,-0.3819351585824633,0.6519108692261627,0.5685601332197362,-0.0924265682697296,-0.0542928054928779,-0.0004752146778628,-0.0871272683143615,-0.0097222328186035,0.0553088784217834,0.0087612038478255,0.0474532023072242,-0.0424725295484066,-0.0383865423500537,0.0101345135886222,-0.0094442663021385
70,0.063866,0.021466,0.449336,-0.064687,-0.023445,-0.697326,0.713444,0.2977061681045219,-0.1594610786378383,0.3188343328617513,0.1073626152106095,9.720407302308082,-1.2932741162844,-0.3901889324188232,0.723235011100769,0.2866617739200592,-0.3449548195884417,-0.38678394649375,0.6452416690003355,0.5613088537716537,0.1006291732192039,0.1411652117967605,0.0205811355262994,-0.0583923459053039,-0.002967894077301,0.0466975569725036,0.0126234618946909,0.0336633697152137,-0.0190308636844158,-0.0610898062586784,0.0430986255574971,0.0105883217707276
71,0.064159,0.021058,0.450039,-0.061843,-0.017949,-0.696934,0.714239,0.448480338146165,-0.2362497192859649,0.4801672697860747,0.1535118331109173,9.732101831755042,-1.1970802256815134,-0.0124145541340112,0.4568648636341095,0.009365065023303,-0.3538433847619539,-0.3899906335384271,0.6394852701034777,0.5601434719553625,0.0484607741236686,-0.0082131410017609,-0.1200819760560989,0.0073289275169372,0.0923408865928649,-0.0514274090528488,0.0164857190102338,0.0198735371232032,0.0045230303823947,-0.0837930738925933,0.0760662446577102,0.0306084887534379
72,0.064546,0.020007,0.451356,-0.061308,-0.011984,-0.696239,0.715087,0.1329642264543101,0.102491237181425,0.2974842324495315,0.2480129483212717,9.72031962402463,-1.2744685857884586,0.4109292924404144,0.7280102968215942,0.2538400888442993,-0.3616654357291536,-0.395995939594907,0.6388795132626487,0.5515599388873813,-0.0083537716418504,-0.0188270099461078,0.0267998147755861,0.0148034691810607,-0.0308253765106201,-0.0324088931083679,0.0206325929611921,0.0150619987398386,-0.0383767846673727,-0.0829286128282547,0.0470340653102844,-0.0092639412991702
73,0.064587,0.017609,0.450055,-0.074629,-0.001996,-0.692051,0.717978,-0.4164358983054756,-0.0507365000247955,-0.5622631499968469,0.4569877985222265,9.691587450537083,-1.4264203117094931,0.3254766166210174,1.64556622505188,0.5004227757453918,-0.3773145518263796,-0.407250459281697,0.637866962553194,0.5337663572355912,-0.2885428071022033,-0.0701162442564964,0.0459758415818214,0.0382305979728698,-0.0173043608665466,-0.0141748785972595,0.0247794669121503,0.0102504603564739,-0.0811509275108575,-0.0820641443133354,0.0180401721466332,-0.0491609212711453
74,0.065234,0.015682,0.44927,-0.083181,-0.005277,-0.688458,0.720472,-0.8311848664373159,-0.1132248126417398,-0.7361562202215194,0.7710306227911263,9.6708772554636,-1.43179309078902,-0.0804792940616607,1.167898416519165,0.6597276926040649,-0.4012920295415879,-0.4159130777410388,0.6324693224560068,0.5157165930272883,-0.3676885068416595,0.0232723988592624,0.0341643244028091,0.0026138424873352,-0.0241579413414001,0.0757579505443573,-0.0043079275637865,0.0326689258217811,-0.1070744733184576,-0.0666604489088058,-0.0177404585476964,-0.0939757761619985
75,0.065334,0.014151,0.448607,-0.088086,-0.007579,-0.687625,0.720663,-0.4508653335865586,-0.1819640023469924,-0.4776736263394355,1.1065773863270878,9.65716671001911,-1.2980752329558134,-0.3520936369895935,1.276613712310791,0.7638735175132751,-0.4249787925127612,-0.4169043906194405,0.6263977553307597,0.503199342256489,-0.4791577756404876,0.0929789394140243,-0.0624420493841171,-0.0133813023567199,0.0378558039665222,0.0198898911476135,-0.036832645535469,0.0457122102379798,-0.0730202280253171,-0.083319216966629,-0.0078839581828564,-0.085644731798768
76,0.065884,0.010625,0.449193,-0.096142,-0.010765,-0.690114,0.717206,-0.1322752578094601,0.0542202504873275,-0.430061834206432,1.4996636809661985,9.629426470178364,-1.093398025149852,-0.4420712888240814,1.0031147003173828,0.933365762233734,-0.4509347189783848,-0.4138718441965231,0.6200466771135705,0.4908258612788844,-0.3786162436008453,0.0247456617653369,-0.016585474833846,-0.0087618231773376,-0.0527048110961914,0.0240341424942016,-0.0693573653697967,0.0587554946541786,-0.0388280355662107,-0.0999779924750328,0.0019146745149046,-0.0772914756037294
77,0.066062,0.008638,0.449325,-0.101751,-0.012238,-0.691613,0.714961,0.0766191293001175,0.0125683896720409,-0.6479530361115932,1.8857284064054487,9.586983166724442,-0.8391445932701229,-0.6106009483337402,0.4786042273044586,0.9013270735740662,-0.4739198625001468,-0.4052376469868672,0.6152779196780883,0.4823022668592765,-0.2632707357406616,-0.0281719900667667,-0.0437283441424369,-0.0285248756408691,-0.0201205015182495,-0.0184695273637771,-0.0816595479846,0.0570895746350288,-0.027928455889225,-0.1158195808529853,0.0084827277936041,-0.0525727755412459
78,0.065305,0.006999,0.449309,-0.107464,-0.012613,-0.690638,0.715061,1.168345421845466,0.3504290561735629,0.2615022339642048,2.1648322019033133,9.54974444617629,-0.5350392987130209,-0.6767854690551758,0.6068252921104431,0.4833589792251587,-0.4926154500086699,-0.3954027418079479,0.609045223447207,0.4796359255573177,-0.1211660727858543,-0.0504478402435779,-0.007387182675302,-0.007685899734497,0.0036647915840148,-0.0868445038795471,-0.0737479254603385,0.0430930592119693,-0.0228600665837526,-0.1227689757943153,0.0288571150414645,-0.041649230466783
79,0.063419,0.004345,0.451742,-0.107824,-0.008762,-0.685708,0.719793,0.876795401750505,-0.0638134237408638,0.9179647397458552,2.314226206165552,9.525997075363993,-0.2647963801387697,-0.4696729779243469,0.5869764089584351,0.2874196767807007,-0.5074388287118393,-0.3905321322530246,0.600820698425602,0.4785446241244631,-0.2204330116510391,-0.0594645030796527,0.0200143475085496,-0.0021984577178955,-0.0085465908050537,0.0085005909204483,-0.0630032122135162,0.0315703004598617,-0.0246083715558052,-0.1141185536980629,0.0462217990793287,-0.0291983296945691
80,0.060327,0.00284,0.453495,-0.103979,-0.014188,-0.679985,0.725678,0.5697106895238161,-0.2940273699939251,1.286271982437372,2.4085263919763267,9.506017532652615,-0.0709155336639145,-0.1814712435007095,0.7747810482978821,0.1888759434223175,-0.5210393549931499,-0.3914231845440053,0.5919489644266385,0.4742387272138992,-0.4220103323459625,-0.0169580038636922,-0.0011639746371656,-0.0117815732955932,-0.0126251578330993,0.0303717851638793,-0.0564109683036804,0.0234262831509113,-0.028204350221157,-0.0982708781957626,0.061673416037485,-0.0407611955858767
81,0.057852,0.000628,0.45611,-0.100332,-0.021715,-0.673496,0.732028,0.0048895256072282,-0.4658832353025675,1.6508499754726886,2.501241062161326,9.482296465325357,-0.0151608926665619,0.2616806030273437,0.6830454468727112,0.3549814224243164,-0.5304428265183425,-0.3944606403319707,0.5875149305773139,0.4667519745328955,-0.725063681602478,-0.0185362994670867,-0.2482942640781402,-0.0085838437080383,-0.0194786787033081,0.0181190967559814,-0.0563790835440158,0.0330798551440238,-0.0421083724111318,-0.0852904692292213,0.0483562538247555,-0.0269460207231342
82,0.055276,-0.001966,0.458755,-0.094389,-0.025905,-0.66897,0.736817,0.4888637133955955,-0.4289022889077663,0.8432242637991905,2.6593615398451687,9.439030155050752,-0.053586363897426,0.4310396611690521,1.097297191619873,0.4087060689926147,-0.5426767149655503,-0.4024205495076526,0.5837720836232585,0.4502995936153631,-0.3435144424438476,0.1053411662578582,-0.1091592833399772,-0.0539904236793518,-0.0225249528884887,-0.0047317296266555,-0.0555660314857959,0.0363892540335655,-0.0342336935132741,-0.0837379023432731,0.0459000197790563,-0.0019629706360399
83,0.050659,-0.008572,0.46139,-0.098111,-0.040842,-0.661247,0.742602,0.0376665905714035,0.1157704054713249,-0.4822948563992977,2.7671403620406982,9.407166113278269,-0.1361574969371315,0.2896254658699035,0.2072831988334655,0.1624567955732345,-0.5487700333433436,-0.4084753066059893,0.5831723797005764,0.4380745467891918,-0.1997303962707519,0.0717419311404228,-0.0761214345693588,0.0171165466308593,0.0404112339019775,-0.0001146644353866,-0.0411306098103523,0.0486078597605228,-0.0401490550369024,-0.0851915851235389,0.0343720060054212,0.0453740962088108
84,0.048442,-0.01261,0.461702,-0.100177,-0.06123,-0.657546,0.744211,-0.3956961848765611,-0.1028150623083114,-0.6248176597177982,2.843168831971288,9.384387295237184,-0.1416268043268471,-0.0059460531920194,0.6866361498832703,0.2906196415424347,-0.5541007048096155,-0.4112272288388701,0.5814749553788278,0.4309889977740282,-0.1559240669012069,0.0679672732949256,-0.0343866422772407,0.0120301246643066,0.0025675892829895,0.0279342383146286,-0.0058287270367145,0.0482656955718994,-0.0639373423814773,-0.0851417183876037,0.0270543764684349,0.1099697563685476
85,0.04638,-0.016539,0.463157,-0.096644,-0.081266,-0.655292,0.744747,-0.1980573512747883,0.231068517255783,-0.2781377269446849,3.024562048693001,9.328231692773103,0.0807654353246092,-0.2572941482067108,1.095725417137146,0.4073493182659149,-0.5744744233041464,-0.4143481882541002,0.5693836034789281,0.4172494765412254,-0.1341481953859329,0.1123604103922844,0.1094432324171066,0.0010996460914611,-0.0221673250198364,0.073309302330017,0.0118128210306167,0.0439546778798103,-0.0469148959100246,-0.1015876829624176,0.0416966498050838,0.0916784590050578
86,0.042196,-0.02631,0.467435,-0.098391,-0.095559,-0.65856,0.739924,-0.0861845377638935,0.4289256697833538,0.0284936702902428,3.1648283052563664,9.277466551175714,0.2878401144600473,-0.1589919179677963,0.6974381804466248,0.3192521333694458,-0.5903855007364528,-0.414816842923415,0.5596885077176833,0.4075790243896487,-0.2022454887628555,0.1476639658212661,0.161042645573616,0.0123357772827148,-0.0649275183677673,0.0154298543930053,0.0294543672353029,0.0396436601877212,-0.0297241071343421,-0.1180336400866508,0.0563601120602339,0.0733481448054313
87,0.040564,-0.030471,0.470787,-0.09587,-0.10343,-0.66181,0.736287,-0.0377539765939116,-0.1832207244098186,0.2656324656367301,3.263641438446939,9.237792127913236,0.4268905837591737,-0.1562889069318771,0.7258188128471375,0.2942513227462768,-0.6005729627691647,-0.4141403977315381,0.5538252145704793,0.401344681466755,-0.0145474839955568,0.0468506403267383,0.0086950473487377,0.0059384703636169,0.1066224575042724,-0.0372427031397819,0.0347540043294429,0.0397655367851257,-0.0205418527692556,-0.1261963844299316,0.0653534197244793,0.0330156960256397
88,0.039222,-0.035008,0.472421,-0.094689,-0.116614,-0.663694,0.732766,0.0189358788773417,-0.2590852359503507,0.3864947143543511,3.3690091078475115,9.192002436640855,0.5720839214611798,-0.0548999533057212,0.6484559774398804,0.3532136082649231,-0.6124748602020907,-0.4150400572920426,0.5464188762256863,0.3924829771040999,0.1339972466230392,0.0196636039763689,-0.0702574923634529,0.0140103101730346,0.0654181241989135,-0.0304702520370483,0.031039522960782,0.0344774983823299,-0.0164402626693248,-0.1371844410896301,0.0872689719997346,0.0150039462558925
89,0.035356,-0.043018,0.478211,-0.091758,-0.135217,-0.666974,0.726941,0.4971037184745073,-0.0895978533387184,0.4327070149529725,3.490289801172912,9.142374774640798,0.6366027900576591,0.1611582189798355,0.690761923789978,0.3519823253154754,-0.6217702354939719,-0.4166766254390593,0.5421465481121918,0.3819156694719486,-0.0146026127040386,0.0507704429328441,-0.027979277074337,-0.0026619434356689,-0.021940529346466,0.0690608024597168,0.0213767290115356,0.0359987691044807,-0.0448065254539251,-0.1401629000902176,0.0621378917440772,-0.0098792967185378
90,0.033486,-0.045557,0.483386,-0.088664,-0.132725,-0.670597,0.724446,0.0189019766077399,-0.0415735348820686,-0.3204635414987802,3.5873639817416665,9.102728992950915,0.664480246412009,0.1422027200460434,0.5535441040992737,0.2939683794975281,-0.6294572937313969,-0.4200847840868903,0.5381911481014705,0.3710291193773483,-0.2138411551713943,0.1136150285601615,-0.0431778691709041,0.0284345149993896,-0.0083351135253906,0.0083100050687789,0.0264941677451133,0.0411333367228508,-0.0207885210067033,-0.1286398470401764,0.0834306359458714,0.0294853299424052
91,0.032021,-0.048561,0.487379,-0.085646,-0.131264,-0.67447,0.721474,0.0432952441081404,-0.0955938788831233,-0.319430691319704,3.6750495717182754,9.063525109809635,0.7189630933582782,0.067843347787857,0.7133921384811401,0.3082567453384399,-0.6372832642201597,-0.4226159364138228,0.5336092705945249,0.361285180111626,-0.1405040919780731,0.1589922606945037,0.0353144071996212,0.0363973379135131,-0.0014623999595642,0.0316999182105064,0.0423548743128776,0.0558270290493965,-0.0548994649231433,-0.1167398616671562,0.0654329877667129,0.0787508806318044
92,0.030547,-0.054239,0.495139,-0.066352,-0.13621,-0.680788,0.716639,-0.3131625708356499,-0.0550859274059534,-0.1129711301416158,3.793733526548743,9.006108109107613,0.8173156232997775,0.107333980500698,1.0884792804718018,0.5242412090301514,-0.6485734502348055,-0.4255791487781334,0.5265082020928364,0.3478851572589929,0.0217479392886161,0.1709319502115249,-0.0255123917013406,0.0280387997627258,-0.0325721502304077,0.0373036339879035,0.0807174295186996,0.0806676894426345,-0.0996171430498361,-0.1303815990686416,0.0490922399491071,0.0774069186769425
93,0.030263,-0.057371,0.497978,-0.058635,-0.137545,-0.683776,0.714208,-0.2614320913374424,-0.0716518622815609,0.0619980448819696,3.987558647081256,8.90730462052822,0.9642165686372668,0.1865581423044204,1.4101128578186035,0.8248034119606018,-0.6650325877945364,-0.4289286506694855,0.5165838267396556,0.3269452019587359,0.3551389575004577,0.0908910706639289,-0.039227869361639,0.039677619934082,-0.0625467300415039,0.0483237504959106,0.1145623624324798,0.1235976293683052,-0.1607674850612878,-0.1441099792718887,0.0035058161638677,0.0531745408266782
94,0.030184,-0.06093,0.498991,-0.058154,-0.139354,-0.685951,0.711807,0.0078293784514069,-0.2208610114961862,-0.2340865499027073,4.23978305735141,8.76771085639894,1.1497187550477683,0.0626056268811225,1.3990262746810913,0.8705844879150391,-0.6842484498393696,-0.431198588988553,0.505419067761778,0.3007047038518837,0.6115752458572388,0.0191393326967954,-0.0241895318031311,0.0309810042381286,0.0662782192230224,0.0190809369087219,0.1299776881933212,0.1690808534622192,-0.1444599088609218,-0.1459545195102691,-0.0006697890203446,-0.016818448331952
95,0.032128,-0.067487,0.502628,-0.061467,-0.134515,-0.690514,0.708039,-0.2702224237754941,-0.4081313035577535,0.6110217740774154,4.461122500014305,8.62622850204408,1.362698219513893,0.1285867244005203,1.3317387104034424,0.8128594160079956,-0.7017971831913807,-0.4312052763219258,0.4945540811008756,0.2774147631975848,-0.002742491196841,0.0906693935394287,-0.0085766175761818,0.0198765397071838,0.0240262150764465,-0.0445567369461059,0.1180591136217117,0.2041177004575729,-0.118101478767395,-0.136705219745636,-0.0327426147053018,-0.0459162402614951
96,0.032326,-0.069914,0.50446,-0.059497,-0.134223,-0.691432,0.707366,-0.6981324867755174,-0.3864817818075418,0.0559019199639558,4.684328613331914,8.479033030739426,1.5275630568914114,0.3022092878818512,1.3146690130233765,0.9459237456321716,-0.717444532383448,-0.4328497049763863,0.4845173768929106,0.2513113820436715,-0.2151863127946853,-0.0139643978327512,-0.0123642310500144,-0.015325903892517,0.0447280406951904,0.0071357786655426,0.103834718465805,0.2258595675230026,-0.0992646763503551,-0.1298650056123733,-0.041142194260098,-0.0554848635956645
97,0.033752,-0.071571,0.508027,-0.055269,-0.138293,-0.692138,0.706234,-0.4149000670403241,0.3165396460533142,-0.072415393999964,4.936798230534792,8.31201291502416,1.645854943664372,0.4792419970035553,1.135852932929993,0.9499868154525756,-0.7311351721749229,-0.4348769073261251,0.4764103576147225,0.2221633466542249,-0.3723399639129638,-0.0183256417512893,0.0730583220720291,0.0106193423271179,-0.0219188332557678,-0.0436553806066513,0.0807472988963127,0.2202522456645965,-0.006730769559741,-0.1420470774173736,-0.0202716209931299,-0.0832888163223862
98,0.034539,-0.074619,0.514193,-0.043511,-0.146509,-0.694285,0.703285,-0.914600816270709,-0.0564636454999446,-0.4022178417302668,5.211594245836139,8.14153242972195,1.6507938613712787,0.6232327818870544,0.7971965670585632,1.1302485466003418,-0.7391392108693714,-0.4367410932916732,0.4744366693251467,0.1945257741414419,-0.3417969644069671,-0.1147033646702766,0.0935403630137443,0.0477254986763,-0.0122866034507751,-0.0009046122431755,0.0463958643376827,0.2082801312208175,0.0013677812218666,-0.1558320969343185,-0.0749389393945224,-0.0506014754682779
99,0.035327,-0.075945,0.517432,-0.037182,-0.149302,-0.694908,0.702445,-1.051426869252324,-0.5631073457360267,-0.3496377596653998,5.569135179841518,7.9074699913471935,1.620808911343664,0.6314803957939148,1.0067185163497925,1.4149987697601318,-0.7459096393158257,-0.4371782212693583,0.4756437157478878,0.1620400161250124,-0.1132223978638649,-0.0308944322168827,0.1561489552259445,0.0119457244873046,0.1066528558731079,0.0022192597389221,0.0292489994317293,0.1959731727838516,0.0092231708973646,-0.1696687936782837,-0.0636329069416504,-0.0436395275011658
100,0.035657,-0.077769,0.520174,-0.03024,-0.152647,-0.695697,0.701277,-1.508362827989459,-1.4167466205656527,0.0181898828156292,5.986119067418575,7.574784097135066,1.7202996515348552,0.7114816308021545,1.677115797996521,1.8609795570373533,-0.7571454746635563,-0.4351401084320575,0.4721675719993274,0.1201737500621053,-0.1230265572667121,0.0451361536979675,0.1564988195896148,0.0142105817794799,0.0200673937797546,-0.0083649307489395,0.0255000926554203,0.1765967458486557,-0.0031903204739093,-0.199514701962471,-0.0514562884995946,-0.0189437699228525
101,0.037301,-0.08306,0.524507,-0.019332,-0.154914,-0.700238,0.696631,-0.5784159740269184,-1.450717279228568,-1.162000436732918,6.409494117337465,7.141584987816215,2.021518978859484,0.6005029082298279,2.228479623794556,1.939147472381592,-0.773725759607117,-0.4311436073961846,0.4593978772371278,0.0664621500745801,-0.1446983069181442,0.0636756941676139,0.1900867521762848,0.0101679563522338,0.0010201930999755,0.0060391426086425,0.0217511840164661,0.1572203338146209,-0.0145090023458003,-0.2293606102466583,-0.0393692480371333,0.0055175943776965
102,0.038757,-0.08742,0.526057,-0.01396,-0.156837,-0.706336,0.690143,-0.5685369695693254,-1.086007768768072,-1.7236831564933062,6.703378863990307,6.683501028087735,2.5624019255667925,-0.3278952538967132,2.1371257305145264,1.7827887535095217,-0.7939607261214843,-0.4200630016225725,0.4392048880379705,0.0165075664658867,-0.1976171731948852,0.0586194694042205,0.2127137631177902,-0.0033953785896301,-0.0310513377189636,0.0058850646018981,0.0268242955207824,0.1151910126209259,0.0448982953906059,-0.258094310760498,0.0069181738991115,-0.0468143581449985
103,0.039598,-0.091984,0.526207,-0.013531,-0.15543,-0.712217,0.684402,-0.8124684755295515,-0.3914584011763334,-1.116931314820051,7.032155475804209,6.023668169090152,3.230262900458276,-1.2623741626739502,1.3395483493804932,2.157365322113037,-0.8149801643118193,-0.3886796061204863,0.4292209094755355,-0.0224699614903354,0.0499739833176136,-0.0005673657287843,0.2138966023921966,-0.012854516506195,-0.0121164917945861,-0.0468970537185668,0.0373966991901397,0.0793537348508834,-0.0170569332629442,-0.2458422929048538,-0.030719271634554,-0.0576604540690779
104,0.04057,-0.100077,0.527403,-0.017406,-0.147614,-0.719227,0.678689,-0.6464777028620242,-0.0555354247391223,0.0870440772026777,7.37807611464262,5.142765624281764,3.909776903742552,-1.8954888582229608,1.5082173347473145,2.427737236022949,-0.8345338458292344,-0.3418452449366072,0.4287174810826943,-0.0538194856452283,0.2405300736427307,-0.00108886603266,0.167653277516365,-0.0242388248443603,-0.0266424417495727,-0.0398817211389541,0.0398984402418136,0.0696723759174346,-0.0469639957487583,-0.2096368074417114,-0.0298000904134241,-0.0417468456223607
105,0.040695,-0.103642,0.527669,-0.016006,-0.146394,-0.72326,0.674691,-0.7400280932188034,-0.9357415117159484,2.5920208187609908,7.523999081793427,4.0812732880890366,4.785711889271438,-0.6685709953308105,2.0682709217071533,3.1058621406555176,-0.8565830867631162,-0.2918236857612206,0.4133225638163414,-0.1013353809176333,0.1405984163284301,-0.0790651068091392,0.2197421193122863,-0.0474370718002319,-0.0788494944572448,-0.0542455911636352,0.0581146776676178,0.0567859560251235,-0.0559931053787469,-0.1805035769939422,0.0129941042708232,-0.0879977246657013
106,0.041947,-0.106355,0.52912,-0.017166,-0.145831,-0.72739,0.67033,0.4215525106668472,-1.311532095900178,2.167317735108733,7.572835885676741,3.0744121212720867,5.419457828593254,0.2885929048061371,2.0690627098083496,3.37548565864563,-0.8647028438299974,-0.258715762973972,0.3959175351968617,-0.1691282885704533,0.1731441169977188,-0.0642902553081512,0.1123199760913848,-0.006921112537384,-0.0827031135559082,-0.0720987319946289,0.0633144974708557,0.0418586358428001,-0.0846340934514999,-0.1762398332357406,0.0320937954077497,-0.0978127239763736
107,0.041367,-0.109042,0.530887,-0.008227,-0.140572,-0.728718,0.670181,0.5216553914070129,-0.8078226955503225,0.5975467909544706,7.601122653484344,2.125531288128346,5.820260396698117,-0.0681845843791961,0.8535284996032715,3.0697989463806152,-0.8616314255164303,-0.230586179298356,0.3874007344328349,-0.2331135505030182,-0.056556187570095,-0.1084113791584968,0.1740373969078064,-0.0545433759689331,-0.0031172037124633,0.0393222421407699,0.0612293481826782,0.036168809980154,-0.0590174216359853,-0.1591212600469589,0.0571127935910597,-0.0964870283305645
108,0.040819,-0.109708,0.531934,0.001679,-0.140075,-0.725883,0.673402,-0.0300695595711469,-1.0505980172127485,2.06264155510366,7.64467771757245,1.2570977642707526,6.0124020941883325,0.2302715480327606,0.3122387230396271,2.6558539867401123,-0.8519264409189579,-0.2050411390659977,0.3891155751493833,-0.2841978821195433,-0.2450328916311264,-0.0932008996605873,0.1983726322650909,-0.0465683937072753,0.0002957582473754,0.0355246737599372,0.0427122116088867,0.0341203548014164,-0.0809744019001722,-0.1436497718095779,0.0384373922808095,-0.1194523088544607
109,0.040089,-0.110855,0.53362,0.013707,-0.13834,-0.721963,0.677823,-0.4958031572699546,-1.3212234688311817,1.8245926774412395,7.616009256970882,0.5573234651049599,6.152737616595625,0.9320401549339294,0.8772019147872925,3.1377010345458984,-0.8359450346943804,-0.1909511491292524,0.3870857125453557,-0.338966467689848,-0.2029560208320617,-0.0403093993663787,0.1628698408603668,-0.0152838230133056,0.0143433809280395,-0.0287129282951354,0.0220792107284069,0.0288272053003311,-0.0432470210522413,-0.1502530574798584,0.0554595830239355,-0.1379047881290316
110,0.041035,-0.119282,0.53457,0.009422,-0.119686,-0.720199,0.6833,0.0682101973950862,-0.5124348508581519,0.7117372337579727,7.30204033818841,-0.2555052768380381,6.541048367395996,0.6970515251159668,1.658007025718689,3.6201283931732178,-0.8172619364817015,-0.1689857943226147,0.3714070016728643,-0.4069196350501542,-0.2075419872999191,0.033195499330759,0.12171221524477,-0.0251364707946777,0.0014487504959106,0.0072701051831245,-0.0006987191736698,0.0170128159224987,-0.0556447303324937,-0.1395327895879745,0.0506425746636465,-0.105941669896245
111,0.041965,-0.126002,0.535432,0.008717,-0.118814,-0.718515,0.685233,1.5223749867290255,0.2905577211219817,0.6017004035025835,6.787150787654519,-1.0489209508460011,7.000338195782899,0.6764147877693176,1.3564202785491943,3.084734439849853,-0.7963590355690827,-0.1408837086751208,0.3510467984450001,-0.4719430524583901,-0.2055406123399734,0.0217203106731176,0.0736030116677284,-0.015659749507904,0.0050738453865051,-0.0118753835558891,-0.0063565205782651,0.0302578452974557,-0.0609364069998264,-0.1203894317150116,0.0271981688532978,-0.0571656562894582
112,0.042315,-0.132475,0.536894,0.012191,-0.117798,-0.716632,0.687323,1.154626546964049,0.0031109716273844,0.8517962773114442,6.307651699453592,-1.4990380964137613,7.357771577760577,0.7869142889976501,1.121673822402954,2.2629361152648926,-0.7773959657948454,-0.1233389736996496,0.3311277012247169,-0.5203819962277022,-0.1736636459827423,0.0225976090878248,0.0527733601629734,-0.0068437457084655,0.0067922472953796,-0.0034265518188476,-0.0120143219828605,0.0435028746724128,-0.0659738166451454,-0.101246066391468,0.0037098508359864,-0.0084840429678559
113,0.043281,-0.138626,0.538773,0.013157,-0.116259,-0.716374,0.687836,2.3443670774072407,0.2700228095501661,0.8287602696388959,5.790082700577378,-1.8654589408367872,7.691904163649678,0.4376992881298065,1.4739296436309814,2.1858696937561035,-0.7589852016535309,-0.1051280568883728,0.3110789737754272,-0.5622449382406663,-0.1551243066787719,0.0357168167829513,0.0412416718900203,0.0066533088684082,-0.0088639855384826,-0.0096927210688591,-0.0082690184935927,0.0338188335299491,-0.0445090038120746,-0.0939474329352378,0.0583576790856197,-0.0295376446515321
114,0.046939,-0.151615,0.543264,0.021348,-0.11261,-0.7247,0.679465,2.985268441441655,0.4997776138588786,1.0451561184197664,5.084836582404375,-2.184846523667127,8.095755597931147,0.2627414166927337,1.913551688194275,1.6162043809890747,-0.7466980669940746,-0.0781525687038085,0.2848218748654662,-0.5959954492075731,-0.1181609630584716,-0.0126469852402806,0.0837974548339843,0.0146342515945434,-0.0073639750480651,0.0023252889513969,-0.009090700186789,0.0387397930026054,-0.0948135421603918,-0.1096992418169975,-0.003788377698604,-0.0591027618318796
115,0.048009,-0.158747,0.546484,0.027148,-0.11017,-0.728541,0.675539,2.23214150493592,-0.1504370835743844,-0.0357809229552745,4.39470941516906,-2.356292054609209,8.444217153424024,0.2039867341518402,1.2660212516784668,1.0544816255569458,-0.7394773308483417,-0.05368753331446,0.2580356323191673,-0.6194422516079836,-0.0005440516397356,-0.0587529093027114,0.2182167768478393,0.006385326385498,-0.0193015933036804,-0.0306732654571533,-0.0047601964324712,0.0691481679677963,-0.1243494332462549,-0.109543852508068,-0.0444787365379743,-0.0320493352115154
116,0.04867,-0.164125,0.548926,0.03294,-0.107611,-0.730271,0.673825,3.075118515975773,0.0510135634005069,0.0642746115118265,4.024736869613826,-2.379224894168228,8.620392635497451,0.2400531470775604,0.6950603723526001,0.1236810088157653,-0.736884208202018,-0.0423917791354141,0.242250346628601,-0.629697937173667,0.2238898426294326,-0.1113959848880767,0.2477642148733139,0.0335961580276489,0.0089405179023742,-0.0888288617134094,0.0184904485940933,0.0828721076250076,-0.0937900443315506,-0.1047511771321296,-0.0668888856634497,-0.0042082653447985
117,0.049011,-0.172295,0.550562,0.034413,-0.108526,-0.728032,0.676023,1.1599503723353146,-0.2704866276696324,-0.0227636204719543,3.756692374399304,-2.276943938736617,8.767734821796417,0.3076199293136596,0.937993049621582,0.0747980773448944,-0.7400679645192173,-0.0370863021631209,0.2271443272590259,-0.6319251636528863,0.5360152721405029,-0.0625395998358726,0.3225885033607483,0.0115026235580444,-0.0141075253486633,0.0060952380299568,0.0511157736182212,0.0804430618882179,0.0121060328572988,-0.0991758480668068,-0.0066335562629625,0.0043231238961219
118,0.048528,-0.17555,0.551193,0.033854,-0.107804,-0.724523,0.679926,0.4423913005560636,0.2224665469966828,-1.979028621393442,3.438908865764737,-2.2437712985835967,8.905604246351123,-0.0531606376171112,0.401341825723648,0.0129096107557415,-0.7419236495573094,-0.0277913613923123,0.2125281206901423,-0.6353021316943991,0.112575314939022,-0.2482805550098419,0.320322573184967,0.0207681059837341,-0.0042487978935241,0.028395652770996,0.0562282800674438,0.0435211174190044,0.0348667307198047,-0.1082792803645134,0.008185352282226,-0.0061260816648602
119,0.047959,-0.177275,0.55132,0.032783,-0.109726,-0.719961,0.684501,0.0501896797969937,-0.0606739566713571,-0.8353121755003928,3.4200559889957307,-2.2877385967344046,8.901676843774318,-0.3778475522994995,0.085297480225563,-0.4531176090240478,-0.7465850050436565,-0.0238116695516542,0.2134801774327784,-0.629658655032522,0.0592351257801055,-0.2388084232807159,0.2486173063516616,0.0053333342075347,0.0208217501640319,0.025175392627716,0.0429449379444122,0.0178242791444063,-0.0127250415384769,-0.1024421006441116,0.00659041124098,-0.0113610597088932
120,0.04788,-0.185675,0.554701,0.035656,-0.104785,-0.719686,0.68542,-0.3647413669034838,-0.2988601969778537,0.1311982762277126,3.3983445079252124,-2.377109071058035,8.886562276750803,-0.280820369720459,0.2327139377593994,-0.0818900465965271,-0.7507069141057002,-0.0179994627545139,0.2158412170135156,-0.6241215319592553,0.2644410133361816,-0.2300104647874832,0.2113688588142395,-0.0155047476291656,0.035338819026947,0.0164083763957023,0.0370083637535572,0.0140735432505607,-0.0541501078605651,-0.0810094028711319,0.0090299864128232,-0.0511059178590774
121,0.049024,-0.187677,0.555622,0.039197,-0.105098,-0.720796,0.684011,-0.0517485996767878,0.0154645495049655,0.3018009266048669,3.2759900478884574,-2.4454295969597992,8.913930176147819,-0.1376006007194519,0.3056496381759643,0.037468958646059,-0.7521849011204136,-0.0108454140876432,0.2130690629382143,-0.6234596511747488,0.0587501637637615,-0.2671309411525726,0.1406928896903991,-0.0269937217235565,0.0218627452850341,-0.0070288255810737,0.0267236307263374,0.0331638008356094,-0.0817833801954984,-0.0742492005228996,0.000536518029496,-0.0751525638788938
122,0.050661,-0.189313,0.556242,0.037849,-0.108509,-0.720688,0.683669,0.5717731750115752,0.2144610813260078,0.0277419934064149,3.2213904426947235,-2.4835657047390938,8.923280188295244,-0.1030042991042137,-0.0109608797356486,-0.1186678186058998,-0.753188863310136,-0.0072150864626183,0.2121020178115003,-0.6226293079086573,0.3470400273799896,-0.1965611577033996,0.1102230027318,-0.034408152103424,0.005283236503601,-0.0140170380473136,0.0089861210435628,0.0539976581931114,-0.0843126064121723,-0.0672638043761253,-0.0131928051806986,-0.0595440758585929
123,0.052901,-0.191395,0.556939,0.035013,-0.112353,-0.721124,0.682738,0.1569768606066703,0.0070014031946659,-0.2563210319340229,3.242939134418964,-2.515825467830896,8.906421992474794,-0.2243638783693313,-0.0042687291279435,-0.1597349196672439,-0.7553819410935626,-0.0057636802252713,0.2141626379761811,-0.6192731946611406,0.4650931656360626,-0.1419327408075332,0.0795430541038513,-0.023306667804718,0.0361638069152832,-0.0167880579829216,-0.0120766498148441,0.0431692190468311,-0.0580628973901271,-0.0701390951871872,-0.0141167516252025,-0.05964286005795
124,0.053445,-0.193257,0.556892,0.032078,-0.115227,-0.720867,0.682675,0.1330585171416402,-0.0279331320643424,-0.6597580401957035,3.2468060389801856,-2.6023966668248173,8.880099218216538,-0.3020721971988678,-0.0058763497509062,-0.0042974110692739,-0.7561446312421047,-0.001943662357115,0.2173410954176301,-0.6172555089547798,0.3812768161296844,-0.1497413069009781,0.2298732250928878,0.0723533332347869,0.0329932570457458,-0.0406352877616882,-0.0331394225358963,0.0323407836258411,-0.0317138196468353,-0.073014385998249,-0.0150792399818077,-0.0597647328719496
125,0.053882,-0.194388,0.557137,0.030192,-0.116597,-0.720291,0.683135,0.3829313958495855,0.0835690945684909,-1.036566569250822,3.2293203589111563,-2.730508667474985,8.847948760718106,-0.5088470578193665,0.1621669679880142,-0.050343245267868,-0.756930446796113,0.0043368117914406,0.2210460422726056,-0.6149602826172804,0.9286413788795472,-0.0844103321433067,0.4798246920108795,0.0854852795600891,0.023823082447052,-0.0547072142362594,-0.0335873700678348,0.0167794227600097,0.0133837977081537,-0.0547621548175811,0.0350470191901549,-0.0644195729404687
126,0.054924,-0.195118,0.558672,0.031257,-0.115386,-0.720915,0.682635,-0.0944163595363497,0.4018652289003133,-1.7676234205067156,3.2204952474206685,-2.963062454852462,8.776050230199099,-0.7907515168190002,-0.21524678170681,0.0252484884113073,-0.7568981316690622,0.0146239883180651,0.2287621324699464,-0.6120124330316932,2.0189058780670166,-0.0668357610702514,0.6609835028648376,0.0728011131286621,0.0875536203384399,-0.0412203073501586,-0.0410991385579109,-0.024892259389162,-0.0360696767687797,-0.0799015760421752,0.0619227876886725,-0.089591131336987
127,0.055503,-0.195507,0.559192,0.031398,-0.115963,-0.720986,0.682456,-0.7305924486145376,0.076220777632296,-1.418267546522617,3.2979248163208363,-3.283702814222872,8.631997148573397,-1.0245230197906494,-0.1003878563642501,0.0959939286112785,-0.7549373842970432,0.0256230893102191,0.2433805230466752,-0.6084234460226298,1.0729583501815796,-0.153364360332489,0.6971572637557983,-0.0079101622104644,-0.0803631544113159,0.1115798354148864,-0.0338022075593471,-0.035808652639389,-0.0935708486229181,-0.0662003606557846,0.0639853827742859,-0.0062654901355504
128,0.056378,-0.196204,0.559386,0.030049,-0.118034,-0.72088,0.682273,-0.6616819939956069,0.4142228984311222,-0.3511462645322084,3.2680700685441493,-3.654475570245087,8.493227560308576,-0.969979166984558,0.1398024260997772,0.2073200494050979,-0.7524765869418882,0.0421094328498615,0.2553286299639194,-0.6056509789959226,0.3828174471855163,-0.0121860448271036,0.6969549059867859,-0.0451243221759796,-0.0751508474349975,0.1352167129516601,-0.0063425842672586,-0.0265947543084621,-0.111254973873496,-0.0442596152424812,0.0828439951643347,-0.0182362061753869
129,0.05813,-0.197527,0.559863,0.026514,-0.121992,-0.720117,0.682529,-0.7937877404570579,0.063305766479671,-0.254856804600358,3.159109050826728,-4.022567124359309,8.367160217228532,-1.0546483993530271,0.2458194941282272,0.4043282866477966,-0.748719187411197,0.0605546919992344,0.264058116518966,-0.605000834787472,0.2688301801681518,0.0854362249374389,0.6556194424629211,-0.0739899277687072,-0.0205864906311035,0.0986931324005127,0.0032797828316688,-0.0116641512140631,-0.1357242292195558,-0.0575466193258762,0.0762189692676998,-0.1028252914413809
130,0.058452,-0.19865,0.559668,0.022801,-0.124099,-0.719211,0.683239,-0.1426107738628983,-0.1017903954356908,0.6806757405400276,2.992758212675154,-4.42384929267466,8.224557334411143,-0.963285267353058,0.2407010048627853,0.4118213057518005,-0.7436945316211399,0.0820137478051245,0.2719154752542902,-0.6051894134293556,0.1494403779506683,0.1374831348657608,0.5209791660308838,-0.0684323906898498,-0.0057289004325866,0.0211815536022186,-0.0193669963628053,0.0065653463825583,-0.095299864372611,-0.0708776116371154,0.0783675621363334,-0.1072384317085146
131,0.058909,-0.198467,0.558948,0.0205,-0.124536,-0.720424,0.681953,0.6640861325278877,-0.0945046223416924,0.7799176205366849,2.876189642563462,-4.73684469024986,8.090749167945981,-0.7255321741104126,0.0972062647342681,0.3453354239463806,-0.7382620917339165,0.0979738145622622,0.2790837221026854,-0.6062034570217406,0.0467307865619659,0.0720975697040557,0.4241166114807129,-0.0136044323444366,0.0277033448219299,-0.0158347785472869,-0.0420137718319892,0.0247948393225669,-0.0547784688919782,-0.0842086002230644,0.0804837871053256,-0.1116930730298161
132,0.060649,-0.198954,0.559889,0.023442,-0.130246,-0.720356,0.680863,0.9083066845625638,-0.3396276761740446,0.8477139764338731,2.805099798078835,-4.981185653793811,7.968035226947069,-0.6237042546272278,0.030089758336544,0.0964487791061401,-0.7347393136094048,0.1103752087557698,0.2855881429758808,-0.6053220255447289,0.0706648826599121,0.0177376065403223,0.3539091050624847,-0.0042883157730102,0.017479121685028,-0.0150406658649444,-0.0487367548048496,0.0337197557091712,-0.0657780018121004,-0.0755840390920639,0.0316982567515224,-0.0818371562093496
133,0.061162,-0.199214,0.559786,0.020539,-0.133367,-0.7211,0.679563,0.3781494222700595,-0.3835007201701402,0.9483575399219988,2.8158652299821374,-5.146057651564479,7.858713266962766,-0.3767060339450836,-0.1025276556611061,0.0847161039710044,-0.7322936568562065,0.1170961277765064,0.2925843958229797,-0.6036794132302077,0.0138109195977449,-0.0434298254549503,0.315033346414566,-0.0035634338855743,0.0270175337791442,-0.011136919260025,-0.0410831421613693,0.0445439331233501,-0.0887216550260782,-0.0631041750311851,-0.007274192254059,-0.0531672343030571
134,0.063396,-0.200276,0.560064,0.017591,-0.13545,-0.724626,0.675471,0.0081587565362453,-0.2326145776540041,0.3193973735719919,2.841838752411306,-5.257139606958628,7.775398439416289,-0.3107873797416687,-0.2049873173236847,0.1263223737478256,-0.729474426616011,0.1205597817463604,0.2983795492477527,-0.6035743465440729,0.2112744450569152,0.0584715083241462,0.32938352227211,-0.0113207697868347,-0.000616431236267,0.03068608045578,-0.0421301685273647,0.0459291525185108,-0.0270347219198942,-0.0451006963849067,0.012541063273698,-0.0506350854769349
135,0.063005,-0.200616,0.559455,0.013975,-0.13838,-0.722059,0.677707,-0.1240481122121214,-0.0245043266594409,-0.2304243741333484,2.873938064244389,-5.38878504243195,7.672799650207161,-0.4039130806922912,-0.263158917427063,0.2784139513969421,-0.7248727451828368,0.1240355167282352,0.3056325719251282,-0.6047837551488848,0.4402085840702057,0.0132017089053988,0.3016127347946167,-0.011980652809143,0.0008714795112609,-0.009255975484848,-0.0381854735314846,0.0313725844025611,-0.0262619839817285,-0.0340607315301895,0.0142266417404636,-0.0456879844635725
136,0.06292,-0.201006,0.558837,0.011304,-0.140271,-0.721297,0.67818,0.5912792549923062,-0.1219382804512977,0.2713625337213278,2.8059432631656525,-5.557556970250606,7.576980145874619,-0.3831557035446167,0.1518879234790802,0.3132008910179138,-0.7199000596485406,0.1322262120431766,0.3101576153912266,-0.6066815191983446,0.4534282386302948,-0.0889459103345871,0.2412437349557876,-0.0197710990905761,0.0227553248405456,-0.0051219463348388,-0.0342407822608947,0.0168160162866115,-0.0254722949087619,-0.0230207666754722,0.0158869031028822,-0.040744682842493
137,0.064277,-0.201776,0.558966,0.010857,-0.142382,-0.722905,0.676031,-0.1609042631834745,0.317433380022645,-0.4254676382839679,2.8184683982178567,-5.65156504124701,7.502428470498323,-0.1805324107408523,-0.7656391859054565,-0.0273198895156383,-0.7160554356814085,0.1347807878557272,0.3151455684389319,-0.6080971021391474,0.2837127149105072,-0.0151519542559981,0.2171100974082946,-0.0617208778858184,0.0022412538528442,0.0129100084304809,-0.0156233217567205,-0.012928619980812,-0.0549631778091192,-0.0197213217616081,0.0411557843940332,0.0007785831570625
138,0.065443,-0.201591,0.55857,0.009145,-0.143771,-0.723032,0.675627,0.8072580474048853,0.057070963743329,0.308669643330574,3.052494303974509,-5.716963688352704,7.359958274149895,-0.3403424322605133,-0.2668805718421936,-0.2165928184986114,-0.7136248655068871,0.1300833291734073,0.3283669940697566,-0.6049734684705314,0.4998636543750763,0.0670442730188369,0.1627214252948761,-0.0261404812335968,0.0459856986999511,0.0851108133792877,-0.0042863572016358,-0.0063343653455376,-0.0627940175652504,-0.0217691212892532,0.0168094613078981,-0.0594336012214422
139,0.065827,-0.201853,0.558499,0.007792,-0.1441,-0.723135,0.675463,-0.3182701231077313,-0.2456587681442499,0.7196154197871685,3.0288056776121257,-5.776955507978797,7.322807231885195,-0.0392141826450824,0.1987944096326828,0.2746846377849579,-0.7129200027544025,0.1335935961716655,0.3298385900331276,-0.6042386417713026,-0.1943095326423645,-0.0144339660182595,0.0713203474879264,-0.0108532607555389,-0.0426519513130188,-0.0002089440822601,0.0070506064221262,0.000259889755398,-0.0706242727994918,-0.0238169208168983,-0.007536898310855,-0.1196454933390021
140,0.065819,-0.201047,0.558366,0.009389,-0.143138,-0.725346,0.673274,0.6333496334806085,-0.0961193640619516,0.0038654432564973,2.954361554263532,-5.817409098920225,7.321194535991549,-0.1200520396232605,-0.0036169537343084,0.0087864492088556,-0.7112244715552698,0.1370079592072718,0.3285601772962231,-0.6061656597076641,-0.0380376316606998,-0.1255248486995697,0.0877711549401283,0.0187174081802368,0.0264577865600585,-0.0574521720409393,-0.0020522335544228,0.0055963862687349,-0.0372094944536685,-0.0320581048727035,0.0183997992392629,-0.1003399043664336
141,0.067148,-0.201539,0.557644,0.008932,-0.147629,-0.726739,0.670803,0.0067050505965948,-0.1754208643138408,0.3644926528394222,2.9950252808243034,-5.828189436131716,7.296054834038019,0.0062696654349565,-0.1179232001304626,-0.1027639880776405,-0.7116856812700652,0.1366539420438359,0.3306515438649403,-0.6045649166384536,0.0338477455079555,-0.2124096900224685,0.1992257833480835,0.0529126524925231,-0.0116242170333862,-0.0359794199466705,-0.0043136128224432,-0.003260395489633,-0.0652758975088596,-0.0299219898879528,0.0128614543344825,-0.0818032539397478
142,0.066037,-0.202028,0.555808,0.005409,-0.150501,-0.724716,0.672389,0.1397930860936641,-0.0515852258086204,-0.1400315710246563,3.034469110201299,-5.8157046330899,7.289715694144368,0.0057214731350541,-0.0449195653200149,-0.0028405799530446,-0.7116449930991321,0.1348152117523528,0.3318927531272851,-0.6043453757484919,0.2957161068916321,-0.1668785810470581,0.5509743690490723,0.0380331724882125,-0.0168741941452026,-0.0033106505870819,0.0023767589591443,0.0123678566887974,-0.0743634593278169,-0.0309081692248582,0.0016562427744269,-0.0556719106003642
143,0.065964,-0.202801,0.554721,0.002124,-0.152129,-0.724643,0.67212,0.1815484072834253,0.0349760363131761,-0.1138192714035511,3.0296742771402,-5.8238563753634685,7.285200847068428,-0.0338695123791694,0.0185232050716877,0.0230854041874408,-0.7114606466148851,0.1352921873764121,0.3320453869652085,-0.6043720862174212,0.7707047462463379,-0.3029813468456268,0.7636293172836304,0.0437489598989486,0.0267597436904907,-0.0509423017501831,0.0090671312063932,0.0279961079359054,-0.0834247176617384,-0.0318943485617637,-0.0095483111985027,-0.0295525499597191
144,0.06664,-0.203309,0.554484,0.001721,-0.153029,-0.725406,0.671093,0.1631514575883746,-0.0353495458006858,-0.064428340768814,3.022184213645756,-5.835981112921238,7.278606271108985,-0.0400685258209705,-0.0109638748690485,0.0210808627307415,-0.7110983199439911,0.1359642828047065,0.3322770905743358,-0.6045203275204079,1.2009769678115845,-0.332861065864563,0.8815491795539856,-5.650520324707031e-05,0.038110613822937,0.0043438076972961,-0.0038071162998676,0.0390846021473407,-0.0516740731358528,-0.023260086774826,-0.0033737872820347,-0.04176671936661
145,0.065515,-0.202997,0.554248,0.00056,-0.150753,-0.726197,0.670754,0.1266699851483106,0.0268891759693622,0.049763855600357,3.02380041667074,-5.849138700658083,7.267365330648421,-0.0336434803903102,-0.0284858867526054,0.0020156190730631,-0.7107582049681677,0.1364411194442029,0.3329434009842116,-0.6044463774175092,0.5396355390548706,-0.0789379701018333,0.9072946310043336,-0.0417380183935165,-0.0241839289665222,0.041780948638916,-0.0210359711199998,0.0428468249738216,-0.0371381827831268,-0.0130662079900503,-0.0170063721194863,-0.0006774608701467
146,0.065956,-0.202886,0.554619,0.003607,-0.151086,-0.725673,0.671236,0.0432432216599583,0.2186947733730077,0.0202794024407863,3.0422841678664088,-5.852550554928183,7.256896543604135,-0.0041892491281032,-0.0481149069964885,-0.0026779894251376,-0.7104350570875114,0.1359123750540107,0.3339597042705557,-0.6043846868991315,-0.7451814413070679,0.2045270800590515,0.2964413464069366,-0.0628587007522583,-0.1474411487579345,0.1822525858879089,-0.0382648259401321,0.0466090478003025,-0.0225789115548133,-0.002872328273952,-0.0306534604063257,0.0404193964108824
147,0.067094,-0.203083,0.554478,0.004723,-0.155371,-0.727284,0.668503,-0.0089107439473271,0.0889659851759672,-0.2662824539780616,3.046254532802105,-5.8667731415480375,7.243734864214062,-0.0902050957083702,-0.0196574889123439,0.0309922881424427,-0.7099636532179859,0.1363071737495516,0.3348024343863231,-0.60438342605557,-1.3997379541397097,0.3146517276763916,-0.0595473907887935,-0.0918875336647033,0.0996520519256591,0.0290825963020324,-0.0553060173988342,0.050332173705101,-0.017297756281495,-0.0119607597589492,-0.0330089740239083,0.0319850378036499
148,0.06828,-0.203409,0.552702,0.003716,-0.160965,-0.727039,0.667451,0.0262029472708702,0.056045127826929,-0.0475210451096296,3.0422651709049937,-5.899542607727646,7.218752983170748,-0.0900262296199798,-0.0019738420378416,0.0366374514997005,-0.7092135940673985,0.137786353291637,0.3360966134350024,-0.6042102514765264,-2.174968242645264,0.0836050361394882,-0.3358444273471832,-0.0021562278270721,-0.0809168815612793,-0.0947742462158203,-0.0354718267917633,0.0512828528881073,-0.0577595305293798,-0.02021000161767,-0.0031004867659881,0.094150986598432
149,0.068593,-0.203387,0.552778,0.004327,-0.160773,-0.726955,0.667585,-0.1415863992512226,0.1111941835969686,0.0097638536453247,3.0201652750387784,-5.933443708285689,7.200224808311462,-0.111249566078186,0.0738762021064758,0.1044984012842178,-0.7084204800261651,0.1398322151136581,0.3366565910362725,-0.6043589728774392,0.437789112329483,-0.1313580274581909,0.0713887214660644,0.0617251843214035,0.1583465337753296,-0.133340984582901,-0.0162675157189369,0.0407950468361377,-0.0035679216146469,-0.0067645972594618,0.0332145795986056,0.0689767978534102
150,0.06662,-0.203387,0.551459,0.000224,-0.15833,-0.723645,0.671766,0.2652551567569375,-0.0007546177595853,0.0090536595493555,2.952102961681783,-5.980260404518246,7.189712182125449,-0.0816424936056137,0.1333009600639343,0.1672711074352264,-0.7070232528123215,0.1435916158290403,0.3358692299383348,-0.6055505872515509,0.4372807145118713,-0.0823754668235778,0.2301880270242691,0.0622707307338714,-0.1152083277702331,0.0571746528148651,-0.0177824441343545,0.0164583846926689,0.0212549694746732,-0.0059461989440023,0.056044433707185,0.0680056147336959
151,0.065612,-0.203159,0.5491,-0.001237,-0.157988,-0.722723,0.672837,0.3333110403731465,0.0928127237319946,-0.1931342156589031,2.881652876405418,-6.016815818977356,7.187794365805387,-0.0758022889494896,0.1079702377319336,0.1033799946308136,-0.7061021035730678,0.1471443931544864,0.334474205229661,-0.6065438456389041,0.747615396976471,0.041098266839981,0.3955893814563751,0.0242084264755249,0.0248565673828125,-0.0369060933589935,-0.0247828662395477,0.000617329031229,-0.0263099147766828,-0.0080112516880035,0.0439601012250408,0.0728048317089676
152,0.065724,-0.202682,0.548327,0.000389,-0.1572,-0.723134,0.672581,0.2205298798456788,0.1035042136162519,-0.2578033794462681,2.8539243270024657,-6.051150050255655,7.170013209921121,-0.1023311018943786,-0.0111213270574808,0.0321640707552433,-0.705261281554873,0.1493787530099097,0.3348388663592072,-0.6067746611817776,-0.3277232348918915,-0.3097047507762909,0.4014542698860168,0.0712696388363838,-0.2120262384414672,0.0153592228889465,-0.0144794788211584,0.0135899418964982,-0.0587707533985376,-0.0082807885482907,0.0511205309063196,0.0669575669854879
153,0.066106,-0.202481,0.547762,0.001954,-0.155558,-0.723193,0.672896,-0.0204103353440761,0.1190074876964092,-0.1751689353793859,2.8328490980088707,-6.085956575220823,7.148879820999503,-0.1398226469755172,0.1005629673600196,0.0752869769930839,-0.7048148717801664,0.1516684042316938,0.3354180555629759,-0.6064052754776426,0.3462485373020172,-0.2539895474910736,0.5223330855369568,-0.0229389518499374,-0.0594229102134704,0.0754234492778778,0.0073159243911504,0.0193100683391094,-0.0757283179402351,-0.0413170829415321,0.0095326387053355,0.0117728553801774
154,0.0641,-0.19981,0.547942,0.008534,-0.146903,-0.719936,0.678262,-0.0095870357736945,0.116380061802268,0.4040262063264846,2.735385625861585,-6.14842150696218,7.133370117178559,-0.1396243870258331,0.2488312870264053,0.1761491447687149,-0.7038623323826775,0.1574760481235972,0.333917130624544,-0.6068595205857676,0.0874715596437454,-0.2413461953401565,0.342028796672821,-0.0298480242490768,0.1038423180580139,0.0038139820098876,0.0291113313287496,0.0250301957130432,-0.0926537337779998,-0.0743533819913864,-0.0320502850595861,-0.0434314377084374
155,0.064108,-0.199635,0.545774,0.007074,-0.14618,-0.720064,0.678299,0.2526689391672611,0.07118716737926,0.3945487684071064,2.6847175148978826,-6.183434952676296,7.122346618860959,-0.0377236381173133,-0.0022220199462026,0.0596878901124,-0.7028111261014234,0.1603469644164555,0.3333920237518405,-0.6076144266792632,0.335539698600769,0.1722341328859329,0.2437026351690292,-0.0940151736140251,0.0798904299736023,0.1592508852481842,0.0100967418402433,0.0491745024919509,-0.0733007985323667,-0.0721256360411644,-0.0446639021128416,-0.05186579631567
156,0.064552,-0.199774,0.543499,0.008367,-0.14605,-0.720226,0.67814,0.396046898010373,0.02872106757164,0.1101151561886072,2.668530934728682,-6.191845053625107,7.121122045502066,0.0087570641189813,0.0350965000689029,0.0529894568026065,-0.7021816083495774,0.1609519548944809,0.3331940622175307,-0.6082903586478625,0.3153284192085266,0.4294593334197998,-0.0819955766201019,-0.053411740809679,0.0570511221885681,0.0779309570789337,0.0111124021932482,0.0615727379918098,-0.0548036033332347,-0.0676327794790268,-0.03338591757752,-0.0206549577549099
157,0.064624,-0.198138,0.540631,0.013015,-0.135649,-0.72129,0.679095,0.278394916576147,0.061239189338684,-0.1170984392046928,2.640436182361841,-6.1950342050552365,7.12881727617979,-0.0184966549277305,0.0689988657832145,0.0280689969658851,-0.7021245881276544,0.161938748807113,0.3321254432034771,-0.6086786724629366,-0.2855355739593506,0.2436013668775558,-0.015178327448666,-0.0086568370461463,0.0247117280960083,-0.0384271740913391,0.0237154886126518,0.0547401569783687,-0.032732641300559,-0.0766921043395996,0.0101341847950592,-0.0509261773779988
158,0.064364,-0.19843,0.537632,0.009693,-0.128726,-0.721392,0.680389,0.0399433033317327,0.090105802860856,0.0551087237596511,2.612233877967298,-6.211929810276628,7.124503504633903,-0.0454783849418163,0.0684448182582855,0.03787162899971,-0.7020933275593204,0.1637054140772795,0.3315900463804526,-0.6085339464559625,0.2000862509012222,0.3232433497905731,-0.4209701716899872,-0.0342276319861412,-0.1189252734184265,0.0467090904712677,0.0355050899088382,0.0473867654800415,-0.1038759695380926,-0.0874795168638229,-0.0183772220812737,0.0295326762154698
159,0.063518,-0.198563,0.534354,0.006961,-0.124103,-0.720118,0.682627,0.1421934252336621,0.1011900914549827,-0.2636310626864433,2.593032333891093,-6.220470259606838,7.124066282260418,-0.0115753589197993,-0.0311902593821287,0.0279849097132682,-0.701770960496492,0.1645813515280666,0.3311897883078827,-0.608887414693903,-0.5029573440551758,-0.4459441006183624,-0.0058352923952043,0.2105759382247924,-0.1998203992843628,-0.1795538663864135,0.0559029020369052,0.04379578307271,0.000206920748949,-0.0788309052586555,0.0569869387216866,0.1069637064203619
160,0.062016,-0.198426,0.528664,0.007473,-0.114041,-0.716429,0.688235,0.3201820942088961,-0.0503618214935064,-0.2396060439765453,2.6022403072193265,-6.236213187661766,7.106924593323469,-0.0803224742412567,-0.0075704753398895,0.0001510801375843,-0.7012562021186871,0.1648992531560008,0.3323490881624383,-0.6087628208443345,-0.316545695066452,-0.2577243745326996,0.1512623876333236,0.0056724026799201,0.1088939905166626,0.0384421646595001,0.0715050622820854,0.0428424142301082,-0.0163256963789463,-0.0725355818867683,0.030355500373058,0.0475531938135623
161,0.061861,-0.198045,0.526272,0.010183,-0.10813,-0.715238,0.690391,0.0745540134638547,-0.0226420399188995,0.0983954923003911,2.583458742120862,-6.264531519651412,7.088848253884911,-0.1018560156226158,0.1077007502317428,0.0605491548776626,-0.700848880946899,0.1668208252398023,0.3327764158586546,-0.6084746724927913,0.0678682923316955,0.0615338757634162,0.3374875783920288,-0.0749544724822044,-0.0655022263526916,0.1446542739868164,0.0871072262525558,0.0418890453875064,-0.0327653745263814,-0.0662402659654617,0.0037668782528489,-0.0119797761291265
162,0.061915,-0.197417,0.523503,0.013631,-0.103901,-0.714005,0.692254,0.0577265050426125,0.2803577410817146,0.2167652666151523,2.544022219267488,-6.292796660149097,7.078067332151532,-0.0525020137429237,0.0261319447308778,0.0489533767104148,-0.7002843257896182,0.1692814415392548,0.3323594121138166,-0.6086730132632906,-0.1565981060266494,0.0491239167749881,0.1586772948503494,-0.052688080817461,0.0114139318466186,0.0144203305244445,0.0784850344061851,0.0407001301646232,-0.0204506673544645,-0.0378395989537239,-0.0572536998990923,0.0242652572065591
163,0.063405,-0.197266,0.510425,0.010966,-0.10401,-0.714047,0.692242,0.1989548846364021,0.1607020186096429,0.1173170503914356,2.5254969670176504,-6.310059929639101,7.069328145378828,-0.0161063000559806,0.0334909334778785,0.086532637476921,-0.6993886420522033,0.1703193495285689,0.3324994432884923,-0.6093366235667338,0.162090927362442,0.3430816233158111,-0.1179427206516265,-0.0774607509374618,0.123958945274353,0.0258331298828125,0.0583572722971439,0.0325593948364257,0.020181202763319,-0.0206772610545158,-0.0518716415345668,-0.0138435241743922
164,0.064224,-0.1983,0.503994,0.006523,-0.105561,-0.714161,0.691946,0.5029983294710516,0.021022329762578,-0.0228600665837526,2.489454470516741,-6.328247328236698,7.065853162744641,-0.0526607856154441,0.0774256065487861,0.0445922203361988,-0.6987856418312414,0.1721033105756109,0.3318466448437088,-0.6098826160482455,-0.3012514114379883,0.3010673820972442,-0.2661597728729248,-0.0254463702440261,0.0913719534873962,0.0031681060791015,0.0415407381951808,0.0139666944742202,-0.0220236157596111,-0.0215354356914758,-0.0593336479783058,-0.0581760023757815
165,0.064801,-0.199445,0.496339,0.001512,-0.107768,-0.713955,0.691847,0.2518193366006017,-0.0004600187271833,0.1539993061006069,2.471884327034652,-6.338787426951527,7.062573410421609,-0.0068204523995518,0.008490583859384,-0.0027522917371243,-0.6987669160598116,0.1732184971745108,0.3315182062221513,-0.6097670284929826,0.3438514173030853,0.2345112562179565,-0.1097142174839973,0.0470243021845817,-0.143331229686737,-0.1282398700714111,0.0323837995529174,6.8554654717e-06,-0.0132294839292764,-0.0288890060037374,-0.0015889496918767,-0.0642114831477403
166,0.06384,-0.204956,0.479348,-0.014838,-0.115631,-0.712959,0.691447,0.263735984365642,0.0930254896998405,-0.1559375806868076,2.510395259475708,-6.329771176803112,7.057073643961548,0.021848389878869,-0.2179517745971679,-0.0834061875939369,-0.6984118441970325,0.1713493069123296,0.3329095777616421,-0.6099438062686866,-0.0959462001919746,-0.4205086529254913,-0.0377830378711223,0.2004749029874801,-0.1972630620002746,-0.1001081466674804,0.022514471784234,-0.0167759582400321,-0.0431868152976036,-0.0140152964740991,0.0103540015581995,-0.0248845581486821
167,0.063594,-0.207215,0.469478,-0.026659,-0.117918,-0.716213,0.68733,0.0365983768180012,-0.0019353519767522,-0.1046264956444501,2.6030089535042644,-6.322647608533501,7.0298547976464025,-0.0773590877652168,-0.1703560352325439,-0.1103079840540885,-0.6984063365107698,0.1681486152390879,0.3366053970074886,-0.6088115180916277,0.0762876123189926,-0.2266036421060562,0.3340409100055694,0.0565568134188652,0.2094465494155883,-0.0137363374233245,0.0184773635119199,-0.0073922108858823,-0.0143459207385778,-0.0014073466882109,0.0038551410581916,-0.0091574121847748
168,0.062786,-0.208749,0.461111,-0.030665,-0.116467,-0.717474,0.686095,0.0725382897272706,0.0662011956602335,0.3504787405341863,2.6294676291018724,-6.342450625634193,7.002113973283767,-0.0279341973364353,0.0007412409759126,0.0475301072001457,-0.6978976254353814,0.1681891869142282,0.3386796956230158,-0.6082329907920997,-0.2015424072742462,-0.1401973217725753,0.0289112366735935,-0.0307289659976959,-0.1331244111061096,0.1378498375415802,0.0144402552396059,0.0019915364682674,0.014498480951786,0.0112006049603223,-0.0026434271808713,0.0065709028229117
169,0.060397,-0.210574,0.440315,-0.040444,-0.107273,-0.718246,0.68628,0.4023547659829258,0.0627016631066799,-0.092619831508398,2.6321464929223057,-6.346433557790517,6.997498003920913,-0.0277671720832586,-0.0379093438386917,0.006185810547322,-0.6971636218057743,0.1679251244344232,0.3391578665742368,-0.6088809462990464,-0.1671285182237625,-0.2348459064960479,0.1913850307464599,0.0264480859041214,-0.1180901527404785,-0.0061010718345642,0.0104031460359692,0.0113752838224172,0.0428840329587459,0.023808553814888,-0.0153194419458508,0.0224146609038114
170,0.059792,-0.212259,0.426789,-0.047508,-0.108408,-0.71929,0.684553,0.0913975962370634,0.0325473478615283,0.2447533437371253,2.629911865738034,-6.359973422843217,6.9860349451422685,-0.0320803001523017,-0.0425406694412231,0.003146527102217,-0.697013263639691,0.1686741536977913,0.3396474067607326,-0.6085731231804355,0.2685566544532776,0.078542523086071,-0.0334972143173217,-0.0091409683227539,0.1701768636703491,-0.0446207821369171,0.0011319639161229,-0.0090921279042959,0.0257534499377012,0.0256050769239664,-0.0497728426244109,0.0025824177086353
171,0.058875,-0.215334,0.412112,-0.056295,-0.111857,-0.720007,0.682575,0.3670847151592373,0.0983849709063768,0.1650046842396259,2.66113147212714,-6.35323622354269,6.980340532892942,0.067129835486412,-0.1557969748973846,-0.0534972362220287,-0.6967138241378791,0.1671900107481738,0.3408066770463356,-0.6086773993222778,-0.1021590903401374,0.1799420714378357,-0.1626671850681305,-0.0447390154004097,0.1621906161308288,0.0402009487152099,-0.0124165238812565,-0.0194684080779552,0.0212099612891674,0.0282339602708816,-0.0382416139803826,0.0066126961380243
172,0.055141,-0.220235,0.377108,-0.074846,-0.118089,-0.718962,0.680843,0.3926590091377496,0.025973814690113,-0.2439572249233722,2.7196532192006706,-6.331702437126636,6.9773501189053055,0.0064145606011152,-0.0999312400817871,-0.0507107004523277,-0.6966106496621196,0.164165825360157,0.3424963202949906,-0.6086702702236179,0.4769311845302582,0.361043632030487,-0.4475116431713104,-0.0171641260385513,0.0300179123878479,0.0457225143909454,0.0004372736439108,-0.0474555566906929,0.0125134446144104,0.0372284837067127,0.0208672122661024,0.0606494067519903
173,0.053611,-0.22452,0.358877,-0.080839,-0.119983,-0.718646,0.68016,0.3149561762541532,0.0132698159396648,-0.4121966533005237,2.750669411972165,-6.332914735525846,6.964078549399972,-0.0406431257724761,-0.1263627707958221,-0.0355301462113857,-0.6964056006686654,0.163195677483263,0.3439447147970608,-0.608348974669222,0.0080989710986614,-0.0784033089876174,-0.2185426950454712,0.0574268847703933,0.024718165397644,-0.0146518051624298,0.0159618686884641,-0.0489764362573623,-0.0301969853430986,0.0389477126300334,0.0502613567937165,0.0553916323542594
174,0.052103,-0.227427,0.337711,-0.08518,-0.122234,-0.71811,0.679795,0.1697860732972621,0.0445405679941177,0.1938473323643207,2.761614584356546,-6.346228975129127,6.947607307070493,-0.0600902363657951,0.1309037953615188,-0.008479818701744,-0.6967730245553734,0.1638345721154569,0.3448606179952704,-0.6072370022256923,0.4677238166332245,-0.1947040259838104,-0.126628428697586,0.0461283400654792,0.0838949084281921,-0.0695905089378357,0.0256588645279407,-0.0436849854886531,-0.0479746340960264,0.0303502455353736,0.0716735626567155,0.0029939211189746
175,0.050723,-0.231593,0.315162,-0.089106,-0.125106,-0.717553,0.679357,0.1820890900313854,0.2089841112196445,0.2889969746112823,2.7208804229080674,-6.3578925249159335,6.953014134550094,0.0133685013279318,0.0137001825496554,0.030583081766963,-0.6968013593300125,0.1657216497316606,0.3435568156252075,-0.6074315335089566,0.3038608729839325,-0.0383852124214172,-0.0611353628337383,0.0194983035326004,-0.0466566681861877,0.1220133900642395,0.0190549492835998,-0.0376587733626365,-0.0375023399204015,0.0244193635880947,0.027688655783981,0.0101657124444842
176,0.046839,-0.239735,0.265438,-0.09493,-0.129327,-0.716002,0.679415,0.3067810531049966,0.2794096465766429,0.1628887149989605,2.771862422126532,-6.34062983994782,6.948637819162011,0.0522362291812896,-0.1766021400690078,-0.1430791020393371,-0.6971897116304147,0.163449974580941,0.3449669162663784,-0.6068017309312993,2.094294786453247,0.2174016088247299,0.1884012967348098,-0.0757519900798797,0.1079413890838623,0.1206089258193969,0.0134405419230461,-0.0371583551168441,0.0295797302275896,0.0533502288162708,0.0798491972625255,0.0949096960112452
177,0.043936,-0.242923,0.237326,-0.096074,-0.12977,-0.715132,0.680085,0.3065451985225081,0.0797241095781326,-0.0539478632867336,2.8282132549017667,-6.309586466908455,6.954187269982695,0.0744160115718841,-0.0336079932749271,-0.0362625755369663,-0.6977206678663349,0.1603279375124385,0.3460203507043648,-0.6064246159917943,2.766932487487793,0.2850232124328613,0.260805070400238,-0.0191982239484787,-0.0414905548095703,0.0726786255836486,0.0264174863696098,-0.0378632470965385,-0.0204202722162008,0.0854934900999069,0.0402973774664104,0.133993167643249
178,0.040452,-0.245301,0.206866,-0.095327,-0.12987,-0.714015,0.681343,0.7380164611354469,0.0705845253109931,-0.1108329490691423,2.8338331406101585,-6.2943117408871645,6.965731577304005,0.0100110042840242,0.018733749166131,-0.0849591419100761,-0.6984076346397633,0.1596884070385752,0.3454651066112446,-0.60611904081787,5.209358215332031,0.2514263093471527,0.6493212580680847,-0.0274917334318161,0.1728567481040954,0.0113141536712646,0.0277095325291156,-0.0505281388759613,0.0146317519426345,0.0913403779268264,0.0686421225389465,0.0797670719370245
179,0.03147,-0.241183,0.138037,-0.085598,-0.129891,-0.712136,0.68459,1.1169368677780032,0.1612199050039053,0.3198211519420146,2.8996359846025705,-6.257605519780516,6.971719419541954,0.1321034878492355,-0.1626407206058502,-0.3624692261219024,-0.7006705441014852,0.1569789430839384,0.3462641084142386,-0.6037546715616994,4.604604721069336,-0.2271690219640731,0.8038213849067688,0.0636100620031356,-0.0536326766014099,0.0040313005447387,0.0238180812448263,-0.0563066154718399,0.003817512461543,0.1023275926709175,0.0552254089418798,0.1112254555180668
180,0.026906,-0.236118,0.101688,-0.074156,-0.126802,-0.712667,0.685951,0.9395549325242638,0.2686591199815273,0.1220721359640359,3.104401016822457,-6.131459850767254,6.9955895399510855,0.2762294411659241,-0.3288425505161285,-0.6371645927429199,-0.7056838000353797,0.1468634022255403,0.3489345892967798,-0.5989040561386724,4.068579196929932,-0.5244529843330383,0.9346104264259338,0.0339550636708736,0.043753445148468,0.094455599784851,0.0357655063271522,-0.0689875781536102,0.0786199477285146,0.1286434084177017,0.0948433527767658,0.1938923405498266
181,0.021017,-0.228076,0.063924,-0.062073,-0.120763,-0.714153,0.686695,0.6686918727576733,0.3210229289472103,-0.1352168642193079,3.3799034268274903,-5.963408053916693,7.013159683433175,0.2577784955501556,-0.4046850800514221,-0.7802208065986633,-0.7122772953228982,0.1336136989512548,0.3529528956042465,-0.5918047369056639,2.1178572177886963,-0.2395191192626953,0.5285794138908386,-0.0468516498804092,-0.0975134074687957,0.0231850743293762,0.0562092028558254,-0.10600546002388,0.1609147845774889,0.1629298031330108,0.1233554903054609,0.2406254501521587
182,0.009718,-0.215519,-0.009739,-0.048158,-0.112333,-0.714364,0.689018,0.7532736515000462,0.499414918026328,0.2054699656188487,3.716551502668857,-5.753191186031699,7.018434993487596,0.4079726040363312,-0.5411003232002258,-1.016293168067932,-0.7200678446693997,0.1175434825182241,0.3582498241902104,-0.5825315769871257,1.0479505062103271,-0.2747788727283478,0.3277266919612884,-0.0330817997455596,-0.0312829613685607,0.0206222534179687,0.0748462677001953,-0.1543766856193542,0.1871259151548147,0.2037205100059509,0.1466556653395295,0.3054553574591875
183,0.006535,-0.212536,-0.043751,-0.04615,-0.114365,-0.714975,0.688187,0.4041562624469399,0.5185241076439618,-0.0553507158219814,4.176101443296671,-5.41661179151237,7.02786450061202,0.6526516675949097,-0.9166602492332458,-1.2719776630401611,-0.7294496473622928,0.0930184391374393,0.3647275739202183,-0.5711607400047859,0.3290533125400543,-0.2206296920776367,0.2406191676855087,-0.0459385700523853,-0.0433245599269866,0.0420722961425781,0.086121417582035,-0.2029146552085876,0.2128086379438638,0.2335050553083419,0.166681787138991,0.3287988236457109
184,0.005058,-0.21113,-0.076906,-0.043872,-0.119081,-0.715694,0.686788,0.3853989550068974,0.6607657559335232,0.0129407301157712,4.699885078904033,-4.958656426599622,7.03513946005106,0.9434544444084167,-0.8271734118461609,-1.4492526054382324,-0.7394381860388665,0.0618538127860342,0.3707853957085384,-0.5585011195464492,-0.2934371531009674,-0.1547795683145523,0.2551284432411194,-0.0365804135799407,-0.0652119815349578,0.0805169343948364,0.0973965674638748,-0.251452624797821,0.2398141337692737,0.263289600610733,0.1860244384526275,0.3519149108171462
185,0.00548,-0.208671,-0.141245,-0.033009,-0.129145,-0.717851,0.683317,0.3457300847023725,0.982621336312592,-0.8853799824833869,5.235902757662535,-4.338543875832856,7.066310843384265,1.135575771331787,-0.980620801448822,-1.7271013259887695,-0.7515004304640793,0.0245390682094294,0.3729828986485319,-0.5436255987023878,-0.6236733794212341,-0.1156104356050491,0.4704023599624634,0.0089308805763721,-0.0800962448120117,0.1088048219680786,0.0870284289121627,-0.3273739814758301,0.2910112370431423,0.3528790175914764,0.2415891440851613,0.5235659012034535
186,0.006066,-0.208029,-0.17324,-0.026194,-0.133138,-0.720216,0.68035,0.2262245843559503,1.5041694679528474,-1.4798241312474012,5.858189437597989,-3.5973002693444487,6.993670554587244,1.157615303993225,-1.296831727027893,-2.053960084915161,-0.7632777998503781,-0.0190857238103502,0.378229789429189,-0.5234357248564062,-1.0047051906585691,-0.0072239371947944,0.6366047263145447,0.0142959244549274,-0.0436857044696807,0.1460112929344177,0.0893895104527473,-0.4207282364368438,0.2716401816189289,0.4947447180747986,0.2221582482324913,0.6089297702342271
187,0.005577,-0.208593,-0.206408,-0.024228,-0.136787,-0.721598,0.678232,-0.1290413904547691,0.77337126763314,-1.529444778984785,6.456617103040218,-2.795424207238853,6.8314043554008,0.8467298746109009,-0.9370450973510742,-2.068321228027344,-0.7743755494534599,-0.0634001276148068,0.3842859967349881,-0.4986454729893301,-1.5823091268539429,0.1252955943346023,0.7869613170623779,0.009472731500864,-0.0738753378391265,0.2126400470733642,0.0935928300023078,-0.481036901473999,0.3727455173999071,0.634594202041626,0.2028080164005979,0.7975897630885243
188,0.000912,-0.211777,-0.277171,-0.032149,-0.139746,-0.715589,0.683644,-0.7108686342298984,0.7704417900525034,-1.0888497141957283,6.767151371198892,-2.1219684810802337,6.772983730614185,0.1629204750061035,-0.0921133011579513,-1.8617128133773804,-0.7896358623702722,-0.0911637172763245,0.3825743390003944,-0.4709579451328307,-2.581348180770874,0.4600922465324402,1.0398201942443848,0.0026462953537702,-0.1617369353771209,0.2437497973442077,0.107567548751831,-0.502078652381897,0.2285597493052482,0.7528424263000488,0.1627243182174861,0.8343523905575275
189,0.000374,-0.214578,-0.313785,-0.032499,-0.139197,-0.713848,0.685558,-2.2507348539859056,1.2284165903180837,-0.3003238397896289,6.974045816662907,-1.7671118177227676,6.664111852484941,-0.2638165056705475,-0.6303477883338928,-0.9128406643867492,-0.800301941139841,-0.1031609486958225,0.3867591846575088,-0.4464212906646282,-2.327112436294556,1.0996737480163574,2.186528444290161,0.0582654252648353,-0.3000026345252991,0.2387816309928894,0.1374213844537735,-0.4845848083496094,0.2279594453245401,0.8239390254020691,0.1827422201778739,0.8373920505143702
190,0.00259,-0.218709,-0.351045,-0.028821,-0.141729,-0.714875,0.684132,-1.5040893884539603,0.6095411801308394,0.5551110862851143,7.146923426234721,-1.6736140343360602,6.5031444609373805,-0.1735000759363174,-0.3546021282672882,-0.3711672723293304,-0.8016819187909501,-0.1081756703236661,0.3958912980722625,-0.4345966863178411,-2.9391579627990723,1.0638294219970703,3.167625665664673,0.105654627084732,-0.5692256093025208,0.3251383304595947,0.1708471179008484,-0.4954077899456024,0.3524415650397539,0.835638165473938,0.224520739580132,0.7768404050484299
191,0.008703,-0.226616,-0.435676,-0.036693,-0.150351,-0.717414,0.679239,-1.2348714655458926,0.7382235280148685,0.1158294421821832,7.251798928204178,-1.6139026390865443,6.401337114366888,0.0216277688741683,-0.3190793097019195,-0.070614568889141,-0.800885685346073,-0.1126743046841105,0.4011572555672653,-0.4300691872717813,-4.006353378295898,1.1086395978927612,4.043276309967041,0.0943083465099334,-0.5301581621170044,0.2674572467803955,0.145651564002037,-0.4556698203086853,0.0904518398195505,0.8519087433815002,0.123782848872058,0.8052217192716896
192,0.009849,-0.224908,-0.482142,-0.042695,-0.148236,-0.716846,0.679952,0.3472206155210733,0.7531191915906965,-0.4644938267707824,7.291330143603682,-1.5584686288952827,6.370092081275582,-0.4529340863227844,0.2809220552444458,-0.7154181003570557,-0.8039375437376141,-0.1129617318657856,0.4030574933856863,-0.4224557788498537,-4.913827896118164,0.9912323951721193,5.003040790557861,0.103063017129898,-0.3683797717094421,0.1065703630447387,0.0681645944714546,-0.4208140671253204,-0.108408936792612,0.8834968209266663,0.1514562705542892,0.932911256726086
193,0.01099,-0.218626,-0.528252,-0.04077,-0.140367,-0.715454,0.683198,-0.4219248511105775,0.3035169367425143,-0.4257891253232955,7.174620995977521,-1.4470476508051155,6.526963143420219,-0.790226399898529,0.9592572450637816,-1.0748292207717896,-0.8184062549698932,-0.1048328208860088,0.3952563424223237,-0.4037246715904824,-5.242057800292969,0.4499395787715912,5.4503984451293945,0.2697319984436035,-0.2166723012924194,0.2859134674072265,0.0527386181056499,-0.3590022623538971,-0.4006669590264559,0.9048899412155152,0.0431643842700868,1.1608457868050783
194,0.019868,-0.200471,-0.61237,-0.018421,-0.121347,-0.722091,0.680823,-1.9874059891164304,0.8755467168636619,1.3165776888519525,6.948790379375219,-1.417534117681533,6.773130445608496,0.0238647852092981,0.2356305420398712,0.4419296383857727,-0.8316614850703798,-0.0931915133647081,0.382075643079925,-0.3920111614049876,-4.855457305908203,-0.3830652236938476,5.220117568969727,0.4923495650291443,0.0679089426994323,0.165298655629158,0.1008539497852325,-0.3397637009620666,-0.5047668004482985,0.8509935736656189,0.0562939149562269,1.2434797194153069
195,0.024289,-0.19427,-0.649945,-0.006612,-0.110557,-0.726226,0.678475,0.9586755203187464,1.113622482533008,1.5754033970832824,7.001596671411395,-1.6352591692395508,6.668879797539114,0.5863577127456665,-0.6712132096290588,1.3264691829681396,-0.8181288348917272,-0.094368846885595,0.388685308411926,-0.4131385581946262,-6.181956768035889,-0.7993533611297607,5.0741071701049805,0.7043907046318054,0.2538528144359588,0.0600590109825134,0.1074650883674621,-0.2697818279266357,-0.4210948300272226,0.7087812423706055,-0.0623017040036618,1.1411509793192147
196,0.025821,-0.19197,-0.687245,-0.005543,-0.102703,-0.72798,0.67784,1.896066845068336,1.251421033808589,0.1161287173897027,7.138751810216903,-1.703775363843888,6.504287201231718,0.5378053784370422,-0.9956252574920654,0.2524067163467407,-0.8051080441391179,-0.1033472943096997,0.3971057393217495,-0.4282841827267033,-4.809362411499023,-1.555190920829773,4.823132991790772,0.7811812162399292,0.7011542916297913,-0.040967471897602,0.0628169775009155,-0.2435919493436813,-0.3883738791644573,0.7026376128196716,-0.107296080179885,1.3186585867792366
197,0.021449,-0.192869,-0.770678,-0.033906,-0.10284,-0.71989,0.685589,1.153927458783984,1.592307624002546,-0.60569794870615,7.489739084795117,-1.600388054605573,6.124781103655695,0.3097269237041473,-1.6709424257278442,-0.0607600770890712,-0.7918385677051175,-0.1228105290848824,0.4155004582151734,-0.4304283983233516,-2.7368099689483643,-1.007078766822815,3.59292984008789,0.4780767560005188,0.5893867015838623,0.0985102653503418,-0.0092696994543075,-0.2227391898632049,-0.2256049911528825,0.7092904448509216,-0.1195332651361823,1.166738425040245
198,0.018612,-0.192871,-0.812642,-0.049492,-0.099371,-0.714469,0.690804,0.0575923572689294,1.1693163127042352,-0.8556587979584932,7.862427903571724,-1.522461057577282,5.659924288791418,-0.0828064158558845,-1.3528836965560913,-0.2491190731525421,-0.7803031822268267,-0.1386868406018247,0.4383949638591219,-0.4239138410880302,-0.6640317440032959,-0.4703273177146911,2.102252960205078,0.2022412419319152,0.5578314065933228,0.1008899211883544,-0.0646688044071197,-0.1748697757720947,0.0267401228874921,0.6177968978881836,-0.1476553439013659,0.973900927305594
199,0.017604,-0.193179,-0.853114,-0.056695,-0.093122,-0.709953,0.695759,-1.3290695061564444,0.9244175691470504,-1.9534224709719417,8.181872623416782,-1.5051609632082283,5.1924780419558285,-0.2347492277622223,-1.6754032373428345,-0.0573502890765666,-0.7691603872713318,-0.1497903513560093,0.4613243575168748,-0.4160947760159683,-0.5166686773300171,-0.1124897971749305,1.6974307298660278,0.0509260892868042,0.5375039577484131,0.1765845865011215,-0.1200678944587707,-0.1270003616809845,0.2872755576461553,0.5263033509254456,-0.1748063856773078,0.7808934798315167
200,0.019778,-0.197735,-0.931667,-0.048902,-0.081528,-0.710995,0.696741,-2.321544420224428,0.4482796279422938,-2.1086253076434134,8.585522982168197,-1.5612842708379029,4.474545168428123,-0.3057081401348114,-2.520268440246582,0.0689778253436088,-0.7504035915966601,-0.1621858643261598,0.4955375171693388,-0.4062420885181396,-0.8310564160346985,0.0421472340822219,1.4875496625900269,0.0406028628349304,0.5913292169570923,0.1679363846778869,-0.1409225165843963,-0.0442025363445282,0.9892559520214796,0.4311544001102447,-0.0355035673186183,1.1801561250180006
201,0.021747,-0.202509,-0.975594,-0.046558,-0.080045,-0.712748,0.69528,-4.148970275264978,-0.1471495863363146,-1.2367828521251678,9.003812691646814,-1.6645127362526952,3.511573704481125,0.5248814225196838,-2.718291759490967,0.6334578394889832,-0.719270087613362,-0.1819516551950215,0.5365194864853374,-0.4021082560245913,-0.6744007468223572,-0.0299736708402633,1.0880041122436523,0.0008184909820556,0.6251243948936462,0.2210898846387863,-0.1214101836085319,-0.0087718106806278,1.0989046597421168,0.4200750589370727,-0.0699864132873713,1.2209905319705605
202,0.021717,-0.209579,-1.022211,-0.049164,-0.081768,-0.71254,0.695114,-5.050898072445392,-2.7392583756417035,-2.8505764778792857,9.224590116512775,-1.9557707876637576,2.693007788859308,0.8587004542350769,-2.200240135192871,1.5396034717559814,-0.6813866071505269,-0.2003547986832492,0.5679372946935646,-0.4159537301660401,-0.2339685261249542,0.066156268119812,0.8415859937667847,-0.0098837018013,0.8092145323753357,0.1781567931175232,-0.15180604159832,0.0824796706438064,0.8677093012362718,0.3813949227333069,-0.1752538371838629,0.893620791279897
203,0.020081,-0.221812,-1.123077,-0.05518,-0.094024,-0.707166,0.698592,-4.374795046648383,-6.098415074777603,-4.447755361180008,9.236371739721298,-2.681272050619125,1.9158869594343009,0.2298595607280731,-2.3665976524353027,2.7232859134674072,-0.6341359894120396,-0.2033840733101434,0.6007926992668285,-0.4422157461409419,0.1227328777313232,0.4528328478336334,0.2302294969558715,-0.0555734634399414,0.9172883629798888,-0.0118340849876403,-0.2473381757736206,0.1002198606729507,0.0403255806475877,0.3925385773181915,-0.317451427135989,0.286044773742184
204,0.020821,-0.222843,-1.175403,-0.05312,-0.102289,-0.710135,0.694567,-1.4375322189629076,-8.469754914784431,-4.41062799205184,8.955026156646012,-3.873102831339836,0.988416359392181,-1.1603599786758425,-2.3205645084381104,3.641713857650757,-0.577270667354461,-0.1794516563437145,0.6460664779931552,-0.4659976586816955,0.8780021667480469,0.5163444876670837,-0.9448850154876708,-0.030316412448883,0.9414573311805724,-0.0831717848777771,-0.3796033859252929,0.0482676848769187,0.8049474323749541,0.2892948091030121,0.4937795424878597,0.2847249233152717
205,0.019499,-0.218708,-1.227312,-0.046224,-0.102614,-0.713003,0.69207,1.1449135467231273,-7.600213721945881,-2.547152333986759,8.283750697135925,-5.248418540364503,-0.0628272302816854,-2.067469358444214,-1.826334238052368,4.061221599578857,-0.5166307108523166,-0.1293432465668344,0.6974766103223176,-0.4794677800108985,1.1748473644256592,0.5227071642875671,-1.5858240127563477,0.0641940236091613,0.791748583316803,-0.1204568669199943,-0.3955720663070678,-0.0973243489861488,-0.422878790834546,0.2947201728820801,0.5834266417957842,0.182079956876859
206,0.016276,-0.211955,-1.278644,-0.039301,-0.096619,-0.713672,0.69267,3.23310046197176,-7.768181347644329,-0.8104184111319482,7.332661101901531,-6.420605293938517,-1.0854893709171562,-2.75665283203125,-0.9005150198936462,3.862190008163452,-0.4636082821624823,-0.0616723928609609,0.7426581125448477,-0.4792940443171363,1.9890353679656985,0.3678226470947265,-2.23610782623291,0.2442748546600341,0.7215988636016846,-0.1122243404388427,-0.2795447707176208,-0.1961744725704193,-0.4010363768607378,0.1600947678089141,0.9656156948454676,0.0692315032668411
207,0.015127,-0.202832,-1.368844,-0.027643,-0.090974,-0.716217,0.691371,3.9202690716624256,-5.844614501231908,1.127371021900326,6.270200797459482,-7.27037269577086,-1.9991591168828309,-2.7967920303344727,-0.2249301373958587,3.5963237285614014,-0.4219687114480275,0.0162400326313102,0.7756706848406956,-0.4690560833109224,2.579920053482056,0.2392144948244094,-2.593553066253662,0.2352643013000488,0.4442908763885498,-0.0726212859153747,-0.1818098127841949,-0.1602871417999267,-0.8599544493257999,-0.0026149898767471,0.5930282906167209,-0.0037819296915084
208,0.018145,-0.201227,-1.413754,-0.026934,-0.100064,-0.716846,0.689488,4.3196880764544,-3.984206414043903,2.1230732274517417,5.299616228160262,-7.794668372553587,-2.706959449583292,-2.091665267944336,0.3564192950725555,2.926176786422729,-0.3907632110224602,0.0875252593712958,0.7939495269305532,-0.4574797545704195,2.6339995861053467,-0.0944200381636619,-2.808478832244873,0.40235036611557,0.2030555307865142,0.0565419793128967,-0.1751053631305694,0.0434028506278991,-1.2233698283225298,-0.1387088745832443,0.4348363551318645,-0.2057153186820447
209,0.022672,-0.199176,-1.458762,-0.025908,-0.115524,-0.716698,0.687261,3.639095045761764,-2.282220710095763,1.854321460750699,4.480539732667803,-8.11055861478746,-3.2115336500689384,-1.700546145439148,0.5022726655006409,2.658815622329712,-0.3689295378344757,0.1497660613937087,0.8008200593354414,-0.4473792654851163,2.332951068878174,-0.3819146752357483,-2.985237598419189,0.3335205912590027,0.1458686292171478,0.1597432494163513,-0.1864810734987259,0.2265710979700088,-0.5027992997676134,-0.2081807851791381,0.5679200067147612,0.1185706306491047
210,0.032698,-0.193423,-1.545682,-0.011155,-0.136868,-0.722038,0.678088,4.343052293168008,-1.5624077219098806,1.6131933217734098,3.698621878224611,-8.300055935248732,-3.687768475776912,-1.7543576955795288,0.5420286059379578,2.53415322303772,-0.3480453658252062,0.2080514914029229,0.8029560618114309,-0.436852955621542,1.803578734397888,-0.5036709904670715,-2.924544334411621,0.4221094250679016,0.0136357843875885,0.2539079189300537,-0.1843949556350708,0.2882223725318908,-0.5896200896084308,-0.1206972375512123,0.5087285436861216,0.4590062622051686
211,0.035356,-0.192596,-1.587474,-0.002284,-0.137891,-0.724346,0.675503,5.449703329253197,-0.7130833876699209,2.5565625518888235,2.997788315796852,-8.329515838488936,-4.219335312606394,-1.840871810913086,0.5497075319290161,2.1531224250793457,-0.3278456496649056,0.2627726567043394,0.803789006338018,-0.4211779878840062,1.515714168548584,-0.5634394884109497,-2.866198778152466,0.3813295364379883,-0.124057799577713,0.3376838564872741,-0.2143760472536087,0.2604611814022064,-0.7863187197506427,0.0245512351393699,0.5369814092241227,0.4513442031446844
212,0.035586,-0.194779,-1.630077,-0.001194,-0.134033,-0.722767,0.677969,5.627112737035751,1.007016065117717,4.142746870705485,2.469029814386368,-8.242444288757444,-4.704936224813759,-1.441921591758728,0.7815735936164856,1.7736610174179075,-0.3126647435398871,0.3101437432878523,0.8023065823312936,-0.4029340973073529,1.4204223155975342,-0.5004264712333679,-2.715095996856689,0.2616904377937317,-0.2643369436264038,0.3660200238227844,-0.2830508351325989,0.2014202624559402,-1.162072186794877,0.1576697528362274,0.5571483642663806,0.3112056646142154
213,0.036353,-0.207005,-1.720971,-0.018875,-0.131571,-0.712913,0.688541,6.271979497569799,2.143048386248946,4.417031429353356,2.1481289043836296,-8.170152959528565,-4.980418176552653,-0.7786170244216919,0.9749307632446288,1.2341548204421997,-0.3080276487204485,0.348382771199625,0.7953364649240304,-0.3888295837767571,1.378515362739563,-0.3572721183300018,-2.440879344940185,0.1700628995895385,-0.381558895111084,0.3934307694435119,-0.3108061850070953,0.2312352806329727,-0.5293243185997009,0.2350905835628509,0.6113291595261544,0.4122466299220919
214,0.042862,-0.215584,-1.770268,-0.023082,-0.140641,-0.712392,0.687157,6.4971390830427405,2.1796359494119883,3.950576531642675,2.037292155922204,-8.13536221665442,-5.082885448336601,-0.3429881036281585,0.7215346097946167,0.5676453113555908,-0.3112657455873914,0.3724300954063491,0.7876870244450622,-0.379418837527733,1.2217923402786257,-0.210527092218399,-1.8616119623184204,0.0876889824867248,-0.5787458419799805,0.4158861935138702,-0.3385615348815918,0.2610503137111664,0.104904728063941,0.3125113844871521,0.666792249681428,0.514295968554914
215,0.052382,-0.221213,-1.820006,-0.024267,-0.150409,-0.717283,0.679922,6.598239742648601,0.5731675519794225,3.397622915652394,2.027919785812497,-8.121787280288338,-5.108281170877814,-0.0695533156394958,0.2339138090610504,0.1451950967311859,-0.3148919334132576,0.3826096085018002,0.783619644954587,-0.374690988399241,0.8426204919815063,-0.0044000269845128,-0.8864498138427734,0.1342044472694397,-0.6736725568771362,0.4342745840549469,-0.2520577311515808,0.2577483057975769,1.4917372718811035,0.3426025211811065,1.234299072485417,0.8370821077823638
216,0.068227,-0.221991,-1.925794,-0.024364,-0.15521,-0.720912,0.674984,6.908913711538911,-0.2319932308852672,3.5338141778618097,2.032381587526947,-8.148908511447907,-5.063108734720945,0.3577206432819366,-0.0439040400087833,-0.0399434119462966,-0.3167601612939885,0.3829830767308806,0.7819659015433873,-0.3761863857101603,0.304427832365036,0.234938308596611,0.2676008641719818,0.2670025825500488,-0.6422567963600159,0.4650925695896148,-0.0154976993799209,0.06574147939682,2.02985338422358,0.127777948975563,1.3125398116379976,0.5131402226485312
