time_imu,phone_acc_x,phone_acc_y,phone_acc_z,phone_gravity_x,phone_gravity_y,phone_gravity_z,phone_gyro_x,phone_gyro_y,phone_gyro_z,phone_ori_w,phone_ori_x,phone_ori_y,phone_ori_z,watch_gyro_x,watch_gyro_y,watch_gyro_z,watch_acc_x,watch_acc_y,watch_acc_z,headphone_gyro_x,headphone_gyro_y,headphone_gyro_z,headphone_acc_x,headphone_acc_y,headphone_acc_z,frame_imu
1733378361872362500,1.1225668364889918,11.947386602175236,-0.9116250153303146,0.1460606951210647,9.77460767905116,-0.7785315730057656,-0.1515734791755676,-0.3316903412342071,-0.3860583305358886,-0.5468816495628942,-0.5856043029220471,0.4435782512974284,0.4015301485322016,0.0352887026965618,0.0459496937692165,-0.0696299970149993,0.0102490782737731,-0.0472984611988067,0.0182065926492214,0.127663105726242,0.0377615094184875,0.0274298587173223,-0.3155542612075805,-0.0211506323173642,0.3207762607097625,0
1733378361912362500,3.8144042663946736,10.69918453041315,-1.869265931904316,-0.166838073679246,9.78216379351914,-0.6721797148734331,-0.4425408840179443,-0.5795531868934631,-1.120907425880432,-0.5399098603494445,-0.5858167003000132,0.4371389043963221,0.417403564606472,0.0379851534962654,0.0368556939065456,-0.0207250341773033,0.0069983005523681,-0.0468497574329376,-0.0080794729292392,0.0983575358986854,0.0378102548420429,-0.0370814841598272,-0.326992392539978,0.0007604629784822,0.3282118175379931,1
1733378361952362500,5.465124185746908,2.731651992291212,-1.431806242531538,-0.7445064807418733,9.769222478881478,-0.4223532691230997,-0.7252788543701172,-0.4579605162143707,-1.8054006099700928,-0.5294732934625057,-0.5865043595218917,0.4213628601581918,0.4451111779605096,-0.0352661572396755,0.0013155431952327,0.0166206061840057,0.0109809041023254,-0.0531816184520721,-0.0221993960440158,0.0754123255610466,0.0533288270235061,0.056140404894948,-0.3029252886772156,-0.0624658085241913,0.2375806756287813,2
1733378361992362500,3.945555488610268,-5.94563858847022,-1.3587211325764654,-1.4953890723869203,9.691666360992192,-0.0761534297508187,-0.9551892280578612,-0.0074008866213262,-1.909203052520752,-0.5205313026550487,-0.591377861547472,0.3926257367587013,0.4745149101655779,-0.1447567045688629,-0.0400779694318771,0.0561558306217193,0.0150874257087707,-0.0426639020442962,-0.0200872421264648,0.0724745765328407,0.0430457554757595,0.0164098675310611,-0.2342654168605804,-0.0587443037830293,0.1371620069377124,3
1733378362032362500,2.1388839600458738,-11.61915534928441,-0.2870563619375229,-2.1457674359492955,9.565977788096664,0.2411172339907847,-0.5883703827857971,-0.2038175165653228,-1.4494582414627075,-0.5128609016055409,-0.5948909872014855,0.3658020713492983,0.4992667230361894,-0.1197858303785324,-0.0257031321525573,0.0777948796749115,-0.0044738054275512,-0.0139477550983428,-0.0091922841966152,0.0784472823143005,0.0234717559069395,0.0168546886891126,-0.1670852452516555,-0.0895284413643181,0.0930465324878692,4
1733378362072362500,0.3177066440060734,-13.86102242168188,0.9438619820684194,-2.5624206302672623,9.457339134201408,0.4039237323326989,-0.1237062662839889,-0.2547658681869507,-0.7453076243400574,-0.5038449442558118,-0.5962865550798124,0.3519203959882882,0.5164637734912818,-0.0451547391712665,-0.0071037742309272,0.1099412962794303,-0.0124894976615905,0.0030749440193176,0.0012549199163913,0.0753882080316543,0.0065994262695312,-0.0297632701009511,-0.1173825711011886,-0.0494222025558352,0.1118485558524727,5
1733378362112362500,-0.8765069401979446,-12.913297334444522,1.1463643300533295,-2.703872004961968,9.418960595968365,0.3776948469029739,0.265577107667923,0.0526837892830371,-0.02174062281847,-0.4981739511014972,-0.598964406504125,0.3492628834158606,0.5206532740207789,-0.0567887611687183,-0.0066040051169693,0.1103094145655632,-0.012378454208374,0.0087823569774627,0.0080505609512329,0.0619480460882186,-0.0085912570357322,-0.0644336014658212,-0.0988136529922485,-0.0016252631142735,0.1315995505049824,6
1733378362152362500,-0.2779927655160427,-10.45677044327855,1.4393290392518043,-2.594001471184194,9.454347551169992,0.2384076827711425,0.4792003333568573,0.082334890961647,0.550410807132721,-0.4976308877032011,-0.6011819544628448,0.3555627208637587,0.5143139441054578,-0.0390355959534645,-0.0042852442711591,0.0689216926693916,-0.011772871017456,0.0254761278629302,0.0020541548728942,0.0573056302964687,-0.0100834118202328,-0.0632750790804624,-0.1052240878343582,0.0025995149739086,0.0649545566000044,7
1733378362192362500,-1.891300653579831,-5.765899276435375,0.4348153123438358,-2.240343223831057,9.547091885840892,-0.0655093957374803,1.0353628396987915,0.1294217854738235,1.6180511713027954,-0.4981201502891433,-0.6028540467617247,0.3740415057951285,0.4985341424515562,-0.0163278840482234,0.0098433578386902,0.029174281284213,-0.0048871636390686,0.0209259092807769,0.0042564235627651,0.0659169256687164,-0.0075584161095321,-0.0864104554742574,-0.1334241181612014,0.0132137018382549,-0.0323022870592773,8
1733378362232362500,0.0112102530613541,2.3637585910975933,0.3565419860959052,-1.4502752345494925,9.685959673783184,-0.4992964427458122,1.148579239845276,0.3066937625408172,2.12158751487732,-0.5059830276130827,-0.5994060320327164,0.407638862080915,0.4674657710363778,0.0140151064842939,0.0051849568262696,0.0273585375398397,-0.004809021949768,0.0099114775657653,-0.0107361078262329,0.0878280103206634,0.0038481983356177,-0.0709153647005558,-0.1527943611145019,0.0267464064978063,-0.0727615770891308,9
1733378362272362500,1.141415475474298,6.219320505049824,-2.027622118040174,-0.6501549300700425,9.752247378683087,-0.8008277951616793,0.2668920159339905,0.6444233655929565,1.8180193901062007,-0.520092044085866,-0.594556772690312,0.4328199387679918,0.4343653886992577,0.0288340002298355,-0.0074341660365462,0.0344890840351581,-0.003034770488739,-0.0002873241901397,-0.0130721926689147,0.110371395945549,0.0136827491223812,-0.0031733693391084,-0.1090221628546714,-0.002376812133938,-0.1430517956286668,10
1733378362312362500,2.00238202445209,6.919155119568109,-1.0247254709400235,-0.0608342389667173,9.759603002142905,-0.957524012196064,0.4885089695453644,0.1105124130845069,1.227236270904541,-0.5314930993050174,-0.5890013031763177,0.4493301694803168,0.4107250119980905,0.0507201217114925,-0.0409549474716186,0.0305145177990198,0.0016284584999084,-0.0020294785499572,-0.0240969099104404,0.1499811112880706,0.0238519273698329,-0.0182283151298761,-0.0443449392914772,-0.0475699988178908,-0.2477100015856325,11
1733378362352362500,1.702493361209333,5.860619295093417,0.4969571496106684,0.3654986515441909,9.739249365422127,-1.0880251730050892,0.2865300178527832,-0.0009608173277229,0.8593325018882751,-0.5367583968904259,-0.5830130246699639,0.4642947957619626,0.395495254185243,0.0114930924028158,-0.0511311516165733,0.0347299017012119,0.0033747553825378,-0.0115817189216613,-0.0092364586889743,0.1987996697425842,0.0149104744195938,0.0158452193856239,0.0637547150254249,-0.0926417510792613,-0.3164066673234105,12
1733378362392362200,1.5783347743600606,3.081245182162524,-0.8931846648849546,0.5616327066062018,9.71082581949234,-1.2469321979567407,0.3848960995674133,-0.3097831308841705,0.2673409581184387,-0.5345702759963287,-0.5809912166163753,0.47542092688425,0.3881480319380571,-0.016260240226984,-0.0687451958656311,0.0307733751833438,-0.0029428601264953,-0.0076976418495178,0.0006327591836452,0.2175510227680206,-0.0022133104503154,-0.0197013102918863,0.1841536462306976,-0.0952611397974193,-0.2493630294896662,13
1733378362432362500,0.5651502862730995,1.5180781663179397,-0.3606313012361526,0.6023225539889187,9.699804659262298,-1.31201797972098,0.0138831306248903,0.0109945284202694,0.0371550433337688,-0.5320702166634154,-0.580094913030253,0.4799835339921658,0.3873073778467021,-0.0152754047885537,-0.0698686763644218,0.0297408662736415,-0.0022552609443664,-0.0010831654071807,0.0040547810494899,0.2432251721620559,-0.0234387032687664,-0.0308218392431735,0.2413351535797119,-0.1118394957631826,-0.2312861055292189,14
1733378362472362500,0.5339119751835242,0.5883037463128566,-0.0541186898089945,0.5909135269524529,9.700479782044887,-1.3122216855995357,-0.0382243357598781,0.0510495714843273,-0.095194973051548,-0.5322623862206819,-0.5809099212358633,0.4790076709760728,0.3870299908880223,-0.0184853114187717,-0.0746016427874565,0.0146143790334463,-0.0007520318031311,0.0038771629333496,0.0075638853013515,0.2193552851676941,-0.0237221028655767,-0.0565080691635608,0.2816221714019775,-0.1378292386747896,0.0382322616301476,15
1733378362512362500,0.0501269898243248,0.4338765701889991,0.4267639617048204,0.5648833424326032,9.706017542427778,-1.2823916338726875,-0.0462548807263374,0.0717037990689277,-0.0286748502403497,-0.5331504435636357,-0.5813668230479728,0.4768609792395226,0.3877717116144802,-0.0198552422225475,-0.1051609367132186,-0.0112712793052196,0.0072377920150756,0.002303272485733,0.0019048452377319,0.1873573958873748,-0.0862985253334045,-0.1401280171364545,0.3760607838630676,-0.0884052825532853,0.0847822697505354,16
1733378362552362500,0.2215322252886369,1.653245346176624,0.143421651854366,0.5694518193919211,9.705147773855924,-1.2869517813950777,0.0496929623186588,0.0182687398046255,0.0167527589946985,-0.5334505714310284,-0.581805097720067,0.4765701482433341,0.3870585792442748,-0.0476080439984798,-0.1098663732409477,-0.0266746021807193,-0.0028815865516662,-0.021544724702835,-0.0016257092356681,0.0857517793774604,-0.1549921482801437,0.0102186116755008,0.581153929233551,-0.0988153251476585,0.3304020210586488,17
1733378362592362500,0.3539322785215452,7.465528188124298,0.1566026204667985,0.550028193530254,9.706285253453254,-1.2868154416643085,-0.0282801464200019,-0.1846468597650528,-0.2295806258916854,-0.5325997203153202,-0.5817040630355512,0.4766861747506608,0.3882374292988205,-0.0583088919520378,-0.1145429387688636,0.0036910255439579,0.0071544647216796,-0.037127137184143,-0.0123823285102844,-0.0339001715183258,-0.1757933646440506,-0.0156786306470632,0.7121642827987671,-0.0398123704284429,0.091300419472903,18
1733378362632362200,0.1838933264417573,13.0352309387207,-1.706081156568229,0.3631817163713276,9.719410107964276,-1.253600569804758,-0.2290661334991455,-0.1264439672231674,-0.5632730722427368,-0.5280719030065957,-0.5832472292078869,0.4730100506951096,0.396514876266788,-0.0532523468136787,-0.102966122329235,0.0684563070535659,0.0032930970191955,-0.0431501865386962,-0.0102345906198024,-0.1297018826007843,-0.1909654438495636,-0.0294318461894989,0.7238510251045227,-0.0285645618356764,0.2010172239936888,19
1733378362672362500,4.9365948169171805,8.03949945770204,-3.348722106622159,-0.107340101984702,9.751661687749625,-1.0314696845032274,-0.9299680590629578,-0.1433623731136322,-1.542898654937744,-0.5234891214619731,-0.58683513347672,0.4563056479528572,0.4163756582482433,-0.0482048578560352,-0.0816395282745361,0.1206260994076728,0.0068535804748535,-0.0320467948913574,-0.0174256525933742,-0.1943207681179046,-0.1782087981700897,-0.1023462757527828,0.6448954939842224,0.009882511588931,0.1371946670982986,20
1733378362712362500,5.176933851343393,-2.4326012411773204,-2.2996540754556656,-0.8883207121104002,9.75496891260147,-0.4710360880210995,-1.7361961603164673,-0.1646201908588409,-2.382805824279785,-0.5214850191014586,-0.5878914560800731,0.4223739971681529,0.4517049183490976,-0.0596809536218643,-0.0762775242328643,0.1122386753559112,-0.0076985955238342,-0.0047506093978881,-0.0065468549728393,-0.179123193025589,-0.1287486404180526,-0.0989034418225288,0.452615737915039,-0.1040644778475165,0.1539700069408863,21
1733378362752362500,1.650252301840484,-10.646612631654738,-1.3866349754184484,-1.7463194973237812,9.64867945218086,0.1540702889775857,-1.3825092315673828,0.0325208120048046,-1.81348204612732,-0.5192471779478374,-0.5885539446087814,0.3817706846082622,0.4880960686888113,-0.0440292879939079,-0.0604303255677223,0.0991411134600639,-0.017241358757019,0.0143362879753112,-0.0023041889071464,-0.1202476397156715,-0.0821527689695358,-0.1415209327995777,0.2355578541755676,-0.1715527907088399,0.2163933462965302,22
1733378362792362500,1.3524496510915458,-14.620477684426309,0.0405670612532645,-2.30713814760074,9.51634018922448,0.5355378958849236,-0.6220428347587585,0.2236485630273819,-1.1417803764343262,-0.5177279959571824,-0.589973694473541,0.3530243700703474,0.5091784752034492,-0.0255320370197296,-0.0560927838087081,0.0617588572204113,-0.0240089297294616,0.0291207432746887,0.001045823097229,-0.0287267342209815,-0.0462690256536006,-0.2030015296787023,0.0043543577194213,-0.1522055545516312,0.0829759875135496,23
1733378362832362500,0.7082967379152775,-15.573781448578831,1.4512620536297558,-2.620515676361322,9.430110351014136,0.6134376761127263,0.1011792719364166,0.1749233603477478,-0.5092124342918396,-0.5140803008850159,-0.5951872053296291,0.3383423908896452,0.5167185673635442,-0.0373002812266349,-0.0400581024587154,0.0248858593404293,-0.0169441699981689,0.0263969898223876,0.0124007388949394,0.1019118800759315,-0.0129334889352321,-0.1606675318181514,-0.2580306828022003,-0.1733266685135662,-0.0665261898308992,24
1733378362872362500,-0.0300970320999622,-11.460023940992354,1.31376613856256,-2.7254794411361214,9.409989354005456,0.4407346924554556,0.7388852834701538,-0.2125973403453827,-0.0962131917476654,-0.5054365710665788,-0.6015658796463381,0.3400695169530746,0.5167253749473562,-0.0171361565589904,-0.0327676460146904,-0.0131402853876352,-0.0228567719459533,0.0271304249763488,-0.0073751881718635,0.2568525373935699,0.02227134257555,-0.0573328295499086,-0.4478335380554199,-0.1991023302830755,-0.1358444215331226,25
1733378362912362500,-1.1158110786184667,-7.137896070170402,0.5119149186372757,-2.643235165430605,9.442165530467031,0.1708813211880624,0.8116310238838196,-0.1401088535785675,0.665830135345459,-0.4968036972825552,-0.605721529526284,0.3526881137976154,0.5117603151871049,0.0099061150103807,-0.0441911146044731,-0.0200065802782773,-0.0140454173088073,0.015020877122879,-0.0128765702247619,0.3917810916900635,0.0476087629795074,-0.0346253231793642,-0.5640103816986084,-0.1869767159424722,-0.0788538295496255,26
1733378362952362500,-2.833469275733828,0.4350736710190773,-1.0934288586795329,-2.177893781919777,9.560568038007617,-0.1506582063786219,0.598379373550415,0.5364903807640076,1.7378484010696411,-0.5002939773894964,-0.6063106903742965,0.3742576349628889,0.4919598609187386,0.0296412035822868,-0.0339648947119712,-0.0083469953387975,-0.0078912377357482,0.0058603584766387,-0.0073029994964599,0.4679015874862671,0.0374246872961521,0.0442027143418788,-0.6335052251815796,-0.2190600995540619,0.1087891682818532,27
1733378362992362500,0.8344424069285392,3.3267969828009605,-0.3840834884941577,-1.48357018590793,9.689579033324122,-0.2853954612542875,0.2640217244625091,0.1640652418136596,1.666283369064331,-0.5176456449230393,-0.5994637531345756,0.3939471122742214,0.4663602030392391,0.0486045069992542,-0.0291418582201004,-0.0139159318059682,-0.0053007006645202,0.0060203373432159,-0.0041749477386474,0.4212085008621216,0.0497136116027832,0.0024660978525876,-0.6614477634429932,-0.1533943259447813,0.4152573560453951,28
1733378363032362500,-0.1434732359111309,5.980171557191014,-0.0805318822970613,-0.8764565251849591,9.757513920909163,-0.4394588273007422,0.4039552509784698,0.1610615253448486,1.5737489461898804,-0.5276959955844159,-0.5914379187138398,0.4154604111063507,0.4462406527227821,0.0362940467894077,-0.0443621948361396,-0.0288314297795295,-0.0078821778297424,-0.0012819766998291,4.0650367736816406e-05,0.3174191415309906,0.026488721370697,0.0044271687924861,-0.5745773911476135,-0.0906195976018905,0.5041783330358565,29
1733378363072362500,1.62425247592628,5.893063182580471,-0.6450479623198508,-0.3487415414780378,9.782522689959409,-0.5924545458493754,0.2793706953525543,0.0409606546163558,1.0223355293273926,-0.5360693714004258,-0.5852993217264494,0.4331644953723361,0.4271098202545709,-0.014423725195229,-0.0547831431031227,-0.0427676178514957,-0.0125237107276916,-0.0161177217960357,0.0056338310241699,0.1982673555612564,0.0125499321147799,-0.0577191985189914,-0.42315274477005,0.0014255027584731,0.4417878547701984,30
1733378363112362500,1.137799330803752,4.784146247389912,0.4707482840556651,-0.0547222817253321,9.785168820554018,-0.6464226847391575,0.1161077246069908,0.1125067919492721,0.5221496224403381,-0.5414603177241182,-0.580891472715886,0.4421803738149087,0.4169680516641176,-0.0442367494106292,-0.0132890194654464,-0.0171312987804412,-0.0117573738098144,-0.0261358618736267,0.0154156014323234,0.1148256212472915,-0.0128156309947371,0.0327110139906406,-0.2884987592697143,-0.0668441697388887,0.2972299654275179,31
1733378363152362500,0.4590990550551563,2.7807085764050483,-0.3452337525527924,0.0936623445649631,9.781666949912903,-0.6932517289966345,0.0583399832248687,-0.0124811837449669,0.2869384586811065,-0.5435771830534453,-0.5792094858856964,0.4470596966370974,0.4113123245753636,-0.0852483585476875,0.0044758100993931,0.005848784931004,-0.0051295161247253,-0.0224092602729797,0.0068670511245727,0.0737418979406356,-0.0453495346009731,0.0388309581756591,-0.1610365062952041,-0.0745800246879458,0.0790432877071201,32
1733378363192362500,0.3758171068649739,1.5241308904856443,0.8060043210167437,0.1839772783981636,9.77979238821268,-0.701556469874829,0.0374488160014152,0.1219842657446861,0.1576051414012909,-0.5456747699541579,-0.577865865574923,0.4492665896587306,0.4080068167172229,-0.1075057312846183,-0.0040369308553636,0.0171357952058315,-0.0011794567108154,-0.013076901435852,-0.0052950382232666,0.0858635678887367,-0.0610121414065361,0.0053647419035434,-0.0586969852447509,-0.0733053285770118,0.0399191918037831,33
1733378363232362500,0.5123942996520549,1.411799811813235,0.3952724065065384,0.2124502712265588,9.778249834945797,-0.714898108941689,0.0148656219244003,0.1290694177150726,-0.0142396548762917,-0.5469165860512156,-0.5787374945378717,0.4489015189284571,0.4055029073570046,-0.086496315896511,-0.0116479257121682,0.0202186033129692,-0.0006412863731384,0.0017210841178894,-0.0142040252685546,0.1068987697362899,-0.0595460273325443,-0.0691086075395345,-0.0213466212153434,-0.0593197655834257,0.0568551290355622,34
1733378363272362500,0.5430219314973801,3.703858025312424,0.134823554052785,0.1758373544265516,9.77893781720996,-0.7154176758363843,-0.0085398815572261,0.075055107474327,-0.2570554316043854,-0.5470432061075614,-0.5805852907055998,0.4465387673521136,0.4052992604472414,-0.0466061644256114,-0.012984300032258,0.0131743419915437,0.0038288831710815,0.0143742561340332,-0.0181310772895813,0.1435278803110122,-0.0913474336266517,-0.0824888981163501,-0.0211181212216615,-0.0940901963219046,0.1115092408955097,35
1733378363312362500,0.044633283212292,8.436738195845484,-0.3414298302251845,-0.0141072314532531,9.782240365886688,-0.6913683264028281,-0.1211748197674751,0.0516158267855644,-0.7165173292160034,-0.544060410635209,-0.5845045006168182,0.4400050730583439,0.4107900094525438,-0.0031875828281044,-0.0325528904795646,0.0074153896421194,0.004631221294403,0.0172814130783081,-0.0198233127593994,0.1809322535991668,-0.1000934988260269,-0.1365349610805511,-0.0401956737041473,-0.0433174559399485,0.1402742937393486,36
1733378363352362500,2.040274386603385,11.453215430021285,-1.0180500117640945,-0.4041366809636354,9.77751684449613,-0.6381392789099365,-0.1655020713806152,0.0300146099179983,-1.3869047164916992,-0.5382058092317485,-0.5925417561863546,0.4259463786399064,0.421661509743114,0.0006468365900218,-0.0411141514778137,0.0077794436365365,-0.010568082332611,0.0020632743835449,-0.0162147283554077,0.1956028044223785,-0.1132109761238098,-0.0525070168286561,-0.0158557835966348,-0.0057455579146742,0.1536240430474281,37
1733378363392362200,3.2996783819898963,7.060514724326134,-1.737678364098072,-1.119458495210111,9.7291231082052,-0.5112248905465007,-0.4993778765201568,-0.3592644035816192,-2.133965492248535,-0.5245953171256967,-0.6027592670725155,0.4034184945221338,0.4457964656140322,-0.0109277935698628,-0.0351606532931327,0.0259782224893569,-0.0160855054855346,-0.0071560144424438,-0.0092917680740356,0.1811907887458801,-0.0947785004973411,0.0769061295479536,-0.0133270071819424,0.029302959112823,0.1135619356416165,38
1733378363432362500,3.2950153586149216,-1.4803051927626132,-1.027989295041561,-1.9119145486719904,9.615352352118492,-0.2448281077400781,-0.6892756819725037,-0.1311730444431305,-1.85003399848938,-0.511228033677566,-0.6091810449934485,0.3760069333754617,0.4755660082477064,-0.0306887179613113,-0.0119929108768701,0.0414106398820877,-0.0111153125762939,-0.0026265680789947,-0.00238848477602,0.1345490217208862,-0.0498489141464233,0.1288093352645635,-0.0272394977509975,0.0654291883744299,0.2508462537847459,39
1733378363472362500,3.704373865880072,-9.114535750600696,-0.0997638580441474,-2.5566534450426697,9.467381220266224,-0.0510713397360406,-0.3345976173877716,0.3511342108249664,-1.577915072441101,-0.5020218203662474,-0.6170075933021504,0.3491497434560086,0.495348579717026,0.0362338572740554,0.014275231398642,0.0395062826573848,-0.01345956325531,0.0165514051914215,-0.0085757449269294,0.0545227825641632,0.0284506157040596,0.0884685570478439,-0.052931822836399,0.0935080125197768,0.3093132019311189,40
1733378363512362500,3.62196270917505,-13.839598525381088,-0.1781494124948978,-3.099427612324059,9.303932533296942,-0.0274530614963965,-0.0609930790960788,0.3642818629741668,-1.2950053215026855,-0.4926568211153856,-0.6290402372574624,0.325127815572882,0.5058551917213413,0.0908217430114746,0.0186764243990182,0.0264631155878305,-0.0149841904640197,0.0161515474319458,-0.0183919072151184,-0.0216728895902633,0.0832407251000404,0.0049935705035924,-0.0790296643972396,0.0976350293219089,0.3307267229683697,41
1733378363552362500,1.6428917099446056,-15.44392640365362,-0.4766062893688678,-3.454105265852809,9.178150436899063,-0.0332085174672887,-0.0432588830590248,-0.1716260462999344,-0.5588472485542297,-0.4838175789165009,-0.6360160693816282,0.3117318121316023,0.5140305423567452,0.0599282681941986,0.0115428809076547,0.0151262395083904,-0.0116044878959655,0.0016062259674072,-0.0179961845278739,-0.0692879855632782,0.1260989755392074,-0.0518570284873247,-0.1153071373701095,0.0346574718832969,0.3070449647381901,42
1733378363592362500,-0.8353837794318795,-11.196755281877516,0.2892524106770753,-3.5528891729488965,9.140286277928949,0.0504252147190738,-0.1316074877977371,-0.2928493618965149,0.0038312019314616,-0.480641675763851,-0.6335189763622731,0.3099721538708308,0.5211090404691006,0.0252821408212184,0.021759832277894,0.0156181249767541,-0.0142096281051635,-0.0016683936119079,-0.005079336464405,-0.0947206690907478,0.1292581111192703,-0.0772141725838184,-0.1439035236835479,-0.0143263392552733,0.1823237755700945,43
1733378363632362200,-4.327629390847683,-5.316266918709874,1.008861400723457,-3.345936567556858,9.218067436745764,0.0481787509665358,0.037933237850666,0.4475076198577881,1.2923823595046997,-0.4877901908840079,-0.6308927061821928,0.3154646741929868,0.5143122783308008,0.0020684320479631,0.0258515141904354,0.0111577296629548,-0.0133535265922546,0.0085818171501159,-0.0057136937975883,-0.089575245976448,0.1102767959237098,-0.0818897631794214,-0.1494251936674118,-0.0747051123723387,0.0923094503849744,44
1733378363672362500,-2.6845146858021613,2.8249907857239243,0.2163058324098586,-2.6368971945807336,9.445442360180616,-0.0279126098661217,0.0081371013075113,0.4660705924034118,2.2696828842163086,-0.5095554311855065,-0.6239971600543779,0.3347397366948059,0.4888047812433074,0.0079212617129087,0.0088188406080007,-0.0150790000334382,-0.0133960843086242,0.0201736986637115,-0.0131976678967475,-0.0760825648903846,0.0827697962522506,-0.0870019916266202,-0.1655692905187606,-0.1372667824864387,0.0486694844923913,45
1733378363712362500,1.0776913374520838,4.901045949152112,0.8449193772792816,-1.8707706373788413,9.626221536657214,-0.0804208505374845,0.2691607773303985,-0.0426254346966743,1.7040385007858276,-0.5284238132959415,-0.6125213690555253,0.3590513818094047,0.4654761046157838,0.0556927770376205,-0.0094788344576954,-0.0234915930777788,-0.0063856244087219,0.0226255059242248,-0.0156991407275199,-0.0724254995584487,0.0036302730441093,-0.1221235738903284,-0.1851414144039154,-0.163874218904972,0.0326274273604154,46
1733378363752362500,1.1324600156024098,4.988463535842299,0.2348772618889808,-1.300951957435906,9.717321611252428,-0.2270957959662191,0.3824559450149536,0.1182120963931083,1.2742985486984253,-0.5376314518758003,-0.6060020346011668,0.3799213035078588,0.4465129059160886,0.0879774838685989,-0.0210537854582071,-0.0371599346399307,-0.0027417540550231,0.0138626098632812,-0.0136517360806465,-0.110052615404129,-0.1161707043647766,-0.19073416877985,-0.1918889731168747,-0.0848407219395041,0.1192524023681879,47
1733378363792362500,1.825290596577525,3.910480668097734,-0.5041442846357822,-0.9133989662002772,9.758615160149334,-0.3248476748671382,0.0562744326889514,0.0440446771681308,0.7136034369468689,-0.5441301672698068,-0.601712799275904,0.3930703877444508,0.4328507596457396,0.095503844320774,-0.0222119390964508,-0.0187348555773496,-0.0107026100158691,-0.0071878731250762,-0.0053338408470153,-0.0834563225507736,-0.2499176263809204,-0.0826490571141242,-0.0710527226328849,-0.1799903641864657,0.1390288237228989,48
1733378363832362500,1.2563640431687235,2.939182397571206,0.1083107736477628,-0.7142270047470927,9.775075296562909,-0.3288762727960944,0.0277746599167585,0.0818943530321121,0.3153690695762634,-0.5488197791381876,-0.5981867775509063,0.3986735532265186,0.4266483019698602,0.060000441968441,-0.013653072528541,0.0069964742287993,-0.0115715265274047,-0.0228970050811767,0.0115035697817802,-0.0421583093702793,-0.3040672242641449,0.0726239221841096,0.1807599663734436,-0.2239586852505803,-0.093463734986633,49
1733378363872362500,0.7993192902948707,1.7762556397736071,-0.0634685192933306,-0.6396557478874921,9.780106276467444,-0.3327714901363477,-0.057248193770647,0.288409560918808,0.0739297717809677,-0.5517849147282434,-0.5981516487241885,0.3989752241332732,0.4225715628711239,-0.0089288251474499,0.0223719850182533,0.0425631925463676,-0.0215415358543396,-0.0256171226501464,0.0294983386993408,0.0266352705657482,-0.2624115347862243,0.1720014112591743,0.2734526395797729,-0.199134040595591,-0.1069407639361917,50
1733378363912362500,0.3682243867136537,0.8839116634964942,0.0960860828468576,-0.6227578776437789,9.78195687277019,-0.3096183954227715,-0.0353404954075813,0.1722750663757324,0.0633826926350593,-0.5549791474680816,-0.599155821357388,0.3959778359164079,0.4197760411961113,0.0266970805823802,0.0576662234961986,0.0443867221474647,-0.0141860246658325,0.0120530128479003,0.0113177299499511,-0.0125225894153118,-0.2075950503349304,0.1349170044898986,0.3707526922225952,-0.0806559105355292,0.1721677077367901,51
1733378363952362500,0.9752454007171094,0.4981605340510606,0.1600982074975967,-0.6011515739807859,9.782691032263635,-0.3285905877225101,0.0676644518971443,0.1954316049814224,-0.0517941266298294,-0.5561960639258446,-0.6005212517008295,0.3951299582708107,0.4170042738077006,0.0981528908014297,0.017288863658905,-0.0424011684954166,-0.0063389539718627,0.0340288281440734,-0.0144444033503532,-0.0602594278752803,-0.1666960269212722,0.0265793793678283,0.2447313964366912,-0.0912261851929128,-0.1629565195381641,52
1733378363992362500,0.7008118620526045,0.1744856292903423,-1.0341898301821202,-0.6587632570046931,9.778658415746689,-0.3379871424254029,-0.0880334302783012,0.6546843647956848,-0.2299739122390747,-0.5578524037316317,-0.6049338031789372,0.3889571203282385,0.4142077084760081,0.0688107162714004,-0.0008800199138931,-0.0801743194460868,0.0008663535118103,0.001321405172348,-0.0045172572135925,-0.1169176250696182,-0.1266169846057891,-0.0526525627791881,0.1254584193229675,-0.1308017511907964,-0.0420895215801894,53
1733378364032362500,-0.3339947117883712,0.4247580287098884,-0.7347451843798161,-0.692968455075845,9.77843279029727,-0.2691731887171976,-0.3774069249629974,1.3197224140167236,0.0304255597293376,-0.5672476258157115,-0.6110478839979716,0.374625809263942,0.4055936814636278,-0.0268756002187728,0.0119630740955472,-0.0774506330490112,-0.0094122886657714,-0.0352039635181427,0.01294457167387,-0.1027461439371109,-0.0899788588285446,-0.1020925932526588,-0.0691423118114471,-0.0593796060118824,-0.246056681420654,54
1733378364072362500,-0.4350147073734551,0.2212146472394466,-1.075444289177656,-0.5849151998531072,9.788792856270074,-0.0882876109903678,-0.7528675198554993,1.3158034086227417,0.3781982660293579,-0.5852227819278104,-0.6130070784755447,0.3587809042225139,0.3911686236240517,-0.0465848594903945,0.0348382443189621,-0.0028034257702529,0.0049499869346618,-0.0282160639762878,0.0120031237602233,-0.0776778906583786,-0.0733891576528549,-0.0540934092372655,-0.1457710862159729,-0.106880192855373,0.0979727368436753,55
1733378364112362500,-0.0416884664986282,-0.2109340762436389,-1.4109323813289405,-0.4199436141654848,9.794324771434068,0.2554308233623393,-1.230048418045044,1.7324066162109375,0.447208821773529,-0.6111000523173178,-0.6104308193264567,0.3381580505511745,0.3736042814631227,-0.0394260138273239,0.0090244356542825,-0.0132682509720325,0.0139274001121521,-0.0029567182064056,-0.0056595727801322,-0.0471176914870739,-0.0645127147436142,-0.0258007962107658,-0.066350556910038,-0.0451113536193966,0.2652989958986639,56
1733378364152362500,-0.6460670762345194,-0.7543979793548583,-1.2212363234251735,-0.2792918106169439,9.769764330673215,0.8025505273010581,-1.6109039783477783,1.928418517112732,0.5550481081008911,-0.6436916609931654,-0.6021266488494368,0.3106844197812887,0.3557804487977538,-0.0379961654543876,-0.0255775358527898,-0.045830987393856,-7.891654968261719e-05,0.0016792118549346,-0.012883074581623,0.0204914100468158,-0.0634186640381813,-0.0382592957675457,0.0501863807439804,0.1011578696858137,0.2818868503451347,57
1733378364192362500,-0.9159169403705746,-0.6927221521645784,-0.4176432282686233,-0.1038632196543738,9.708687053897975,1.378765557217598,-1.289833426475525,1.4270331859588623,0.6727948188781738,-0.676664089301457,-0.5904424944480734,0.2847458198180891,0.3352956862854449,-0.0969356447458267,-0.0434390902519226,-0.0424627549946308,-0.0105116367340087,-0.0130733549594879,-0.0003986284136772,-0.0066319163888692,-0.022282276302576,-0.0930862799763679,0.1208771541714668,0.1481504339419305,0.3963406202599406,58
1733378364232362500,-0.9098373281959444,-1.2001999651372433,-0.0391847400493919,0.1035898552062455,9.64963631451428,1.7447541477032005,-0.6363909840583801,1.2917875051498413,0.9023940563201904,-0.6997007626303092,-0.5816784309860515,0.2696154583083205,0.3152403792593466,-0.099306121468544,-0.0407715626060962,-0.0501088239252567,-0.0021209120750427,-0.0062068700790405,0.0147774219512939,-0.0558297932147979,-0.0175318587571382,0.0235252524942159,0.0912346988916397,0.0754217362090945,0.0973063818894326,59
1733378364272362500,-1.2704763012818991,-1.256937751403451,-0.6415035677112638,0.4103593914033845,9.600729952526091,1.956518829552084,-0.5220516920089722,1.3911648988723757,1.1802661418914795,-0.7193581725322457,-0.5771111131871874,0.2592065991242316,0.2868423013111706,-0.0839977413415908,0.004104352556169,-0.0341310538351535,-0.0012352466583251,-0.015662133693695,0.0239640995860099,-0.123908594250679,-0.0765742734074592,-0.0353261649250984,0.1088134571909904,0.1194141688011586,0.1059017762772738,60
1733378364312362500,-1.7192378675222395,-1.651393580830097,-0.8902361903429031,0.8064484115224331,9.504075750935078,2.278723369499296,-0.957258641719818,1.5758994817733765,1.5862466096878052,-0.7427036045048445,-0.5671136550508993,0.249398357149946,0.2541141973274008,-0.0790346711874008,0.0238364059478044,0.0309584643691778,0.0020541548728942,-0.0156622529029846,-0.0041475370526313,-0.1636866778135299,-0.0018800869584083,0.1128635781139135,-0.1175007000565528,0.0380926339637488,-0.1099845155462622,61
1733378364352362500,-0.7830822220474482,-1.5725328100830316,-0.0270601486220955,1.2661122608534991,9.327501040410995,2.7504642447888847,-1.0704091787338257,2.917466640472412,1.981451749801636,-0.7725815110225236,-0.5528846628682835,0.2325594603883794,0.208212288413405,-0.0576963648200035,-0.0153467906638979,0.0200443658977746,-0.0043628811836242,0.0154480636119842,-0.032200276851654,-0.1880918443202972,0.0218117740005254,-0.0110597386747598,-0.4294735789299011,0.0554027382701635,0.0779229053750634,62
1733378364392362200,-0.3468772089108825,-1.4481202484726905,-0.0148766666144132,1.6099680761165915,9.081733551195263,3.331743499292433,-0.9219669103622437,3.872314691543579,2.0480518341064453,-0.8059949924308097,-0.5396979026700776,0.1971155130521456,0.1422806876172591,0.0149461477994918,-0.0533741749823093,-0.0395543836057186,0.0019721388816833,0.0266165137290954,-0.0215526297688484,-0.2857114672660827,0.1245348677039146,-0.0041501054167747,-0.656855583190918,0.1335082702031359,0.544356175775826,63
1733378364432362500,0.5630567845925688,-0.8928560174524783,-0.1121732577621936,1.714277907027304,8.836966763454676,3.89097137324661,-0.8684281706809998,3.447761297225952,1.565715789794922,-0.8324802214916497,-0.5279077890460242,0.1514233566721829,0.073219412300407,0.0706131383776664,-0.0448478497564792,-0.0396053157746791,-0.0052996277809143,0.0044605433940887,0.003781072795391,-0.3601796627044678,0.2030176669359207,-0.1364899528950452,-0.9308534860610962,0.2087711991213262,0.4618512033075094,64
1733378364472362500,0.3133914111554622,-0.9516635957300662,-0.2819692679315805,1.7568446907304227,8.557742994838952,4.455212399187684,-1.3823163509368896,1.6393440961837769,1.0799925327301023,-0.8522021816898522,-0.5076547655408322,0.1230204156903727,0.0300679040142982,0.02875916659832,-0.0519919395446777,-0.0766247883439064,-0.0164602994918823,-0.0052400529384613,0.0070275589823722,-0.3450767397880554,0.2880297303199768,-0.1358089848935604,-0.970625936985016,0.212205995875597,0.5594112676970661,65
1733378364512362500,-0.121450058542937,0.0086631989270448,1.0610907696545124,1.823876930387318,8.23038326408565,5.010455002897977,-1.3156863451004028,1.216301679611206,0.9128056168556212,-0.8691617895293188,-0.4822386116095817,0.1094706388492744,0.0044705064761158,-0.0250896848738193,-0.0153860980644822,-0.0894269347190857,-0.0111584663391113,-0.0231561362743377,0.023543894290924,-0.2471320927143097,0.253361701965332,-0.1199374620229005,-0.8224154710769653,0.1216090484969317,-0.0196577634111046,66
1733378364552362500,0.4884764676436781,0.0377092606693506,1.0808896951019764,1.8482642065383488,7.880215489196777,5.536833331173658,-1.435391902923584,1.5961209535598757,0.9344468116760254,-0.8841628333150916,-0.4569353414434656,0.0943936713691386,-0.0235829257834111,-0.024726964533329,0.0401052832603454,-0.0185927078127861,0.006492793560028,-0.0307713747024536,0.0176972076296806,-0.0907724648714065,0.274018794298172,0.1672942564815282,-0.676766574382782,-0.2195097430177033,-0.1351578275084495,67
1733378364592362500,-0.0189487383589148,0.4760276126980781,1.4498311440438032,1.757438564970344,7.462396319839358,6.115097914031147,-1.500701665878296,1.4813296794891355,0.7739721536636353,-0.8996186041801789,-0.4271293237106279,0.0760086452955138,-0.0496937003061064,0.0163304582238197,0.0573497861623764,0.0494972653687,0.0142038464546203,-0.018643170595169,-0.0065991878509521,-0.040043257176876,0.2308084517717361,0.1268494333684444,-0.5339634418487549,-0.2681018514249473,-0.0255021055251359,68
1733378364632362200,0.4179467412598431,0.1675795031636953,1.715479391771555,1.5204586317136883,7.067099363413453,6.626816433313489,-1.270602107048035,1.7473832368850708,0.5365593433380127,-0.9123980544877626,-0.3991716388763308,0.0528051548818509,-0.0735084753965881,0.1067913845181465,0.0061225490644574,0.0212817378342151,0.0034988522529602,0.0168733894824981,-0.0223148986697196,-0.0329565107822418,0.1196669861674308,-0.0052209495186805,-0.3118709325790405,-0.2920261131741106,0.038797640427947,69
1733378364672362500,-0.6072875559851527,0.0910603271067142,1.260589259648323,1.3352744982764124,6.742140848582983,6.995066977381706,-0.8693300485610962,0.7869267463684082,0.6002386212348938,-0.920909205088988,-0.3768990189524348,0.0360273804385441,-0.092603339624292,0.0768867507576942,0.0052913231775164,0.0219860766083002,-0.0070134997367858,-0.0095625221729278,0.0059680938720703,-0.0615901611745357,0.03864386677742,0.0054383916616439,-0.1397610902786255,-0.2824862044777721,0.1065264840468764,70
1733378364712362500,0.4507360811837017,-0.2031160959690809,1.2744757461816072,1.2464534745290874,6.491186896640062,7.24439245133996,-0.7532104849815369,0.9415494799613952,0.3586519956588745,-0.9262874655869082,-0.3604186760053288,0.0271505382833533,-0.1065489720540418,-0.0306146815419197,0.0222587492316961,0.0349205806851387,-0.0151798129081726,-0.0336759686470031,0.0280953645706176,-0.0872798562049865,-0.0123850740492343,-0.0546703323423862,-0.0056618005037307,-0.1731267620272934,0.0818067610710859,71
1733378364752362500,-0.93727522408925,-0.3977215532243252,0.8964572568148375,1.0424705325976014,6.256781928437948,7.479058700826764,-0.7144182324409485,1.0829148292541504,0.5810381770133972,-0.9308461927991843,-0.3442811230538261,0.0120268646381873,-0.1218656487283452,-0.1789945662021637,0.0553286597132682,0.0625974833965301,-0.0107699632644653,-0.0404754877090454,0.0315876603126525,-0.0775362774729728,-0.0895288586616516,-0.0619786095291376,0.0525115765631198,-0.2366140225537121,-0.0253574363574385,72
1733378364792362500,0.9772394240785388,-0.1326987439185381,2.090471811315417,0.8047947990965097,6.084235158255696,7.648841266992687,-0.2325754165649414,1.4398020505905151,0.3943252265453338,-0.9328853114097064,-0.3316362040445617,-0.0059202644214535,-0.1403828729909891,-0.2090789675712585,0.0566831417381763,0.0936501398682594,-0.0130184292793273,-0.0049780011177062,-0.0033593103289604,-0.0681326314806938,-0.0926011577248573,-0.0876753608435392,-0.0043469332158565,-0.1131525511231273,-0.1160378242358565,73
1733378364832362500,0.6032406917471438,0.2547171038687229,1.3376906195074318,0.4873180548561737,6.0733075215280055,7.684259786376357,0.1204609721899032,0.9308685660362244,0.1953999251127243,-0.9318326596273186,-0.3278258317730599,-0.0272399311150635,-0.1532196654277335,-0.1525174230337143,0.0543045103549957,0.0904600769281387,-0.0234250426292419,0.0250547230243682,-0.0168824195861816,-0.0677909776568412,-0.1015395373106002,0.0019259996265172,-0.057317666709423,-0.0373767407793551,0.0198716984227299,74
1733378364872362500,-0.4575792616093531,0.9326952758878468,-0.1281289517849683,0.3251499822819605,6.114487088656425,7.660137737032771,0.1490066051483154,0.5043127536773682,0.2528445720672607,-0.92997148603162,-0.3285341258923758,-0.0388201543581019,-0.1603476411211886,-0.085068330168724,0.0264345854520797,0.0264834240078926,-0.0157580971717834,0.0500845313072204,-0.0312738940119743,-0.0927698761224746,-0.0361977219581604,0.0135796125411987,-0.1888348758220672,0.0262324656262993,-0.2607955469995737,75
1733378364912362500,-0.1270400605697184,0.1492652633160352,-0.2740817295521497,0.2132313203353434,6.16828414529562,7.620838576823472,0.1045148223638534,0.7638976573944092,0.3979289531707763,-0.9268626464071488,-0.3301545039831606,-0.0494303573085529,-0.1716981675434318,-0.0761075913906097,0.0358551442623138,-0.0193779412657022,-0.0175766348838806,0.0380396246910095,-0.0064876675605773,-0.1448037773370742,0.0341130867600441,-0.0211076699584722,-0.3162213861942291,0.1280842358604073,-0.1361830789029598,76
1733378364952362500,0.0740913095892406,0.2586848384559154,-0.5410130028277635,0.0830281104264315,6.139519823104143,7.646554032838345,-0.2364902794361114,0.4975344538688659,0.2617615163326263,-0.9254351376818076,-0.3264104929825283,-0.0599201634966643,-0.1828540485184094,-0.019855510443449,0.0557290874421596,-0.0056241792626678,-0.0211402177810668,0.0357968807220459,-0.0056731104850769,-0.2443164587020874,0.0063780341297388,0.0133417121320962,-0.2118728458881378,0.1798365618642419,0.2675523277834057,77
1733378364992362500,-0.4227052974311635,1.327460901916027,0.1078974801391363,0.0780898503066506,6.06134469653368,7.70872202745974,-0.1663396805524826,-0.1359665691852569,0.2465215772390365,-0.9259932760882345,-0.3212887582260177,-0.0611400368023585,-0.1886052216125298,0.0827419757843017,0.0247288830578327,-0.0487107299268245,-0.0121483206748962,0.0433147847652435,-0.0174824595451354,-0.2917289435863495,-0.0199837069958448,-0.0058364510685205,-0.1259879916906356,0.1901781423322856,-0.0211687524959445,78
1733378365032362500,-0.6706969289697706,0.6092629477113485,0.123433487445116,0.2430325478265061,6.066070556011796,7.701565725964308,0.144031822681427,-0.3230546116828918,0.4616644382476806,-0.9249565456271608,-0.3231442145287546,-0.0539189078407937,-0.1926813339370601,0.0654114559292793,0.0249590333551168,-0.069498099386692,0.0023503899574279,0.0108210444450378,0.0009796693921089,-0.2499434053897857,-0.0211880505084991,0.1615706181377172,-0.0427222847938537,0.1163760432142764,-0.2571267953589558,79
1733378365072362500,0.2220227852845564,-0.0363233592689037,-0.1157517007708549,0.420072245513834,6.111459849789738,7.657935843074322,0.2345280051231384,-0.3297455310821533,0.3533720970153808,-0.9225692267914134,-0.3276077630319169,-0.0471920683624713,-0.1982726925005434,0.0282124169170856,0.0432362556457519,-0.0505722127854824,0.0010867714881896,-0.0137354433536529,0.001501552760601,-0.1458005309104919,0.0490892902016639,0.1134568678319454,0.0160626918077468,-0.0144834295131266,-0.5086649769306183,80
1733378365112362500,-0.409098760350421,0.1862479632765054,0.1871060414105653,0.6488182746388018,6.215548000773787,7.557537778779864,0.5033245086669922,-0.5536701083183289,0.3908022046089172,-0.919128139314728,-0.3365263595702507,-0.037720148833314,-0.2013220449180604,-0.0123832114040851,0.0518249496817588,0.007888900116086,-0.0035234093666076,-0.0245739519596099,-0.0027864575386047,0.0682664960622787,0.0649698823690414,0.1321130529850721,0.0670400187373161,0.000555222729966,-0.7593810284644364,81
1733378365152362500,-0.4197100246053188,-0.2809177130520343,-0.0894990691393613,0.9480804034810512,6.388226872903108,7.379843124315142,0.752461850643158,-0.5857866406440735,0.6116105914115906,-0.9130364796915148,-0.3507660695691242,-0.0263795906299333,-0.2064742965066969,0.0111418217420578,0.0347625538706779,0.0340137742459774,-0.0010421276092529,0.00868821144104,-0.015331745147705,0.3315814137458801,0.1382204294204712,0.0642190819323062,0.1708705425262451,-0.1337395582083612,-0.8378875789463519,82
1733378365192362500,0.1161447186764329,2.3347201281398533,-0.188895262914896,1.221914661078155,6.573206423678994,7.174277881628274,0.5058959722518921,-0.2645242810249328,0.4204317033290863,-0.905810936012277,-0.3659477104582265,-0.0172013605062399,-0.2128213646760266,0.0815352946519851,0.0210363585501909,0.005831541493535,0.0037758946418762,0.0324717760086059,-0.0137264132499694,0.5243167877197266,0.0927655845880508,0.0074281041741371,0.2441412806510925,-0.0907169204965233,-0.4094906092122197,83
1733378365232362500,-0.7394293966732919,1.0049094482272862,-1.3882798200160265,1.4520036657772957,6.514828468990325,7.184641454732418,-0.7951515913009644,-0.2803869545459747,0.6217771768569946,-0.9045295469245797,-0.3655661077763809,-0.0068294640918919,-0.2194104773038697,0.1783614307641983,0.016664670780301,-0.0212508756667375,0.0017943978309631,0.0223127007484436,-0.0060442015528678,0.5231337547302246,0.0756401866674423,-0.1320902566313743,0.3370004296302795,0.0503948469802737,0.075368544717133,84
1733378365272362500,-1.820075346147269,0.6853881560146808,-0.8958382481336593,1.7287962617233394,6.070001465719938,7.505780119013786,-1.65326988697052,-0.1480188518762588,1.319538712501526,-0.9099631359183736,-0.342392345403138,0.0088990964291641,-0.2337851005596506,0.1467004418373108,0.0103844059631228,-0.0148538965731859,-0.0044310092926025,-0.012085348367691,0.0033947825431823,0.3713956773281097,0.0114156752824783,-0.2056231103539466,0.3451188802719116,0.0970151438578963,0.1446361422106623,85
1733378365312362500,-1.961499394443631,0.071364277511835,-1.47068746958971,2.219025710514188,5.381130728286505,7.892385234940051,-1.8521672487258911,-0.3163906931877136,2.2835001945495605,-0.9120902874723864,-0.3105949619152228,0.0336319877547451,-0.2655014566851401,0.1072577014565467,0.0159855652600526,0.005804709624499,-0.0076721906661987,-0.0230008661746978,0.0093426182866096,0.2243500500917434,-0.0094788633286952,-0.1963344730049371,0.2234058082103729,0.0512608892250806,0.0975368296444416,86
1733378365352362500,-0.9962576474770904,-0.0362453255966305,-1.137724512001872,2.823632064591348,4.551260743840039,8.214834981819987,-1.7064481973648071,-0.3833694458007812,2.4204554557800293,-0.9088168028280932,-0.2772720504058898,0.0654230841427798,-0.3047821259017432,0.0938367024064064,0.009359355084598,0.0075833690352737,0.0014755725860595,-0.00980806350708,0.0030747652053833,0.0953281223773956,0.0072780158370733,-0.1887929715842008,0.1190332546830177,-0.0124475397713482,0.2051268512696027,87
1733378365392362200,-0.6824930190950632,-0.5468818948611617,-0.9347732512056828,3.312074922226369,3.779203773675859,8.421292204910516,-1.295373558998108,-0.2422823309898376,2.319602727890014,-0.9007562486199036,-0.2491723127343093,0.0924485804220539,-0.3435180259880038,0.065540887415409,-0.0153406644240021,-0.0298030842095613,0.0003532767295837,-0.0008842051029205,-0.0054821446537971,0.0186157971620559,0.0054297912865877,-0.1386661278903484,0.0920458734035492,0.0593459960032254,0.2829837056711315,88
1733378365432362500,0.0555851090997457,-0.3184741212472319,-1.0636878004103898,3.692387952271104,3.0327506158456203,8.563823776057362,-1.2961214780807495,-0.194860965013504,2.09473204612732,-0.8904645566686686,-0.2232000418145471,0.1163968849158651,-0.3790863815008395,0.0238813199102878,-0.0326132364571094,-0.0549683608114719,-0.0011214017868041,-0.0107339620590209,0.005734384059906,-0.0149184614419937,0.0370797365903854,-0.0446311688870191,0.0140154808759689,0.0418629462826997,0.3171308899447321,89
1733378365472362500,-0.423619380068779,-1.011906613638252,-0.2311895132869482,4.0342248289272185,2.100520180990547,8.688108327373861,-0.9563321471214294,-0.0252261441200971,2.421947717666626,-0.8737055842450662,-0.1916733353658619,0.1424467433092148,-0.4238028834436806,0.038177166134119,-0.0233361683785915,-0.0493481568992137,-0.0005648136138916,-0.0062089562416076,0.0070096179842948,-0.1237244382500648,0.07193423807621,-0.0192640879184007,-0.0659094601869583,0.0894145326610654,0.5140612830162048,90
1733378365512362500,1.8582877340331672,-0.8350010637246071,0.4329109400272369,4.132004527416825,1.4772458051919937,8.770100966405868,-0.6326994895935059,0.2874683737754822,1.696263074874878,-0.8579878231832208,-0.1704021711944463,0.1543126539143339,-0.4593557928091429,0.0832218751311302,-0.0216932613402605,-0.0563624575734138,0.001362919807434,-0.0011619627475738,0.0033208802342414,-0.0811829268932342,0.0556534528732299,-0.032029461467266,-0.1471320986747741,0.0647626872897148,0.1905190647244453,91
1733378365552362500,-0.530484010028839,-1.2828522371217608,-0.2221457906097173,4.082431810474396,0.9742996442995964,8.863118857321142,-0.7615431547164917,0.3909283876419067,1.6261918544769287,-0.8465226772014437,-0.1502445480965051,0.1597913289980389,-0.4850698768441425,0.0717830657958984,0.0044252099469304,-0.0298570804297924,-0.0058569908142089,-0.0184650421142578,0.0102832317352294,-0.0801729038357734,0.1161448806524276,0.0722919137507677,-0.2135696113109588,0.0574941575914621,0.340658188265562,92
1733378365592362500,1.3647159890770912,-0.5136193479349836,0.7782850508987903,3.981536318051815,0.5140682242136448,8.947261367863415,-0.3155015110969543,0.398341029882431,1.2682247161865234,-0.8343117471158799,-0.1311462360308584,0.1631480682651371,-0.5100070181801225,0.0811584591865539,-0.0012674566823989,-0.0043345438316464,-0.0093666911125183,-0.0152963399887084,0.0012759566307067,-0.1346671432256698,0.1487648785114288,0.0777478410691022,-0.2686167955398559,0.142170190488547,0.3107113782912492,93
1733378365632362200,-0.71323419431746,-2.092259717645496,1.3047872978150843,3.819860485973954,0.3055866922212764,9.026941053777932,0.2071721702814102,0.5881494879722595,1.545848369598389,-0.8228001552305665,-0.1212938416315868,0.158246313078934,-0.5322083338224819,0.2539419531822204,0.063974343240261,-0.1221479922533035,0.0389677882194519,0.0542671978473663,-0.0206687450408935,-0.2051822245121002,0.2494355887174606,0.2599567580878734,-0.413977712392807,0.0518837703637778,0.3294955737382173,94
1733378365672362500,-0.8537994338274002,-1.5178344206899403,0.4595727369815111,3.558798396992683,0.1857605633520521,9.13623729479909,0.5205209851264954,0.8050428628921509,1.936044692993164,-0.8043728311477061,-0.1139642414533901,0.1455805133323947,-0.5646263022607846,0.1808781176805496,-0.0001691157813183,-0.5182860493659973,0.0911377668380737,0.0859973728656768,-0.0741565823554992,-0.2380457818508148,0.3055400252342224,-0.0216436765313148,-0.5258871912956238,0.2052729086767881,0.4039543101340532,95
1733378365712362500,0.8341527763321995,-0.2844798442467116,-0.3161754889160394,3.367970120188594,0.1272106861625798,9.20928791796267,0.5532656908035278,0.2022266685962677,1.3987526893615725,-0.783990460863261,-0.110757334798486,0.1348696288455465,-0.5957364501452667,-0.0563900843262672,-0.1265290677547454,-1.390102744102478,0.2692974805831909,0.2000974714756012,-0.0302257537841796,-0.3295845091342926,0.4020092487335205,0.1640448992967605,-0.7239833474159241,0.0143099726423621,0.5063467631161213,96
1733378365752362500,0.2569882636711001,0.1272233447147533,-0.122877607128024,3.2756565781503912,0.2395385134319774,9.240296804210542,0.7482956051826477,0.451450765132904,0.5894619226455688,-0.7720310291120291,-0.1150367718378823,0.1250700935901608,-0.6124477071160657,-0.0850062817335128,-0.2073537856340408,-2.4259748458862305,0.2886776328086853,0.2381720542907714,0.0295490622520446,-0.4724615812301636,0.3799255788326263,-0.0022486557096242,-0.6727724671363831,0.0416581444256007,0.7089779981777071,97
1733378365792362500,-0.3764312201753259,0.1816398849591612,-1.3116449086248874,3.1768986822783947,0.4573125734971835,9.266528977575897,0.5376979112625122,0.1773080825805664,0.2855650782585144,-0.7662132962303156,-0.1217721465584642,0.1127388236902987,-0.6207886794150926,0.0667313188314437,-0.3889231383800506,-2.875555992126465,0.2480804324150085,0.153314471244812,0.0024046897888183,-0.5407596230506897,0.259526789188385,-0.0713408966362476,-0.4868826568126678,-0.0973418915942311,0.1817009674966335,98
1733378365832362500,-0.7339370828673243,0.0814499835226684,-0.939466961979866,3.072024641613662,0.4665229945108294,9.301365897679329,-0.1372225284576416,0.6079610586166382,0.6861789226531982,-0.7609734616598137,-0.1196426159821397,0.1069951849536308,-0.6286152363856089,0.0205225385725498,-0.2073893547058105,-2.330188751220703,-0.0413161516189575,-0.0630674958229065,0.0323492288589477,-0.5654293298721313,0.1892476826906204,-0.1252618719160556,-0.4619612395763397,-0.0507433681569993,-0.28603578671813,99
1733378365872362500,-0.1108715275138616,0.0778285598888061,0.8687316300213337,2.761851315721869,0.3041962973088026,9.404787693709135,-0.1248739436268806,1.0080972909927368,0.8029820919036865,-0.7527199867690157,-0.1042980600585806,0.0980367290580394,-0.642591204086769,0.2672478854656219,0.0383855737745761,-1.477242112159729,-0.2565298080444336,-0.2510977387428283,0.0258919596672058,-0.4235012233257293,0.053327202796936,-0.3268985429823398,-0.5534143447875977,0.0356032283008098,-0.9227887989014386,100
1733378365912362500,0.7771662760019302,-0.1764136382108554,1.1254296785742044,2.562445472447574,0.2208560613264329,9.46337607627809,-0.0745891034603118,-0.0802975296974182,0.2684769928455353,-0.7466461353243455,-0.0952487375663619,0.0918138989370773,-0.6519337150815637,0.3235937356948852,0.013865103945136,-0.7501378655433655,-0.2028447985649109,-0.3281270265579223,0.0256697535514831,-0.0855903029441833,-0.0662268698215484,-0.0313975933045148,-0.5056312084197998,-0.001469488030672,-0.9516951599121092,101
1733378365952362500,0.1758431813791394,-0.3944656201682984,1.882085665988922,2.6716107805654405,0.1900606899650767,9.433809205532071,0.1184286177158355,-0.3015069663524627,0.2649752497673034,-0.7432865688414916,-0.0982375330249034,0.0967417882854956,-0.654611013613402,0.1378899067640304,-0.027292400598526,-0.0406824983656406,-0.1811279058456421,-0.3326888084411621,0.0725038647651672,0.253374308347702,-0.1436264216899871,0.0981453169316053,-0.225143700838089,-0.0799418439820408,-0.4984218153357505,102
1733378365992362500,0.4711857256248593,0.2615891815952956,1.098012679338455,2.773556074301898,0.25495973525187,9.402806164503096,0.3259712755680084,-0.2617989778518677,0.1445637494325637,-0.7391936233143809,-0.1048205404312408,0.0979946575845958,-0.6580291995607884,0.2113105952739715,0.0042476304806768,0.4648989140987396,-0.0865331888198852,-0.2359048724174499,0.0643507093191146,0.4329968690872192,-0.0913161784410476,0.1743716475218534,-0.1166490539908409,-0.149291859062016,-0.2490343820571899,103
1733378366032362500,0.4716013206884265,0.4035475924966856,0.319018603387475,2.8570868826866147,0.3817504059040918,9.373457320421933,0.303370863199234,-0.1666502207517624,0.0119535056874156,-0.7372569168441628,-0.1128487813607848,0.0967048503432899,-0.6590640498498257,0.4061136245727539,0.0487795695662498,0.5856642127037048,0.0297866463661193,-0.0879682302474975,0.0630014985799789,0.4109705090522766,-0.1000301539897918,0.0410071331709623,-0.0318885073065757,-0.0617111907646059,0.1940343793690204,104
1733378366072362500,0.489860615478456,0.2211373442195355,0.4566021967381238,2.877284452062845,0.4619582804111763,9.363664240682125,0.2094115763902664,0.0369024015963077,0.0625181794166565,-0.7361566158930488,-0.1167866137547806,0.0945878541906759,-0.6599147602277097,-0.0742519050836563,0.0805064514279365,0.5914908647537231,0.0773460268974304,-0.1052148938179016,0.0663205981254577,0.2667447924613952,-0.0726059824228286,0.0211661221474409,0.0770351812243461,-0.2026435100212693,0.4194552461266517,105
1733378366112362500,0.5297793688908219,0.2402916881531477,0.2701473127126693,2.8494863445550203,0.5625139829527587,9.366664007019995,0.3605725169181824,0.1399701386690139,0.0285355206578969,-0.7348592115482494,-0.119866187393982,0.0898062003231687,-0.6614748140859255,-0.3540497422218323,0.1491109132766723,0.624930202960968,0.0623582601547241,-0.1083462238311767,0.0014966577291488,0.1030701398849487,-0.109751395881176,-0.1099485674500465,0.1680006980895996,-0.1566030588582158,0.2527987030267715,106
1733378366152362500,0.2066512843579053,0.2264401268027722,-0.1995084268659353,2.805404041722417,0.6947289619423449,9.37109643650949,0.3512730598449707,0.083326444029808,-0.0328480713069438,-0.7342107379779056,-0.1234910075804556,0.0834088444670326,-0.6623650648976036,0.2793352007865906,0.1897683292627334,0.5803003907203674,0.0506706237792968,0.0435892939567565,-0.0335258990526199,-0.1217827498912811,-0.0837403908371925,0.10488777692914,0.3928979039192199,-0.2862701799958944,0.4577776702582836,107
1733378366192362500,-0.0385401585355401,0.1064554646372795,-0.1108516537696123,2.7728680920377373,0.8461374478321522,9.368331647971273,0.3897867202758789,0.1472321152687072,-0.0599274300038814,-0.7343371633557286,-0.1281522734975171,0.0769741004484614,-0.6621184773879787,0.2492768913507461,0.2258520275354385,0.6619328856468201,-0.0066489577293396,-0.05381840467453,-0.0208492428064346,-0.5721979141235352,-0.0580810494720935,0.3838508487820625,0.9730119109153748,-0.1175546585395932,0.6366641648560762,108
1733378366232362500,-0.4895797527104616,0.1655113185875117,-0.7429992179840803,2.668901813867688,0.9419565868385136,9.389359238430858,0.1175820007920265,0.3231407701969147,0.0690615028142929,-0.733923505660992,-0.1282472349058536,0.069487864809299,-0.6633854685069969,-0.1813173741102218,0.1865821778774261,0.8081116676330566,-0.0283628702163696,-0.1274690628051757,-0.0132419914007186,-0.9170054793357848,-0.1639987081289291,0.278376211875677,1.5806167125701904,-0.0152589439302682,0.3823547650054097,109
1733378366272362500,-0.2307750872671604,0.3156717041123658,-0.0889782601356506,2.605523858934641,0.977945453456044,9.40347018136978,0.1470647901296615,0.0361851193010807,-0.030894286930561,-0.7335762843551703,-0.1274472152510141,0.0656784266385838,-0.664311194875412,0.2268309593200683,0.1232312694191932,0.9418477416038512,-0.0010197162628173,-0.0075304508209228,-0.0107845216989517,-0.9947494268417358,-0.1276468336582183,0.23139117333889,1.97113049030304,0.1347494659032672,-0.4964136903837323,110
1733378366312362500,-0.2259855149030685,0.238741609166935,-0.0943687210023403,2.609263629984856,1.0325794723760335,9.39659035872817,0.1169828996062278,-0.0477781184017658,-0.0107787922024726,-0.7334612348605422,-0.1296845064257785,0.0639465618043011,-0.6641741871923749,0.1053902953863143,0.1014750599861145,1.0314412117004397,-0.0101858377456665,-0.0254923105239868,0.0087923556566238,-0.7694870829582214,-0.1259133070707321,-0.0228992295503616,2.0268313884735107,0.0107589290972799,-1.0696434939444064,111
1733378366352362500,-0.0352118908956646,0.1314355190496891,0.1653986519932747,2.615413092525303,1.087662038781121,9.38866307286024,0.1618584394454956,0.0152193028479814,-0.0038303916808217,-0.7332045793739683,-0.1320381802389511,0.0622682588511574,-0.6641532764196073,-0.2157312780618667,0.1984094828367233,1.1215112209320068,-0.013471782207489,-0.0295679569244384,0.0125868916511535,-0.3709775507450104,-0.0697425678372383,-0.2618845112800598,1.7628059387207031,-0.1572670757248997,-1.0836512687698006,112
1733378366392362200,0.1642985817968845,0.1830593963682651,0.0070423197269439,2.606989839833975,1.13120760438852,9.385859705877303,0.046977873891592,0.0207280423492193,-0.0325623154640197,-0.7327370246687281,-0.1334574277661862,0.0603610931820089,-0.6645615609255154,0.257971853017807,0.2664063274860382,1.1376458406448364,0.0078592300415039,0.0706480145454406,0.0019060373306274,-0.0129232704639434,-0.0630509257316589,-0.5161076941519975,1.3717458248138428,-0.0617897358935326,-0.9121421710722148,113
1733378366432362500,0.3530430380642413,0.2126857422165572,-0.0617851327836513,2.597511232870817,1.1418339200820773,9.387200599092244,-0.0290718339383602,0.0148839671164751,-0.141379103064537,-0.7336569168686125,-0.1334498353673247,0.0598089466580991,-0.6635974843643957,0.2723715603351593,0.3125873506069183,1.1451094150543213,-0.0017355680465698,0.0380155146121978,0.0126519203186035,0.2913828194141388,0.0169870033860206,-0.3338029155433177,0.9624863266944884,-0.1895177787274122,-0.5694546689361334,114
1733378366472362500,0.3266401843070983,-0.096195059646666,0.2633896551460027,2.5736358517646787,1.156527119888365,9.391976727452874,0.0703259110450744,0.0382919609546661,-0.1576985567808151,-0.7360279069640613,-0.1329677262272467,0.0588390434142511,-0.6611508556176153,-0.3897592723369598,0.1878855377435684,1.0048534870147705,0.0117193460464477,-0.0089476704597473,0.0171302706003189,0.3682035505771637,0.0019967295229434,-0.2909896097332239,0.7420525550842285,-0.0870344325914978,-0.2266593225114047,115
1733378366512362500,0.2554547704935073,0.0914032222602516,-0.3542097437560558,2.564016959547996,1.2102942928459497,9.387831882733106,0.0774198248982429,-0.041742768138647,-0.2044082134962082,-0.7378921600385018,-0.1345449695168665,0.0570212624556887,-0.6589093566781282,-0.8057599663734436,-0.1138897687196731,0.7952473163604736,0.0436704158782959,0.0715731978416442,-0.0640547201037406,0.3606545031070709,0.0041188234463334,-0.1057592990666627,0.587206244468689,-0.102045539240539,-0.0137972008146345,116
1733378366552362500,0.3717313719213008,0.2986743190169334,-0.2931213610649109,2.5488953782618045,1.291973408949375,9.381061950206757,0.2474799156188964,0.0410357192158699,-0.4017789661884308,-0.741489737897226,-0.1368833381104253,0.0544234290242652,-0.6545944772820473,-1.0209795236587524,-0.2414215803146362,0.5609832406044006,0.0455808043479919,0.098588615655899,-0.0689624026417732,0.3033298254013061,-0.0128896804526448,-0.0868242969721555,0.4977438747882843,-0.142453318278864,-0.0702012981470674,117
1733378366592362500,0.0047159226059913,0.216232474912703,-0.050633039650321,2.473282795655728,1.4951727992877364,9.371110465034842,0.6038655042648315,0.2628976702690124,-0.4007613360881805,-0.7458630508095495,-0.1418773542364404,0.0455756758640328,-0.6492164795989889,-0.6892687678337097,-0.1518213748931884,0.4034632742404938,0.0126613974571228,0.1009310781955719,-0.0058290958404541,0.1477680206298828,-0.0018943939357995,0.0313724588632583,0.5388851165771484,-0.0702550741609185,0.0810231364127248,118
1733378366632362200,-0.0365440162822604,0.1462389012321829,-0.6127712480932473,2.3105866806194184,1.7778014079108833,9.36327904075682,0.678421139717102,0.4385425448417663,-0.231617659330368,-0.7482741713542306,-0.1472731188880116,0.0302696234443168,-0.646127126869917,-0.3891952037811279,-0.0504177436232566,0.2798126935958862,-0.0001007318496704,0.0881541073322296,0.0121077895164489,0.1276051551103592,-0.0881029665470123,-0.1001531496226787,0.4434523582458496,-0.1220567191991955,-0.3933757791049778,119
1733378366672362500,0.2968913811229169,0.3840063316047191,-0.9707406366437672,2.2132794219471514,1.9726362900078296,9.347752970322968,0.1720007210969925,0.0806545317173004,-0.3618581593036651,-0.750485167337004,-0.1515810870075671,0.0205040158707119,-0.6429422620458096,-0.2705167531967163,-0.0244032945483922,0.1505561619997024,0.0080775022506713,0.0708407759666442,0.0184011533856391,0.1757720708847046,-0.059792548418045,-0.0859223796963691,0.3707968294620514,-0.145809862165153,0.0078082260655239,120
1733378366712362500,0.3570248011767864,0.218882697160542,0.3893056070566177,2.042264391376824,2.015954914991557,9.377391152739524,0.0742658525705337,0.8241274356842041,-0.4101165235042572,-0.7554801603474134,-0.1473354830265064,0.0133551561365231,-0.6382505467563213,-0.2247892171144485,-0.0270173475146293,0.0334241539239883,-0.012072741985321,0.0720980167388916,-0.0026582404971122,0.2122020423412323,-0.0254942551255226,-0.2131032369762659,0.2843669354915619,-0.00699592330195,0.097729667069111,121
1733378366752362500,0.0587299829967319,-0.082009882427752,0.4032008614182472,1.6294814626209435,2.17738524787575,9.422004201447963,0.4568741023540497,0.5983619093894958,-0.3483850359916687,-0.7597454165054707,-0.1398389934828462,-0.0075181307918656,-0.6349609603932599,-0.1520489752292633,-0.0398812666535377,-0.0440207682549953,-0.015185534954071,0.0697081983089447,-0.0108986571431159,0.1713505536317825,-0.0228364039212465,-0.1903641664236784,0.1660766899585724,0.0508271739829331,0.2037774642209522,122
1733378366792362500,0.2712890300936997,-0.0488549240618944,0.4395218825995922,1.571797189284861,2.322149254249781,9.397204691234233,0.2727647721767425,0.0095103802159428,-0.5210371017456055,-0.7641042643615943,-0.143854424031298,-0.0134831066779159,-0.6287040183435154,-0.0060659274458885,-0.0193702951073646,-0.0582574270665645,-0.0209729671478271,0.0373327136039733,0.0035772249102592,0.0830269604921341,0.0057682879269123,-0.1615700336158275,0.0157951861619949,0.0373634429063648,0.2987767930107191,123
1733378366832362500,-0.5448584262095392,-0.4492451119735837,0.1414057819873094,1.4097637759409845,2.438826691563427,9.393352691981196,0.1357498168945312,0.4055875241756439,-0.3791928887367248,-0.7692957511210812,-0.1434015477726209,-0.0225453802906833,-0.6221830777565378,0.0377012602984905,-0.007708738092333,-0.0803647339344024,-0.0142773985862731,0.0165172219276428,-4.2147934436798096e-05,-0.0189844667911529,-0.0011008717119693,-0.0696153880178928,-0.0469179898500442,0.0823001340785995,0.4801458616718649,124
1733378366872362500,-0.5222862366564571,-0.3715536772668361,0.4795487725615501,1.2775073689624667,2.4766554869592188,9.40236894212961,0.1226179301738739,0.1438543051481247,-0.2274710088968277,-0.7724897241736718,-0.1407379233015424,-0.0283804079786597,-0.6185846471771167,0.0630644112825393,-0.0072157331742346,-0.1008173450827598,-0.0011506080627441,0.0023076236248016,-0.0042342543601989,-0.0601557046175003,0.0486135818064212,-0.1173532907485961,-0.117428071796894,-0.0376967665139585,0.1733411902292631,125
1733378366912362500,-0.2693045782782137,-0.5844938326358795,0.6409861197084188,1.2549673281133171,2.6587700036928057,9.355553414940834,0.7327437996864319,-0.1560511142015457,-0.2051637768745422,-0.7738360869946344,-0.1476452944398771,-0.0346465051451245,-0.6149619787784831,0.0496750995516777,0.0041789207607507,-0.1260240226984024,-0.0084050297737121,-0.0156435966491699,-0.008197546005249,-0.1200932264328002,0.1229761689901351,0.0526338580787181,-0.2188335359096527,-0.0552701248664408,0.2448865781953558,126
1733378366952362500,-0.3156104023791849,-0.326404037463665,-1.0020838694125414,1.3054631512500343,2.8460020095705985,9.293353856137394,0.1329510509967804,-0.0168745182454586,-0.0672034472227096,-0.7739654520117059,-0.157169122064561,-0.0383235666008432,-0.6122144791032479,0.0449200235307216,0.0136445946991443,-0.0967688038945198,0.0056267976760864,-0.0357210934162139,-0.0035723447799682,-0.1845100969076156,0.1247857436537742,-0.0042056349962949,-0.2896385788917541,0.0051638125039637,0.0629467604415491,127
1733378366992362500,-0.2906754292175174,-0.1668736929818987,-0.3782242410719394,1.2259104527160525,2.7783488615363834,9.324607657057046,-0.4177559912204742,0.3719249069690704,-0.0375868156552314,-0.7750431979432046,-0.1517822247820278,-0.0392362935361458,-0.6121524627406536,0.0340471379458904,0.0090626254677772,-0.0468135587871074,0.013325810432434,-0.0354808270931243,-0.0200154185295104,-0.240669384598732,0.1651701927185058,0.0114671504318714,-0.5077903866767883,0.005598185333237,0.0168216632023453,128
1733378367032362500,-0.4190061871849,-0.0871060365229845,0.1174783784329891,1.0845941756431012,2.6459090608149767,9.380469245010614,-0.2097800970077514,0.3006045222282409,0.0293428190052509,-0.7757816955882463,-0.1416623077953862,-0.040754823797627,-0.6135418990792741,-0.0093948785215616,0.0166870951652526,-0.0117659615352749,-2.0742416381835938e-05,-0.0373380482196807,-0.0117283388972282,-0.3210057616233825,0.2373313903808593,-0.1768868452131748,-0.9535366296768188,0.0422423740543425,0.2630937409393489,129
1733378367072362500,-0.1286624010745435,0.1937564392104744,-0.2806985173434019,1.013319914502278,2.579327633665502,9.406946333047747,-0.2159690111875534,0.1018421575427055,-0.0478265322744846,-0.7761532402275761,-0.13658587548836,-0.0415153227024185,-0.6141717645278431,0.0040058819577097,0.0111724343150854,0.0098519157618284,-0.0059682726860046,-0.006870687007904,-0.0156318619847297,-0.4379844665527344,0.229024589061737,-0.4194809650897979,-1.3810614347457886,0.235794011407718,0.8986870616935193,130
1733378367112362500,-0.1862144993983209,-0.2256239881142973,0.908970701429248,0.96418025521487,2.512235918906331,9.430238945829869,-0.0938891768455505,0.1691837459802627,-0.0099267251789569,-0.7770437312465389,-0.1322529780862424,-0.0412402632180104,-0.6140126452044852,0.0203933753073215,-0.0219930279999971,-0.033973928540945,-0.0100764036178588,0.0242795646190643,-0.0164950564503669,-0.4072757363319397,0.1745917350053787,-0.4328057260870933,-1.775605082511902,0.0561625436615198,0.3970924615405499,131
1733378367152362500,0.0970874053765088,-0.3441138816773891,0.5541781893491745,0.8918674448065459,2.5057784133300185,9.439069318017363,0.0784457325935363,0.1345316618680954,0.0464064851403236,-0.776514694670171,-0.1296035979324114,-0.0440942168922899,-0.6150476805626788,0.014482757076621,-0.0248751007020473,-0.1195004135370254,-0.0070996284484863,0.0170875191688537,0.0156171321868896,-0.3912608027458191,0.2398680746555328,-0.1036708023548126,-1.9347472190856927,-0.2172727046806365,0.5936582590833306,132
1733378367192362500,0.1561797919448465,-0.4524544294089078,0.5711573812007904,0.8698853301011026,2.576410577175021,9.422090710687636,0.2585652768611908,0.0640897676348686,0.0168202854692935,-0.7757500540286694,-0.1317766350464699,-0.0473496458254764,-0.6153086069115478,0.0531318821012973,0.0023833643645048,-0.1332325488328933,0.0019758343696594,0.0107017457485198,0.0323748067021369,-0.303038477897644,0.2229521423578262,-0.0342412922978401,-1.803004264831543,-0.0384142671335488,0.45697307587713,133
1733378367232362500,-0.2314411499604582,-0.2714779767945409,0.1112935523182153,0.8320864183869212,2.670168765063584,9.399373267444968,0.2645676136016845,0.1574479192495346,0.1273919194936752,-0.7740243411718751,-0.1343219097111227,-0.0521820475580217,-0.6165395977263607,0.0831755399703979,0.0379913710057735,-0.1158640682697296,-0.0043413639068603,-0.0131681263446807,0.0229459479451179,-0.3872697651386261,0.0733101963996887,0.1312555593729019,-1.147716999053955,-0.0878861540500074,0.7338663557186722,134
1733378367272362500,0.0497383558329194,-0.0079351769134402,-0.4033610204160213,0.7819474458638578,2.771592080752552,9.37428500341773,0.2668848633766174,0.1647815555334091,0.1568139493465423,-0.7711405169865893,-0.1366668892593336,-0.0580227391361781,-0.6191105247701952,0.050403207540512,0.0407397039234638,-0.0536180697381496,0.0040425062179565,-0.0275394022464752,0.0039235949516296,-0.2360005229711532,-0.0653949826955795,0.0415180053025484,-0.7986865639686584,-0.1099061896130442,-0.4408694978162646,135
1733378367312362500,0.0165993256885558,0.0531166731595993,-0.307554375565052,0.7618155621349811,2.851498853421211,9.351950422012806,0.2023257613182068,0.0882342234253883,0.1332632452249527,-0.7687323426926153,-0.1391158887776755,-0.0618869955037514,-0.6211822285500407,0.0114701893180608,0.0394454076886177,0.0206904485821723,0.0083007216453552,-0.0317263305187225,-0.0068453624844551,-0.0364795625209808,-0.0129725188016891,0.2292366256535053,-0.7105240225791931,-0.3038138007972389,-0.5875871224761009,136
1733378367352362500,0.1287332012884318,0.0799634712919592,-0.2693891878217458,0.7200113603021949,2.916080631186068,9.335333049210906,0.1768510341644287,0.2099673599004745,0.1541018486022949,-0.7661781052831809,-0.1401773863113377,-0.0661874853104326,-0.6236509753070291,0.0019866728689521,0.0332232490181922,0.0433050133287906,0.0001400113105773,-0.0047062635421752,-0.016077883541584,0.1616414040327072,-0.0580686219036579,-0.0109223760306835,-0.577440619468689,-0.0929096813004463,-0.3455512210041284,137
1733378367392362200,0.1338374656248837,0.0917626301571726,-0.4502613032788038,0.6644791504334658,2.9615926745608445,9.325117944666744,0.0910947918891906,0.1390634328126907,0.1194205284118652,-0.7637895889359798,-0.139981959984026,-0.0704014195025163,-0.6261583885057151,0.039292499423027,0.0001562692341394,0.0068051926791667,-0.0041163563728332,0.0206390917301177,-0.0151757597923278,0.1964464485645294,0.0092961676418781,0.1819879677444696,-0.5404020547866821,-0.0280886879522353,-0.1738905860066413,138
1733378367432362500,0.1920710434067994,0.033295828141272,-0.1103822826921939,0.6456003355056047,2.998661299239098,9.314591289955375,0.1276618540287017,0.0369652546942234,0.0657352730631828,-0.7622759145970153,-0.1407319011618208,-0.0726810650154879,-0.6275725630948048,0.0495043881237506,-0.0045207208022475,-0.0207399483770132,-0.0061395168304443,0.0166336596012115,0.0101001858711242,0.1785253137350082,0.0211038757115602,-0.1662619908243417,-0.5156430006027222,0.0590199789192527,0.124931032526493,139
1733378367472362500,0.0173206987656652,-0.002711597046256,-0.2126835502594709,0.6410846847120673,3.03945712774694,9.301671602627634,0.0744370818138122,0.0441723093390464,0.084819495677948,-0.7609595385486035,-0.1421327335747758,-0.0744648572411115,-0.6286445251187264,0.0637222081422805,0.0069157979451119,-0.0321244299411773,-0.0011410117149353,-0.0004269182682037,0.0134884044528007,0.1902598589658737,-0.00495520606637,-0.1459755741208791,-0.5632521510124207,-0.0843139946516603,0.1791927840679884,140
1733378367512362500,0.2660783097080886,-0.0800578715771436,0.1379758075386285,0.6054111676540226,3.055152709528804,9.29891967357099,0.0606167688965797,0.150225356221199,0.0699851438403129,-0.7596072527015644,-0.1414365583441502,-0.0766991012105766,-0.6301664352674068,0.0298358798027038,0.0106378849595785,-0.0225875824689865,-0.0019415020942687,-0.0214328169822692,0.0040579363703727,0.1686042994260788,-0.0807520300149917,-0.1966904468357563,-0.530585527420044,-0.0400981285672634,-0.0533224248647689,141
1733378367552362500,0.2230077412012964,-0.1401674723640084,-0.2043757406413555,0.5911704243229702,3.0928163774907587,9.28737770433724,0.1272124201059341,-0.0156573243439197,0.0059276227839291,-0.7588468355728637,-0.1424411428197261,-0.0786513070915295,-0.6306155469436053,-0.0607251785695552,-0.0183635130524635,-0.0061908336356282,-0.0028007626533508,-0.0275628566741943,-0.0056809857487678,0.1350357085466385,-0.1277059763669967,0.1045908398091793,-0.4437580108642578,-0.1549422129739076,0.0151806179970502,142
1733378367592362500,-0.3027337870081886,-0.3396694694891571,-0.5597714793115854,0.5795632808985188,3.1395386734381314,9.272420958223938,0.1056311652064323,0.0893480777740478,0.1084220558404922,-0.7578264259535523,-0.1438784603705967,-0.0808522961267749,-0.6312377138961633,-0.0744966492056846,-0.0195800978690385,0.0013730766950175,0.0004910826683044,-0.0112970173358917,0.00534038990736,0.0646132305264473,-0.1376488655805587,0.0185012868523597,-0.3271485567092895,0.0093597298238426,-0.140289345178008,143
1733378367632362200,-0.0142599229555577,-0.073423255868256,-0.9246130917191504,0.5789922395449132,3.151917385756969,9.26825623975992,-0.028653772547841,-0.0749586224555969,0.0968299359083175,-0.7561882213478379,-0.1441665307408795,-0.0816484304254064,-0.6330316044135572,-0.0926002860069274,-0.0040435893461108,0.0006678715581074,-0.0064231753349304,-0.0069382786750793,0.010011188685894,0.0859443619847297,-0.131321907043457,-0.0224660988301038,-0.3045822381973266,-0.0291050253879278,-0.1859422583281993,144
1733378367672362500,-0.3112487000383436,-0.0283794145271182,-0.3525871109902858,0.6449406294878571,3.1341078805610536,9.269940831845998,-0.0344643630087375,-0.1381206065416336,0.176065981388092,-0.7550750705307596,-0.1455005458906954,-0.0787028765967607,-0.6344264861820529,-0.0692544803023338,0.0038715386763215,0.024246035143733,-0.003857672214508,0.0026324093341827,0.0002661347389221,0.2639804184436798,-0.1210918501019477,-0.2259633030712604,-0.3868213891983032,-0.1152989155020564,-0.454112133488059,145
1733378367712362500,0.713749523428455,0.4913140291571616,-0.4718021039575338,0.7116982899870723,3.0969957090020177,9.27752617240846,-0.1568637192249298,-0.1375383883714676,0.0437713749706745,-0.7536435372671461,-0.1460360218956431,-0.0751751302665584,-0.6364304187068869,-0.019229132682085,0.0009476542472839,0.0315172635018825,-0.000262439250946,0.0148045718669891,-0.0086503103375434,0.5176228284835815,-0.1410507261753082,-0.2661334008961916,-0.5421793460845947,-0.0343799701161682,-0.3447428272306919,146
1733378367752362500,0.3033874651439487,0.1352872991070151,-0.0071972180277109,0.7482655410144478,3.044811055995524,9.291911256113648,-0.1128672882914543,-0.1516525000333786,-0.099616028368473,-0.754911142754614,-0.1452510941725396,-0.0717391388324314,-0.6355036563055736,0.0563780069351196,-0.0289439857006073,-0.0043952637352049,-0.0002691149711608,0.0268624722957611,-0.0177426934242248,0.7256433367729187,-0.2044327557086944,-0.0345382294178009,-0.5679841637611389,-0.1317389589756727,-0.487421113371849,147
1733378367792362500,-0.0414932361874729,-0.1697673685967922,-0.3171995712667703,0.848339122594893,3.011684739202261,9.294109058418869,-0.1219982653856277,-0.3589038848876953,-0.0399311780929565,-0.7565780854079439,-0.1474332849548668,-0.0663004267112754,-0.6336066394586802,0.0423079952597618,-0.0157386492937803,0.0001918982015922,-0.0027514696121215,-0.0037942826747894,0.0051141455769538,0.8365002274513245,-0.1911182850599289,0.1495633694797754,-0.4127264022827148,-0.1222005846492946,-0.2025233907729387,148
1733378367832362500,-0.0821725987087935,-0.0920198197886347,-0.012875848186016,0.9342090414516628,2.9664085504099726,9.30043300074339,-0.1137479916214943,-0.1496891230344772,-0.0036646374501287,-0.7574909580000849,-0.148540032486318,-0.0612023703370916,-0.6327698039569024,0.0049078944139182,-0.0130160981789231,0.0247668158262968,-0.0053927302360534,-0.0100104510784149,0.0033261105418205,0.7770876288414001,-0.1999996900558471,0.062266778820753,-0.326249748468399,-0.0439225822262465,-0.0022393033593893,149
1733378367872362500,0.1292811174947768,0.1362289638713002,-0.0647895752966404,0.971303385093063,2.906501778718829,9.31553529280722,-0.2164492309093475,-0.0077092368155717,-0.0067583280615508,-0.7580430239978647,-0.1473583504547835,-0.0576661803621788,-0.6327170170024526,-0.0050605838187038,0.0163176096975803,0.037249319255352,-0.0113564729690551,-0.0082957744598388,0.0115406513214111,0.6394104957580566,-0.2192331999540329,-0.0032528643161058,-0.2377358675003051,0.0270246389172971,0.2017383778750896,150
1733378367912326400,-0.0108963648065924,0.1671466647043824,0.2936106058865785,0.928922917742282,2.836977576115727,9.34125484047532,-0.1314044296741485,0.1558578312397003,-0.0038345905486494,-0.7586458892905176,-0.1431121486099889,-0.0569864154424309,-0.6330308031562172,0.0383982099592685,0.0099674612283706,0.027107935398817,-0.0117666721343994,0.0089496076107025,-0.0098085477948188,0.4637349843978882,-0.2063897401094436,-0.0276157869105925,-0.2326467186212539,0.0083720830514503,0.2768874163563363,151
1733378367952326400,-0.1778475800041109,0.2082230637192726,-0.0002700491130352,0.915860241747275,2.8075732024550435,9.351423183268308,-0.0495803579688072,-0.0683795511722564,0.0174767896533012,-0.7586315130307772,-0.1414584883941878,-0.0565650410020934,-0.6334572128874028,-0.0067021567374467,-0.005644894670695,0.0124072851613163,-0.0107581615447998,0.0018458366394042,-0.0043658092617988,0.3487140536308288,-0.2180754989385604,-0.0193874220371246,-0.2132027894258499,-0.0118175713047385,0.1145966855168342,152
1733378367992326100,-0.0814380738891661,0.176957280100882,0.2428963176935911,0.9084850368041544,2.77135242677778,9.362940018060804,-0.1306042075157165,0.1036121174693107,0.0214247368276119,-0.758659762213526,-0.139720787580212,-0.0556867742504974,-0.6338867901917695,-0.0059852330014109,0.0033918502740561,0.0045692031271755,-0.0154393911361694,0.0038518011569976,0.0037150308489799,0.2703931927680969,-0.2259320318698883,-0.0061287120133638,-0.1705802977085113,0.0128894383199512,0.0523339983493089,153
1733378368032326100,0.0860221868090331,0.1777642125695943,0.3138771488457918,0.8722571007337421,2.745107101669908,9.374110231372711,0.0055486215278506,0.0572197772562503,0.0062130792066454,-0.7583795602493831,-0.1373996357716566,-0.0563448668879559,-0.6346707571113138,0.012364212423563,0.0225009880959987,0.0086679402738809,-0.0085943341255187,0.0016320049762725,0.0052933767437934,0.2182385921478271,-0.2201024442911148,0.0368476754039526,-0.1177679300308227,0.0175710202649235,-0.0184837511956691,154
1733378368072326400,-0.1526679113663732,0.0528843257084488,0.0893435863167047,0.870479496601969,2.7586563190728426,9.370296810564398,0.0296536311507225,0.0008567934855818,0.0140752838924527,-0.7582691932422407,-0.1378870877208439,-0.0568767444599035,-0.6346496009006337,0.0313687957823276,0.0014431619783863,-0.0034148874692618,-0.0035861730575561,0.0097787678241729,-0.0077956840395927,0.1724973767995834,-0.1871255040168762,0.0719569827079772,-0.0648402273654937,0.0333507731989026,0.0128501292228698,155
1733378368112326400,0.0088186817497014,0.064504913136363,0.0468985292971134,0.8521960172187536,2.7518244272261856,9.37398572821021,-0.0400217957794666,0.0884255841374397,-0.0115810120478272,-0.758213114636159,-0.1369870240291577,-0.0573959081604983,-0.6348647701616673,0.0276499576866626,0.0020713482517749,-0.0061811795458197,-0.0104824304580688,-0.0032924711704254,-0.0046367049217224,0.1481498628854751,-0.1370459794998169,0.0358171633124351,-0.0247399695217609,0.0269201556295156,-0.0059755672782659,156
1733378368152326400,-0.1029030328527092,-0.0046203532770276,-0.0755938779056072,0.8186196916356683,2.751517845495045,9.377067327612638,0.0302269086241722,0.0689777359366417,0.0109296403825283,-0.7581065033010177,-0.1358371667966787,-0.0587441532243534,-0.6351156597820783,0.0166548304259777,0.0127610638737678,-0.0049290275201201,-0.0063539147377014,-0.0071712434291839,0.002610333263874,0.1239923238754272,-0.0809168443083763,0.002055178964138,-0.0093786958605051,0.0731076140478253,0.0227115980237722,157
1733378368192326400,0.1143947332039475,0.0281704479515552,-0.1403513044983148,0.8010881265982985,2.75882992207408,9.376433121362329,0.0140963597223162,0.0512863509356975,-0.0037125567905604,-0.7578908940811356,-0.1355288541718902,-0.0597233634863756,-0.6353475049924671,-0.0031447056680917,0.0109658269211649,0.0059601049870252,-0.0017705559730529,-0.0091848969459533,-0.0027387142181396,0.100688561797142,-0.0371078103780746,-0.0039601358026266,-0.0031713913194835,0.0483107341825962,0.0394400299847126,158
1733378368232326100,0.079744713974744,0.0096361356124281,-0.2864285854279995,0.7820183191429824,2.761652286018431,9.37721228904128,-0.019015846773982,0.0279270410537719,-0.0230889804661273,-0.7579974236418775,-0.1350147199401356,-0.0605496625012071,-0.6352516601230874,0.0127501050010323,-0.0044596279039978,0.007059724535793,0.0032252073287963,0.0032444596290588,-0.0049213767051696,0.0610201247036457,-0.0046635530889034,-0.0386854122251272,-0.0090316934511065,0.0656562751285731,0.051904959282279,159
1733378368272326100,-0.1369401808805763,-0.0441764108568429,-0.0761041655153036,0.7589836266446858,2.735707989683747,9.38670492452979,-0.0587202757596969,0.059949617832899,-0.0001933183229994,-0.7584128776013578,-0.133215599203017,-0.0605379127158961,-0.6351368038583124,0.0273468904197216,-0.0054126670584082,-0.0047059217467904,-0.0058987736701965,0.0027247071266174,-0.001836359500885,0.053666353225708,0.0016287588514387,-0.0393108506470918,-0.0207412466406822,0.0078663494609296,0.0193231246292591,160
1733378368312326100,0.0556719106003642,0.0657803398996591,0.0492179121553897,0.7552143372390419,2.724661987273395,9.390220823696255,-0.0103765539824962,-0.017948618158698,-0.0094660269096493,-0.7583651322420625,-0.1326311294918016,-0.060340268354547,-0.6353347790698977,0.0291162952780723,0.0013649715110659,0.0013528366107493,-0.0049070715904235,-0.0037131905555725,0.0057736039161682,0.0428814738988876,0.0056247315369546,-0.0323883579075336,-0.0258715879172086,0.0024796879865229,0.0669137278437614,161
1733378368352326400,-0.1017193760260939,-0.0240922387272119,-0.0026654198169708,0.7514458515509963,2.718616569629311,9.392275418138505,-0.0248815696686506,0.0302293635904788,0.0080472528934478,-0.7585404927478008,-0.1322732965218936,-0.0602577828473717,-0.6352079074048165,0.0378687717020511,0.0035818400792777,0.0149154504761099,-0.0064215064048767,-0.0015078485012054,-0.0011494755744934,0.0169314462691545,0.0046808663755655,0.0207931971818208,-0.0225890856236219,-0.0101718499243259,0.0815700297057628,162
1733378368392326400,-0.0327414821941405,0.0408738621801137,-0.2208025593072176,0.7545932827312499,2.7132062350183723,9.39358766978085,-0.0082187000662088,-0.0893712863326072,0.0119878491386771,-0.7583451144458118,-0.1321382543841501,-0.0599984096697638,-0.6354938732110035,0.0488316752016544,-0.0001640557311475,0.0071221753023564,-0.0058262348175048,0.0021596848964691,-0.0001198723912239,0.0006299242377281,0.0205622147768735,0.0533814615756273,-0.0013998728245496,-0.0207933433122932,0.0910083046585321,163
1733378368432326400,0.0346942967623472,0.0219511350452899,-0.1947685388624668,0.8037251971036196,2.707887670344114,9.391046753126382,-0.0329573340713977,-0.0986538603901863,0.0006672950694337,-0.758439106969769,-0.1335763418014463,-0.0578553433746144,-0.6352796912603423,0.040093045681715,0.0014761318452656,-0.0013620564714074,-0.00640869140625,-0.0030494332313537,0.0056334137916564,-0.0238173082470893,0.0304245892912149,0.0380401000589132,0.0244242195039987,-0.0166629655092954,0.0782183811902999,164
1733378368472326400,-0.1309840489551424,-0.0386243296876549,-0.1963467479646205,0.7961231976673007,2.6942428836122154,9.395617129781842,-0.0365012548863887,0.0298123154789209,0.028216578066349,-0.7584159924945102,-0.1327596299461153,-0.0577209736645667,-0.6354906039967907,0.0112707186490297,0.010897010564804,0.0075366967357695,-0.0089566707611083,-0.0145007967948913,0.0065842941403388,-0.1067426204681396,0.0571831613779068,0.0750187083661556,0.0456607118248939,-0.0239040226787328,0.2358604277074336,165
1733378368512326100,0.0350183410849422,0.0782087365791201,-0.2539730075031519,0.8258467933449893,2.681557589562237,9.39668095962107,-0.0444521754980087,-0.1377345770597458,0.0163586232811212,-0.7581683648820692,-0.1332148750826943,-0.0561819307281156,-0.6358286124443601,-0.0169406794011592,-0.0056931511498987,0.0078094038181006,-0.0004357695579528,-0.0086406767368316,0.000565655529499,-0.2248515039682388,0.0630992576479911,0.0542787026762962,0.0819181576371193,0.0323433497220277,0.2374661093384027,166
1733378368552326100,0.1386633514113724,0.0343590734586119,0.251883926269412,0.864656781797856,2.660614170254767,9.399142965820433,-0.0341906547546386,-0.01536650583148,0.0091665545478463,-0.7582501465168028,-0.1336672574947849,-0.0539457949962859,-0.6358298533537347,-0.0203913375735282,0.0107820685952901,-0.0017647928325459,-0.0113437175750732,-0.0062021315097808,0.0073929503560066,-0.4396468997001648,0.1457954496145248,0.2841173858761787,0.1967185884714126,0.0021127543702721,0.5238911876350641,167
1733378368592326400,-0.1367198891934007,-0.050957449299097,-0.0732306559056043,0.8688966843899338,2.6498633513987064,9.401788511893152,-0.0281351525336503,-0.0051786457188427,0.0333967320621013,-0.7581773164143498,-0.1333634824065275,-0.0534450347255287,-0.63602280339625,-0.01268255058676,0.011327164247632,-0.0038521119859069,-0.0075376033782958,-0.0083096027374267,-0.0008591413497924,-0.6805081367492676,0.1875069439411163,0.1249094052165746,0.2988002300262451,0.2056818548038601,0.3804635444313287,168
1733378368632326400,-0.0053531975962221,0.0691539079859852,-0.2182745021343231,0.8853719453074037,2.63464795434922,9.404526996946334,-0.0233582872897386,-0.0832293331623077,0.0352665856480598,-0.7575718487424197,-0.1332446795392642,-0.0524253124197676,-0.636853555012076,-0.0741419121623039,-0.0055925901979207,-0.0219380389899015,-0.0123844742774963,-0.0150181949138641,0.0046596005558967,-0.8432485461235046,0.2389882206916809,0.1443903507560491,0.3480471968650818,0.1775891482636332,0.2570335641175508,169
1733378368672326400,-0.1646266447074711,-0.0582110736891627,0.0495540122419595,0.90593133373335,2.6345216976210475,9.402604504451157,-0.0030437507666647,0.0215061251074075,0.0459702163934707,-0.7573002622285457,-0.1339090115572627,-0.051662098952943,-0.6370994957973093,-0.1311223804950714,0.0434085056185722,0.0276482906192541,-0.0054619312286376,-0.0244181454181671,0.0214861631393432,-0.8804734945297241,0.2715195119380951,0.013138883036375,0.3193313777446747,0.1927276806846261,-0.0519166497200727,170
1733378368712326400,0.0886017549734562,0.0047723289683461,0.1897486648738384,0.891823824860528,2.6339371757313605,9.404116662579774,0.0535457618534565,0.0363402925431728,0.0788446441292762,-0.7562214637795863,-0.1333218930974246,-0.0524286472989472,-0.6384399939418304,-0.0825202167034149,0.0526398234069347,0.0449178256094455,0.0083361864089965,0.0079917311668396,-0.0059719011187553,-0.7592978477478027,0.2992699742317199,0.0015793781459331,0.2534016966819763,0.075701941389963,-0.2040764654338359,171
1733378368752326100,0.0824969352923333,0.1044412022054195,-0.0064724108844995,0.9098996528424322,2.6605624400675296,9.394885308375954,0.0996874272823333,-0.1063978597521781,0.0438657067716121,-0.7553791633901225,-0.13494866284849,-0.0527541982132795,-0.6390681632818088,-0.0121840070933103,0.0428500436246395,0.0303250327706336,0.0001128911972045,0.0247280001640319,-0.0231208801269531,-0.6226864457130432,0.3260188996791839,-0.0018120178580284,0.2064046263694763,0.0213837104208767,-0.2500461894482374,172
1733378368792326100,0.0135342390295118,-0.2179942238882184,0.2518441787809133,0.926189766451344,2.7033248924732205,9.381075978732108,0.1425482779741287,0.041916187852621,0.1206821352243423,-0.7540678737350347,-0.1371351784678723,-0.0537788677397551,-0.6400651912183236,0.0612358823418617,0.0150018483400344,0.0382360182702541,-0.0070979595184326,0.0250228345394134,-0.0330563262104988,-0.4861414432525635,0.338551789522171,-0.0032587095350027,0.1749231815338134,0.0022641455397009,-0.2082803468644619,173
1733378368832326400,0.437317285227403,0.1521691680639982,-0.1916062754392623,0.9338120780233292,2.745263753536344,9.368132326006888,0.0663420259952545,0.0266351420432329,-0.0133050605654716,-0.7529829853387682,-0.1390132157761388,-0.0550771827233506,-0.6408264583291269,0.0981150716543197,0.0204457230865955,0.0312854349613189,-0.0115523338317871,0.0145404040813446,-0.0020496845245361,-0.3780643343925476,0.3347033560276031,-0.0074310267835855,0.1925716996192932,0.0227190506778657,-0.1983101569920778,174
1733378368872326400,-0.0330688875176012,-0.009612170214951,-0.2238029101669788,0.8822622888542712,2.7662361066773533,9.366959775096175,0.0514977350831031,0.1595892906188964,0.074635811150074,-0.7524327436559022,-0.1380706402882967,-0.0579177304111926,-0.6414256952219344,0.0864781215786933,0.0331901721656322,0.0349091328680515,-0.0062878727912902,0.0069361627101898,0.0115984678268432,-0.265380859375,0.3176289796829223,-0.0364706587851047,0.2260910272598266,-0.0334917891047894,-0.2293225503712892,175
1733378368912326400,0.1712774078335613,0.0692024233028292,-0.2515074941724539,0.856283944119513,2.7828900120973588,9.36443697862029,0.0630352422595024,0.0769462808966636,0.0634285062551498,-0.7512140078011328,-0.1377556090160927,-0.0597492083787783,-0.6427525915484126,0.079658567905426,0.0438727512955665,0.0413623042404651,-0.0046102404594421,-0.0069918930530548,0.0118610933423042,-0.1933005452156067,0.3018528521060943,-0.0125754039347171,0.2906814217567444,-0.1055723251271992,-0.1934913585335016,176
1733378368952326400,-0.0882408127065747,0.1893324852883815,-0.4994856451749801,0.7925850136037915,2.787558003908396,9.368656057620049,-0.0752244666218757,0.2236771583557129,0.0545259825885295,-0.750084080595865,-0.1356701434003999,-0.0626506232840175,-0.6442377380968464,0.0319264605641365,0.0453658811748027,0.0676608234643936,-0.0003319978713989,-0.0112638175487518,-0.0064781382679939,-0.1465200185775756,0.2481395751237869,-0.0690904873609542,0.3769614398479461,-0.085759444219619,-0.1480617327451706,177
1733378368992326100,0.0450624729763716,0.1373953773021698,-0.3270692233741283,0.7056693120211363,2.7437270454883573,9.388523956650497,-0.1377574056386947,0.2131692469120025,-0.0005267580854706,-0.7497618716921197,-0.1308964142749066,-0.0646887730214578,-0.6453981046640556,0.0417143777012825,0.0302816275507211,0.070408672094345,-0.0059346556663513,0.0026148855686187,-0.0066872835159301,-0.1242432817816734,0.2129969447851181,-0.1214390987575054,0.399665355682373,-0.0893720817588269,-0.1184784953862428,178
1733378369032326100,-0.1241265842758119,0.1112687101379036,-0.3873445361167192,0.6309490751449018,2.694436360357701,9.408097841170427,-0.1450449228286743,0.1688848286867141,0.0565961264073848,-0.7494025296194315,-0.1263186530033912,-0.0660614408140301,-0.6465875002588523,0.0702216550707817,0.0279058739542961,0.0712092146277427,-0.009198784828186,0.0142689645290374,-0.0057442188262939,-0.1030263677239418,0.1628466248512268,-0.2188356431484222,0.3624061346054077,-0.0818509655389934,-0.0363093307435512,179
1733378369072326400,0.1526139526894316,0.2246770626530051,-0.2823199810653924,0.58689508509133,2.619035666936636,9.432209953641893,-0.2421291917562484,0.1445768922567367,0.0043970523402094,-0.7493474555844831,-0.121766142662804,-0.0653002418351683,-0.6476011345374277,0.0694048628211021,0.0210845060646533,0.0495965331792831,-0.0101069211959838,0.0129591524600982,-2.80141830444336e-05,-0.0862482711672782,0.1249119490385055,-0.2438940965592861,0.2908590734004974,-0.098157007369399,-0.0170224464714527,180
1733378369112326400,-0.1687390849949792,0.1236029987931251,-0.2018628810375928,0.5459755571385845,2.52902280305624,9.459193237635493,-0.2078269720077514,0.0532769300043582,0.0525379329919815,-0.7494342118198756,-0.1167576980340867,-0.063898371142698,-0.6485622116732312,0.0721854716539383,0.021509600803256,0.0272345002740621,-0.0161482691764831,0.0058839619159698,0.0088018104434013,-0.095240868628025,0.0978446453809738,-0.1870896747976541,0.216749370098114,-0.1076727314725518,-0.0361836585372686,181
1733378369152326400,0.0819863919543102,0.0916205913379788,-0.2948725886464118,0.54993320872318,2.470025839686393,9.474541028892991,-0.1327979117631912,-0.0646452456712722,0.0237680003046989,-0.7493286415715686,-0.1145118955807634,-0.061805055162279,-0.6492870255725716,0.0485033057630062,0.0119559904560446,0.0170545671135187,-0.0126463770866394,-0.0051815211772918,0.0056554079055786,-0.1015272885560989,0.0871399566531181,-0.157934307461977,0.1474345326423645,-0.0995261037655174,-0.1073000987678766,182
1733378369192326400,0.1137323603050783,0.0340367096364498,0.088912209162116,0.5434759588751942,2.41792506557107,9.488343344274163,-0.1606282591819763,0.121982991695404,0.0027769990265369,-0.7496827769227528,-0.1122374521309967,-0.0602651128160533,-0.6494202935775628,-0.0273997113108634,-0.0018549500964581,0.0046850503422319,-0.0063704848289489,-0.0110400319099426,0.0081743597984313,-0.0886077135801315,0.0595509223639965,-0.1623047776311635,0.0773750394582748,-0.0938642786115407,-0.0843015004962682,183
1733378369232326100,-0.1014869920423254,0.040744682842493,0.1114607255786657,0.507154499302432,2.3488182115972043,9.507693356910348,-0.1665506511926651,0.0376709811389446,0.0372864454984664,-0.7496439415322823,-0.1082377563927213,-0.0593897003181455,-0.6502242311396839,-0.0141933625563979,0.022600058466196,0.0140698309987783,-0.0018489956855773,-0.0056783258914947,0.007338885217905,-0.0934891253709793,0.0482937879860401,-0.0861877526342868,0.0417234972119331,-0.0846180190995335,0.009108604606986,184
1733378369272326100,-0.1215545418307185,0.0283114638574421,0.2297738012701272,0.5493684509798884,2.323842029642313,9.511484565886857,0.039825901389122,-0.1881692111492157,0.0070064347237348,-0.7496370992431567,-0.1086718292353344,-0.0569182724690927,-0.6503805588614826,-0.0148133458569645,-0.0117395389825105,0.0004989604931324,-0.0009316802024841,-0.0012782514095306,-0.011315643787384,-0.0903066918253898,0.0450548082590103,-0.0723182172358036,0.0015440508723258,-0.0812567259728908,0.0093494276255369,185
1733378369312326100,-0.3434324022192507,-0.1074395072385668,0.3402975382596254,0.5904841225592419,2.3639745719358323,9.499123096963762,0.1512662023305893,-0.06622314453125,0.0259503498673439,-0.7495187335737491,-0.1116597195973181,-0.056671193364369,-0.6500323685301151,-0.0327097885310649,-0.0106668174266815,0.0032036670017987,-0.002942144870758,-0.0088375508785247,-0.0060404613614082,-0.0846375823020935,0.0368272475898265,-0.0910235022276639,-0.0290511604398489,-0.026192133615911,0.0502495932906866,186
1733378369352326400,-0.248354802295193,0.1120154368519782,0.0100894323378801,0.6680882077760995,2.4126700676523147,9.481722464829684,0.1461997032165527,-0.3572514057159424,0.0830197483301162,-0.7483954094273589,-0.116148677972923,-0.0554632142590259,-0.650643956057335,0.0089708128944039,-0.0099564986303448,0.0047018947079777,-0.0003748536109924,-0.0022722780704498,0.002687282860279,-0.0519064888358116,0.0295469053089618,-0.0655628977566957,-0.0329246260225772,-0.0547780305005609,0.0029348844081163,187
1733378369392326400,0.2513776572477072,-0.1738581450417637,0.8600608323097229,0.7920453537691384,2.508952951712906,9.447126952266691,0.4041852056980133,-0.2795255184173584,-0.0510000586509704,-0.7480281492703899,-0.1242025053462913,-0.0538917632662639,-0.6497101528925299,0.0048152161762118,-0.0007992730243131,0.0084939701482653,-0.0006970763206481,-0.0105584561824798,0.0010876096785068,-0.0282430853694677,0.0447332821786403,-0.0332943668365478,-0.0349851287901401,-0.0470655564270913,0.0154494980663061,188
1733378369432326400,0.1050648139964789,0.3783960905075073,-0.524926375901699,0.9218979875415564,2.67869986204356,9.388559612485766,0.3135371208190918,-0.3132249712944031,-0.0292135700583457,-0.7473418445148601,-0.1354233233623381,-0.0545636522225994,-0.648200129604959,0.0098363403230905,-0.0064973188564181,0.0259478613734245,-0.0015091300010681,-0.0088613033294677,-0.0049446187913417,-0.0207785684615373,0.0363273471593856,-0.0390700276285409,-0.0279210899025201,-0.0266990602247416,0.0463484941989183,189
1733378369472326400,-0.1550824251621961,-0.047391573511064,0.1769324379205703,0.937836657364294,2.7202181596070525,9.375033775958418,0.045102585107088,0.1764907091856002,-0.0830123350024223,-0.7483556272972574,-0.137735497597381,-0.0550929586296486,-0.6464962999621908,0.0184932127594947,0.0072762304916977,0.0272308383136987,-0.0040915012359619,-0.0070790648460388,0.0042874217033386,-0.0250399094074964,0.0461763478815555,-0.0208048876196146,-0.0214771497994661,-0.0467063677258789,-0.0049929859817028,190
1733378369512326100,0.0532017210945486,-0.1108721120357513,-0.2757493705034256,0.9133075615897774,2.793425434637069,9.355908804249763,0.2941616773605346,-0.151589348912239,-0.0800888985395431,-0.7485473915842419,-0.1398857565236261,-0.0584241749378467,-0.6455195412195914,0.0272584743797779,0.0082962745800614,0.0307056661695241,0.0011838674545288,-0.0098187923431396,-0.0020404532551765,-0.0229497607797384,0.0397141948342323,-0.039032618227601,-0.0156485382467508,-0.051523412618786,0.0167675949275493,191
1733378369552326100,0.0962334919609129,0.1324786714270711,-0.5328805497765541,0.9584123393379153,2.8861607092186805,9.323191945040223,0.0941584855318069,-0.0663684159517288,-0.1059790551662445,-0.7493579568194633,-0.1452860021791898,-0.0595103879746701,-0.6432829938616403,-0.0028970316052436,0.0119420886039733,0.0470640659332275,-0.0075989365577697,-0.0132055282592773,-0.0024160146713256,-0.0303662698715925,0.0325629636645317,-0.0849514888375997,-0.0189489983022212,-0.0487691454745829,0.0617518150359392,192
1733378369592326400,-0.722354197101295,0.4645017178162932,-0.8398907354623079,0.918379458026588,2.8541610583677888,9.337062064960598,-0.2076181918382644,0.1026822999119758,0.1777291297912597,-0.7492420511243276,-0.1425984573082485,-0.0600666302961324,-0.6439674502779702,0.0157783851027488,-0.0038836395833641,0.039403885602951,-0.0070881247520446,0.0047838389873504,-0.0071169808506965,-0.0313053876161575,0.0359293930232524,-0.0577004938185215,-0.0354821532964706,-0.0746526515327394,0.0241916074484586,193
1733378369632326400,0.6160419403269887,-0.1125648874282836,0.3381657869279384,0.938094212321937,2.7855414033889767,9.355807097440955,-0.0725730285048484,-0.0177999082952737,0.0973296388983726,-0.7477014023251005,-0.1403382943152453,-0.0573738964035263,-0.6464952112800604,0.0322284661233425,0.0005103099392727,0.0167576242238283,-0.0103899240493774,0.0011439323425292,0.0040547251701354,-0.0237148012965917,0.0378952883183956,-0.0567979920208454,-0.055728904902935,-0.0785572577558457,-0.0371820219248533,194
1733378369672326400,1.1044407396245748,-0.5243824782833457,-0.441864646333456,0.9452951566766948,2.757424439190328,9.363408220094442,-0.1447290331125259,-0.0376785062253475,-0.176217183470726,-0.7479923643443822,-0.1394688602970922,-0.0561024134254515,-0.6464583917420008,-0.0049239639192819,0.0127948857843875,0.0241291224956512,-0.0043577551841735,-0.0116015076637268,0.0110899209976196,-0.0141188632696866,0.0217033401131629,-0.1025590417206287,-0.0674480646848678,-0.0469311163924634,-0.0053980596512556,195
1733378369712326400,-1.3368470082901418,-0.2822074606016278,0.3584270691901445,0.9998631246231496,2.744344592864812,9.36158275823295,0.1159683465957641,-0.4555822312831878,0.1446209400892257,-0.7493002472725934,-0.1409164683088319,-0.053241589570886,-0.644869748254615,0.011172448284924,0.0164650939404964,0.0350400283932685,-0.0056286454200744,9.191036224365234e-05,-0.0058309510350227,-0.0034888768568634,0.0238746851682662,-0.0760515585452318,-0.0709941610693931,-0.0616667671009898,-0.0177694654464721,196
1733378369752326100,1.365404263602197,0.5581362793251872,-0.2098755071014166,1.2167422999415547,2.7723478675559163,9.327593979391455,-0.0444430150091648,-0.4998902976512909,-0.378514289855957,-0.7502332215761403,-0.149553217244322,-0.0453750692325083,-0.6424367126996572,0.0230679884552955,0.0004297758860047,0.0020850063301622,-0.006467580795288,0.0084154903888702,-0.0076220631599426,0.0030953390523791,0.0246069021522998,-0.0773088651299476,-0.0898660346865654,-0.0791965785726904,-0.0353916313767433,197
1733378369792326100,-0.0803765821374952,0.407813323649764,0.2929991959899664,1.2324363473534583,2.709586875477433,9.343961761346458,-0.4078503549098968,0.0951425358653068,-0.7768373489379883,-0.7599441807222435,-0.1481685166000644,-0.0404551220149195,-0.6315808955435381,-0.0139584718272089,0.0046872650273144,0.0107129821553826,-0.0036465525627136,-0.0095275342464447,0.0053145289421081,0.0177358724176883,0.0006648954004049,-0.0800958654999732,-0.0972143411636352,-0.0528968929290771,-0.0037806875824928,198
1733378369832326400,-1.2390493357524277,0.3981812796905636,0.9758324068248272,1.1046746945109218,2.6520316353484987,9.37639629648328,0.1888532489538192,0.194984883069992,-0.1217168644070625,-0.7656652769833251,-0.1418985024850876,-0.0424458922709886,-0.6259550370480023,0.0087761357426643,0.0092552788555622,0.0161692667752504,-0.0056247115135192,0.0008016526699066,0.0024744309484958,0.0327521674335002,-0.0126423696056008,-0.0453033690601587,-0.0822868347167968,-0.0234296831652522,0.0132131173163652,199
1733378369872326400,0.3505179765660315,0.0170393976062536,0.1649374642223119,1.079867877773568,2.8941601835399866,9.307422128978372,0.900545060634613,-0.2066421210765838,-0.4448971152305603,-0.7673614024183865,-0.151276937370679,-0.0506835536562433,-0.6210500029850712,0.0278550200164318,0.0073460051789879,0.012567208148539,-0.0031365752220153,0.0018250048160552,0.0013494528830051,0.0312875993549823,-0.0113419778645038,-0.0016962825238704,-0.0913427919149398,0.0316828399866819,0.0519616579055786,200
1733378369912326400,-0.1503949249330907,-0.2694526084467769,-1.098986492806673,1.0896702367983755,3.2072873908013104,9.20305983722806,0.5443759560585022,-0.0893785804510116,-0.4269555211067199,-0.7708169758041272,-0.1651563964459299,-0.059143067340472,-0.6124267762957234,0.0280417092144489,0.0127981882542371,0.0324694775044918,-0.0051850080490112,-0.008093386888504,-0.0016470029950141,0.0030568335205316,0.0039758561179041,0.0538321279525756,-0.0988812148571014,0.0710262777291238,0.1657014343321323,201
1733378369952326400,-1.077094978994131,-1.0316492788538336,-0.8072334974855184,1.181691590956971,3.321553236928582,9.15102569860816,0.1417093873023986,-0.4772680401802063,0.3116271197795868,-0.7710858524230966,-0.1731191529047182,-0.0587987164216797,-0.6099172743943907,0.0278241299092769,0.014332115650177,0.0435169339179992,-0.0003631114959716,0.0001388788223266,0.0044988319277763,-0.0258808098733425,0.0148919057101011,0.0839800134569406,-0.107320912182331,0.0770968298144638,0.2039385182678699,202
1733378369992326100,0.0491543453998863,0.0264998843908309,-0.371609791368246,1.446473504178971,3.3357074344873427,9.107752374070882,0.10069340467453,-0.5274141430854797,0.4850890040397644,-0.7655021708782224,-0.1820435974710176,-0.0499398067520794,-0.615119981122858,0.0299932733178138,0.0411876961588859,0.060880608856678,-0.0040469169616699,0.0011644661426544,0.0119690224528312,-0.0398847311735153,0.0352242290973663,0.0589402647465467,-0.1345521807670593,0.0473636625908315,0.1212771861940622,203
1733378370032326100,0.2981552635788917,-0.0134063018009066,0.2768447645246982,1.5833879660964012,3.3004952513307333,9.097802057942747,-0.1570458263158798,0.2623953223228454,0.3371687829494476,-0.7611352636807975,-0.1848237870229403,-0.0445125678237111,-0.6201063366038722,0.0514951013028621,0.0305309519171714,0.0482702106237411,-0.0045211315155029,0.0114348828792572,0.0019040703773498,-0.0443936847150325,0.0523490495979785,0.0318985285639762,-0.158753752708435,0.0128531979627907,0.0999374610453844,204
1733378370072326400,1.2847720992684364,0.3012216654121875,-0.3269651784777641,1.4913047256827354,3.198203336113691,9.149747933757304,-0.3044143915176391,0.181906059384346,-0.0057249194942414,-0.7590047816779963,-0.1772104233343137,-0.0457071315188467,-0.6248352172030323,0.0249844007194042,0.0181125253438949,0.0411529131233692,-0.0079317688941955,-0.0008185505867004,-0.000254638493061,-0.0275082197040319,0.0431373938918113,-0.0221902044981718,-0.1590443104505539,-0.005150076239556,0.109268768492341,205
1733378370112326400,0.1676085831277072,0.0476423334017395,0.7101303830832243,1.483193461550027,3.143528912118077,9.16999168036282,-0.0448006801307201,-0.1311569809913635,-0.2334617674350738,-0.7622075922387996,-0.1748573111282892,-0.043421949183442,-0.6217547417847189,0.0034040072932839,0.0268605854362249,0.0609192289412021,-0.0121498107910156,-0.0081594586372375,0.0090594291687011,-0.0081315096467733,0.0328652299940586,-0.0174690211951732,-0.160917192697525,-0.0197347741700708,0.0487029483705759,206
1733378370152326400,-0.6053408058315515,0.3997898839309811,-0.322502353850007,1.432387841811776,3.102627577409148,9.191972041502597,-0.2934814393520355,0.3081095516681671,0.1241118088364601,-0.7631158625646842,-0.1714836815122107,-0.0439681912563366,-0.6215418393327756,0.015545891597867,0.0355815850198268,0.0702699199318885,-0.0066102147102355,0.0066961050033569,0.0084471628069877,-0.0052529433742165,0.0228113904595375,0.0228811093717813,-0.1428834646940231,-0.0178083361521363,0.0031008886247873,207
1733378370192326400,-0.1977156982302665,0.970397814555466,0.0703320118546485,1.3211948272585867,2.9625276173233983,9.254634541642666,-0.3679101765155792,0.3371939063072204,0.1252348124980926,-0.7622174085713849,-0.1617994818961942,-0.0443383248340912,-0.6252037007912351,0.0196338444948196,0.0181575864553451,0.0553668029606342,0.0040028691291809,0.0130226910114288,-0.0066123083233833,-0.0116322059184312,0.0158686395734548,0.0347422275573015,-0.1002536043524742,-0.0261097160294651,-0.0383621716201305,208
1733378370232326100,1.408307293522358,-0.2215580538496375,-0.1556488268733024,1.2321977162919937,2.8339310480266806,9.307035175487398,-0.2987534999847412,0.2851469218730926,-0.2250126004219055,-0.7620036791474977,-0.1534392100844377,-0.0439279688272713,-0.6275962495733887,0.0265844278037548,0.0159353390336036,0.051892377436161,-0.0019090175628662,-0.0003345012664794,-0.0080277994275093,-0.0064677507616579,0.0188865698873996,-0.0362643225580453,-0.0619204230606555,-0.050063276938349,-0.1055278283983469,209
1733378370272326100,-0.7835204673342406,0.2927598342761397,0.230568751040101,1.1290336944155397,2.729171573652327,9.351325568112731,-0.3280753791332245,0.0916713699698448,-0.3290268182754516,-0.767404996913699,-0.14602466863871,-0.0434957409242375,-0.6227957827850703,0.0440126843750476,0.0093559455126523,0.0475199297070503,-0.0016833543777465,-0.0034580528736114,-0.009923405945301,0.0118825137615203,0.0067844670265913,-0.108446346193552,-0.0391508564352989,-0.0315767492637038,-0.0846679957211017,210
1733378370312326100,-0.5733455388948321,0.1202905132442712,-0.4180161532342433,1.0177691489960998,2.597876559051872,9.401360057348011,-0.4363197982311249,0.3698857724666595,-0.008370691910386,-0.7700768528723257,-0.13708621170577,-0.043259845862398,-0.6215445819886167,0.0095111681148409,0.0047510745935142,0.0588960237801075,-0.0150859951972961,-0.0164859294891357,-0.0027819350361824,0.0157779064029455,0.0093814963474869,-0.0691150372803211,-0.0265755634754896,-0.0392721260719001,0.0100847561627626,211
1733378370352326400,-0.1345609575938433,0.2250534947499632,0.044040217256546,0.8698801424693315,2.458248015870154,9.453608130979536,-0.2294085472822189,0.4898745119571686,0.0966189950704574,-0.7699271911708238,-0.1264449778607305,-0.044852936536102,-0.6238685151481701,-0.0175928883254528,0.0060287527740001,0.0732894763350486,-0.0113252997398376,-0.0076142251491546,-0.0007804706692695,0.0194710660725832,0.0041308426298201,-0.1066109474599361,-0.0406574793159961,0.0405912458464503,0.0786141025096178,212
1733378370392326400,-0.2373610415287315,0.0135984633721411,-1.4870283635377883,0.7293694826908409,2.410231588459015,9.477826041913032,-0.0764159187674522,0.2751210629940033,0.1290884912014007,-0.7685105954941256,-0.11974971354534,-0.049247910721692,-0.6265988783568814,0.0108443470671772,0.0003340618568472,0.0632275193929672,-0.0087996125221252,0.0099188089370727,0.0033984780311584,0.0421969518065452,-0.0131427459418773,0.0068669631600379,-0.071938432753086,0.0800064336508512,0.1764735882371663,213
1733378370432326400,0.1557915232796222,-0.0990647698640823,-2.632508896493912,0.6742482647757977,2.3627824395418164,9.493841941690444,-0.1548333764076233,0.1076783239841461,0.2202199399471283,-0.7659770655944472,-0.115792064130888,-0.050408094614224,-0.6303414492245613,0.0096970573067665,0.0024100493174046,0.0538447387516498,-0.0127497911453247,0.0035264492034912,0.0086471438407897,0.0612972751259803,-0.0133203491568565,0.1689654045641422,-0.1127140671014785,0.1491702785089612,0.3405424529314041,214
1733378370472326400,0.6449551694698631,-0.2742224531970918,-4.002891240769625,0.7661274339847266,2.2810123572193084,9.506861582261322,-0.2748240232467651,-0.5165110230445862,0.0390696302056312,-0.7651784103358614,-0.1154346447863246,-0.0442696412568499,-0.6318363327830033,-0.0072140162810683,0.0107388729229569,0.1120258271694183,-0.0037260651588439,0.0040563941001892,0.0091822147369384,0.0786705389618873,-0.005974578205496,0.2318172897964716,-0.1949425339698791,0.2823040528438985,0.4596656759619713,215
1733378370512326100,0.0041152532991021,-0.99832378622666,-3.7865661191374063,1.0180591449186205,2.1405074695944784,9.515890107369422,-0.310169368982315,-0.8965473771095276,0.3001371920108795,-0.7643144007239059,-0.1180332016786351,-0.0298794975485291,-0.6332447081534167,0.034539021551609,0.0080288397148251,0.1266053617000579,0.0128225684165954,0.0320682525634765,0.0066407993435859,0.1048845946788787,0.0043230527080595,0.3312532310605049,-0.2944305837154388,0.3207197812821716,0.5217015686362981,216
1733378370552326100,0.8060786283619701,-1.3055462994888425,-4.832470425575972,1.5312607423655689,2.099373787434399,9.456122744148969,0.1577821969985962,-1.7268149852752686,0.4297400414943695,-0.7602634665978503,-0.1333928062926213,-0.0088477333009616,-0.63571030048952,0.1293305158615112,0.0186340268701314,0.13429756462574,-0.0029908418655395,0.0364726781845092,-0.0019223093986511,0.1145166233181953,0.0168386753648519,0.3589221592307091,-0.3337125778198242,0.3615408172965049,0.6419371368229388,217
1733378370592326400,0.4387032596930861,-2.227461384295672,-6.056111472055315,2.3834619472160936,2.0359252514831723,9.292174290964008,-0.4223836958408355,-2.463357448577881,0.7416204214096069,-0.7528885007882709,-0.1598662014110434,0.0259568720215814,-0.6379091232171408,0.1756647229194641,-0.0085471542552113,0.1762222498655319,-0.0067322850227355,0.0405001938343048,-0.0245735049247741,0.1230048388242721,0.01646045781672,0.3829506850719452,-0.3621496260166168,0.3602234510876238,0.6123363638073206,218
1733378370632326400,1.311947690963745,-2.643947405353188,-4.900746089422703,3.3591397480010983,1.7193366517215969,9.05154416463673,-0.7692129015922546,-2.645066976547241,0.6874719262123108,-0.7432163949548412,-0.1816957650658478,0.0740698731375447,-0.6396325335437711,0.0297732949256896,-0.049504280090332,0.1743226051330566,-0.0042595267295837,0.0303032100200653,-0.0149673298001289,0.1348438411951065,0.0220431964844465,0.4258019848048687,-0.3347685635089874,0.3621671325013041,0.5663964504092931,219
1733378370672326400,0.6146645144939422,-3.3692964003562924,-3.819546013197303,4.508627763032913,1.2124200528282671,8.623960557112097,-1.3581249713897705,-3.450543165206909,1.1298065185546875,-0.7296396094932254,-0.2041239672219882,0.1365056317367636,-0.6382206539869884,-0.0942879319190979,-0.05574731528759,0.1730100661516189,-0.0155196189880371,0.0250698924064636,0.0002464689314365,0.1724518984556198,0.0018704086542129,0.3424894953459501,-0.3067746162414551,0.3466879699490964,0.4386965376913547,220
1733378370712326400,1.5292945568591356,-3.145418086865544,-0.8280793016374111,5.660941356879472,0.5047631471864878,7.9918293595105405,-1.16378915309906,-3.101946353912353,1.585614800453186,-0.7060285286780789,-0.2234290337685175,0.2064208286732336,-0.6395261264728554,-0.1159261092543602,-0.0640058889985084,0.2347380220890045,0.0118194222450256,0.0201416313648223,0.0077245756983757,0.2074009627103805,-0.0186040494590997,0.3121820353657007,-0.2758128643035888,0.3045445262245834,0.4246089756280183,221
1733378370752326100,2.2912334531128407,-2.260775917137414,-1.292163963085413,6.648715545910597,-0.2664535179623402,7.203746552696824,-1.3952186107635498,-3.5228402614593506,1.69094979763031,-0.6748372897075646,-0.2402771657473248,0.2738211310910328,-0.6417815128852965,-0.2564438283443451,-0.1023976951837539,0.1876518726348877,0.0045812726020812,0.020502746105194,-0.0034694150090217,0.206423282623291,-0.0092130908742547,0.1382154615134,-0.2295913994312286,0.2878508733160793,0.5365437484592199,222
1733378370792326100,3.7649165973871934,-1.857809595127404,3.918112770411372,7.533321036890149,-1.2292143165670335,6.156987090733647,-1.7551463842391968,-3.220570802688598,1.893689751625061,-0.639468029934597,-0.2510787929807739,0.3507712493116825,-0.6363957972035305,-0.3252854645252228,-0.1617813408374786,0.206458181142807,-0.0256938338279724,-0.0053193867206573,-0.0351224541664123,0.1884501129388809,-0.0268855839967727,0.2466033555179834,-0.122191846370697,0.1110391391657292,0.6698802057594061,223
1733378370832326400,4.726176288980246,0.5333607345089316,5.734144540256262,8.023097188955544,-2.056671540783346,5.250752536270023,-0.2796176075935364,-2.4859442710876465,1.7642202377319336,-0.5994169909565277,-0.258645795511691,0.406679830991884,-0.6390721410186274,-0.4235659539699554,-0.2097098231315612,0.3059678673744201,-0.0645592808723449,-0.0199151933193206,-0.0666472986340522,0.1877858489751815,0.0118485353887081,0.4472369870215654,-0.0385059788823127,-0.1827759032517671,0.5545417619645595,224
1733378370872326400,3.893580971223116,1.8123127493217583,2.251625665345788,8.327022268107532,-2.6923314970329404,4.425204214414954,-1.2588739395141602,-2.127619981765747,1.493985891342163,-0.5625464938352942,-0.2678425409996357,0.4501530236067179,-0.6396593513135278,-0.5005906820297241,-0.1020499989390373,0.5026586055755615,-0.0619672536849975,-0.049621045589447,-0.0298466086387634,0.1893820762634277,0.0226858183741569,0.4276356299728155,-0.0017038993537425,-0.4168757510274648,0.5013029237300157,225
1733378370912326400,6.233381179106235,3.2279958323091265,7.267351302123069,8.474798169648647,-3.3711990191072223,3.6032223528698086,-1.376100778579712,-1.5171016454696655,0.970732569694519,-0.5361116785325737,-0.2630696157972553,0.497072594179695,-0.6295217453866669,-0.6000277996063232,-0.0608288943767547,0.629063606262207,0.0446254014968872,-0.0375658720731735,0.0315377712249755,0.1568467020988464,0.0182712599635124,0.6827110457599163,0.0104770027101039,-0.5297137563087045,0.4039671696156263,226
1733378370952326400,4.777557516649365,4.284188308528066,6.702455319404602,8.528367262750864,-3.706736503358185,3.1140707624435424,-0.7836609482765198,-0.7176350355148315,0.2595287263393402,-0.5237280442695859,-0.2590282808343156,0.5235751398713634,-0.6200663867329557,-0.9372162222862244,0.0111920889467,0.6395694613456726,0.0224332809448242,-0.0615517795085907,0.0625005364418029,0.1685813963413238,-0.005868375301361,0.7567635394424199,0.1496289670467376,-0.4939873400196433,0.5487327834248542,227
1733378370992326100,3.8866187309950586,4.4323724986091255,6.426530007812381,8.60183640358746,-3.786237617835402,2.8005735528260467,-0.2584223747253418,-0.6108133792877197,-0.1074053272604942,-0.5186693351218002,-0.2613650649894301,0.5374930670580245,-0.6113686926228155,-0.5653592944145203,0.2380203455686569,0.8300793170928955,0.0407434105873107,0.0068375766277313,0.0355261601507663,0.1971945464611053,-0.0676317662000656,0.7673346178174019,0.5369254350662231,-0.3588809504374861,0.6030810442060232,228
1733378371032326100,2.780898546019196,4.409316032670438,4.802635551543534,8.66847248353362,-3.735647540543973,2.6594921804875136,0.2049438059329986,-0.1859655231237411,-0.2466588020324707,-0.5163455443034805,-0.26766050522017,0.5410743773299992,-0.607440185643052,-0.6601316332817078,0.2699242830276489,0.9964441061019896,0.0257609486579895,-0.0628696680068969,0.0314066410064697,0.223546415567398,-0.1254574954509735,0.7230822191148996,1.0828219652175903,-0.2455418637663126,0.5174561861515045,229
1733378371072326400,1.8393255516707896,3.772566235357522,2.787900241474808,8.743792805194854,-3.526562014776468,2.698113295304775,0.7114816308021545,-0.1496091485023498,-0.6308038234710693,-0.5185703479920643,-0.2783068361452213,0.5338350010379967,-0.6071656869536465,-0.7023794651031494,0.3485945761203766,1.16023051738739,-0.0769929885864257,0.0065696835517883,-0.0172716975212097,0.2200548350811004,-0.2303438037633896,0.6387579222649336,1.6110268831253052,-0.315710940144211,0.356201209834218,230
1733378371112326400,0.6038420917063951,2.2106220393061635,1.031540265521407,8.872407494670153,-3.1917958071589467,2.695034618511796,1.0936497449874878,-0.556909441947937,-0.6202242374420166,-0.5174113575012976,-0.2994133795912815,0.5224395670305765,-0.6080247237056766,-0.3721722960472107,0.3680671155452728,1.283477783203125,-0.0431830883026123,0.1954424381256103,-0.0684742927551269,0.2114180028438568,-0.3288727402687073,0.6007371114283799,1.8677747249603271,-0.5305744647912681,0.0957025999546051,231
1733378371152326400,0.3969102368414401,1.2525775103673338,0.0217202488988637,9.02636763780415,-2.8665687045201658,2.545163205996156,1.0557582378387451,-0.9496410489082336,-0.5766584277153015,-0.5095361996515559,-0.3263442946941728,0.5135486272176267,-0.6083913859645446,-0.0922753810882568,0.3707211911678314,1.2028104066848757,-0.0344448685646057,0.3676724433898926,-0.100611925125122,0.2305566817522049,-0.3528349101543426,0.2639209855437278,1.8582876920700075,-0.8026727654412388,0.0232157481536269,232
1733378371192326400,0.2830722607374191,-0.0256125801622867,-0.4103586242184042,9.177018217998745,-2.580176651710272,2.30117982371822,0.7729777693748474,-0.9196089506149292,-0.4794608652591705,-0.5002320232979276,-0.3526248616491454,0.5082599631326723,-0.6058841368701998,0.1801265776157379,0.4181350469589233,0.99091899394989,-0.0821790099143982,0.5071548819541931,-0.1630557775497436,0.232497438788414,-0.4318376183509826,0.2248679090499877,1.746027946472168,-0.9606794074870646,0.535245525342226,233
1733378371232326100,-0.045215106254816,-0.892035202588886,-0.2746137906022369,9.290873145237564,-2.3748528165638447,2.0518593181960285,0.6317480802536011,-0.7752416133880615,-0.3133047521114349,-0.4912423431253941,-0.3738548807589445,0.5055856200748772,-0.6027409285979705,0.3931397795677185,0.3286344408988952,0.6188888549804688,-0.136398434638977,0.6469907760620117,-0.2314528226852417,0.2331264466047287,-0.5153058767318726,0.2985007160156965,1.5842599868774414,-1.1326090686842798,0.7001800669550895,234
1733378371272326100,-0.7153624385178089,-2.086094911405444,-0.821284380800277,9.369203754630684,-2.248906469514966,1.8250535729512567,0.4227153956890106,-0.7997728586196899,-0.1189407780766487,-0.4822679916711277,-0.3903650568869768,0.5045426522540407,-0.600391041691641,0.5167312026023865,0.2514728605747223,0.2489635497331619,-0.1866315007209777,0.6864428520202637,-0.2138686180114746,0.2412464618682861,-0.5804978609085083,1.117659044572711,1.421385407447815,-1.1343009672939777,0.9632882748112082,235
