time_imu,phone_acc_x,phone_acc_y,phone_acc_z,phone_gravity_x,phone_gravity_y,phone_gravity_z,phone_gyro_x,phone_gyro_y,phone_gyro_z,phone_ori_w,phone_ori_x,phone_ori_y,phone_ori_z,watch_gyro_x,watch_gyro_y,watch_gyro_z,watch_acc_x,watch_acc_y,watch_acc_z,headphone_gyro_x,headphone_gyro_y,headphone_gyro_z,headphone_acc_x,headphone_acc_y,headphone_acc_z,frame_imu
1722247020788232000,0.8296607256099581,22.955568108177182,-4.707524195480347,-0.1911569425028748,9.695507254329325,-1.4597889128260313,-0.6220037937164307,0.1789191216230392,0.042157769203186,-0.5065555120605539,-0.5789882943957699,-0.4890818724260395,-0.411063278018057,0.7978770136833191,0.5473118424415588,-0.533667802810669,18.985989938944577,-16.27707818624973,2.053839824488759,0.2517756521701813,0.0104801589623093,18.045825057828424,0.720331609249115,-0.5139045215519145,-0.1017721473929472,0
1722247020828009000,1.83757257052362,14.841014286273715,-3.633763329344988,-0.2569505072102881,9.74040496519804,-1.1085516090095042,-0.9903384447097778,-0.2385887950658798,-0.1863923817873001,-0.5184832000732688,-0.5682680428464365,-0.4833133893194618,-0.4179172933440668,0.4442231059074402,0.6348678469657898,-0.4389474987983703,11.48273261640668,-11.621719062292575,0.4115700093021616,0.1489041596651077,-0.6119745969772339,14.323167639499902,0.3754285275936126,-0.1420240234835073,-0.3326305107630789,1
1722247020867787000,-0.7300834031138569,3.180198308345675,-0.7324223674554378,-0.2733864224980585,9.774379130992292,-0.7464458513066172,-0.5312524437904358,0.1642936319112777,0.1189616620540618,-0.5301786655301276,-0.5591379063120266,-0.4747872651842753,-0.4252676262041891,0.6946638226509094,0.5200969576835632,-0.5471385717391968,4.4267701485574245,-6.550749677199125,-1.783209112173319,0.0966360419988632,-1.721360445022583,1.0993345025267451,0.2566321194171905,0.7599740259215235,0.8570368813786655,2
1722247020907564300,-1.0428029794223606,-8.772504520416259,-1.489927592110634,-0.219839267233014,9.781811326819655,-0.6620106414280832,-0.4354875385761261,0.7541477084159851,0.0544310957193374,-0.5272318577996545,-0.5535364666663516,-0.4768128868337297,-0.4339050361068491,0.9793996810913086,1.767411470413208,-0.4215674996376037,-3.93861312212646,2.337398407438397,-3.546301318991184,0.2258059978485107,-1.2834738492965698,-11.915585104244949,0.3848029673099518,-0.5783646456984802,0.6579616582982242,3
1722247020947341300,0.0378623323392122,-15.230321062374117,-1.1459668551683426,-0.1719374974437989,9.803564308944344,-0.1759312615213915,-1.7942557334899902,0.8974362015724182,0.1740922629833221,-0.5321645372093461,-0.5335765281798324,-0.4735674040211669,-0.4558847573250433,1.2252960205078125,0.9381781220436096,-0.10918989777565,-12.423928594136235,10.225857408845425,-1.2454179940015078,0.2134649455547332,0.6556952595710754,-8.15319247237742,0.1075916364789009,-0.7645959866337477,-0.2808057040449231,4
1722247020987118600,-0.2358548199505545,-14.648815305638312,4.865586513236165,-0.0284052704875823,9.803699333500862,0.2388515723474323,0.0388018265366554,0.1213683187961578,0.4943466484546661,-0.5340118572072509,-0.519810593001563,-0.4664964163410195,-0.4764549919360364,0.4736917614936828,-0.0130610791966319,0.1847692877054214,-11.866904952228069,8.290748593199252,-4.401164874918758,0.2387000471353531,-0.0482766479253768,-9.1401530069381,-0.0448228605091571,-0.8616630068093538,0.7224971857685595,5
1722247021026873900,0.2792851434141397,-13.312383161759376,1.7877695519566534,0.1148604875521734,9.80592402381301,-0.0317716850306256,0.9210062623023988,-0.3323495090007782,0.1468626856803894,-0.5253222441742973,-0.5325325865555829,-0.4669357014926086,-0.4716105121541603,-0.8747566938400269,-0.5223677754402161,0.5296065211296082,-10.5945410836339,10.34856608914733,-4.403079476368427,0.2232495546340942,-0.1542398780584335,-9.892331556677815,-0.0599535070359706,-0.7561468688488007,0.4552382879737764,6
1722247021066650000,0.2492374668812379,-11.35840948664546,-0.3134837656140327,0.1178236664730124,9.79978362136185,-0.3474652744645252,0.5930599570274353,-0.3560720384120941,-0.0351775623857975,-0.5198681095665739,-0.544322623861733,-0.4705620886178218,-0.4604577278701736,-0.6632713675498962,-0.8731427192687988,0.6400741338729858,-8.678774097317456,7.764231148713827,-1.9820204966858028,0.2784446775913238,-0.0965628325939178,-10.1140430475235,-0.0525628514587879,-1.4096449718669055,-0.1818658940010704,7
1722247021106426000,0.2892780931076035,-9.454193821913004,0.1967102475147694,0.0803265141843818,9.791029237020014,-0.547461484847404,0.6969008445739746,-0.3302269876003265,-0.1377996951341629,-0.518202081974354,-0.5518810606355071,-0.4725886812931308,-0.4511695884436601,-0.4660136699676513,-0.843689501285553,0.5936248898506165,-6.894451470944285,6.3304439614981405,-2.055687498182058,0.2591162323951721,0.0152555806562304,-10.222236880260706,-0.3121843934059143,-1.646300057083368,-0.8795096291452645,8
1722247021146203400,0.2723321459384635,-8.7460402918607,-0.1817958061732351,-0.0249814380853204,9.763427528867124,-0.9193879774820058,0.8738116025924683,0.0855205282568931,-0.3831627070903778,-0.5115387811551502,-0.5607395609835092,-0.482127459574445,-0.4375528520284931,-0.5147194266319275,-0.5064617991447449,0.3937183618545532,-6.450226525220274,5.420791707545519,-2.873686719831824,0.2101965248584747,0.0576399639248847,-9.888085589671132,-0.5542673468589783,-1.4030556566044687,-0.8944753622826188,9
1722247021185980000,1.1613229758627712,-8.068172009956836,-0.7320774264752864,-0.1939159406211227,9.740072956764696,-1.1241767559036613,0.3017221391201019,0.1383438855409622,-0.4370725154876709,-0.507144827346441,-0.5593003926479709,-0.4944695467615037,-0.4306821781802281,-0.3287793695926666,-0.4748488962650299,0.1526796668767929,-6.379649598693847,5.801852633348107,-0.69015946206972,0.1452115774154663,-0.0221007820218801,-9.91034301418662,-0.5284973382949829,-1.4138400854691862,-0.1878440368289128,10
1722247021225756200,0.3286974090978503,-3.474910737994313,-0.2344061372458934,-0.3487487749364227,9.724674896624684,-1.2163304312050345,-0.0408484525978565,-0.2378314286470413,-0.438181459903717,-0.5095884642716106,-0.5597369336965751,-0.4987084891453565,-0.4222606025854296,-0.5332499742507935,-0.6768007874488831,0.0240416526794433,-3.6685201699495313,3.931091494449973,0.537958802888915,0.0429080091416835,4.331847190856934,-2.255736315535009,0.172896072268486,-4.369395817953348,-0.0480504347120178,11
1722247021265532200,-2.7193080590248107,11.018687702447176,4.85160884128809,-0.5737666503837332,9.70776643192172,-1.2650944621130824,1.14814031124115,-0.0070401784032583,-0.294651985168457,-0.5134483532747787,-0.5557030923239046,-0.5056638599682783,-0.4145708771074922,-1.469193696975708,-0.4439960122108459,-0.0598380006849765,9.301881445986032,-5.703489289751649,0.0263818201022688,0.0983617901802063,1.1573504209518433,9.267487008953092,0.4382201433181762,-1.0547811481162903,1.5399810783073304,12
1722247021305309400,-0.1829971447870135,13.95315710002184,-3.7131051616072654,-0.6660463266849518,9.632871057674288,-1.713053479798883,0.5004342794418335,0.2077820152044296,-0.3133456408977508,-0.5031428452358209,-0.5659664170360491,-0.5167431071531493,-0.3993817995138189,-0.1681790649890899,-1.2620997428894043,0.2467188686132431,7.762922988724708,-11.099839214479925,2.373576220756769,0.2383068054914474,-0.5945908427238464,27.3083997448206,0.1661749929189682,0.5604257419692352,2.001269094774127,13
1722247021345086000,-1.1476940442871302,12.351770535898208,0.3341910380780696,-0.7307068687744438,9.539911618947984,-2.1509407469339665,1.951737403869629,-0.6121845245361328,0.2195544093847274,-0.4911819716575179,-0.5752186315755475,-0.5280066097192375,-0.3860995333190036,-0.8667265176773071,-0.5587062835693359,0.4145053327083587,9.174665517392754,-12.759071233850715,0.204368653313443,0.1898829340934753,-0.0002575018443167,7.791652824124694,0.0890171006321907,0.0095378200580627,-0.4163759482791647,14
1722247021384862200,-0.1782535304564982,5.456915744850039,-5.86145223878622,-0.6320342400331049,9.4823052331537,-2.4200918882161377,-0.4932945668697357,0.777858316898346,0.3236253559589386,-0.4813459617024663,-0.5853424318327226,-0.5298722345286075,-0.3806781634153974,0.7014870643615723,-0.1778339296579361,0.5095298290252686,5.3080070398867125,-6.289249781322479,1.791623889297247,0.1525728106498718,-1.0873677730560305,3.240938900512457,-0.137772649526596,0.8900638294506817,-0.3156332352655008,15
1722247021424638500,-0.0503234257118776,-0.9241127409815788,-0.1280830668166279,-0.4307616895714774,9.530969603079557,-2.2683631573960183,-0.3118481338024139,0.2439724057912826,0.2410835474729538,-0.4768960189154274,-0.5803233977477072,-0.5280900398822838,-0.3961262019222304,1.0245877504348757,0.3696634471416473,0.1944389641284942,0.4299135117769241,0.1486404094159603,-0.029683154069446,-0.005600924603641,-0.0726151317358017,-3.832106219562888,0.0856596603989601,-0.4836936903465539,-0.2914928100150078,16
1722247021464415500,-0.0759305259814485,-5.170414678707719,1.366805070310831,-0.4201181304821744,9.564223637905716,-2.125916634184122,-0.3072877526283264,0.2466348558664322,-0.1890990585088729,-0.4792723074051698,-0.5747916623631139,-0.5272628661381195,-0.4023761004127532,-0.1956383883953094,0.0718648880720138,0.3154710531234741,-3.113760965842008,7.328382401669025,-1.7605577199041842,-0.0041889301501214,-0.320792555809021,-5.269449637955427,0.3607349395751953,-0.1484527230904437,0.0049019495514949,17
1722247021504192000,-0.3331315190877765,-7.54508746252954,2.4372245170637963,-0.482393750196509,9.5497836091429,-2.177005162516981,0.5028848052024841,0.0380416959524154,-0.1589303165674209,-0.4778420283603731,-0.5727559752842063,-0.5319275971437138,-0.4008375928862444,-0.4053476452827453,-0.0173197407275438,0.2333492636680603,-4.810294249603152,5.6736570460677145,-1.52538819707036,-0.0068181753158569,0.0457970649003982,-7.263342066481709,0.218959167599678,-0.8713981458168476,-1.7958194412909447,18
1722247021543964200,0.0204984520189464,-7.48919197230637,-0.3356497124537825,-0.4710572038743644,9.510944467660783,-2.3431629623144863,0.318127691745758,-0.1311794221401214,0.197369247674942,-0.4727305371304394,-0.5774019537199787,-0.5348598389669995,-0.3963051098619248,-0.2261179983615875,-0.1376361846923828,0.242991641163826,-5.640290198516845,5.173989614585041,-0.1978407859146594,0.0474574901163578,0.1822922080755233,-6.335541576898097,-0.2962024211883545,-0.8268971061155199,-2.7069097652226684,19
1722247021583740400,-1.49269471873641,-1.902738577917218,-1.2231751825332642,-0.3881003594527021,9.490562773889303,-2.439055239622294,0.2359832823276519,-0.8320817947387695,0.5458087921142578,-0.4716934421907218,-0.5869969996412532,-0.5289534293233797,-0.3913414409494313,-0.4000967144966125,-0.217436209321022,0.3546695113182068,-3.464153781658411,2.950955837473273,-0.5413817630749196,-0.1606646478176117,0.7301265001296997,-3.849674317218363,-0.42820805311203,-1.384434542764723,-2.0376101358301937,20
1722247021623517700,0.5969014787882566,9.307955212941764,-2.0636405030131337,-0.2091906666424125,9.466925877714155,-2.550285371315479,0.2450178414583206,-0.3190013468265533,0.4646332263946533,-0.4700044316022263,-0.6020548150139118,-0.5172604389323997,-0.3860926562127184,-0.652461051940918,0.4458448886871338,0.0466063544154167,5.908634261199832,-4.684840069985389,-1.1954243482332676,0.1709265559911728,0.9978560209274292,7.133501634603738,0.0379767417907714,0.2336000632937066,-0.922743571520224,21
1722247021663294000,1.455180103856325,19.87312933231592,-7.508903803992271,-0.1186169083430897,9.475892443501948,-2.5226512221977115,-0.4961220324039459,-1.016463041305542,0.4074811637401581,-0.4745944211829339,-0.6111836091305847,-0.5050485276838649,-0.3822835414475361,-0.0068085417151451,0.6040371060371399,-0.644545316696167,10.49780037280321,-13.497973537909983,0.3291103738129138,0.1203651279211044,0.9545422196388244,18.293081324297187,-0.0056543042883276,-0.2705078531207516,-0.9452105471331624,22
1722247021703070200,2.2898761932849885,23.6868049921751,-5.196625224763155,-0.0997802155239041,9.5738933835268,-2.12155186310336,-1.2524428367614746,-0.0681264027953147,0.0959702059626579,-0.4911812842313787,-0.6068626949725006,-0.4897823086033551,-0.3880359266392261,0.517407238483429,0.7249470353126526,-0.4706130027770996,15.17253289027214,-19.52728175871372,0.0267804914304986,0.4065532088279724,-0.1246245503425598,22.723819207441807,0.7147849202156067,-0.0115207711820956,1.4303355854570865,23
1722247021742847500,2.135231867279112,15.485450838696956,-2.893642881667614,-0.0214510309028904,9.65994961873591,-1.6897570676244795,-1.271557092666626,0.2178291976451873,0.2436196655035019,-0.5023733498956672,-0.5968148960420181,-0.479547301300372,-0.4018299268491875,0.9505674839019777,0.671190083026886,-0.560981810092926,11.191585770285128,-16.269042179310322,0.6246002175748347,0.1868919432163238,-1.29863440990448,12.563719342142344,0.4742378294467926,0.7723413400635123,0.4870771953050047,24
1722247021782623700,-1.1581065710995346,-0.6190799928486347,-2.186689521185309,0.0721862888186704,9.74562825280428,-1.0899249422118067,-1.6033482551574707,0.3437376618385315,0.1149765774607658,-0.5159184737580751,-0.5803125988670595,-0.4677691695404222,-0.4222056059727097,1.3903825283050537,1.2418310642242432,-0.8347277045249939,3.4910815360724925,-3.322040143662691,-1.0081839398533106,0.2185508906841278,-2.4188928604125977,-5.447974313503504,0.1479727178812027,0.2354996133047155,0.2186468060454353,25
1722247021822399700,-2.57782979632318,-12.519283988088368,-0.7325906366944313,0.1282623141073621,9.794832136434316,-0.4639115699034184,-1.895499467849732,0.8830007910728455,0.0414912402629852,-0.5284686939692055,-0.560135553645373,-0.4581496134772822,-0.4439234112134553,1.4406120777130127,2.2110378742218018,-0.8539742827415466,-4.669300555548071,8.337786823228,-3.95938936817348,-0.4844481348991394,1.9558287858963013,-13.890419196557998,0.6647970676422119,-4.377491738386452,0.0698753723946399,26
1722247021862176300,0.6331801221325993,-15.496322945845126,2.8430682942062613,0.1166537550439592,9.802312847578524,0.2672987731474451,-1.2799420356750488,0.4361062049865722,-0.0140712345018982,-0.5410954205523119,-0.531946946943833,-0.45100332673414,-0.4699407010717972,1.2350088357925415,0.7869829535484314,-0.7370219826698303,-13.396509890210629,10.375932234978675,-3.914429113462567,-0.1361605823040008,-0.8752927184104919,-6.159725575786829,-0.1474787145853042,0.8762439053475857,0.1402030916666612,27
1722247021901953500,1.181590030278638,-15.82614292923212,2.1332471232026813,0.0963150510308332,9.794849087569116,0.4711954433012753,-0.0451385416090488,-0.487234354019165,-0.1497479975223541,-0.5484978351882087,-0.527148883956797,-0.4450727729160476,-0.4724133182190542,-0.2964789569377899,0.0035340369213372,-0.3048225045204162,-12.324672101092338,10.989345872628688,-3.828980196496844,0.0570596158504486,-0.3644492924213409,-10.052729039382934,-0.0228340215981006,-1.181528363219276,-0.0323837365313433,28
1722247021941729800,-0.4285241397777572,-14.096163887465,1.448533505448699,0.0641565791893051,9.798721545088291,0.3890161956559866,0.5232251286506653,-0.1878356337547302,0.0017071190522983,-0.5505606918694506,-0.5320551962538433,-0.4439402685719968,-0.4655290247506479,-0.504586935043335,-0.4445127546787262,0.188821479678154,-11.487425158137082,8.207161962974071,-3.471153431287408,-0.0542999505996704,0.1488367021083831,-10.509559784179926,-0.2403690069913864,-1.7738775124654174,-0.4393490833159535,29
1722247021981505800,-0.1849182673090137,-12.44300271244049,-0.3966717884430661,0.0753836646544514,9.805488555005192,0.1306164029528387,0.7005744576454163,-0.0461003482341766,-0.0124782137572765,-0.5440386006373579,-0.5403062683115527,-0.4487867570717665,-0.4590004432329563,-0.156519204378128,-0.4641429781913757,0.5283825993537903,-9.407124612224102,7.189173252943157,-2.987584317168593,-0.0186521857976913,0.0917307212948799,-9.71565338577926,-0.3319162428379059,-1.208646160312742,-0.2642427831103093,30
1722247022021282300,0.1919706335059367,-10.790133798360824,-0.4595055169641971,0.0267995294911088,9.804919230684638,-0.1822904395560733,0.953316569328308,-0.071142666041851,-0.2122481763362884,-0.5370947485408417,-0.5484232186853738,-0.4566466896892048,-0.4497054944738715,-0.6842640042304993,-0.3745062053203583,0.6799495220184326,-8.043947084760665,7.663101847535371,-3.2681174148172136,-0.0580717884004116,0.1001669466495513,-9.883321736270188,-0.389822244644165,-0.9914349765609948,-0.1465405784593429,31
1722247022061059600,0.8492585024621337,-9.802314016622304,-0.8228525068998336,-0.0727887984561966,9.791090027296542,-0.5473789211304858,0.7987266182899475,0.2273471653461456,-0.2223660051822662,-0.5286920394690909,-0.5556085248919025,-0.4681962453904452,-0.4388349367131043,-0.8253228664398193,-0.444353312253952,0.4042258560657501,-7.577080099117755,6.527313272032141,-2.6433289811939,-0.1049464493989944,0.010859296657145,-9.474690081974863,-0.4385794103145599,-0.5200131040927023,0.1297349987421184,32
1722247022100878600,0.8861703291434794,-5.129392932489514,-0.2995697334866971,-0.1215221465316135,9.77249755502939,-0.8086459946319461,0.5304226875305176,-0.0411377176642417,-0.0328952148556709,-0.5209308362118599,-0.5599228855401408,-0.4771958015682533,-0.4328990815554914,-0.3533094823360443,-0.8414013981819153,0.0895064771175384,-5.82570112644732,3.9095086081951855,-0.0392465532392263,0.0276050008833408,-0.2150218486785888,-9.633356210842727,-0.5602070689201355,-0.5758257018053904,0.1781386536388658,33
1722247022140656000,1.515511530700326,7.57850750157237,-1.0099088639497755,-0.1930143521388992,9.76119874690175,-0.9231097744841128,0.1377083361148834,0.0253513511270284,-0.4677237868309021,-0.5195395444896761,-0.5615730670069002,-0.4813534980470718,-0.4278004027642648,-0.9745426774024964,-1.147672176361084,0.154802456498146,2.7112814044356344,-1.0998767196446655,1.2710346658170222,0.4263999760150909,-1.6064515113830566,17.0908776181221,-1.894563794136048,6.343995516988635,0.91627510615848,34
1722247022180434200,-1.085238757156953,12.03941606657505,-2.6628151874303816,-0.2680838408442214,9.727170220571756,-1.216838819118589,0.4523146152496338,-0.3428559601306915,-0.0998349040746688,-0.5149068806234524,-0.570109854511477,-0.4868431669146916,-0.4157276404074481,-0.4886188507080078,-0.2795439064502716,-0.3854764699935913,9.668780575445291,-9.70614438367784,1.5811480782151222,0.0847478210926055,2.785670757293701,16.747633505016566,-0.2202428877353668,0.8924897414233535,1.1620575006823983,35
1722247022220213000,0.3409473074052482,14.61026959414482,4.8420498625651,-0.3334652445541695,9.745492643725871,-1.0414035609532146,0.5526057481765747,0.414885938167572,0.0962856411933898,-0.5194106675279978,-0.5614874205546972,-0.4876768218842718,-0.4208510102987325,-0.0879880785942077,-1.5037602186203003,0.6350855231285095,10.865461134284734,-11.937626255661248,-0.508676667368412,0.0881090238690376,-0.6289432644844055,9.908305370879171,0.4973483085632324,-0.4895776338186114,0.3188929311811924,36
1722247022259991000,-0.1070457404143176,10.291714321112632,-1.0837012453913688,-0.2187154325685463,9.622357846966386,-1.8795722218632696,1.76561176776886,0.2177861928939819,0.2295988798141479,-0.4922644343254909,-0.58643990561934,-0.5019160805108153,-0.4022987687469275,-0.6471467018127441,-0.2506867945194244,0.6838510036468506,7.996358235111832,-8.90404298838377,1.283430037009716,0.1276645362377166,-0.2365263551473617,6.815953103768825,-0.3927818834781647,-0.1643177979540079,-1.384135413687676,37
1722247022299768600,1.0866358375385403,4.156505346944928,-4.88124293205142,-0.0861588735996745,9.60357014438808,-1.983532362553477,-0.4675996601581573,0.1617172658443451,0.4118974804878235,-0.4833416947930942,-0.5888677365786625,-0.5043478864631995,-0.4065080617946928,0.714354395866394,0.3208301365375519,0.2954383194446563,5.135847223195434,-4.351516462391615,3.3280595500826835,-0.0410843715071678,-0.1808739900588989,-1.0549233330659569,-0.3906170427799225,-0.4723507508162409,-1.1718349444616585,38
1722247022339546600,0.9334327233169228,-1.9161042554467915,-0.985848627796024,0.0484892919201636,9.652068510097264,-1.733664744542539,-0.8509828448295593,0.2911751866340637,0.1596914380788803,-0.4870468686487005,-0.5848220458173645,-0.4963622475656075,-0.4176038606941069,0.9282440543174744,0.3190079927444458,-0.1580496579408645,-1.365536657810211,1.2948743910878897,-0.2789396909773349,-0.2444493472576141,-0.2694719433784485,-1.573619436275959,0.1069919019937515,0.4808932459730655,0.8589211607553064,39
1722247022379325400,-0.5379859831567854,-5.81788548426032,2.7615058632850644,0.083686254674755,9.692152098682522,-1.4918313799053429,-0.19085194170475,0.2770932018756866,-0.0792462229728698,-0.4903756051580819,-0.5759164605827901,-0.4943505469499631,-0.4283334075369566,0.6746996641159058,0.0465375930070877,-0.1825927495956421,-3.489675760927796,4.509058555665612,-1.668113829484582,-0.1592994332313537,-0.65348881483078,-4.998090611365437,0.553037166595459,-0.0865646139895077,0.6777613143980503,40
1722247022419103500,-0.0449523636654019,-8.023268453869223,2.443199645950645,0.0015572487979268,9.681553547778725,-1.5613859776467085,0.394443541765213,0.0607585534453392,-0.4006535112857818,-0.4891702800071066,-0.5744618699718758,-0.4996019298498193,-0.4255631683933764,-0.1761112809181213,-0.0804238691926002,-0.0373289622366428,-4.899095399606227,7.273980364874005,-1.8849404708981512,-0.0592997148633003,-0.0618866868317127,-6.72230276016891,0.543878436088562,-0.8598858410689979,0.1084460539326071,41
1722247022458881000,-0.3065994494603946,-7.422755798846483,1.6623920908369123,-0.1536856370415538,9.650410221496225,-1.7367618337750437,0.6015647053718567,-0.1221481934189796,-0.3048247396945953,-0.4872487278728814,-0.5747336128616115,-0.5081648167635003,-0.4171791390025934,-0.6707399487495422,-0.5589017868041992,0.1775673627853393,-6.140111943778395,6.327696124094724,-0.553224249625206,0.0457658469676971,0.2351443767547607,-5.478908965471387,0.2062026411294937,-0.7984272368259727,-1.275791212694347,42
1722247022498660000,-0.7760713203720748,-0.7296990069061517,-0.1287014909759163,-0.2414645130584947,9.590639935666324,-2.032663911599666,0.7380519509315491,-0.5138095617294312,0.0454151518642902,-0.4832258773728551,-0.5836131470277273,-0.5128671518422905,-0.4035539923345445,-0.8846982717514038,-0.775627851486206,0.2593822777271271,-3.2740970737487074,2.522235919395089,0.1973392661333084,-0.1518681496381759,0.7353155016899109,-0.7004739353351295,0.0271744951605796,-0.7356206520400941,-1.3670346412830054,43
1722247022538436900,0.4855150240221992,17.183318585932255,-3.377365140521526,-0.2466935180194675,9.552731937554478,-2.203369437829405,0.4337113797664642,-0.9480393528938292,0.021536000072956,-0.4836310932541011,-0.5949095400400065,-0.5083534349766828,-0.3921229069526109,-0.9709541201591492,0.0638148486614227,-0.1478546112775802,8.636747557970882,-6.7753072051256895,1.5642448742091657,-0.0399236679077148,1.4651938676834106,11.38578966100216,0.5168636441230774,0.5181852676110342,-0.7795312515676021,44
1722247022578216000,-2.3563293178796765,28.42905212599039,-11.771922483241555,-0.3015336539708078,9.560193943998216,-2.163827408774942,-1.1826213598251345,-0.9742169380187988,0.2645592391490936,-0.4967849584396777,-0.6065013886825946,-0.4924231542215013,-0.3779949774147044,-0.6628580689430237,0.9506171345710754,-0.6518250703811646,18.5573319801867,-20.500508366954325,0.5309072038769722,-0.0006348631577566,0.3611137866973877,23.89514262218476,0.8099736571311951,-0.1011934341895394,-0.0176636806841706,45
1722247022617993700,-0.1975199564624577,22.123101385235785,-3.1951942174255845,-0.3447668291607871,9.67399158809185,-1.5701646196469663,-0.883800745010376,-0.3429243862628937,0.061152383685112,-0.5195811209190921,-0.5940524557824002,-0.4766107398281693,-0.3872717368625099,0.5070699453353882,1.7272213697433472,-0.7224948406219482,19.019673597359656,-20.37994955816269,-4.555056336730718,-0.0524833798408508,-0.7056748270988464,23.27492281165123,0.6508515477180481,1.9122835281148551,-0.3031741877194494,46
1722247022657772500,0.6422653458639979,0.6193541336148977,-1.9401029706716533,-0.2244771379004232,9.715516607657074,-1.3148146247021852,-1.1522047519683838,-0.869177520275116,0.5176041722297668,-0.5316633518178747,-0.5980283136916659,-0.4576013857185031,-0.3876818741099223,0.8834100365638733,1.217685341835022,-0.2184934318065643,5.16270834211409,-8.513319331222773,0.8611270002365112,-0.1999309509992599,-2.2720606327056885,2.065767870430648,0.0751880407333374,1.1381297318018972,-0.9202074041061102,47
1722247022697550600,-2.103067819646746,-13.80673202856779,-1.1458487086813895,0.087299778129952,9.77938497645557,-0.7255191639382391,-1.7563841342926023,0.244931161403656,1.075632095336914,-0.544672114360591,-0.5904731940260888,-0.4339730308355874,-0.407849265164176,1.5607243776321411,1.415027379989624,-0.4262349605560303,-7.058950543749332,4.09969332639873,-1.8266846812844275,-0.6136605143547058,-0.2274576127529144,-16.084634875464438,0.5606368780136108,-2.999972966359556,0.2789052224521525,48
1722247022737328400,0.9475118098128588,-15.353115082871913,2.898839281266928,0.43633682282269,9.796921217668055,-0.0180159818452259,-1.2628706693649292,0.974981427192688,0.452217549085617,-0.552046613786697,-0.5721641412822231,-0.4165894320092473,-0.4408241506472359,1.5156657695770264,0.3617928326129913,-0.4506700038909912,-13.716824378627535,11.550739400184154,-4.762808275806903,-0.2511746287345886,-0.4439036250114441,-2.696358560591936,0.3277299404144287,1.5075447896048426,1.970105748616904,49
1722247022777106200,1.1938062455121428,-13.20148182362914,4.441121914514899,0.4140500626148656,9.797823719465732,0.0396266933969222,0.6067929267883301,-0.3403874635696411,-0.4606550633907318,-0.5518554121206795,-0.567826837327476,-0.4189895985308786,-0.444382580576829,-0.5330811738967896,-0.1970666050910949,-0.0319982469081878,-11.27058624176383,12.855816620856524,-4.51450805324316,-0.1921554207801818,-0.1822312325239181,-9.912707989752292,0.109728991985321,-1.3231143971443176,-0.132670129745407,50
1722247022816885000,-1.4119804290771485,-10.607940663433077,1.96047589661479,0.2688987556899898,9.800047825255987,-0.2390450490929186,0.720126211643219,-0.0698417574167251,-0.1516802757978439,-0.5488835680196326,-0.574357217894006,-0.4269680224147117,-0.4319015157596263,-0.9781560897827148,-0.4522754549980163,0.2920054793357849,-7.411313782855868,7.873751846140623,-0.8199943409897387,-0.0617481544613838,0.1101773381233215,-10.189430004680156,-0.4755861759185791,-1.5707251761391758,-1.1187363914806394,51
1722247022856663000,-0.8170180285926908,-10.435756881344318,-0.1123497103076428,0.2799686321662739,9.78932184858024,-0.5110407296186312,0.6706959009170532,-0.0907477065920829,0.1279686391353607,-0.5413268883764727,-0.5828885637897632,-0.4316210694218066,-0.4253343325130123,0.172774001955986,-0.3206957876682281,0.4105744361877441,-6.178768129909038,5.273189409005641,-0.582599981713295,0.1406134963035583,0.0869605466723442,-9.932412222653626,-0.6262788772583008,-1.256531216429174,-0.9428265015408396,52
1722247022896440800,0.0251192071547731,-9.916363589650391,-1.6818986092090606,0.3262300326036289,9.774057643952965,-0.7292119540415704,0.4623521566390991,0.0693838745355606,0.1199546381831169,-0.5338561427950445,-0.5899800586423152,-0.4348597412739062,-0.4216848402876383,-0.0653339028358459,-0.234145849943161,0.4170379936695099,-8.010130739876628,6.450729798567295,-2.197269221258164,0.1192051544785499,0.0250548012554645,-9.944970090931651,-0.5520797967910767,-0.7676837965812534,-1.4529830322034656,53
1722247022936219600,0.60934178510122,-10.410082341861724,-1.9937983205020424,0.3697369467010721,9.764845578971505,-0.8255235527399927,-0.0076242657378315,0.2220199555158615,0.0480339266359806,-0.5286893538855306,-0.5922124884475289,-0.4374635486120711,-0.4223714696792466,0.5002679824829102,-0.2120341509580612,0.1879744678735733,-7.72392135015726,5.81984421711266,-1.819950258462876,-0.0433166474103927,0.0736325979232788,-9.825452900147438,-0.4782399237155914,-0.7499141850043087,-1.53525916435197,54
1722247022975997700,1.3525710855141282,-9.48473041447401,0.491195955735445,0.3091545773033052,9.768293673598766,-0.8094745544105768,0.1926469206809997,0.1815558969974517,-0.3906197845935821,-0.5288376374003768,-0.5887026746777451,-0.4412492244182628,-0.4231536640919682,-0.2705136835575104,-0.3888334035873413,0.0395903214812278,-8.431873804679512,7.469252761605381,-2.42592483215332,-0.0959961265325546,-0.0373043157160282,-9.639251114100215,-0.5238908529281616,-0.90584263253659,-0.9417389254998416,55
1722247023015775500,0.2693862286796793,-5.570571934646368,0.4558336235184222,0.1165292336151469,9.75758114092648,-0.9728315445084124,0.3967989981174469,0.1592543125152588,-0.5678510069847107,-0.5272341188623457,-0.5878452302885825,-0.4517063096598926,-0.4152390851166375,-0.7297244071960449,-0.3908033668994903,-0.0085458494722843,-5.992091712087393,4.698785008707643,-1.1539923407137394,-0.4158751964569092,2.692622661590576,-9.129629859358072,-0.3459720015525818,-2.02928011438027,-0.7996723415162413,56
1722247023055553500,1.2228842367626729,8.400085750752687,4.509345555913448,-0.1399570901494938,9.748412915086746,-1.0579540790639816,1.1076688766479492,0.2870740294456482,-0.3770651817321777,-0.5261433527390807,-0.5796847894539467,-0.4668042332141917,-0.4113789475132692,-2.2862699031829834,-1.413665771484375,0.9060965180397034,0.3519903141409158,-2.76621418710649,-0.7707265983432531,-0.2009282559156417,-0.951252579689026,1.8305749667212363,0.55222487449646,2.4955434350416064,0.6376284798435866,57
1722247023095332000,1.3049534481622278,14.271083231997489,-4.341650901937484,-0.1938944411753676,9.698916185989976,-1.4366050211153925,-0.1822826266288757,0.5487044453620911,-0.1326796263456344,-0.5143551302336292,-0.5866872798026297,-0.4785859420216914,-0.4027311954861315,0.4523103237152099,-1.2403134107589722,0.0627156123518943,11.755811890918016,-12.189294493353366,2.5739094080090523,-0.0009246234549209,-2.4704694747924805,30.0240580491662,0.2653605043888092,5.1562949679404495,1.9592748502619564,58
1722247023135110100,-1.680325368542969,14.984012890410424,0.2265115846037864,-0.1997215581599623,9.698858902844789,-1.436181681136787,0.6889007687568665,0.0904797092080116,-0.0885402038693428,-0.5099168841663464,-0.5810969692479037,-0.4853361752393906,-0.4083623855226361,-0.3261604309082031,-0.2251480370759964,0.4305113554000854,13.289282856678962,-9.618825581187007,-0.2896937247037887,0.3392960727214813,0.2037763446569442,11.27616141154766,0.2403536140918731,0.470163944829069,-1.02941333649531,59
1722247023174956000,-0.017617288825754,11.37287874150276,-2.200204544057697,-0.2607085811021737,9.651353639826178,-1.7186545146763323,0.569230318069458,0.064628005027771,-0.1841429322957992,-0.5023084299393743,-0.5865055451577909,-0.4935972416275774,-0.4000739964529871,-0.3043994605541229,0.3445703089237213,0.5224126577377319,9.315451121655109,-8.947788606607913,-0.4353963271021843,-0.0935318768024444,-0.54383784532547,9.527431492081284,-0.1595009714365005,0.2136990839775651,-0.6643773705594241,60
1722247023214736400,1.0887773796118796,4.726206099596619,-3.213500273966789,-0.2722049941611476,9.63840531092584,-1.7881361933119595,-0.3728764355182647,0.2748043239116668,-0.0205480754375457,-0.4994748837648637,-0.5868268260188031,-0.4967935717819676,-0.3991932695343213,0.800273060798645,0.4582228660583496,0.1275238394737243,4.3624774168670175,-5.650142314967513,0.965422071969509,-0.1121111735701561,-0.1368355751037597,3.273101048448681,-0.3174038827419281,0.3725921534691006,-0.3293968991367146,61
1722247023254517800,0.7551307506088167,-0.2374783842980861,0.2430653906501829,-0.2855677673475816,9.685296241438389,-1.511244228644669,-0.8613336086273193,1.1311328411102295,-0.2672412097454071,-0.502123136254179,-0.5720257464244362,-0.4998385280298519,-0.413304098465718,1.5405371189117432,0.3464575707912445,-0.0620105378329753,-0.3857061212599277,-0.462135280945897,-0.5353460631072521,-0.1997411847114563,-0.2216593325138092,-0.6373132033493369,-0.4565404653549194,-0.100422349352343,-0.4124106979100033,62
1722247023294298400,0.3680285718806088,-2.954431989151239,2.086658975028992,-0.3894266396204009,9.704285019546749,-1.358522687394917,0.0541114397346973,0.4353381991386413,-0.5220716595649719,-0.5017394455239864,-0.5568412882010255,-0.5091101637458794,-0.4230746222629895,0.8166975975036621,0.2598194777965545,-0.1946305036544799,-1.5986170994102953,2.2442226956129074,-0.9902028774827718,-0.2206922769546508,-0.1800443530082702,-2.2896770174510777,-0.3471489250659942,-0.0051369541797903,0.6267331379503012,63
1722247023334078700,-0.8879749674126506,-4.353772132363916,1.8602748161971567,-0.535527666751854,9.692692196908592,-1.3911616590626537,-0.0840368494391441,1.001264572143555,-0.2142879962921142,-0.4979429072810842,-0.546432139440609,-0.5218634113067675,-0.4255860070461808,-0.0698106735944747,0.1222093403339386,-0.0185209196060895,-2.369046176111698,4.157313740718364,-0.5758534665951505,-0.1066815927624702,-0.0589295104146003,-2.635156488393247,-0.0889948979020118,-0.2435300124872475,0.8659566123500466,64
1722247023373859000,-0.7868862174402922,-2.40500011754632,1.5111505590118466,-0.4995478967562317,9.69549322580397,-1.3850057667814195,0.1679771393537521,0.5627323389053345,0.1825719624757766,-0.4882151091057582,-0.5361363003123143,-0.5321404963226645,-0.4370701556596332,0.4164926707744598,-0.2525628209114074,-0.050340499728918,-1.9655676667958497,1.0158692336589097,1.3962246415406463,-0.1003565639257431,0.210523247718811,-2.243848455473036,0.0392378643155097,-0.3201545851474627,0.6297285203740001,65
1722247023413640400,-0.2670689647132531,-1.157415300899744,-0.5395594430185854,-0.3738292575160041,9.67014952571094,-1.5870901816152034,0.7599114179611206,-0.456322580575943,0.4484541118144989,-0.4802442899030246,-0.5452545774153029,-0.5325565960304497,-0.4341041520036474,-0.2848135232925415,-0.0324980542063713,0.0791429281234741,-0.0797077429652214,1.6837760935187338,-0.2322843958515673,-0.1082891821861267,0.2855449318885803,-0.8632859318360686,0.0420629233121871,0.1042546301247552,0.3201660563895478,66
1722247023453420800,1.419186268802732,-0.2871218283891678,0.862880273644626,-0.2737103572227992,9.62450947204232,-1.8612626581907272,0.5322896242141724,-0.1690201759338379,0.405898779630661,-0.4727475979651981,-0.5579739129672656,-0.5325064296845736,-0.4261593345865981,-0.5047901272773743,0.1400939524173736,0.1144766807556152,-0.5491495475322008,0.0556482374638319,-0.7618104475684464,-0.1474840641021728,0.1710283607244491,-0.0199274243650725,-0.1150698065757751,0.106988000611402,0.1357294716502539,67
1722247023493201400,0.9776249162647872,0.1979799021244049,-1.2604057197749614,-0.1155627906026318,9.61211176276207,-1.940193425434083,-0.2760745584964752,1.0074472427368164,0.0245266631245613,-0.4657832927616196,-0.5628420952458766,-0.5311601586423319,-0.4290963082293114,-0.3655182123184204,-0.1335641592741012,0.1302554458379745,-1.9908038148611784,-0.0570370614737272,2.0632886208355425,-0.1366635859012603,0.18869449198246,-0.237041308055073,-0.2702602446079254,0.2732612617484293,0.1538826391846872,68
1722247023532981000,0.052594137989683,0.2384709024667739,2.3259997921980915,-0.0370318751477287,9.62279565386176,-1.889656685765088,0.4529820084571838,0.4129673838615417,0.2347210049629211,-0.4572913048314916,-0.5537566699926192,-0.5382371493411995,-0.4410656906931313,0.0825969725847244,0.0237083882093429,0.0269411038607358,1.4166332233190535,-0.1843389147847891,0.121013018832542,-0.1202719360589981,0.2172686010599136,-0.0756819854473229,-0.2997860610485077,0.3481193909917026,0.3219584196990355,69
1722247023572762400,0.6484718723539262,-0.2399666939824819,-0.5490881727337837,0.0536276503224624,9.5689740473032,-2.1452866666950285,0.5266019105911255,-0.2028183490037918,0.055770069360733,-0.4476323182249922,-0.5621417910645907,-0.5416417497870669,-0.4361721635419073,-0.6123890280723572,-0.0527963489294052,0.0590126886963844,-0.2886158663392066,0.4392003955602646,0.1855640543992631,-0.1041619703173637,0.2101813405752182,-0.0967562737260013,-0.1851691007614135,0.4353407609900459,0.4785062047060578,70
1722247023612542700,0.1628191568940877,0.2984334959983825,0.2542345810487866,0.0240782010687049,9.541734158200024,-2.2638675995424387,0.1978693455457687,-0.0054796719923615,-0.0587505549192428,-0.4457274764096156,-0.5652285010331974,-0.5440053936648128,-0.4311633214539621,-0.4535082578659057,-0.0506457351148128,0.0535573996603488,0.1099357079684734,0.4408692055553198,0.4310369628489017,-0.0845673307776451,0.1605521291494369,-0.2384399410729296,-0.0814937725663185,0.2274978191621601,0.4451725287724286,71
1722247023652323000,-0.1123221829799003,-0.0316799173772335,-0.2923088756382465,0.0261308067665551,9.531273554462194,-2.307495436605811,0.0315811149775981,-0.2285717874765396,0.1128133311867713,-0.4453316815282515,-0.5675023020965206,-0.5436825023487674,-0.4289874109733236,-0.2022203803062439,-0.0715213492512703,-0.0437762066721916,0.556736057138443,-0.0308002119332551,0.5718050314545631,-0.0726959779858589,0.1505813747644424,-0.136520211035991,-0.0169816333800554,0.1573914692895487,0.3005178279917687,72
1722247023692104700,-0.3063629007581621,0.0441939465135335,-0.9607350831970572,0.076818944454845,9.525278697961568,-2.330992193657905,-0.0033824141137301,-0.214818850159645,0.191573679447174,-0.4461772094597824,-0.5728917177740066,-0.5391127967651689,-0.4267063249263907,-0.1909706592559814,0.0420516021549701,-0.0450985319912433,0.1217804595410823,-0.2028881324321031,-0.4473217426955699,-0.0858793184161186,0.1354554146528244,-0.1651470701186917,-0.0425565354526042,0.1177364996462129,0.0586358384398743,73
1722247023731885000,0.2207377869753166,-0.1676934849321842,-0.9357689842447638,0.0779389066617935,9.549670796418187,-2.228916551540047,-0.5420833826065063,0.5364894866943359,-0.1705475747585296,-0.4476816023659618,-0.5686160604633563,-0.5388124833174376,-0.4312052212184046,0.0193974953144788,0.1601394712924957,-0.0145471505820751,-0.2148871977835893,-0.1255979720026254,-0.5469160893917083,-0.1010014489293098,0.1837223619222641,-0.2359867209682241,-0.0920957624912262,0.1078828214261215,-0.0162996600386803,74
1722247023771665400,0.4258952160462737,0.5435977586239576,-0.2199040030322968,0.0743433572547044,9.605122634527088,-1.976476891084016,-0.6001946330070496,0.4357376992702484,-0.0527760051190853,-0.4502353280898885,-0.5565039990954609,-0.539514201097216,-0.4433010545737397,0.1969688236713409,0.1266795694828033,-0.1078171730041503,-0.1066243914633989,-0.2307119589030742,0.276662393695116,-0.1038277819752693,0.1519478559494018,0.0893491027420386,-0.1528389006853103,0.1928698473679833,-0.0057936034448823,75
1722247023811445800,0.1180013793937861,0.1671206534802913,0.3653226739227772,0.1060060312361922,9.64446738744378,-1.77296346636042,-0.4511107802391052,0.3106246292591095,0.1021738499402999,-0.4521794741621302,-0.5488193092147725,-0.5377669968466738,-0.4529213840483725,-0.1305693686008453,-0.0250291638076305,-0.190102532505989,-0.1203846212685108,-0.3613444179415702,0.7155483164787292,-0.0740596950054168,0.1345507800579071,0.1058440547406673,-0.185190349817276,0.090216368829552,0.0606511603176593,76
1722247023851227400,-0.5434131958372891,0.1187105505764484,-0.2500726390637457,0.1877244473035447,9.663250413846969,-1.660351378789544,-0.1630283892154693,0.8864215016365051,0.1088600158691406,-0.4496806899002933,-0.5440558189935226,-0.537268673663843,-0.4616633482470463,-0.3474484086036682,0.0120702674612402,-0.1690780073404312,-0.0821481218546628,-0.2419920623302459,0.135162503683567,-0.0545818917453289,0.1281423717737198,-0.0108491326979594,-0.2290283590555191,-0.1081596199403516,-0.0636437525626504,77
1722247023891007700,-0.2715896570080891,0.0143038351625204,0.5930244912244379,0.2506402280849404,9.661711952233317,-1.66098836151883,0.0878562182188034,0.7337716817855835,-0.0448527745902538,-0.4389980733853762,-0.5352204499905229,-0.5461006357706358,-0.4717985316867902,-0.0880453437566757,0.1957512497901916,-0.1524883061647415,0.5833318031191825,-0.8042658798515796,-0.0374748673915863,-0.082944318652153,0.139759749174118,0.0293897172309574,-0.2539446353912353,-0.1313570287196896,-0.0570195121173048,78
1722247023930788000,0.7848092650357633,0.2136006651043892,-0.8674154328562319,0.2247955379335209,9.663680037435888,-1.653230294737965,-0.0633752271533012,1.3121596574783323,-0.3040875196456909,-0.4308557238263957,-0.5238876087425789,-0.5566264985466617,-0.4796584068625492,-0.1767885237932205,0.0434751696884632,-0.1127791106700897,-0.0838221925467252,0.4999304663330316,0.772218882727623,-0.0914937183260917,0.1240299716591835,0.0228326511371531,-0.1829577982425689,-0.0156840911318256,0.083287199754035,79
1722247023970568400,-1.267855451259017,-0.4328010499119758,1.9228737495817243,0.4481406943956389,9.654666709896922,-1.6604098309785127,0.3928157687187195,2.444667100906372,0.661175012588501,-0.4057807695193156,-0.5084621952903303,-0.5710722701000752,-0.500684148646079,-0.0521712303161621,0.0418969802558422,-0.0944361239671707,0.2517863111138343,0.0996533834069967,0.2259633030712604,-0.0915279164910316,0.0440672487020492,-0.0359112873196951,-0.1687601953744888,0.0126327201875916,0.0408547601874219,80
1722247024010350000,0.4559911521676927,0.5361679008841514,1.0863245796322822,0.8338848461110144,9.600732290613651,-1.81685609183982,0.5811768770217896,2.1483376026153564,0.4365045726299286,-0.3685407474657399,-0.4972339885089231,-0.5877008096641227,-0.5210987138994805,-0.4843561947345733,0.0024120472371578,-0.0253679733723402,-0.3534153785079717,0.0724035574316978,-0.3739958097219467,-0.0619814060628414,0.0084602553397417,-0.0002318491234065,-0.1502530723810196,-0.0491276263563195,0.1339671655523125,81
1722247024050130400,0.255046043562144,0.019349428114295,-1.0031973836123942,1.085407464787364,9.563592354264856,-1.8788233031921089,0.2531283795833587,2.5388705730438232,0.1199316009879112,-0.3333397952489544,-0.4762392959724056,-0.6074450252758968,-0.541379053474471,-0.416163831949234,0.0265267584472894,-0.1390667706727981,0.0456026442676782,-0.421910822585225,-0.0424994175553321,-0.0347729548811912,-0.0084561808034777,-0.006173750452444,-0.1336896866559982,-0.0320836439064936,0.1189842438181396,82
1722247024089910800,-1.570626830331236,-0.0258797066658735,-1.952788264721632,1.440741536398232,9.54088601693809,-1.7510417035400867,-0.2685957849025726,3.165726661682129,0.6180798411369324,-0.2942326171745965,-0.4503089581426286,-0.6216913387320072,-0.5693407603294233,-0.4625877737998962,-0.0844509452581405,-0.2714101076126098,-0.3472895891040563,-0.6639747811079025,0.5399485884666443,-0.0387376211583614,-0.0109958201646804,-0.1086532395430374,-0.1219402477145195,-0.1208764051071368,0.125952721990738,83
1722247024129691100,-1.5203142548069355,-0.4841179801732301,-1.1249532932341098,1.936456576993316,9.519834461081029,-1.3391283972255883,-0.4938209652900696,3.70161247253418,0.910581350326538,-0.2467102676716264,-0.4166397134465415,-0.6282419086220457,-0.6089806915822621,-0.3314302861690521,-0.0891685783863067,-0.2359650880098343,-0.5213970327317714,-0.3099152594774961,0.6630769554853438,-0.0504922829568386,0.0317829065024852,-0.1019041671416256,-0.1026991978287696,-0.1411600361984688,0.1246875974257476,84
1722247024169472800,-1.3602511186227202,-0.3622808220088481,-0.6459692418832331,2.561093181055784,9.43316389336586,-0.7915990713063628,-0.473269373178482,4.800490856170654,1.4710569381713867,-0.1829343762732924,-0.3768790230707787,-0.6311279762528856,-0.6528206474399163,-0.0855307877063751,-0.0149706183001399,-0.220217153429985,-0.2419213351815939,-0.5037392109662294,0.0626957448225468,-0.0365902297198772,-0.024923175573349,0.2051665439591743,-0.1092911809682846,0.0617084142856299,0.1051375595722813,85
1722247024209060600,-1.3828484426170586,-0.4915975222736596,-0.9440122041940688,3.112060299403965,9.298367884907126,-0.1606124406300485,-1.045745015144348,4.863090991973877,1.88853919506073,-0.122573409187845,-0.3409278843338386,-0.6260647992120384,-0.6904974095253545,-0.0454283729195594,0.0427911058068275,-0.2014950066804886,0.2376134088546037,-0.042171500775218,0.3041197614738717,-0.0303536020219326,-0.0442141704261302,-0.1050088368923869,-0.1668752133846283,-0.0529524544746382,-0.0736842996909283,86
1722247024248833500,-0.2695078457653522,-0.7689075662225484,0.1838613604009151,3.736012282203138,9.025162353667616,0.8712332375787198,-1.38369882106781,3.065393209457397,1.7014895677566528,-0.0555103831547801,-0.3043477128126874,-0.6024549244249183,-0.735757543495031,-0.3069190979003906,0.2047487497329712,-0.201109305024147,0.4459393484264612,0.0029483284115791,-0.5214752855997532,-0.0058451201766729,-0.0112518304958939,-0.0753429718844592,-0.1875188797712326,0.0325904769004904,0.0179824802927789,87
1722247024288607500,0.6941901788905263,-0.24358839161098,0.0275853415399789,4.1557139043062925,8.719361543771624,1.6950426068119704,-1.0276000499725342,2.3691301345825195,1.4538716077804563,-0.007948945944389,-0.2826985598729358,-0.5776317200375412,-0.7657414760702319,-0.3983765542507171,0.2540690004825592,-0.261017233133316,0.0806879861742258,-0.4516770152956247,-0.2387361292742192,0.0116875302046537,-0.0832135677337646,0.0852571572532877,-0.1744303107261657,0.1280609828489832,0.0690168010702356,88
1722247024328380700,-0.397654625467956,-0.3787830439984798,0.8559737091265618,4.458370278696716,8.388284838321805,2.435155601835251,-0.9114260673522948,2.231698989868164,1.4759689569473269,0.0341441695356065,-0.2640603470119146,-0.5532754767865268,-0.7892986928506407,0.0185002759099006,0.315545916557312,-0.2280089110136032,0.1450906079798936,-0.2384393382847309,-0.0056348640818148,0.0423383265733718,-0.0298658553510904,-0.1061911968110594,-0.1398943960666656,0.1616781701654195,0.1036054820336401,89
1722247024368153600,-0.0265387550964951,-0.3817401402384042,2.046272311843932,4.703461768347025,8.051564574027061,3.036467590542137,-0.2329218387603759,2.2483444213867188,1.5076067447662354,0.0794068795892961,-0.2451396699691235,-0.5339379899941776,-0.8053019727822983,-0.4351630806922912,0.2873730659484863,-0.1759361028671264,-0.3367769629180431,0.2178086381882429,-0.2861257300239056,0.042589247226715,-0.0932063981890678,-0.1229062030348461,-0.1801238059997558,0.1284387849191203,-0.1050957571240141,90
1722247024407926500,-0.1842354544103145,-0.279724703875184,1.066205043928325,4.91817010243237,7.773276040434837,3.3997289480209347,0.031793724745512,1.1649065017700195,1.196674108505249,0.1208707603733274,-0.231110074614165,-0.522733392270517,-0.8116206970700478,-0.7947356700897217,0.2768261730670929,-0.0999850928783416,-0.1093120231121778,0.6451385632127523,-0.0929809929709881,0.0426266267895698,-0.0173158217221498,-0.1931225617537275,-0.2374077588319778,0.0835905392153188,-0.1956016104194335,91
1722247024447700700,0.4571159914791584,-0.3785217627137899,1.4345055646181106,5.106559753912687,7.61873722063005,3.4710637071773407,0.509158730506897,0.550946831703186,0.673847496509552,0.144692191675969,-0.2284843351597117,-0.5204035992282406,-0.8099625050969154,-0.769077718257904,0.2013401687145233,-0.0688840225338935,-0.248012053272128,0.1822176848471164,-0.0562847087364643,0.026545263826847,-0.0069502755068242,-0.11642080480461,-0.3107226192951202,0.1430251542169135,-0.2318651840588077,92
1722247024487473700,-0.0159013334870338,-0.567010198393464,1.0298121265545488,5.156701795175671,7.632450104162096,3.365194225734472,0.8980494141578674,0.6570940613746643,0.1067756712436676,0.1605974083871787,-0.2215493997831859,-0.528525032037122,-0.8036079631309444,-0.6873383522033691,0.1646882444620132,-0.0933870375156402,-0.1291694007486105,0.0422118327856063,-0.1740659425735473,0.0316956788301467,9.4550428912e-05,-0.0705236574026523,-0.3159033358097076,0.1607846005928702,-0.1992579592362046,93
1722247024527246600,1.419657539576292,-0.7521440629482269,0.8941539483085275,4.90268056461662,7.830002136263251,3.2901623656257986,0.8531947731971741,1.343113660812378,-0.6097620129585266,0.1711505200386545,-0.1967891924656135,-0.5417770934882769,-0.7990363192116386,-0.678529679775238,0.1021788567304611,-0.0706285312771797,-0.1896528032839298,0.3363046692311763,0.1815055910550057,0.0152388056740164,-0.0553866289556026,-0.0028927446039539,-0.2957869172096252,0.160466036162991,-0.195834688522946,94
1722247024567010600,-0.0649611324712634,0.4385726190507412,0.5931888880059123,4.619480585846305,8.00757170304358,3.272548675262928,0.6099417805671692,0.648113489151001,-0.2772679030895233,0.176063840347883,-0.1738450531573562,-0.5503856390897858,-0.7974052057294253,-0.5099579691886902,0.1047745794057846,-0.0984501764178276,0.2961719808071851,-0.1841869390934705,0.0746959061525762,0.0019977639894932,-0.0072074513882398,-0.1757643439892679,-0.240490972995758,0.0587045106287579,-0.1389750842416658,95
1722247024606784500,-0.5837260631337762,0.2229828259557485,0.7938242730751633,4.530717137505114,8.094173881697655,3.182345257246494,0.6464458703994751,1.017343282699585,0.2190981805324554,0.1859700723255963,-0.1604599633456173,-0.5585679378692734,-0.7922559600281078,-0.3245809078216553,0.05652566999197,-0.1014207303524017,-0.0152846628934144,-0.1906412297993898,0.3186345725059509,0.030700858682394,-0.0241408683359622,-0.0349719903257209,-0.2003752589225769,0.1482764440749306,-0.0990380645202472,96
1722247024646557700,-0.0740992554336786,-0.4018196361929178,-0.146298522464931,4.479130742652714,8.097830650639533,3.2454429339334365,0.2911268770694732,1.2005226612091064,0.3477854132652282,0.2058269107952916,-0.1431912159299432,-0.5603790958162324,-0.789371103317165,-0.3060016334056854,0.0785980001091957,-0.0493705123662948,0.020427286478877,-0.0986018285274505,-0.0131098030723631,0.0647295415401458,-0.0122648328542709,-0.0823557001907378,-0.1879491508007049,0.0877440969645045,-0.1062566997953224,97
1722247024686330600,0.6537158374220132,0.3174363026320934,-0.3445046345606446,4.388622204209864,8.093692820182442,3.3767607448875903,0.139660969376564,0.8695992231369019,-0.0394219048321247,0.2204686256683231,-0.1275168719748762,-0.5581868569640898,-0.7896584407749508,-0.4854161143302917,0.0942692682147026,-0.006222375202924,-0.0578314267218112,0.0566986232995986,-0.0957436626173555,0.0894353091716766,-0.0071770334616303,-0.0813927095106337,-0.1726687550544738,0.0757558133019367,-0.1263973239530809,98
1722247024726103600,0.0191457222357392,0.447146386128664,-0.1836900954872369,4.246423810540139,8.153424527567624,3.414665235868096,0.2462549954652786,0.2822917401790619,-0.2766009271144867,0.2249310341733906,-0.1148991947395482,-0.5591946834281127,-0.7896236761136083,-0.2092473953962326,0.0766570344567298,-0.0641406029462814,0.1364694946289062,-0.3634901977986097,0.2682045080818235,0.080671451985836,0.0030007646419107,-0.0924973924388177,-0.1623872369527816,0.0661005802633939,-0.1758261023801751,99
1722247024765877500,-0.4713058448731899,-0.234032043236494,-0.080698799829185,4.165259439025819,8.220190371373295,3.354021089813113,0.2436322718858719,0.0070099849253892,-0.0904294848442077,0.2230399150666797,-0.1101486964973117,-0.5629029921396579,-0.7882008794325763,0.0903443694114685,0.0465032346546649,-0.0664605498313903,-0.1233259354174137,0.1056067388534545,0.1665723719477653,0.0740175023674964,-0.00061057403218,-0.1180912496343255,-0.1459328532218933,0.0684973437733948,-0.2057989053122699,100
1722247024805650400,-0.6545514114633202,-0.1561789882272481,0.2552051796466112,4.178516687744856,8.246635310706496,3.27160321110636,0.3486751616001129,0.2351929247379303,0.217769369482994,0.2260614002436257,-0.1081563719107628,-0.5670069293208237,-0.7846665448058491,0.3327564895153045,0.0980646982789039,-0.1308734267950058,0.0761456665694713,-0.1729267094105482,-0.2527225690506398,0.0553888343274593,-0.0122200772166252,-0.0836104129595682,-0.1154430210590362,0.0940988362860865,-0.2148352666669525,101
1722247024845423400,-0.4028986636012792,-0.3489157290011644,-0.1835527328431606,4.241402182985842,8.241251864102482,3.20353885192275,0.3456035256385803,0.1695574074983596,0.3697028756141662,0.2345475760319457,-0.1056954145185177,-0.5705203394153977,-0.7799503241524793,-0.0406597144901752,-0.0361178778111934,-0.1378708183765411,-0.1729968520373105,0.4577981285244226,0.3865292742110788,0.0285064429044723,0.0021411525085568,-0.144364494795585,-0.0902414694428443,0.0248815647572861,-0.2266311558628454,102
1722247024885197600,0.4883133860364556,0.2739502121269703,-0.5173319752499461,4.3545586065664885,8.233398227992653,3.069102032165229,0.3643169701099396,-0.2188309729099273,0.1660034209489822,0.2388873096391738,-0.1090828284206901,-0.5758648134632296,-0.7742181257207466,0.0599222853779792,-0.035087764263153,-0.0844295620918273,-0.2628828746676445,-0.2092822173833847,-0.6267616333924233,0.0050646024756133,-0.0027900305576622,-0.0947150958877522,-0.1290871649980545,0.0844435941143892,-0.2642640450940467,103
1722247024924970800,0.5524734312579035,0.0906020619451999,-0.5819786349445581,4.409060596604645,8.242117541021107,2.966154575648904,0.1297168433666229,0.130892738699913,0.1641617566347122,0.2406557716636318,-0.1105987269262779,-0.5801173382187698,-0.7702704944113781,-0.1320716589689254,-0.0158197414129972,0.0290884114801883,-0.2927268087893724,0.4043541231065988,-0.4925498545624315,0.0112711060792207,0.0072076469659805,-0.1797802650997415,-0.1719091683626175,0.0517719166202936,-0.1942392542913556,104
1722247024964743700,0.3427390861928462,0.2031190185785293,-0.2737593657299876,4.440725900934637,8.21264886995256,3.000455489179492,-0.050628338009119,0.217237114906311,0.1743894219398498,0.2460803991690678,-0.1090814281903794,-0.5788960046116625,-0.7696915419147502,-0.2949415147304535,0.0506302304565906,0.1341339945793151,-0.0002291325807571,0.6433423274457454,-0.6050177113570273,0.0120761357247829,0.0124392788857221,-0.1050325374283827,-0.2383629530668258,0.0946795587834902,-0.1934364865411073,105
1722247025004516600,0.1450412158802151,-0.1748018556326627,0.3396273839130997,4.467387990149855,8.193132268577813,3.0141999368935823,0.1878507882356643,0.1177920550107956,0.1615621447563171,0.2503044587494103,-0.1079241681583173,-0.5785075163811862,-0.7687841317095926,0.3199155330657959,0.0080616232007741,0.1374259442090988,-0.1603361079066991,-0.0471726700633764,0.0331130189202725,0.0231819991022348,0.0317605622112751,-0.0910388824598863,-0.3151782751083374,0.0683699225680204,-0.2044296079867519,106
1722247025044290600,-0.1686059236019849,0.1567144102782011,-0.1192228840127587,4.500314984978735,8.178099534618854,3.006031243485212,0.0341008566319942,0.4811018407344818,0.2609106004238128,0.2565427818375337,-0.1054618461534067,-0.5793210271300974,-0.7664532938863109,-0.248477354645729,-0.0123320119455456,0.4275152087211609,-0.440389313083887,1.863728171521425,-0.8187057624839246,0.0281065236777067,0.0634016394615173,-0.1934622603031806,-0.3975852429866791,0.0605842690939083,-0.1910313250955194,107
1722247025084063500,-0.07487053206712,0.1730003591686487,-0.7196954992860555,4.537961701805889,8.106148981651664,3.1412808409303423,-0.2493307292461395,0.2074329853057861,0.2288510948419571,0.2656746525646248,-0.1027831048514051,-0.5738247874619075,-0.7678396958791588,0.148059070110321,0.0066521721892058,0.1963767409324646,0.4687789567440747,-1.0694880111217495,-0.4058769487597048,0.0206489358097314,0.098020501434803,-0.1625778589515015,-0.4345013797283172,0.0356345276213716,-0.1337201502549927,108
1722247025123836400,0.0667775342434644,-0.2769283511549234,-0.2984618453100323,4.5588197809174655,8.078583513855934,3.181828539896012,0.0658972263336181,0.1296451538801193,0.1166474670171737,0.2680500693318994,-0.1029643663948616,-0.5719879672227546,-0.768360097441027,0.0299369562417268,-0.0769592076539993,0.0242374632507562,-0.2450643093824386,-0.4365127639114856,0.2861493300952017,-0.0036239973269402,0.0893072038888931,-0.0303608341353014,-0.3968486487865448,0.0797109213029965,-0.0625591356637189,109
1722247025163609600,-0.2981698766261339,-0.2704524331390857,-0.3972916373744606,4.59755750785172,8.034847832503914,3.2363658935084936,-0.0334937274456024,0.5879330635070801,0.4087401926517486,0.276487344797842,-0.1001007275969906,-0.5700623754263474,-0.7671788696665774,-0.2398439347743988,-0.0458225384354591,-0.0656014829874038,-0.01490121653378,-0.3104232089996337,-0.0240881470739841,-0.004111235961318,0.076136901974678,-0.0361469067234545,-0.3482371270656585,0.0880062641651835,-0.0814346398230642,110
1722247025203383600,0.3493827619910239,-0.2930564791351556,-0.4021685957610607,4.656294358980656,7.927267747750878,3.4128768911466,-0.1871241927146911,0.8429746031761169,0.4747135937213897,0.2916562200888156,-0.0954142474141896,-0.5629279028919341,-0.7674274445752185,0.0724918693304061,0.0710814893245697,-0.0167266819626092,-0.2929109331846237,-0.4667062421232462,-0.4637188968755305,0.0103099774569273,0.0928690135478973,-0.101092649829341,-0.3361828923225403,0.0437358822814188,-0.0080977327934553,111
1722247025243156500,0.8356842236831784,-0.3172135997921228,0.1163359303995966,4.645391272172332,7.842787383556366,3.616823008199036,0.0370955467224121,0.9001230001449585,0.3682441115379333,0.3079669982515074,-0.085786388029563,-0.5551882955611813,-0.7678300242849998,-0.2557658851146698,0.2407364100217819,0.070315346121788,0.0197404732584953,0.2823305024594068,-0.8898011599265039,0.0282223373651504,0.1199766173958778,-0.0988550178372301,-0.3522010147571563,0.0022620249353843,-0.0561641693630255,112
1722247025282922000,0.5707119755208492,-0.4340133483111858,-0.6644663640171289,4.674834224277735,7.807106998366117,3.655871700778604,0.2493377923965454,-0.0070770252496004,0.1528130918741226,0.3182543723860609,-0.0810588250766975,-0.5541045781711348,-0.7649260218947704,0.0876769572496414,0.2731612026691437,0.1639363765716552,-0.8308025891214609,-0.2757885334700345,-0.6004559563994407,0.0466228313744068,0.136487528681755,-0.0608257451330078,-0.3784617185592651,0.0610420273653464,0.0017414037321635,113
1722247025322694700,0.0472787607863545,-0.5762099884152412,-0.8249772439688444,4.741274197129905,7.857426149761676,3.4571024018421768,0.4818179905414581,-0.7125547528266907,-0.008527236059308,0.3146572509241725,-0.0851865077694187,-0.562565630353616,-0.7597722972885871,-0.0184755846858024,0.2386131286621093,0.2123310714960098,-0.8800286845833063,0.159881349876523,-0.1195874795414507,0.0742590203881263,0.1064899861812591,-0.1285127634707838,-0.4116587340831756,-0.0196465204978827,-0.0081116654206853,114
1722247025362468600,-1.3571063908562064,-1.178085163962841,-0.3911629253610968,4.877480364647507,7.885290892764925,3.1941739344671367,0.4289143979549408,-0.4141848683357239,0.4771374464035034,0.3113104096661785,-0.0934184302616991,-0.5730754323122813,-0.7522920389160358,-0.0662076920270919,0.3597123920917511,0.202770859003067,0.3301028919816017,0.1816886925369501,-1.4021055162727831,0.0858701765537262,0.117181546986103,-0.1386263895350042,-0.4739353656768799,-0.0007864918980601,-0.0744661707836203,115
1722247025402241300,-0.991899744528532,-0.9312766412615776,-0.7874868867471814,5.157660995596647,7.766721796485781,3.0408789772436022,0.0710688382387161,-0.3149592578411102,0.993052899837494,0.3205823972882959,-0.1045360279793124,-0.5779537549957651,-0.7431477428057063,0.7012455463409424,0.2969940900802612,0.3311288058757782,-0.6934130570381879,0.3452683124095201,0.8677133928894997,0.0758936256170272,0.148070678114891,-0.2209584074560552,-0.4985467791557312,-0.0606743950627744,-0.0609706837287638,116
1722247025442014000,-1.3368728733837605,-0.7736579756200314,-0.6630915685325861,5.508170715790986,7.491787834018468,3.1150533437401053,-0.5074077844619751,0.271103173494339,1.4515304565429688,0.3358016471236773,-0.1203060567307868,-0.5715793285059566,-0.7389592998718676,1.3082830905914309,0.2936399579048157,0.2944159507751465,0.3030009500443935,-0.1517354528218507,-0.106282373092696,0.0528553947806358,0.1450356692075729,-0.1987571701072156,-0.4313283562660217,-0.1049983154983725,-0.101832407946512,117
1722247025481787600,-1.7067220848202704,-0.9565139583706856,0.1266553721010685,5.980521685802937,6.961770272457599,3.455070896014571,-0.3174076676368713,1.53882098197937,2.621856212615967,0.3750008913437009,-0.1331566673048424,-0.5532718300559766,-0.7318019053467087,0.1707811504602432,0.0479566268622875,0.3979931473731994,-0.6708411597460507,0.8055524125307798,0.4396540576118976,0.0075733982957899,0.1191190034151077,-0.0876026426672004,-0.3414971530437469,-0.0604657755470834,-0.1503472589996177,118
1722247025521560300,-1.7240607576340437,-1.2660937022835017,1.6685139347180724,6.41265521171689,6.134552556085586,4.173187893937528,0.0426275953650474,3.720927000045776,3.777093172073364,0.4495240836742498,-0.1305502345792421,-0.5197915593658018,-0.714633781366545,-0.0483165718615055,-0.0610082037746906,0.1907355636358261,0.7268553079128265,-0.8318623273074627,0.7492004107117652,-0.0676560476422309,0.0556121654808521,-0.009762141178851,-0.2611302733421325,-0.0448989301448455,-0.347148427067697,119
1722247025561329000,2.6233669741392136,0.6543237401872873,0.0657072746634483,6.557648204541206,5.3090334603250025,4.99817887417078,0.5829269289970398,3.114194631576538,2.8158090114593506,0.5348255024906827,-0.1114864244972488,-0.4824257322377553,-0.6846881234780021,0.2805308401584625,-0.0401459597051143,0.2263244390487671,0.1444920575648546,-0.0365513228058815,0.1885304481904953,-0.0673869401216507,0.0315333567559719,0.0078878060950228,-0.169167473912239,-0.0641514006906887,-0.1618027098605409,120
1722247025601101600,1.7913520866185426,0.8479258656188845,-0.4189443739950657,6.486600153371692,4.8218426485776895,5.553758162489533,0.119888812303543,1.3143229484558103,1.3811986446380615,0.5854820479186071,-0.0964458617865291,-0.455560449025986,-0.6636065158993333,0.6247973442077637,0.0131738279014825,0.1632368266582489,0.5953355446457862,-0.0408744467020034,0.2490811803409829,-0.0213427580893039,-0.0288316085934638,0.0293660189782502,-0.1436268091201782,0.0162749845384387,-0.1767716944009065,121
1722247025640875300,0.2302320664316415,0.6274684664875269,1.5538567511856556,6.566756809148192,4.571690076145529,5.66989915483892,0.2375192791223526,0.3506884276866913,1.187010645866394,0.6055745528488866,-0.0968694793379384,-0.4489230590667099,-0.649895367272185,0.5579174160957336,-0.0387051329016685,0.1330355852842331,0.2132534591019153,0.0425479328721761,0.4975286658883094,-0.005499493330717,-0.0681740120053291,-0.030105288471654,-0.1386678218841552,-0.0187934633155236,-0.0767741097992751,122
1722247025680648200,0.7107113978415727,0.3748433664619922,2.672763749992847,6.585767799088359,4.259732497185468,5.886656238147616,0.6507661938667297,1.943791151046753,1.736438870429993,0.6350943941189692,-0.0919584578010644,-0.4375016483506667,-0.6299135592257066,0.358984887599945,-0.0888689756393432,0.029493611305952,0.7817652942299842,0.2703016264915466,0.990254899930954,-0.0058010118082165,-0.034501377493143,-0.1810112864657305,-0.1344132870435714,-0.0895053527496755,-0.1830656434459611,123
1722247025720420900,1.2091957570195198,0.1329410282418131,3.340528571033478,6.216719967162609,4.116916848400235,6.369754812145233,1.728928565979004,3.126637458801269,1.6782565116882324,0.6807536535660543,-0.0577612823788995,-0.4146040571422192,-0.6011169821042022,0.1634292304515838,-0.0024010306224226,-0.0162129569798707,0.6449719744741916,0.3402817561686039,0.1076151651995722,-0.0278826989233493,-0.0654245391488075,-0.1925553745913319,-0.1638079732656479,-0.0324111245784792,-0.2176017539719119,124
1722247025760193500,0.2282809323638677,1.9149612228915087,-0.6261094530940056,5.813935869851708,4.243075084634125,6.660694737517833,1.4959954023361206,1.4985768795013428,1.0344547033309937,0.7176375834627642,-0.0162387660304587,-0.400169205191449,-0.5697344218798902,0.7107101678848267,0.0141814080998301,0.0417298376560211,0.5321060582727194,0.4233545916527509,0.938082814145088,-0.0517360083758831,-0.0315406508743763,-0.1778823225239291,-0.1664809435606002,-0.0127082159845507,-0.2377354277990758,125
1722247025799967200,0.0831038151443004,1.5302408977985382,-1.160084227848053,5.771617069560289,4.359345840843021,6.622305093368888,0.8740507364273071,0.1925621330738067,0.6631002426147461,0.7321531673091363,0.0013433255480644,-0.4029324869586626,-0.5491770023941616,0.5869283080101013,-0.0125425606966018,0.1361231207847595,0.3056675389051437,0.9416495667159556,0.357571913665533,-0.0505559779703617,-0.0276911202818155,-0.1732431184159591,-0.1681727170944214,-0.0407701780433533,-0.1980415874500758,126
1722247025839740200,1.1426041007369756,0.58306613792032,-0.1997124250054359,5.782175288453698,4.431439601673185,6.564996229216456,0.90799480676651,0.689532995223999,0.5875905752182007,0.7424668996351038,0.0129300893214388,-0.4063387117953237,-0.5324139012682985,0.7925336360931396,0.2422972321510315,0.2047195583581924,0.7587246103823184,0.4366840288251638,-1.3099632391482592,-0.0315188765525817,0.0102372197434306,-0.1370681637749541,-0.1227069795131683,-0.0882728974784258,-0.1133920498342718,127
1722247025879512600,2.380652442753315,1.1086182445049286,-0.847758984619379,5.612090524470806,4.623998355531692,6.579776449719071,0.9160687923431396,0.9916924834251404,-0.0985413193702697,0.7512855694083858,0.0336971850246488,-0.4042143613200867,-0.5206200476779634,0.484694093465805,0.1087761968374252,0.2011159658432006,-0.0501157377779483,0.2711509367972612,0.1430903010081499,-0.0530707314610481,0.0018017659895122,-0.0575490935159381,-0.0915434435009956,0.0654561494465917,-0.1965402429764159,128
1722247025919285200,2.1006571052432057,0.2338701306730508,-0.9386252504587173,5.166043624016642,4.869520345553756,6.765363903260231,0.3244712650775909,1.8239998817443848,-0.5671703815460205,0.7581618385693196,0.0607586124432481,-0.3890640601903118,-0.5197385119291653,0.3429771661758423,0.11564502120018,0.1661478579044342,0.0375339041024446,-0.1745744766175747,-0.120400987881422,-0.0889093056321144,0.0026091984473168,-0.1288044764263555,-0.0583328232169151,-0.0252800785386003,-0.1368308661540504,129
1722247025959059000,0.1185170738309621,-0.2396843699097633,-2.939406269454956,4.850199559012055,4.983495684301853,6.914529797855019,-0.1259233206510543,-0.3226278424263,-0.5433593392372131,0.7531176935253209,0.0695071324508143,-0.3776583920009541,-0.5341877888128432,-0.0997949391603469,0.0939421728253364,0.0264602042734622,0.2537070500433445,-0.8053343858659266,-0.3065618573963642,-0.0892792120575904,0.0134469158947467,0.0089150251135113,-0.020401258021593,0.0685018098859582,-0.0357942687773262,130
1722247025998831900,0.0348790056794881,-0.8223281907647848,-0.1752186197400093,4.864405779018998,5.0440539056390525,6.860427620789408,-0.0705596953630447,-0.1191689223051071,-0.3144032061100006,0.7386978413952112,0.0626083164579953,-0.3824862454513923,-0.5514618066775075,0.6102378964424133,0.0597211979329586,0.0547456368803978,-0.1189040273219347,-0.8754489555776118,0.5610689717762172,-0.0479006133973598,0.0155413756147027,-0.1188186140608042,-0.0205961614847183,0.0051120863124815,-0.0633688765774481,131
1722247026038604500,-0.7002475792333483,-0.4809025252580642,0.5747247182935475,4.758120117990672,5.106649770283699,6.888599822306633,0.0781896486878395,0.2517341077327728,-0.3043648302555084,0.7293376559470022,0.062045848824436,-0.3806960139237655,-0.5650552716200977,0.931334376335144,0.2153346538543701,0.1435717791318893,0.2723930458128452,0.0179553434073925,-0.9758214470393956,-0.028650090098381,-0.0097326207906007,-0.0360908063217764,-0.0218360424041748,0.1690133718917146,-0.0750048442375846,132
1722247026078377200,-1.081727899491787,-0.4206348113000392,0.6070996321976184,4.65477460206747,5.187191041463613,6.8990218475997445,0.28560471534729,0.1833625435829162,-0.0469441227614879,0.7227289352102102,0.0644894382363101,-0.3795904073654243,-0.5739469795792194,0.6523424386978149,0.0863337889313697,0.1809780150651931,-0.1854804860353469,0.1652624583929777,0.3701993400484323,-0.0006430994253605,-0.0743348747491836,-0.0291859154542791,-0.0545956715941429,0.1399811012127436,-0.0801625557943247,133
1722247026118151000,-0.8969275046750903,-0.283139480754733,-0.1198363397359848,4.654776647894084,5.272655740520357,6.833925398311019,0.3104654252529144,-0.080154187977314,0.1052610799670219,0.7161973723529084,0.0649092527862543,-0.3838665758301632,-0.5792189465056812,0.721074640750885,0.0868825614452362,0.0874020457267761,0.3313818258762359,-0.5658522605299949,0.0947194341361522,0.0294126514345407,-0.0703819468617439,-0.0918659718006383,-0.0900273472070694,0.0947404129920992,-0.0516771784083917,134
1722247026157923600,-0.7543260831624269,0.2657283272266388,-0.4638210420757532,4.720620116157829,5.2630818564891815,6.796035520377755,-0.0455831587314605,0.0398192107677459,0.539930522441864,0.7145820499733541,0.0617421632235415,-0.3868934181401079,-0.579546288233156,0.877902090549469,0.1301885396242141,0.0838117748498916,0.3361830886781215,-0.5540180303514003,-0.4460866479426622,0.0646522492170333,-0.0316832512617111,-0.1329400418611243,-0.1194462180137634,0.0806739119831007,-0.0452682749138912,135
1722247026197696300,2.287210481207073,1.004108068716526,-0.0050613750427961,4.801123101153969,5.149888023507595,6.826291542431711,-0.1111146137118339,-0.1011180505156517,0.0205062516033649,0.7128380876386378,0.0524208059654593,-0.3862745869446935,-0.5830144929325171,0.674079418182373,0.0700256004929542,0.1648984402418136,-0.3754056765198707,0.3182078715264797,-0.342877617880702,0.0860232189297676,-0.0456680916249752,-0.1127645199199207,-0.1363613456487655,0.1500823153199628,-0.0355263591057388,136
1722247026237470000,1.4480977443799377,-0.4468400966584682,0.2601245158702135,4.778322948063909,5.178980262479186,6.820277981230616,0.0024994590785354,0.0617890767753124,-0.2113496363162994,0.7031622350072932,0.0482032304474836,-0.3872196454874116,-0.5943908271655138,0.6960534453392029,0.0348293222486972,0.2190548181533813,-0.2986100216090679,0.2049590934872627,-0.4575909155145287,0.0716892182826995,-0.0091035086661577,-0.2310159468183293,-0.1443335264921188,0.0391927315596025,-0.1208953838022425,137
1722247026277242600,-0.1138786003753542,-0.2263338899493217,-0.225275905328989,4.7296001259490845,5.201783630439639,6.836863789850473,0.0523543804883956,0.1499470323324203,0.0572647452354431,0.6980094586322414,0.0473311471461393,-0.3862340250179623,-0.60113704165351,0.838391125202179,0.0350981950759887,0.1598710566759109,-0.0807265646189451,-0.4474041602820158,0.1257315352544188,0.0589941404759883,0.0262355878949165,-0.1318492783491965,-0.1111090034246444,0.0194334280197625,-0.0725163929892936,138
1722247026317015300,0.1953346483126282,0.0420592725723981,-0.4047907609581947,4.675369354067742,5.181340561869741,6.889485957491398,-0.2284570634365081,0.1414426267147064,-0.1226727738976478,0.6933485203748638,0.0447113890334051,-0.3830598724627978,-0.608714971338436,1.0896074771881104,0.0669721886515617,0.1674733906984329,0.0942401261866092,-0.0356295317858457,0.0997451533436775,0.0667915195226669,0.0100676827132701,-0.0571576510795159,-0.0973623991012573,-0.0186660398268606,-0.0781434162579476,139
1722247026356879000,-0.8142726023420691,-0.1536713893204927,0.012279051336646,4.638261566422879,5.136005044105649,6.948263725152612,-0.0990903005003929,0.1775719672441482,0.1463508456945419,0.6896186359678339,0.0410389632616129,-0.3795430553518066,-0.6153771990193132,0.4968562126159668,0.0462245605885982,0.1369765251874923,0.3313403248220682,0.2955576483011246,-0.2406348025023937,0.0682730674743652,-0.0197554193437099,-0.0893447462273295,-0.1033087372779846,-0.0047342836715222,-0.1107436907499562,140
1722247026396656400,0.0739633540943264,0.1771948882490396,-0.5268669885754586,4.616277990412712,5.079275441145897,7.004379580128193,-0.154708445072174,0.2336421310901641,0.1057533398270607,0.6884904272413958,0.0380562870324636,-0.3760688266389616,-0.6189547106934086,0.5426614880561829,0.0216691512614488,0.0995799601078033,0.1039455276429653,-0.1461702199101448,-0.1305319212734699,0.0725074633955955,-0.050094548612833,-0.1349021996464114,-0.11752849817276,0.000512545782153,-0.1479212008964736,141
1722247026436432400,0.1191518646031618,0.2073626474976539,-0.6907154885172844,4.579019688381255,4.989700968682766,7.092661090171337,-0.3803050220012665,0.0406321473419666,0.0796750262379646,0.6862011961143278,0.0332311058692971,-0.3705004890081032,-0.6251023045000671,0.3293468356132507,0.0359997786581516,0.1948172450065612,-0.1527075127243995,0.7946177615404129,-0.4261325319334864,0.0719598457217216,-0.0657492727041244,-0.1790210624965839,-0.1084348782896995,0.0311595536148059,-0.0771978242372162,142
1722247026476208600,0.8722209334418177,0.0692895170643925,0.0545937599748373,4.599128410430252,4.878028938440978,7.157040915623307,-0.3358024060726166,-0.0678770840167999,0.0277153011411428,0.6821884413776398,0.0248007868274072,-0.3667115779506178,-0.6320810873499348,0.545266330242157,0.0023826460819691,0.1824861019849777,-0.1724567538112401,0.1284083532482385,0.3013943916305899,0.078091487288475,0.005586580839008,-0.1709693099987693,-0.0951673239469528,0.0218939044157392,-0.1031738491507247,143
1722247026515985000,0.4030383643329143,-0.2099415580749511,0.6060469082742929,4.59590477220863,4.774786006109416,7.228378889650106,-0.228495717048645,0.1794628053903579,0.1026068925857544,0.679740016486926,0.0185143204468381,-0.3620945409213518,-0.6375721835260793,0.5112447142601013,-0.1682644039392471,0.2803747057914734,-0.5041571441173553,0.4149848227143287,0.3811094411194324,0.061487928032875,0.0076478482224047,-0.1221270810216665,-0.0750000551342964,0.0846955869809258,-0.1245587012159172,144
1722247026555756800,0.2217947852149605,0.3020294746637344,-0.0959054290503263,4.590999172249436,4.71920995709896,7.267886139652132,-0.2032758295536041,-0.2511176466941833,-0.0636261254549026,0.6756128223010319,0.0137046353256561,-0.3595179003945546,-0.6435110011548881,0.0079163424670696,-0.1635075211524963,0.275898665189743,-0.06083645375669,0.0342617505639791,0.2211030035585165,0.021114956587553,0.0399000868201255,-0.210904630953446,-0.0793792754411697,-0.0360403593427501,-0.257302553784661,145
1722247026596779000,-1.5474726031064987,0.0046080783173441,-0.5813029276400804,4.718143496911227,4.609616778957844,7.2567854844450945,-0.34696826338768,-0.3288517892360687,0.3363056182861328,0.6707931713841095,0.002009286444427,-0.3605591014832307,-0.6480968819432761,0.0819660723209381,0.0296241734176874,0.2465143501758575,0.4554179553896188,0.0189946233272552,-1.0535907692879438,0.0146370558068156,0.0342863760888576,-0.1326564482799265,-0.0470647402107715,0.0226730789445573,-0.0562683512567076,146
1722247026636555300,0.1093304355517029,-0.3939426192075014,-0.2717570859968662,4.826166649256646,4.488327025543153,7.261777885904908,-0.1479321420192718,-0.0553333647549152,0.2357823997735977,0.669147000339494,-0.007828525082079,-0.3601264676551614,-0.6499922655269627,-0.0606001354753971,0.0413429327309131,0.2176653146743774,0.1693091034352779,0.4254407502770423,0.1577016677498817,0.0378132201731205,0.0442571826279163,-0.1678166546541266,-0.0104660857468843,-0.0489409583775326,-0.0380914352372172,147
1722247026676331500,1.2163804078266025,-0.082446228018403,-0.7277525490134954,4.822544367106259,4.390662477865815,7.323628485140204,-0.2781136929988861,0.2679371833801269,0.0573646612465381,0.6687478138957914,-0.0123769499459475,-0.3555920075476535,-0.6528227440585324,-0.1586204469203949,0.0780218541622161,0.2772185206413269,0.13185586335361,0.4924164374411106,-0.3186974086090922,0.0394496023654937,0.0383038893342018,-0.1096480501335114,-0.0206161774694919,-0.0248904946991242,-0.1133781217736192,148
1722247026716108500,0.2164513783603906,0.0737917969197034,-0.8259504729151725,4.7994010996669525,4.253278791001439,7.419282569777965,-0.5190120935440063,-0.1191980764269828,0.1179605051875114,0.667191332738123,-0.0186274171262067,-0.3483889761788767,-0.6581290830678906,0.5305068492889404,0.0537706837058067,0.2180702537298202,-0.1849672758162021,-1.15939975271523,0.535620203873515,0.0146957822144031,0.008275993168354,-0.0516832245566882,-0.0205246414989233,-0.0094641029429476,-0.0514827381151029,149
1722247026755884800,1.0916472359597682,0.3194888512477278,-0.1111333933204412,4.839987084816396,4.076115759195387,7.49200819877088,-0.6715730428695679,0.1746021956205368,-0.0181847009807825,0.6629790207990899,-0.0298874409162856,-0.3422288993376697,-0.6651653752703127,0.3040103316307068,0.0032761364709585,0.1234215721487999,0.3127957833498716,-0.3062351096600293,0.0768465083152055,0.0013128680875524,0.0013297208352014,-0.0784239410992246,-0.0005682575283572,-0.0268339614836731,-0.0606372231238521,150
1722247026795661000,1.748961390134692,0.3662061787590384,0.4735153376162052,4.57951185581237,3.860906489850581,7.76478293737769,-0.8116981983184814,1.1679245233535769,-0.3179765343666076,0.6622719914914366,-0.0307226812483797,-0.321188995357642,-0.6762318326521559,0.5087096691131592,-0.0729368180036544,0.1415596902370453,-0.3419067270219326,0.0570768089622259,0.8457590429738163,0.0031024233903735,-0.0092485640197992,-0.1154060656709596,-0.0278999060392379,0.0239084020263282,-0.1290387235736474,151
1722247026835437000,-0.862999808371067,-0.2387736848056316,0.0747626877784728,4.295387455673516,3.73176426936984,7.987112852382659,-0.3376088738441467,0.1789968013763427,-0.2123060077428817,0.6597848426729068,-0.0274588206351593,-0.3033423825049064,-0.6869595364398148,0.3410240113735199,0.005046552978456,0.1965181529521942,0.2604419112563133,0.225384041878581,-0.5235045264050364,-0.0149045083671808,0.0182872302830219,-0.1911448319399729,-0.0319202579557895,-0.0475144966378342,-0.1129157649588771,152
1722247026875214300,-1.630382356983423,-0.3637017947226763,-0.4926783032476902,4.39344041814655,3.689247900679707,7.953459589105844,-0.1279727816581726,-0.7116250395774841,0.0499162413179874,0.6538199158873509,-0.0352204179130673,-0.3053619819183769,-0.6913994626462782,0.7918859720230103,0.0427057258784771,0.2232203334569931,-0.2369301027655601,-0.6704466074705123,-0.1942944916099309,-0.0424787998199462,0.0182022377848625,-0.0898122176086064,-0.0152694704011082,0.0215116385163273,-0.0990659206415526,153
1722247026914990300,-0.0798456901311874,0.4617845678120851,-0.6354150415778159,4.5754082198858255,3.5842666002482173,7.898674690473079,-0.5283475518226624,-0.1417129635810852,0.1181977912783622,0.6490336132129991,-0.0479231870883785,-0.3081931898223613,-0.6938845690813923,0.5359340906143188,0.0662976056337356,0.2367465943098068,-0.0004594342052936,0.3275742502868175,0.0619201573401689,-0.049170259386301,0.0147291030734777,-0.0610096183665096,-0.0052912789396941,0.029287117656297,0.0024190923603513,154
1722247026954766600,0.2197816918268799,0.2465314593255519,-0.5281272177696228,4.52702266690135,3.3151427853643893,8.042778040981291,-0.8335790038108826,0.4102900922298431,0.1840107589960098,0.6497992295163054,-0.0564560828429829,-0.2945253202547713,-0.6984471162814099,0.5663204789161682,-0.0477831065654754,0.2344225943088531,-0.0830944627940654,-0.360309814196825,0.6109989777237177,-0.0249437242746353,0.026997098699212,-0.0271801377229741,-0.0145942801609635,0.0493796192228561,0.0057381777549948,155
1722247026994542800,0.8829951331734657,0.2620923088118433,-0.180787944304943,4.446347832469642,3.051183221375942,8.190888289043308,-0.7183524370193481,0.0917560681700706,-0.0033313678577542,0.6491945904961121,-0.0639616253193017,-0.2798031920111765,-0.7043900896177516,0.9372047781944276,0.0038580901455134,0.192645251750946,0.0314577990591526,-0.5700041195124388,0.0415109910398721,-0.006003619171679,0.038812231272459,-0.1449840149334166,0.0232463292777538,-0.0646250460844254,0.0451957622335292,156
1722247027034320000,1.0004311337694525,-0.0606876929357647,0.118935006982088,4.449520032764971,2.829432275302708,8.268401736834646,-0.6039553880691528,-0.0183301139622926,-0.0687178820371627,0.6466208407686841,-0.0734471205384754,-0.2702486725947974,-0.7095440525316324,0.5769510269165039,0.0146204568445682,0.2430881857872009,-0.2144856312453746,0.195430217641592,-0.0083873045951128,-0.0085478667169809,0.088793821632862,-0.1145191085022874,0.020204497501254,-0.0459561521467752,-0.0191047760207089,157
1722247027074095900,0.0608408376708626,-0.2178925170794129,0.2829892586290836,4.4532764626890415,2.6863141364395617,8.31398976805508,-0.3693735897541046,-0.1157135516405105,-0.0086889583617448,0.6427675277426484,-0.0803461270315783,-0.2639109430851384,-0.7146645184215284,0.6119915843009949,0.0663305819034576,0.4344615340232849,-0.5339712676227092,0.4075818529814481,0.2602601249486208,-0.011605548672378,0.0659928768873214,-0.0540766772981733,0.0067768692970275,0.0407583962740143,0.0004762831629283,158
1722247027113872400,-0.8268623270630836,-0.405403632159531,-0.0426630836844444,4.551790905193984,2.5558456357911226,8.301760985600948,-0.3479028344154358,-0.3889434039592743,0.1313542872667312,0.6401625959004964,-0.0897645073415081,-0.2620502007989475,-0.7165640058217517,0.3229046463966369,0.1913535147905349,0.6112211346626282,-0.4513312705978751,1.1351754120409487,-0.4781880056023597,-0.0258898604661226,0.0189018137753009,-0.0259054986942559,-0.0088712312281131,0.0198940449685673,-0.0221876243820181,159
1722247027153649400,-0.2983145457938313,-0.2159456207953393,0.0867366186887025,4.708733279009163,2.414870354175568,8.256307978937029,-0.3233232498168945,-0.3173626363277435,0.2014374434947967,0.6382505186259578,-0.1014913249761104,-0.2621925999032977,-0.7166526121519109,0.2634304165840149,0.1460950821638107,0.4719881415367126,0.5847171199977398,-0.2699433145731687,0.1640162577241659,-0.0555463321506977,0.059651244431734,-0.0614054173176409,0.0045398343354463,-0.0747262556250672,0.0005595689698762,160
1722247027193425700,0.6259925487160682,0.4533506475962698,-0.2649485750257969,4.783556172542274,2.2365350637197494,8.263527408796548,-0.5197964906692505,0.0064971102401614,0.1846449375152588,0.6381630608311123,-0.1108165264234706,-0.2576762584991786,-0.7169871478854761,0.3715552985668182,0.2136083990335464,0.4142072796821594,0.3843415549084544,0.5296370378106832,-0.5876940899819135,-0.0567597970366478,0.0281007774174213,0.0098019879904051,-0.0049619637429714,-0.0013627477120782,0.0741396787756122,161
1722247027233201700,0.7746826424926518,0.7171173193611204,-0.2666314135462045,4.774178980126977,2.0354662556692955,8.320725798311829,-0.58262038230896,-0.0005636531277559,0.0101334424689412,0.6368906418655436,-0.1181491075479351,-0.2485997631865378,-0.7201453388629062,0.5779443979263306,0.2377977222204208,0.3099772036075592,0.5405901012405753,-0.60748833925426,0.441238038867712,-0.043936837464571,0.0418480075895786,-0.0796985824112314,-0.0707145631313324,0.0026516104873269,-0.032711420416017,162
1722247027272978000,0.6931774947166442,0.4826601825803518,-0.2821013698786497,4.805255963174998,1.8454015105836088,8.347119299718736,-0.5839040875434875,-0.1725084781646728,-0.1152749806642532,0.6330953197958885,-0.1273937818397665,-0.2412181458348765,-0.7244135797593252,0.7734816670417786,0.2098507732152938,0.2774949669837951,0.1803533522799611,0.2733984234631061,-0.1047252798438072,-0.0614833571016788,0.0317418314516544,-0.0685938994830474,-0.0879106074571609,0.012306844667514,0.0167173557277885,163
1722247027312755200,0.3569268937602639,0.0970507996931672,0.0210234988063573,4.822629122780263,1.6896221891984342,8.37005476962626,-0.526594877243042,0.1890704333782196,-0.0399904586374759,0.6284385300157089,-0.1350697577684983,-0.2345253599550154,-0.729259287960478,0.4278694093227386,0.1496309489011764,0.1571026295423507,-0.0239575064316391,-0.0750654701173305,-0.2339566399127244,-0.0797436311841011,0.041861567646265,-0.0064853965177695,-0.0392881743609905,-0.0145863624479272,0.1267694269347936,164
1722247027352531200,-0.2527285604000091,0.1808979805506765,-0.4057733422547578,4.765200139379501,1.5068645522557198,8.437571724060177,-0.545661449432373,-0.0106841688975691,0.0426690392196178,0.6270404695321202,-0.1396135963913619,-0.2243025091499696,-0.7328143101470028,0.3422003388404846,0.1534529626369476,0.1127476245164871,0.4459565918222069,-0.1412526372522115,0.0077618661731481,-0.0741311460733413,0.0397592298686504,-0.0059138471324433,-0.044666837900877,0.0575475408796686,-0.0117680193748557,165
1722247027392313900,-0.4032470386475324,-0.1260576984688639,-0.2439677463173866,4.80393932761848,1.2827562294013797,8.45263777576685,-0.6701326370239258,-0.017436433583498,0.0795262604951858,0.62538150910681,-0.1493759662821696,-0.2161532671517,-0.7347533228237612,0.0602104403078556,0.0696725249290466,0.0907569676637649,0.1245610301703214,-0.0489747510492801,-0.4110083202987909,-0.0733195021748542,0.0218795239925384,-0.0112523774533183,-0.0644912049174308,0.0627278021949343,0.0941830896365922,166
1722247027432090400,-0.2779322675004601,-0.2988295826438814,0.4190548486322164,4.796838263441622,1.084427002382651,8.484382575073838,-0.4362123608589172,-0.0153240812942385,0.0774760320782661,0.6239082129071363,-0.1563161451996631,-0.2073213655217487,-0.7371035654645002,-0.1190240234136581,0.0358687005937099,0.0548202060163021,-0.0078431147158145,0.0852291367352008,0.5932476324558258,-0.0602429397404193,0.0380757823586463,-0.0415614608517847,-0.0500844828784465,0.035310264103068,0.1545910431823693,167
1722247027471868000,-0.5706485548958182,-0.0818209357269108,0.0489724129617214,4.822152152918279,0.9070723935272544,8.490845049086213,-0.4304170906543731,-0.1157286688685417,0.1876596361398697,0.6241499211463297,-0.1633211170215109,-0.2010312973525756,-0.7371224480139622,-0.5196582674980164,0.073056124150753,0.0526514612138271,-0.0299652224138379,0.0356798006683588,-0.1066758293896913,-0.0311928186565637,0.0076820161193609,0.0235400961536099,-0.0809420347213745,0.070832010965771,0.0773615451652556,168
1722247027511644200,-0.0166392923727631,0.0200577955793589,0.0550935261905193,4.8849490930929775,0.748780285603553,8.470359310418367,-0.38052698969841,-0.1343636065721511,0.0990115106105804,0.6234361127221771,-0.1714437356370423,-0.1968220154986122,-0.737018091916353,-0.8340724110603333,0.0671569555997848,0.0220324322581291,0.1102469658747315,0.3776034788250923,0.3603518997728824,-0.0177944004535675,-0.0118995448574423,-0.0044752594176447,-0.0890949442982673,0.082947711267136,0.0961328719974961,169
1722247027551421700,-0.2928679708257317,0.114009167952463,-0.0800631322741508,4.852924307800829,0.5641483792215586,8.503014210307597,-0.4175465404987335,0.6364614367485046,0.5428541302680969,0.6259187476109878,-0.1758005093306035,-0.1885765703794256,-0.73604263824157,-0.7812435626983643,0.0256023742258548,0.1179113611578941,0.0911447905197739,0.4382078773915767,-0.0181786307692527,-0.0096140168607234,-0.0090990522876381,-0.1112823094049934,-0.0837812423706054,0.0047196443664608,0.0556223358375951,170
1722247027593682200,1.5671540396541357,0.4330312054060399,-0.9646861589103936,4.660613391223549,0.3256314091233536,8.62224030919075,-0.5388898253440857,0.3191350996494293,0.0292010959237813,0.6305219140823901,-0.1750527000962423,-0.1724663073503044,-0.7362431967947655,-0.6313470005989075,-0.0636675283312797,0.0416378937661647,0.180125973264873,-0.2438192777574062,1.1108388431638478,-0.0029877754859626,-0.0325329825282096,-0.0631992738978937,-0.1031687930226326,0.0881336899371352,-0.0828039554148912,171
1722247027633459500,1.1712918505609036,0.2005701743459328,-0.1360463007807731,4.521670492218434,0.1217492515520658,8.701152517864108,-0.5386242270469666,0.3294260203838348,-0.1463886797428131,0.62951191089851,-0.176608209117543,-0.1586638362378412,-0.7398311953542023,-0.6539071798324585,-0.1881143897771835,0.1400329023599624,-0.0447998034521937,0.6702572223782539,0.1722802282005548,0.0107023762539029,-0.0586036890745162,-0.0509477270561037,-0.1191193088889122,0.1175555444555822,-0.0541934949111426,172
1722247027673236000,-0.1673310813605785,0.0401871950902044,0.4266711688548326,4.5105622382268304,0.0439092021548654,8.707656492930651,-0.1676929593086242,-0.2277811467647552,-0.1078944951295852,0.6256372928356089,-0.1796114511018427,-0.1541842869580859,-0.7433336468942281,-0.2670507729053497,-0.2223522514104843,0.1629517376422882,-0.0354743412241339,-0.2864022819429636,0.0779939247846603,0.0378920063376426,-0.1059818938374519,-0.089756112640351,-0.1403149962425232,0.1025187462428584,-0.092636125056073,173
1722247027713012200,-0.4392839821904897,-0.1977014139765873,0.5091407777488232,4.6551735382571815,-0.0035612552680759,8.631322610312699,-0.17784184217453,-0.4118817746639251,-0.0542888157069683,0.6224101929598755,-0.1878182887148781,-0.1570010041650621,-0.7434248236754979,-0.2686726450920105,-0.1980399340391159,0.1803936511278152,0.0029667408511042,-0.0973112041950225,-0.0176315182805061,0.0653391852974891,-0.1027214378118515,-0.1483722782653756,-0.1498288661241531,0.0815833641113713,-0.142176053973753,174
1722247027752788700,-0.0274760359466075,-0.1686978762017562,0.8689256912887096,4.674172545498609,-0.0431889707220718,8.620941501551867,-0.0167578049004077,0.2402956932783126,0.2136075049638748,0.6232162043366242,-0.1897691664737603,-0.1563392907394988,-0.7423929991969659,-0.9875932335853576,-0.266981840133667,0.2067980766296386,-0.0886982741504907,0.3756213650971651,-0.2284942828536033,0.0819672793149948,-0.0736652761697769,-0.2310159468183293,-0.1239766255021095,0.0391927315596025,-0.1208953838022425,175
1722247027792566300,0.5407204496219754,0.368494435826689,0.1294908877879381,4.588258056847751,-0.0689198435017839,8.666806011626123,0.0099972784519195,0.1510069817304611,0.0921574831008911,0.6264753116753875,-0.1864352275583135,-0.1528325395888952,-0.7412239137227681,-0.8274312615394592,-0.2266019582748413,0.1937127858400344,-0.0450350735127925,-0.1213794775247573,-0.2150672305256128,0.0948099493980407,-0.053223256021738,-0.2592949697108939,-0.1136011704802513,0.0861784368166699,-0.2276283684729598,176
1722247027832342500,0.6549328119963407,0.3700848468232899,-0.1885527330875396,4.587022085312008,-0.0848755557908676,8.66731863732338,-0.0898098200559616,-0.0945835933089256,-0.1156315878033638,0.6258831438600876,-0.1870473674202075,-0.1519967962430687,-0.7417415902697959,-0.6883317232131958,-0.2042693793773651,0.2215658575296402,-0.178527598157525,-0.3027466830223798,0.1305523795396089,0.0932648405432701,-0.0218124203383922,-0.2557827055399306,-0.1040863692760467,0.0152190092121018,-0.3036206163126975,177
1722247027872119000,0.0760854608148336,0.0083129972498863,-0.2232826856851577,4.61669972295612,-0.1054277016252744,8.651320857724548,-0.1467352956533432,-0.0245593916624784,-0.0297622699290514,0.6236026050069625,-0.189428541861819,-0.1517307026363581,-0.7431114035874046,-0.7825958728790283,-0.2997284233570099,0.1320512145757675,-0.0392661347225308,-0.0488952560722827,0.2289505021885037,0.0775773003697395,0.0176327992230653,-0.252602011410892,-0.0748801305890083,-0.0151123031428374,-0.2353232886234298,178
1722247027911895600,0.2124105785369873,-0.1337683550445828,0.2106301248610019,4.629263728713989,-0.1361778821380343,8.64417449310124,-0.0899076387286186,0.0228974185883998,-0.0475839599967002,0.6226601034036803,-0.1911770136154167,-0.1507351704475493,-0.7436563025884971,0.1446901708841323,-0.196756824851036,0.1481413692235946,0.1711424563422799,-0.6705372083634138,0.0658358694791793,0.0496754311025142,0.0526699647307395,-0.1912526944949291,-0.043930135667324,-0.0213931449695024,-0.24231265432043,179
1722247027951672800,0.0330611426025629,-0.1569012746198102,0.3030225773543119,4.679775187811255,-0.1087054629206191,8.617323895576595,0.0543423742055892,-0.1361307948827743,-0.0708471462130546,0.6210639206544789,-0.1926617746233037,-0.1533629345951094,-0.7440705367698363,0.3840734660625458,-0.1311669498682022,0.1343894004821777,-0.1010594508126378,-0.3036433396011591,-0.5142582668930292,0.0183703675866127,0.0457995794713497,-0.1510337616927456,-0.0114986533299088,-0.0214597073996905,-0.0991840397290419,180
1722247027991449300,0.0640939942479133,-0.0376633117689285,0.260658768877387,4.7305941054224965,-0.0841416154931299,8.58980694309771,0.0789170786738395,-0.1148059889674186,-0.0515776649117469,0.6202305338563477,-0.194108622369652,-0.1560883371338053,-0.7438228115242678,0.0110993525013327,-0.2128528505563736,0.2932006418704986,-0.3015016513973474,0.4824222821712494,0.1582607629373669,-0.0007578675867989,0.0434754602611064,-0.0550477964858058,0.0127128735184669,-0.0108877042928128,-0.1191023629056289,181
1722247028031225600,-0.1125745320394635,-0.1505441332785878,0.1961047559022903,4.750591768312454,-0.0376999654013314,8.579093241381644,0.1800031065940857,-0.1037558987736702,-0.0230222381651401,0.620120226641732,-0.1933927443921882,-0.1587048265430155,-0.7435475767238191,-0.1813065856695175,-0.4147637486457824,0.409977912902832,-0.351818464705348,0.3249450708270073,0.3108990098178386,-0.0144831119105219,0.0133504262194037,-0.031535750533035,0.0044920118525624,0.0194407482431153,-0.0449557200996903,182
1722247028071003100,0.0024029694885015,0.0572039379066554,-0.2726081498682499,4.794679331842064,0.0156696675975399,8.554600605159997,0.114010289311409,-0.1229027807712555,-0.0316596068441867,0.6202419852328587,-0.1933875266062362,-0.1625977300885558,-0.7426056565476724,0.4282164275646209,-0.4765458106994629,0.5290911793708801,-0.421683443570137,-0.0623170477032661,0.4285433924674987,-0.0032189863268285,0.0375023409724235,-0.1850950851806439,0.0131886852905154,-0.0906798398891463,0.0314640324371168,183
1722247028110779600,0.0384776146933436,0.1596791783679276,-0.3586532791614532,4.793320318448544,0.0204844212103053,8.555351715788245,-0.054395206272602,0.0614395774900913,-0.0098899640142917,0.6201281458788295,-0.1931936954648808,-0.1627103320455848,-0.7427264236957626,1.6573611497879028,-0.4782806038856506,0.6363577246665955,-0.1098462761193513,-0.7927069594830274,0.2131008988887071,0.0233398918062448,0.0304241217672824,-0.052150695937965,-0.0024310261942446,0.0167818198157241,-0.0398049725732766,184
1722247028150556000,-0.0758805858924984,0.0396968360236845,-0.1866454381614923,4.76746837657243,-0.0166526336282375,8.569792913594842,-0.0846737325191497,0.0508686453104019,0.0447899550199508,0.6205490916318429,-0.1932879859165877,-0.1603181612350245,-0.7428705215767689,2.5075700283050537,-0.2588371336460113,0.6429160833358765,0.1576519833892583,-0.354440629902482,-0.7786153057664632,0.0348737575113773,0.0216972660273313,-0.1407643057459965,0.0037953122518956,-0.049068379582907,-0.0367221242119674,185
1722247028190332400,0.1344417881935835,0.010898474565288,0.2113409034788608,4.773521977522969,-0.0254133084302535,8.56640093306899,-0.0113556580618023,-0.0131959002465009,0.0086685782298445,0.620738018995375,-0.1937933248685274,-0.1602474588576384,-0.7425962777329378,2.829075813293457,0.1216804906725883,0.4434770047664642,0.8438619771808386,-0.8686234934717416,-1.2847434576958416,0.0343970693647861,0.0336052738130092,-0.1348224032753147,0.0305587016046047,-0.0661123620327329,-0.0217392093276605,186
1722247028230109700,0.1221682898148894,0.0802873968835454,0.3209726600646972,4.7898356912031765,-0.0065160565175145,8.557325061687827,0.0756476521492004,-0.0199166927486658,0.0230828430503606,0.621080016829661,-0.1937542312985855,-0.1617316638038721,-0.7419985177702175,0.4655691385269165,0.1993291079998016,0.0437381267547607,0.8677417422011494,0.4239636634618043,-1.3079460541069508,0.0070354458875954,0.0551467016339302,-0.0824679101272486,0.03117685765028,-0.0742701093554031,-0.1191163000994361,187
1722247028269886200,0.1273912851601839,0.0731747518667485,0.0362391881167888,4.788802548763155,0.0124179768917907,8.55789730861783,0.0611013248562812,0.0228251125663518,0.0237932577729225,0.6218492453305545,-0.1929026455076688,-0.162656842252128,-0.7413737011564069,-0.5766984224319458,0.0933757200837135,-0.019716877490282,0.5042652806669473,0.5900310084968805,0.1553209100931882,-0.0101500591263175,0.037619300186634,-0.0241353380834218,0.0108751812949776,0.004666108097916,-0.0585762948389397,188
1722247028309662500,0.1027910969108343,-0.1412040306038223,0.0643845016270875,4.78527086750567,0.0298735940410522,8.559829153463244,0.1069049090147018,-0.0762614607810974,0.0628006979823112,0.6229969701583387,-0.191913031422273,-0.1635223669272303,-0.7404758675312694,-0.303748607635498,-0.0531817600131034,0.1336526274681091,-0.4890405312672257,0.6151344700932503,0.8023322814404964,0.0008720234036445,-0.0153952855616807,0.0058141250722808,0.0196935292333364,0.0322082087177899,0.0220904065186623,189
1722247028349439200,0.2854112250789999,-0.1321728568809106,-0.1738584373027086,4.838030690051615,0.0654345404029823,8.52992150645554,0.1138690412044525,-0.1695544272661209,0.0206869710236787,0.6236863717282066,-0.1927206991118841,-0.167193802859398,-0.7388641479590622,0.0687935352325439,-0.1734207570552826,0.3379451930522918,-0.2699295783087611,0.4183832329809665,1.0719856731563806,-0.0106984516605734,-0.0302972141653299,-0.0537650312328478,0.0453599691390991,0.0232611170987365,-0.0073088931038597,190
1722247028389216500,0.0209247146070003,-0.1415151971785351,-0.2373924595803022,4.864743048149347,0.0794155916182324,8.514596511551737,0.0566957481205463,-0.0527310892939567,0.0273297950625419,0.6241872491267156,-0.1932281895450586,-0.1689356834394771,-0.7379118360810206,-1.0863027572631836,-0.1639745831489563,0.4507035613059997,-0.3328147812888026,1.2075123339772225,0.1171849484443664,-0.0322397537529468,-0.013654357753694,-0.0421648335724137,0.0546753779053688,0.0471739852376282,0.0336570170033257,191
1722247028428992800,-0.1833098639979958,0.0357198221514932,-0.2563601949006319,4.895996556808054,0.0691762111493386,8.496753396347165,-0.0046622925437986,-0.0569626539945602,0.038936797529459,0.6244877066655471,-0.1947915827230606,-0.1698304392786381,-0.7370407479818974,-2.2659904956817627,-0.3102764189243316,0.3179099559783935,-0.2418897709995508,0.783341749766469,-1.1337088466197252,-0.0122191570699214,-0.0288307052105665,-0.0901437876505311,0.0318523049354553,0.0621397549076005,0.0452236366211436,192
1722247028468769300,0.0114911158293485,0.1812046718796715,-0.0988958430379629,4.91173510094881,0.0339742000435828,8.487878600496053,-0.0791674107313156,0.0582116954028606,0.0810072124004364,0.625024420641575,-0.1965161152768929,-0.1691745597963755,-0.7362783943974505,-0.4213689565658569,-0.3179003298282623,0.276703268289566,0.3101473146677017,-2.4805127469092607,0.9866448927402496,-0.014195442199707,0.0347004272043705,-0.1078978089326992,0.0014117805985733,-0.0169875897872028,-0.0132624135179212,193
1722247028508536800,0.4747337734952568,0.1755876905144192,0.1353945588737726,4.882442078708112,0.0023315001283386,8.504830319818854,-0.0160617940127849,0.0092456825077533,-0.0150433303788304,0.6257670791888742,-0.1962246216112174,-0.1669437775945057,-0.7362345786435119,1.6475870609283447,0.0422147996723651,0.2719762325286865,0.5834793948963284,-0.8736983125180006,-1.2761334502607584,-0.0138157503679394,-0.0033207819797098,-0.0191003327410318,-0.0329767391085624,0.080617523887055,-0.017022946511663,194
1722247028548311000,0.2217214277178049,0.0842297230348456,0.1318961953639984,4.890348029527068,0.0257538266803254,8.500248252725601,0.0321387164294719,-0.0328747779130935,-0.0527926348149776,0.6249297333688748,-0.1959397913715758,-0.1679748822167083,-0.7367868318308208,1.3229272365570068,0.0244926884770393,0.2247089743614196,0.1056447327762842,0.5955559093981981,-0.8055196793049574,0.0101027758792042,-0.0102976029738783,-0.071482876089937,-0.0208944287151098,0.0482717127798823,0.0771392441840842,195
1722247028591111200,0.1289525431275367,-0.0088368795600952,-0.0813151781618595,4.914433253991604,0.0618085684581659,8.486160106140375,0.0681786239147186,-0.1033756881952285,-0.0764704868197441,0.62391866423523,-0.1959316962410379,-0.1701088728805166,-0.7371561517722617,0.396600991487503,0.2877509295940399,-0.0596608333289623,0.6851435336038469,-1.1864882506489751,-1.2272574834108352,0.0081111043691635,0.0037325699813663,-0.1616628447321243,0.0006217239424586,0.0062735244574229,-0.0205713049093144,196
1722247028630351400,-0.1188134264290332,0.0059955323540605,-0.2106792246997356,4.96018845847249,0.0843857173141557,8.459302494353055,-0.0373147465288639,-0.095840185880661,-0.0428234450519084,0.6226118040099815,-0.1973490034380187,-0.1724789230040483,-0.7373323721274473,-0.4406161606311798,0.0952775925397872,-0.1098761931061744,-0.3486231757953762,1.5850111833840608,1.4267004438251256,-0.0369819924235343,0.0205866806209087,0.0150607247942942,0.0030096203554421,0.0600818999291863,-0.1579934172380715,197
1722247028670127400,0.0437356813520193,-0.01907228710677,-0.0542366171002388,4.983189979353547,0.0689016822240082,8.445913435947894,-0.0728932693600654,-0.0092722745612263,-0.0192341674119234,0.6217043428886267,-0.1990372034191686,-0.1725179504201624,-0.7376351367884721,-1.0523780584335327,-0.2874720096588135,-0.2046185582876205,-0.1888780195191502,-1.1572358526796105,-0.4480044642627239,-0.0665479525923729,0.0345318615436553,-0.1006532263656146,0.0411765575408935,-0.0230135903447633,-0.0229903989821323,198
1722247028709904400,0.1717787084192037,-0.1432200466013513,-0.0994113913446664,4.97814906257689,0.0462550209289183,8.449040043535827,-0.0421192273497581,-0.0019670247565954,-0.0053739249706268,0.6216707611506644,-0.1996079332857475,-0.1713928580410894,-0.7377714974340249,-0.985011875629425,-0.1049600541591644,-0.0047117634676396,-0.3753048464938998,1.6727952652990816,1.568605992028117,-0.0382344760000705,0.0217413809150457,-0.0266846161408582,0.0430957823991775,0.0636372451900504,-0.0027246848566923,199
1722247028749680600,0.0955447790443897,0.1813869331113994,-0.0428553913861513,4.980761290901899,0.0358868835308006,8.447550681760907,-0.0934008359909057,0.0467124581336975,-0.0461597666144371,0.6206951486262274,-0.200294803947656,-0.1708121039437488,-0.7385409581729978,-0.529696524143219,-0.0890517681837081,0.0770506784319877,0.1454080033659935,-0.2940969280987978,-0.945130979090929,0.0110889561474323,0.0023872843012213,-0.1286405271694529,0.03120550327003,0.0296056729530217,-0.0010041800653736,200
1722247028789456600,0.0610813684284687,0.161867208197806,0.2430272505968809,4.955519297617673,0.0181469215983815,8.462439623335003,-0.0316552929580211,0.0440350659191608,-0.0794809311628341,0.6199132511841271,-0.2000319178760275,-0.1688871867613559,-0.7397107766287563,0.5195921063423157,0.2058570981025695,0.0523455962538719,0.7953484139025211,-0.0946966377824544,0.5044231015771627,0.0086034350097179,0.0263584926724433,-0.1052924304735846,0.0547037683427333,0.0050483762806165,-0.0626842187815345,201
1722247028829232600,-0.1616296548485755,0.003255974155222,0.1127086798131465,4.980559046328067,0.0480698243990773,8.447609718471766,0.0486539043486118,-0.0568363703787326,-0.0408293008804321,0.6187581542613922,-0.2003203517707106,-0.1707733450412658,-0.7401666228233247,0.4881317019462585,-0.0548470877110958,0.1348589807748794,-0.4249959291189908,0.0962578957498073,0.0348187999248504,-0.0211980827152729,0.0160546228289604,-0.0643741902956273,0.075861632823944,0.0278635145939653,-0.0652005352842854,202
1722247028869009700,0.0308089797616004,0.1215699037966318,-0.014645780467987,4.990879949334263,0.0729589765244862,8.441337798595429,0.0165241323411464,-0.0200747027993202,-0.0107480203732848,0.6184718324169617,-0.1999713915674324,-0.1721133357978048,-0.7401898571904929,0.559536337852478,0.2089348137378692,0.004742591176182,0.6802192289441824,-0.2568020934492349,-0.8524830905318259,-0.0397526361048221,0.0279357004910707,-0.0849891357005573,0.0809349045157432,0.0252045838832855,-0.0600497877578716,203
1722247028908786000,0.2214969713121652,-0.0092282900304766,0.0973603040337562,4.974219906434416,0.0762659410814289,8.451136139032243,0.0133031671866774,0.0068298149853944,-0.0245803296566009,0.618706792232076,-0.1991141001617161,-0.1716552831047487,-0.7403309979379806,-0.3648537695407867,0.0614587999880313,-0.0815440937876701,0.3020207068353891,0.4516846140801906,-0.4471282659500837,-0.0322584360837936,0.0169456265866756,-0.0429719989365665,0.0859582647681236,0.0504136338791344,0.0499050587359117,204
1722247028948562000,0.2350730767220258,-0.1313943650553934,0.105376437228918,5.0020934172660105,0.1212190627986565,8.434142334133385,0.120361179113388,-0.151806429028511,-0.1169523373246193,0.6176257587219679,-0.1990003639220868,-0.1742908082506955,-0.7406483693534233,-0.7269288897514343,-0.0235652774572372,-0.2606703042984009,-0.0804369340226054,-0.3045581163585186,-0.6534802751004696,-0.0235189869999885,0.0367121510207653,-0.0794068603225052,0.098699189722538,0.0082851690988667,0.0960077751799486,205
1722247028988338000,-0.0892079772382974,-0.2236280467904172,-0.4451683640539646,5.049544904270768,0.1615283498985693,8.405140696054696,0.0189651120454072,-0.1304014176130294,-0.0332420356571674,0.61639923364691,-0.1998974371754026,-0.1774770884483098,-0.740671836005041,-0.71961909532547,-0.0881704241037368,0.1300670206546783,-1.1286731905400753,0.6254676480591297,1.7576345259338615,-0.0303229428827762,0.0336536467075347,-0.000467470382338,0.0892487913370132,0.0262459210462053,0.011677764400182,206
1722247029028115000,0.1990168439567089,0.0962359031137078,-0.3209434339702129,5.039047475653886,0.1385455519842915,8.41184866926074,-0.1770069301128387,0.161684438586235,-0.0270375180989503,0.6158171624158341,-0.2003767479168899,-0.1759666037382349,-0.7413866892125895,-0.0887705236673355,-0.1291429549455642,0.1044960841536521,0.0204939219743013,-0.3359329133093356,-1.2067682376116513,-0.018042653799057,-0.0198599826544523,0.0123076449601794,0.0662413984537124,0.1104289622449781,0.0350402606558054,207
1722247029067891200,-0.2112052944004535,0.0650251558844931,0.0524012183666229,4.988385794430971,0.0714443752770312,8.442824822282791,-0.144724428653717,0.0728580355644226,-0.0215937122702598,0.6156043045277959,-0.2005828098345265,-0.1711790810018175,-0.7426274857145627,0.7618918418884277,0.1625472903251648,0.1536304056644439,0.392753409422934,-0.1797650309979915,0.1194306815445423,-0.0051682060584425,-0.0002118361881002,-0.1117778287038206,0.0748326405882835,-0.0095379878797772,0.0640852035866817,208
1722247029107667200,-0.2674357156664133,-0.0574043512830045,0.4792547580510377,4.990447403135896,0.0606963055004831,8.441690265294909,0.0429080165922641,0.0135889463126659,-0.0082212444394826,0.6153494032877117,-0.2010897269518986,-0.1707527544523566,-0.7427996943750811,0.5229807496070862,-0.0094677284359931,0.232599064707756,-0.0706561292424798,0.506681109637022,0.0905751739382743,0.0020920988172292,-0.0069561549462378,-0.0721342207047157,0.0758247300982475,0.0427627172671724,0.0894946943583432,209
1722247029147444200,-0.2076642607927322,0.1811053031584248,0.127542091807723,4.999658883595466,0.0809101318917702,8.436068333759904,0.0507385395467281,-0.0808368027210235,0.0064888596534729,0.6158015374808503,-0.2006873054452747,-0.1720605249401089,-0.7422319555714622,0.189229130744934,0.033318243920803,0.0851185247302055,0.3276812177926301,-0.0372539181172847,-0.2347363921135664,-0.0074312733486294,0.0182023029774427,-0.0470159633980132,0.0858413204550743,0.0029774848657601,-0.0085740159563836,210
1722247029187220200,0.1798316664934158,0.1288548092409502,-0.0154956752955913,5.011396083140373,0.0890175874990411,8.429019584292172,0.0112438378855586,-0.0266381856054067,-6.93021574988e-05,0.6162253834411702,-0.2008034791169286,-0.1729669463251487,-0.7416378543485153,-1.1744935512542725,-0.2093435525894165,-0.1426941454410553,0.6268108793616295,-0.0136743050873279,-0.4374696262449026,-0.0177158266305923,0.0298466123640537,-0.0718306985803414,0.0826151743531227,-0.0383689529873663,-0.0580097606970928,211
1722247029226996500,0.3528080602645874,-0.024525305515388,0.0325204598546028,4.98581272907257,0.0915630433313082,8.4441505179286,0.0007946412079036,0.0461412109434604,0.003897008486092,0.6165243417070727,-0.1995841471436117,-0.1721462048824508,-0.7419094766976784,2.181940078735352,0.4163334369659424,-0.1321968883275985,0.3258960879415273,-1.8571259967774152,-0.1289367610365152,-0.0089576989412307,0.0190131533890962,-0.0120396188408718,0.0640732273459434,0.0428366044872906,-0.0260732473434414,212
1722247029266772500,0.4052174619376659,-0.1268213489182759,-0.2051870570242404,5.042489140540361,0.1167957025316078,8.410116146379709,0.0427085980772972,-0.2586023211479187,-0.0746489688754081,0.6158377731664453,-0.2012497723891711,-0.1752197311692516,-0.7413099792146209,-0.9426311254501344,-0.3187188804149627,-0.1698815524578094,-1.5273489757493135,2.479131521683932,1.4759604415565728,0.0144718093797564,0.0464000180363655,-0.0829553100517019,0.0480290986597538,-0.0248933488099137,0.0290658418717212,213
1722247029306549800,0.34411212811172,-0.0551624632408842,0.2274491577148437,5.056608266785741,0.1224995219300966,8.4015529006958,-0.0621309354901313,0.180606335401535,-0.0565847903490066,0.6144619491215333,-0.2019707336838416,-0.1756355025027151,-0.7421567193364202,0.2867775559425354,0.0239919070154428,-0.0709177479147911,0.7077309207260608,-1.1197826125979422,0.2089595613002777,0.0243902616202831,0.0327213108539581,-0.0999258528059814,-0.0483326837420463,0.0403716665453277,-0.1654204254336655,214
1722247029346325800,-0.2269838782906532,0.1132517189149744,0.2918593783050775,5.039029939997196,0.1321539786505047,8.411961481985449,0.0303743816912174,-0.0050273006781935,-0.0685247555375099,0.6139402093468731,-0.2010356403994445,-0.1751970123767396,-0.7429455503429565,0.0094194300472736,-0.2182389348745346,0.0623182691633701,-0.241143336546421,1.1405448301196095,0.5798989060610532,0.0299423616379499,0.0281345527619123,-0.0487580760912969,-0.0932292491197586,0.0587089767413213,0.0310295522932778,215
1722247029386102000,-0.4958616094589233,0.1812303725765086,0.3192342919647693,5.064148014640808,0.1503665756214409,8.396557576626538,0.0621855556964874,-0.0488996393978595,0.0220643654465675,0.6136977866004311,-0.2015273251736264,-0.17686560923436,-0.7426171535433544,-0.0504572205245494,-0.2453278303146362,0.0976713970303535,0.4249725482434034,0.3303799553573131,-0.0169213241845369,0.0263558737933635,0.0201406627893447,-0.0574892256880179,-0.0598041862249374,0.0219620811309898,0.0661461318715941,216
1722247029425878000,0.0406014749795198,0.0811045676184818,0.1408721135020256,5.080446238490939,0.182108032193873,8.386077099144458,0.1357656717300415,-0.0984134152531623,-0.0121237868443131,0.61431037031034,-0.2009897814077978,-0.1789753356517971,-0.7417504339586181,-0.2651572525501251,0.0788513198494911,-0.1723890453577041,0.4285518680348992,-0.8213572999060154,-1.4600520938068628,0.0144504448398947,0.0112104332074522,-0.0144891742673236,-0.041076760739088,0.0120519999734766,0.0194559754949994,217
1722247029465655000,0.0877215380728244,-0.1152097211149521,-0.1735059706032276,5.107546426862478,0.224893993339315,8.368558978110551,0.0869202017784118,-0.0939316898584365,0.0006738222436979,0.6144677550471768,-0.2006354895705308,-0.1818451296112025,-0.7410176010421196,-0.0139048006385564,0.2161523550748825,-0.2061032056808471,0.1604623646348714,-0.2207359238117933,-0.1896463735431432,0.0018287124112248,0.0177783071994781,-0.0505843371038092,-0.0078776441514492,-0.0070701924020919,0.0609884248814312,218
1722247029505328600,0.2139835269421338,-0.1222076171782799,-0.3884896144986152,5.132867330601811,0.2444615759826265,8.35250216180086,0.012963474728167,-0.1362655758857727,-0.0284337364137172,0.6143046241710458,-0.201068280790614,-0.1836094879233685,-0.7406003228962733,-0.1327883154153823,0.1484233140945434,-0.2651155889034271,-0.0762441585078835,-0.704977822625637,0.2057552123010158,-0.013461978174746,0.0211692918092012,0.0314079777012113,0.0117213632911443,0.029811445207789,0.0520632048841798,219
1722247029545098500,0.2389654079854488,-0.2804137273189611,-0.29707682069242,5.178813673740625,0.244650303487759,8.324086799177527,-0.0135717801749706,-0.0560959428548812,0.0001070640282705,0.6138144709528718,-0.2030970716025395,-0.185313986286441,-0.7400284141224525,-1.1184515953063965,-0.391177773475647,0.074147030711174,-1.868049541851878,1.3631003705739977,1.50013626691401,-0.0071420855820178,0.0069853463210165,0.0566901842648163,0.0266969315707683,0.0449119585897773,0.0898211863663513,220
1722247029584870700,0.2971744358479976,0.0600527195004746,-0.2133019744187593,5.164298241654038,0.2238097417665645,8.33368523312807,-0.11594258248806,0.1304509341716766,-0.0467453338205814,0.6132284780816175,-0.2033421859279599,-0.1837178422378362,-0.7408444291606756,0.3275723755359649,-0.0566720440983772,0.0831829383969307,0.9244362738475204,-0.4195850099861621,-0.1733665621325373,-0.0148792183026671,-0.0354240909218788,0.0670637216405477,-0.0165737364441156,0.115683110780362,0.0254234233988914,221
1722247029624643600,-0.2275000111192464,0.0893198583812452,0.2492044779270887,5.112269948253036,0.192597368835844,8.366479833748937,-0.0229567624628543,0.0750123187899589,-0.0477826595306396,0.6131206467048358,-0.2022508924725866,-0.1803408205970267,-0.7420612267377802,0.0148224513977766,-0.0431395135819911,0.0666612237691879,0.0789805977344512,-0.1341518653362989,-0.5029354933679103,0.0040265643037855,-0.0275428984314203,-0.0351240436488529,-0.0282956790179014,0.0325239121870137,0.1611110926008783,222
1722247029664415500,-0.4736106146842241,0.0636586350379511,0.2081073283851146,5.146194429686665,0.2181090459069237,8.345028464919329,0.0727478861808776,-0.087722435593605,-0.0154934916645288,0.6123468721167272,-0.20299656318699,-0.1825222105692142,-0.7419632753668692,0.4154180884361267,0.0333810448646545,0.1791680008172989,0.5984846563264727,0.1249058980852365,0.3734557114958763,0.0192137882113456,0.0271260086447,-0.0268884179175365,-0.033107254654169,0.0550131772635737,0.1344573876215145,223
1722247029704187600,-0.0423714072614908,0.1171313185609877,0.0157061031758785,5.149203548374771,0.2440938569150865,8.34245189242959,0.0617690868675708,-0.0146436709910631,-0.0163719821721315,0.6125178639950785,-0.2022042130932891,-0.1837574147846335,-0.741733422952386,0.5972679853439331,0.2419576942920684,0.1444094777107238,-0.0278963071852922,-0.4103986639678478,-0.370600906586647,0.0384308733046054,-0.0258489232510328,0.0156441655468137,-0.0455407090485096,0.0713490205771988,0.0994449922201689,224
1722247029743959600,0.0614092852085828,-0.0312537826533429,-0.1204652852892875,5.15929707236588,0.274414870496653,8.3352704564929,0.0772008746862411,-0.0835123285651207,-0.0125116743147373,0.6123601752287114,-0.2016424293994571,-0.1853639873496967,-0.7416168596219348,-0.7306626439094543,0.1409890502691269,-0.2164209485054016,0.7365718152850866,0.2906757214784622,-0.7841366995364427,0.0257879141718149,0.0065911235287785,-0.0476673125793691,-0.0324054956436157,-0.0025315066511946,0.0037814359303418,225
1722247029783732700,0.0697206019580364,-0.0595830378958024,-0.085596216481924,5.171187416645884,0.2994521532553248,8.327036881154775,0.0609952360391616,-0.0876636952161789,0.0142122535035014,0.6124796015512805,-0.2012639257366043,-0.1869013651680654,-0.7412351395472818,0.1356942802667617,0.1012736484408378,-0.1469777673482895,-0.1832566725060343,-0.4464449598610401,0.3241881149798631,0.0158700924366712,0.01146986708045,-0.0081795276129269,-0.0304768458008766,0.0585178426499711,0.0330835165478638,226
1722247029823504600,0.3129103496402501,-0.1826314715460874,-0.5568132140278816,5.238794387450814,0.3027904673651792,8.284547984993457,-0.0413695573806762,-0.1596496701240539,-0.0013423621421679,0.6121126672544572,-0.2040641020817112,-0.1896403221597704,-0.7400759400685002,-0.1235079914331436,-0.2407771050930023,-0.0707989037036895,-1.3856348584651943,0.238923906931281,0.2745218745350837,-0.0021588336676359,0.0126160401850938,-0.0144891742673236,-0.029169924557209,0.0120519999734766,0.0194559754949994,227
1722247029863276800,0.2574129188239574,0.2022139046986587,0.5030132347792386,5.179968688994646,0.2691445288782939,8.322612050449848,-0.1000297516584396,0.3695891797542572,-0.0005403747782111,0.6122899311185825,-0.2027001050478846,-0.1859503807743298,-0.7412395972617924,3.0532374382019043,0.6385564804077148,0.2663064002990722,0.7583753585532307,-0.1278185706615447,0.3700502869665622,0.0150697547942399,-0.0304008685052394,0.021038796840189,-0.063173584640026,0.147175862421887,-7.63194933329e-05,228
1722247029903048700,-0.3257283301591873,0.0187703861173242,0.3020218758791685,5.142413157582283,0.2793076840395108,8.345535245397686,0.1287941485643386,-0.2273343503475189,-0.0854642912745475,0.6122372960275587,-0.2008040983844439,-0.1848616805938961,-0.7420709724945775,0.5342221856117249,-0.0163056068122386,-0.0077718021348118,-0.5143211029961705,0.2602507725983858,0.0139162971496582,0.0229657813906669,0.0080392276868224,-0.1604361890139989,-0.0288240481168031,-0.0405847613067366,0.0847923618862871,229
1722247029942821600,-0.2012859579324722,-0.1690028504977002,-0.0215185888469219,5.267715946030616,0.3642800330020487,8.263706857016683,0.2104261368513107,-0.2839332520961761,-0.0151875969022512,0.6108521781689337,-0.2035207793618377,-0.1929960854667036,-0.7403995963454714,-0.5625748634338379,-0.4921810626983642,0.1837784647941589,-0.9336877940565348,-0.1012327615529298,0.0694306791007518,0.0338167771697044,0.042511411011219,-0.0196239045239868,0.0030675653833895,0.0258563349234405,-0.0117749834051821,230
1722247029982593800,0.0500830045521259,0.2558083331715315,-0.2294990759819745,5.280756044867634,0.4012502753397449,8.253665939995646,0.0332142151892185,0.1096478626132011,0.0117218615487217,0.6111620636150673,-0.2027352477952071,-0.1951373474817373,-0.7397977113802537,0.8749904632568359,0.1854959428310394,0.138344332575798,0.9365662721022964,-0.2108639336168765,-0.9629740942955016,0.0279613640159368,-0.0087857544422149,-0.0443544845372205,-0.0298010725528001,0.1060205529518891,-0.051566027917806,231
1722247030022365700,-0.1401806241065263,0.1401804414434358,-0.2208586734086275,5.26407145204842,0.3979164547419175,8.264478425911069,-0.0336304754018783,0.0179886296391487,-0.0043223993852734,0.6112647887466193,-0.20212519804564,-0.1943560640480524,-0.7400855216730015,-1.2375547885894775,-0.005550218746066,-0.1406369805335998,0.170677761439979,0.0235159001439809,-1.5916455068320037,0.0031676383223384,0.0176585055887699,-0.1210044975993689,-0.0184905547648668,-0.0605425168779911,0.1076646394976414,232
1722247030062139000,0.0693505996018648,0.0396399364709854,-0.0203419462829828,5.244130487781763,0.377699376947619,8.27809310976565,-0.0803273990750312,0.1083623394370079,0.0173817984759807,0.6114751150987814,-0.2019215285155018,-0.1927755669328937,-0.7403806424851522,-0.4820067584514618,0.171889066696167,-0.3250994086265564,0.9896849910885096,-1.0835884326666594,-0.3961000895023345,0.008027977310121,0.0596872791647911,-0.0888972033892292,-0.002895918674767,-0.0078493646476214,0.0140829247041256,233
1722247030101910800,0.2075333278894424,-0.1811282821752131,-0.045155485022068,5.242417838644981,0.3657811582800001,8.27971281992197,-0.0042994557879865,-0.1028628721833229,-0.000649768859148,0.6114198972728212,-0.2022667702789466,-0.192198543560341,-0.7404820724581954,0.7572560906410217,0.2148477733135223,-0.1550514698028564,-0.0716477706283331,0.7951561062008142,1.4645096577376129,-0.0028189565055072,-0.0026240493170917,0.0648179611409082,-0.0395049080252647,0.0935225799012463,-0.0662294216742971,234
1722247030141683000,0.4164379441320895,-0.3144457790466025,-0.0369523048222064,5.277721791738271,0.3748992979003116,8.256845154553652,0.009096810594201,-0.1034657657146453,-0.0148251485079526,0.6108452185595931,-0.2035818800282474,-0.1938362385092936,-0.7401689336187224,-0.2011931985616684,-0.4725469648838043,0.1351972669363021,-1.4030340292945502,0.1896381902366876,1.019018637600541,-0.0345339700579643,-0.00324631575495,-0.0462087980338605,-0.0269648469984531,-0.0002621632049238,-0.0248220576889696,235
