time_imu,phone_acc_x,phone_acc_y,phone_acc_z,phone_gravity_x,phone_gravity_y,phone_gravity_z,phone_gyro_x,phone_gyro_y,phone_gyro_z,phone_ori_w,phone_ori_x,phone_ori_y,phone_ori_z,watch_gyro_x,watch_gyro_y,watch_gyro_z,watch_acc_x,watch_acc_y,watch_acc_z,headphone_gyro_x,headphone_gyro_y,headphone_gyro_z,headphone_acc_x,headphone_acc_y,headphone_acc_z,frame_imu
1734063264774048000,0.6530133882410823,15.394883848065136,-3.418675640553236,0.1141787066999357,9.79959891244471,-0.3538375129101798,-2.3621537685394287,-1.0542664527893066,0.0905040204524993,0.2685699617974218,0.270690157463484,-0.6669089374644489,-0.6401792202445008,2.4261157512664795,2.155571222305298,-1.687225341796875,-0.9632225632667542,1.0852419137954712,0.1134666055440902,0.1138767674565315,0.0080610662698745,0.7092436633765697,-0.474335253238678,0.3802641859343275,-0.0128933838427066,0
1734063264814048000,0.8639247411962598,5.190969975480437,-4.353350692081452,0.1741111334221437,9.761119836446642,0.9276972484048456,-2.7909610271453857,-0.0383997224271297,0.1505851596593856,0.2781420645791327,0.2418052113785444,-0.6278780479175565,-0.6855191351623259,2.832336664199829,1.477641224861145,-2.2608962059021,0.0580361485481262,0.451974868774414,0.5317578911781311,0.0877678245306015,-0.0981426835060119,0.5649187790721655,-0.3021500408649444,0.525886014714092,0.7407745276719331,1
1734063264854048000,1.8476983893491328,-5.821342346715927,-4.901535778495669,0.1468210485016927,9.59909329123497,2.001558871500939,-2.615863800048828,0.0678417384624481,-0.2623538076877594,0.2921622522541048,0.2285660640987296,-0.5879680714023916,-0.7188131213509843,1.367346167564392,0.963218629360199,-1.7859314680099487,1.058976650238037,-0.4532826542854309,0.8398059606552124,0.1390644907951355,-0.1370159983634948,-0.0337678295671939,0.06048384308815,0.4248222530525177,0.8568715347491205,2
1734063264894048000,0.3830901300752535,-14.07146900666952,-2.4921704514771696,0.0076134843781357,9.383622156083582,2.849206066308916,-1.849556803703308,-0.0792370736598968,-0.4883500337600708,0.2959346410496301,0.2189699985887416,-0.5538800073989072,-0.7467876994834658,0.7620677351951599,0.4087514281272888,-0.9774833917617798,1.5214977264404297,-0.6832078695297241,0.7478001117706299,0.1887061893939972,-0.0589828863739967,-0.7635942622452974,0.2198694497346878,0.0678976973798125,0.0181789230301976,3
1734063264934048000,-0.1274269227291457,-17.061382643568514,0.1191948269620537,-0.1826224297231063,9.23099706094563,3.305411664944887,-0.4994315803050995,0.4093329906463623,-0.3803490102291107,0.2967013198234956,0.2194917291873726,-0.5322539633447398,-0.761903907120268,-0.7479771375656128,0.075618214905262,-0.0102667566388845,1.6170309782028198,-0.913177728652954,0.5951585173606873,0.1525063812732696,0.0499591082334518,-0.993112042927742,0.1910630613565445,-0.1289327424485236,-0.3709861065119504,4
1734063264974048000,-0.0227209138413891,-16.499114671266078,-0.0368611194074153,-0.3117189478985965,9.237200591760873,3.2783103075295683,0.6016490459442139,-0.0450852327048778,-0.1678245961666107,0.2934470567550467,0.2253151638115463,-0.5311174670313419,-0.7622571730863725,-1.7042758464813232,-0.2061753273010254,1.211052417755127,1.2823855876922607,-0.7141749858856201,0.5401291847229004,0.0557019859552383,0.0806090086698532,-0.5473860449910164,0.2853655219078064,-0.1385046902509406,-0.0887356835514307,5
1734063265014048000,-1.1305556432858108,-11.35533256341815,0.8085308438196778,-0.3023742329807952,9.3820626516819,2.8382871974095703,1.7618626356124878,-0.1414293348789215,0.2076739221811294,0.287087185350255,0.2309389375579169,-0.54950417386054,-0.74986229613532,-2.157087564468384,-1.034603476524353,1.780911207199097,0.7160586714744568,-0.3034893274307251,0.355240136384964,-0.0649213418364524,0.0650074705481529,-0.1208294424265623,0.645211398601532,-0.2071181346846744,0.7460328865915536,6
1734063265054048000,-2.478003978958726,-1.698008032488823,1.2307637379661205,-0.1074344748704228,9.59094388704896,2.042708628012985,2.4993646144866943,0.0251770727336406,0.7340608239173889,0.2844786391265378,0.2368170065993006,-0.5828966882794906,-0.7233403240410662,-2.531409740447998,-1.757694125175476,1.5951745510101318,-0.3275865316390991,0.1367207765579223,0.1789728999137878,-0.1349448710680008,0.0075417421758174,0.5736760860234499,1.1114773750305176,0.1556269621013663,0.9679043903045356,7
1734063265094048000,0.6003509251223876,7.166027939677238,0.6605693565785884,0.0860366537258029,9.757386495137212,0.9779623315256089,2.707258462905884,-0.045505341142416,0.257029116153717,0.2771451595143868,0.2452602713556604,-0.6244879480291096,-0.6877883754082847,-1.6788246631622314,-1.4753971099853516,0.6634320020675659,-0.9408817887306212,0.6698710918426514,-0.1700913906097412,-0.21467025578022,-0.100250020623207,0.524113305953145,1.3087608814239502,0.2596686435951851,0.35869653378129,8
1734063265134048000,1.6378882025688886,8.181154246014357,-0.7198632570683956,0.1532736952397972,9.80528572590947,0.0572679704530397,2.1103880405426025,0.4106788039207458,0.0405316054821014,0.2709920791972608,0.2591978704922231,-0.6556650136630673,-0.6553496803364723,-1.3419808149337769,-1.2067580223083496,0.3218027353286743,-0.5100615620613098,0.4581057429313659,-0.2268920540809631,-0.23374605178833,-0.2065893113613128,0.2901636803030967,1.2304357290267944,0.1475530525706708,-0.0847368231736123,9
1734063265174048000,1.626866019425541,6.380806952035427,-3.271079187232256,0.0954629916456062,9.789779529219864,-0.5669757481345906,0.9445021152496338,-0.2154480516910553,-0.2456793338060379,0.2609905953832639,0.269970640222863,-0.6752951736428154,-0.6348039605059614,-0.3887156248092651,-0.4830614924430847,0.0583054460585117,-0.6280246376991272,0.5613254308700562,-0.2571111917495727,-0.2117198705673217,-0.1389284878969192,0.0064513680964708,0.9732150435447692,-0.1741780977111309,-0.3964087901253253,10
1734063265214048000,0.1247125674702227,4.8527206019222735,-1.6048948645055292,0.0336042273701634,9.779890587890147,-0.7231666825279593,0.0619800053536891,0.0912881717085838,-0.0610677562654018,0.2555042479888939,0.2727597148085344,-0.680053952858992,-0.6307505313357653,0.1532965302467346,-0.1443036645650863,-0.1598957329988479,-0.2958157062530517,0.3054406642913818,-0.1001211404800415,-0.170529156923294,-0.0649511888623237,-0.0461684614568948,0.6752371788024902,-0.0939874665997922,-0.3582088233295828,11
1734063265254047700,-0.0597979227554984,2.272649748674035,-0.2921499587494879,0.0339104460584116,9.78395243050158,-0.6659796911895275,-0.2349946647882461,0.1387181431055069,0.0179051216691732,0.2581593989885182,0.2739829801366772,-0.6774133456045358,-0.6319796598760462,0.1689620465040207,0.0158002581447362,-0.1447588503360748,-0.0859937667846679,-0.012982964515686,-0.0158357620239257,-0.1251620501279831,-0.0560128614306449,-0.1556885743618011,0.4462518692016601,-0.048895329137519,-0.2739353433514013,12
1734063265294048000,0.0693853192887967,-0.1970294695317745,0.2934276870677247,0.028028932005458,9.78924819882214,-0.5832758716808631,-0.1815344244241714,0.0916142910718917,-0.0628992468118667,0.26040121299583,0.274449560431103,-0.674104021384569,-0.6343913497304289,0.0419055595993995,-0.0715296417474746,-0.050761517137289,0.0852660536766052,-0.0789188742637634,0.0362720489501953,-0.0773839205503463,-0.0213106274604797,-0.2355336799710989,0.2773299813270569,-0.0313013298558071,-0.1807690934740007,13
1734063265334048000,-0.1729735076943412,-1.3103040154099463,0.8992226298749446,0.0236352636237745,9.790267020475865,-0.5661300910906866,0.1129682511091232,0.1013009995222091,0.0543119981884956,0.2616174726854103,0.2755587737244512,-0.6730022025050706,-0.6345799477076927,-0.0660153180360794,-0.2047780305147171,0.0753243118524551,0.1457494497299194,-0.0610700845718383,0.020774008706212,-0.0258614160120487,-0.0106060616672039,-0.1692056430608034,0.1633854806423187,-0.001454911516048,-0.0916979856894351,14
1734063265374048000,0.3464666553486138,-1.2454226701766251,0.5625637403786182,0.0563577054740162,9.78539035435021,-0.642919718119502,0.2876915633678436,0.1029592007398605,0.0483976155519485,0.263089300115247,0.2770571281905838,-0.6752918859811046,-0.6308757600576957,-0.197379469871521,-0.2922545671463012,0.216192677617073,0.093661367893219,-0.0718489289283752,0.0237983465194702,0.0106893219053745,-0.0137395681813359,-0.1166945345789194,0.1002783998847007,-0.006040047349222,-0.0691171196395531,15
1734063265414048000,0.4515619010159745,-0.2879845826983451,0.5566285051107406,0.0554101178590208,9.774410110652449,-0.7926064217180013,0.4554184377193451,0.0977435037493705,-0.0577936433255672,0.26199627429513,0.2802530633985415,-0.6796101101789498,-0.6252569903556119,-0.1907745599746704,-0.2977133989334106,0.1698936969041824,-0.0249228477478027,0.0175087451934814,0.0044594965875148,0.0182670913636684,-0.0191903915256261,-0.0359697235256433,0.0891734361648559,-0.0501852593502029,-0.1273406144188717,16
1734063265454048000,0.0593155917318072,0.8689034794569015,-0.0750176854528486,0.0304668084105593,9.758061033397912,-0.974539955861494,0.4387091398239136,0.1789952516555786,-0.0745010450482368,0.2603566161587468,0.2855186010305021,-0.6842271824370396,-0.6184875463375394,0.0134661924093961,-0.0569034554064273,0.089732214808464,-0.188960313796997,0.1207120418548584,-0.0428104475140571,0.0084338570013642,-0.003959696739912,0.0357236398100852,0.0915340408682823,-0.0375924293566495,-0.1923519427074119,17
1734063265494048000,0.5965995366996154,3.960777607661485,-0.9370108009994028,-0.0079251692593679,9.745129071110489,-1.096713360242918,0.0976023077964782,-0.0910184979438781,-0.1305257976055145,0.2582882691884586,0.289545282792116,-0.6870810361691344,-0.6143047508504886,0.5999270081520081,0.5852304100990295,0.097049705684185,-0.6026529669761658,0.5216655135154724,-0.3029155731201172,0.0385370142757892,-0.1005192250013351,-0.1160071368366479,0.0333377383649349,-0.0558718901518732,-0.2569052067638375,18
1734063265534048000,-0.1896164167962968,12.231498142832518,-3.442434117281437,-0.0578842026552418,9.766876792538165,-0.8804458870820701,-1.258530616760254,-0.4997984766960144,-0.0959658548235893,0.2562147680591042,0.2843920024981901,-0.6811838503967839,-0.6240704155064988,1.8596421480178835,2.219074249267578,-0.5571587085723877,-1.693864107131958,1.2333014011383057,-0.4826940894126892,0.0476107187569141,0.0980989038944244,0.2099614318192005,-0.0502724759280681,-0.3545987430736422,-0.0863449890226125,19
1734063265574048000,-0.3818870378958061,14.549462951004504,-5.379835427778959,-0.0273718677526572,9.806301624953749,-0.078046513488423,-2.969289302825928,-0.0856618285179138,0.3487086296081543,0.2636118150167398,0.2675546575227884,-0.657566551892647,-0.6530923092773139,3.811662435531616,2.273397445678711,-1.7893739938735962,-0.9619348645210266,1.144761323928833,0.195138931274414,0.0342653729021549,0.020958624780178,0.8410346448004246,-0.2016987800598144,0.1198098535878583,0.0566022685193456,20
1734063265614048000,1.0137016803614796,6.006359306892752,-5.189104181608557,0.1323728546987287,9.726538352409005,1.2439084662213922,-3.4645419120788574,0.019596816971898,0.3159597814083099,0.2866942637099674,0.2440342755598462,-0.6140240937532888,-0.6937060290537796,2.972393035888672,1.7806336879730225,-2.230811357498169,0.1315943598747253,0.1000075936317443,0.819374680519104,0.0168359242379665,-0.1341312229633331,0.6317863296866416,-0.1174170821905136,0.2683933451848104,0.5070047521008179,21
1734063265654048000,1.5807149474948643,-5.853083054369688,-3.628040860044956,0.0810106239910237,9.493915591448545,2.4554808892443774,-2.750732898712158,0.3057820796966553,-0.4751623570919037,0.3024777152119861,0.2293659797402593,-0.5676236129977005,-0.7305490613200302,1.2821180820465088,1.049389362335205,-1.4063751697540283,1.3775413036346436,-0.6700417399406433,0.9350220561027528,0.0554471164941787,-0.2016675025224685,-0.3713672147840261,0.1123211830854415,0.0456630692180246,0.3340091056399047,22
1734063265694048000,0.5201945981394499,-15.25653336199522,-1.111733453916013,-0.1824623620568774,9.255615953895449,3.235839239285886,-1.4723567962646484,0.1224810108542442,-0.5788294672966003,0.3056342612128147,0.2274703251222994,-0.5322361929757832,-0.7560221620314603,0.3035957515239715,0.2337197065353393,-0.6150989532470703,1.6277813911437988,-0.6855487823486328,0.6564028263092041,0.1089771687984466,-0.0839790403842926,-1.082563181272149,0.1376207768917083,-0.2191574955139309,-0.3858890766113996,23
1734063265734048000,0.1961100896645337,-18.64299366312027,-0.3745619191721081,-0.3171667284430935,9.144147629532217,3.529071659509837,-0.1906922161579132,0.1644485145807266,-0.1356168687343597,0.3054269524385836,0.2276439663389544,-0.5179243573843564,-0.7659287625633594,-0.9975872039794922,-0.1275337785482406,0.5507695078849792,1.5750330686569214,-0.8546911478042603,0.6728581190109253,0.1650789976119995,0.0343711674213409,-1.046837203374505,-0.0502941459417343,-0.2908997029600664,-0.8260884931463748,24
1734063265774048000,0.0646826443234458,-16.37796432632208,-0.7452952199667692,-0.3332822161374613,9.189074566495416,3.408844859151542,0.7811650633811951,-0.029251042753458,0.1205720752477645,0.3046419771781568,0.2310481528756958,-0.5223160337716517,-0.7622309517644722,-1.9390157461166384,-0.6677035689353943,1.4557006359100342,1.184198975563049,-0.6549036502838135,0.6452709436416626,0.1371596753597259,0.111069232225418,-0.6472621312379837,-0.2259168177843094,-0.4499115765256807,-0.6231725228592753,25
1734063265814048000,-1.1167089042410254,-10.712902090120314,0.564466359129548,-0.2192557134577073,9.370354093709588,2.884231202460825,2.1577444076538086,-0.0075879371725022,0.4373371601104736,0.3018031135122498,0.2357193319840831,-0.5453269966417039,-0.7456338597535809,-2.388974905014038,-1.6874960660934448,1.493501901626587,0.5376991629600525,-0.1628986597061157,0.3774649798870086,0.0310900434851646,0.1293875277042389,-0.253202607652545,-0.1288209557533264,-0.2941452242199331,0.1883457758059725,26
1734063265854048000,-0.4977514783261343,-1.3996575385987755,-1.2348153514444826,0.006640824541499,9.615809448236227,1.925243109061569,2.700355529785156,-0.087768405675888,0.5242599844932556,0.2981635603075418,0.2439797751733543,-0.5850758854100412,-0.7136235825122401,-2.9807205200195312,-1.982287168502808,1.4148719310760498,-0.4645484685897827,0.1442630887031555,0.2522869110107422,-0.0522917062044143,-0.0693539828062057,0.6182417884588242,0.152667224407196,0.2555862879186868,0.6020385859483852,27
1734063265894048000,1.2296313729353248,6.997685635447501,-0.111494116391614,0.0376496166037162,9.771002932557463,0.8345426524326205,2.815333127975464,-0.2718323469161987,-0.1298527121543884,0.2825792996689408,0.2570645406688916,-0.6255941081728703,-0.6802196378687548,-1.825771927833557,-1.6938579082489014,0.4779342114925384,-0.9783836007118224,0.8848192691802979,-0.1681966781616211,-0.0875501781702041,-0.0365393199026584,0.1704921757400035,0.2139372527599334,-0.0823830265890806,0.2085956964239478,28
1734063265934048000,0.0365003324041608,9.694103817272186,-1.6155319938540458,0.0202123125709244,9.80651848257482,-0.0464930355024524,1.816801071166992,0.3716931939125061,0.0027669484261423,0.2715704849338404,0.2715122110112321,-0.654714903136533,-0.651059862062854,-0.7902997732162476,-0.8358022570610046,0.3106522858142853,-0.7310850024223328,0.6978132724761963,-0.3873423933982849,-0.0710989162325859,-0.0471727102994918,0.2356827330529689,0.1046806871891021,0.1003565632402896,0.0212667695103213,29
1734063265974048000,0.3818408606665209,7.536925783383846,-2.826120082014799,0.0233778022809652,9.789013805544377,-0.5874130445508287,0.7634240984916687,0.0125803295522928,0.0661519095301628,0.2665973185259558,0.281472120434501,-0.6713591995750655,-0.6316455993702282,-0.0902689918875694,-0.2107378095388412,0.2089031487703323,-0.5662757754325867,0.475626528263092,-0.2623711824417114,-0.0315886028110981,-0.0068384148180484,0.0819973152071237,-0.0174849182367324,0.001366539112851,-0.1550529798720032,30
1734063266014048000,0.7481449833746999,4.778123333838582,-0.4684510399639606,0.0706718702343059,9.779819860741496,-0.7214674773946405,0.1249227672815322,-0.0257155913859605,0.1616619378328323,0.2663400363348094,0.2818318938786156,-0.6762805536347792,-0.6263213228552073,0.1341265588998794,-0.0964306741952896,-0.0064282771199941,-0.1791296601295471,0.1236039400100708,-0.0923141241073608,0.0009487345814704,-0.0013230051845312,0.082671853467822,-0.1312014460563659,0.1124570431396365,-0.2359629565001465,31
1734063266054048000,0.4875308573566377,1.650013524648547,-0.1711140339653939,0.1249358365657739,9.778407655856013,-0.7331457863591611,-0.0439317002892494,-0.0789064839482307,0.0596107877790927,0.2666454833394172,0.2787450378679444,-0.6779979604265698,-0.6257156728464567,0.0653733313083648,-0.0198782160878181,-0.1039488464593887,0.0030619502067565,-0.0818764567375183,0.0581707954406738,0.0255555883049964,-0.0307211223989725,-0.1495072553783655,-0.1247792989015579,0.0526793777208775,-0.0900571048809215,32
1734063266094048000,0.0473093477208632,-0.6131938574194907,-0.2838591002661734,0.1195363978081848,9.779844995182753,-0.7146727026879787,-0.0714979693293571,0.0317452363669872,-0.0243795849382877,0.2669560037932419,0.2789181703609776,-0.6772317341589432,-0.6263357356267447,-0.0342946723103523,-0.1014162749052047,-0.0962950512766838,0.1064316630363464,-0.0831802487373352,0.0459325313568115,0.0269834157079458,-0.0113213583827018,-0.191136904361844,-0.0189163833856582,0.0294498933028429,0.0417936256398446,33
1734063266134048000,0.2566509580081328,-1.073023784032464,0.2252455101907253,0.1062202219761442,9.781034497228264,-0.7003449751932174,0.0364004373550415,0.0675464943051338,-0.0488466769456863,0.2671612287357544,0.2796447693308507,-0.6763922365367941,-0.6268311669059421,-0.1001216173171997,-0.1637714654207229,-0.0588891543447971,0.1159758567810058,-0.0189186930656433,0.0143373012542724,0.0378483384847641,-0.0156786199659109,-0.0806546684265136,0.0680087506771087,0.0692258041784167,0.0318434556421823,34
1734063266174048000,0.619574644497782,-0.521670004454255,0.473862543618679,0.0922513909216504,9.778102535429596,-0.7420130564909428,0.1620277166366577,0.0811099261045456,-0.0741879343986511,0.2673259673287416,0.2820055372981176,-0.6769822859802151,-0.6250637273943672,-0.072690263390541,-0.1971644759178161,0.035196665674448,0.0130512118339538,0.0181204676628112,-0.0359412468969821,0.0409363359212875,-0.0187801700085401,-0.0470166027188301,0.0570538900792598,0.0113403091818094,-0.0747039615948684,35
1734063266214048000,-0.013877791770175,0.978313117724657,0.553224249625206,0.0684955308422213,9.771951611584424,-0.8213742510408163,0.2248246073722839,0.084194540977478,-0.035128578543663,0.2661079636983239,0.2846620029483601,-0.6788563724718203,-0.6223408280894085,0.2652401030063629,0.066025398671627,0.0713749751448631,-0.1849656105041504,0.1553488373756408,-0.0815864875912666,0.0567718259990215,0.0109106246381998,0.0414314960628747,-0.0144074596464633,0.0243866185639053,-0.1745928707907907,36
1734063266254047700,-0.5238921009505167,3.558961478599906,-0.8888895249743014,0.0743805794259766,9.769859607741235,-0.8454102295361459,-0.2064215987920761,-0.1275746971368789,0.0871307551860809,0.2660913731390327,0.2849446677687173,-0.6796399511526877,-0.621362649815243,0.8118587136268616,0.8528191447257996,0.2793543934822082,-0.5912204384803772,0.3905144333839416,-0.2113182544708252,0.1225804835557937,-0.0402418673038482,-0.0992459716498851,-0.2476239651441574,-0.1100781121138483,-0.1889533863103017,37
1734063266294048000,-0.0142118368969764,9.089576665911078,-1.6538193466722964,0.1159653709209989,9.786159000635148,-0.6229168675977736,-1.0524462461471558,-0.0125979948788881,0.0089679844677448,0.2697610234927794,0.2795157332755739,-0.6735212511137688,-0.6288633250167204,2.0355446338653564,1.939521312713623,0.1210893988609314,-1.24580717086792,0.9422511458396912,-0.5914711356163025,0.1991870403289795,0.0591609477996826,0.0570259555578231,-0.4477769732475281,-0.2924848167270422,0.0972350702188909,38
1734063266334048000,-1.3389762754037975,14.45741478190422,-4.528790845617651,0.2150480143684893,9.80303064045906,0.1572777615156955,-2.8804819583892822,-0.3265037536621094,0.5518842935562134,0.28038642995554,0.2617158781700855,-0.6507579159583372,-0.6552880651958358,3.71436619758606,2.166656017303467,-1.2889063358306885,-1.22566556930542,1.0617287158966064,4.738569259643555e-05,0.1875822693109512,0.0333639159798622,0.640002953889966,-0.6168472170829773,0.0737121558122336,0.1815061025116592,39
1734063266374048000,0.7823472588364034,7.442539526724815,-3.5796991462022065,0.3863224995926022,9.700392688283324,1.3869098468370735,-3.0500338077545166,0.0973011776804924,0.212493434548378,0.3003980679239468,0.2364033506702947,-0.6110652422594537,-0.6931621380712824,3.080634117126465,1.6260135173797607,-2.1601767539978027,-0.0969473719596862,0.2900079488754272,0.7403373718261719,0.065015897154808,-0.0617542415857315,0.6920692412137985,-0.5847429037094116,0.3685343294456601,0.7180162409622222,40
1734063266414048000,1.45591236365363,-3.95806542609334,-3.767808519436419,0.356498220019415,9.496900160217283,2.419124650619179,-2.343818426132202,0.3731648325920105,-0.3319941461086273,0.3154311329357732,0.2239199958513163,-0.571418238717631,-0.7237707888506862,1.796454668045044,0.9804034233093262,-1.7275551557540894,1.1290006637573242,-0.4426731467247009,0.8773670196533203,-0.0195378363132476,-0.164616659283638,-0.0685439593940973,-0.2394747138023376,0.3586918576061725,0.8089022344153374,41
1734063266454048000,1.9567622829191385,-13.301864105832577,-2.653203309476376,0.0474837544396985,9.27721169963181,3.178281661069393,-1.666805386543274,0.1772953420877456,-0.7947807312011719,0.318235348961142,0.224627946615949,-0.5361856251309527,-0.7488481484226461,0.6563172936439514,0.1148018836975097,-0.8386270403862,1.483856201171875,-0.702431857585907,0.6168439388275146,0.000145073980093,-0.1449405550956726,-1.0278279670000077,-0.0848018079996109,-0.0070188657861202,-0.0610566723786294,42
1734063266494048000,-0.5158962068257853,-17.973017011249063,0.9852484699457884,-0.1088408710696268,9.15247823550403,3.520040504053235,-0.1264879256486892,-0.1324726343154907,-0.1447168886661529,0.3144996155051758,0.2222143236946353,-0.5207193830404052,-0.7619463178115337,-0.7414752840995789,-0.1148254945874214,0.3628051578998565,1.6262048482894895,-0.8482637405395508,0.7241533994674683,0.0556551478803157,0.0336388349533081,-1.289847502836585,-0.2605500817298889,-0.2124329364992678,-0.8089834829580038,43
1734063266534048000,-1.374787008975446,-16.08675552088022,-0.2838061279699206,-0.0889678300731815,9.21120631880462,3.363946563760936,0.9100953936576844,-0.1431596428155899,0.256720095872879,0.3121173475929786,0.2234058127211502,-0.5278032796586779,-0.757691371831959,-1.8269248008728027,-0.5691033601760864,1.3454571962356567,1.2406704425811768,-0.7331259250640869,0.6220775246620178,0.0740239769220352,0.096314899623394,-0.5429191287100315,-0.3962331414222717,-0.164199286140874,-0.5591618229806423,44
1734063266574048000,-1.6517282196119427,-8.979809884768724,0.8674778305679559,0.1062708835843019,9.383382502108812,2.848023870787024,2.0182583332061768,-0.1889907866716385,0.6232566833496094,0.3110865293796703,0.2244501154091464,-0.5517366606440391,-0.7405633776001842,-2.372266292572021,-1.2622950077056885,1.6640819311141968,0.609246015548706,-0.2759725451469421,0.5168854594230652,0.0209194272756576,0.1232547461986541,0.0452343954771757,-0.1702715009450912,0.0538256982117891,0.3680624741502106,45
1734063266614048000,1.5398684117130934,1.960676972144842,-0.6671231621362268,0.3334447862880304,9.611696167698502,1.9168958442159,2.646409273147583,0.143687441945076,0.4664488434791565,0.3090874285153567,0.2332532869006619,-0.5897952340206398,-0.7086602763922917,-2.447803735733032,-1.833590626716613,1.176439881324768,-0.3878297805786133,0.2645128965377807,0.0106758773326873,-0.0157341919839382,-0.0226823687553405,0.359655149680376,0.159536674618721,0.0898889452397823,0.7222288171559572,46
1734063266654048000,1.672215565714985,8.187603276023268,-1.1958745031535625,0.4110390442306175,9.751251937904954,0.9563049917951224,2.3575592041015625,0.1855924129486084,-0.0450573414564132,0.3007732014973643,0.246647185242074,-0.6248257193161963,-0.6769737601476985,-1.7066125869750977,-1.2418687343597412,0.3371948003768921,-0.9218211770057678,0.6950710415840149,-0.0675585865974426,-0.0011089779436588,-0.0102541828528046,0.2935357870846987,0.1556349098682403,0.1950965287078171,0.1473709740020334,47
1734063266694048000,0.3912769801948219,8.942174858379364,-3.002396686375141,0.2882272688804194,9.800983644801375,0.167512173548527,1.4832003116607666,0.428494393825531,-0.3945814073085785,0.2915812560176216,0.2677125348397106,-0.6479114561040805,-0.6507851234427197,-1.0986679792404177,-0.7157416343688965,0.1138829588890075,-0.8595548272132874,0.5973183512687683,-0.3264472484588623,-0.0175492651760578,0.1305071711540222,-0.0470528430759906,-0.0158147513866424,-0.1888598993405699,-0.1009893081858754,48
1734063266734048000,1.070631774329394,6.734920834201574,-0.8162953403413296,0.1324544959670398,9.802428582912682,-0.2554084836663678,0.8401969075202942,0.1754549294710159,-0.4193500876426697,0.2835460643223987,0.2821604212200321,-0.6583370759625936,-0.6376358044432976,-0.1493741273880005,-0.2420156151056289,-0.1335424780845642,-0.4108477830886841,0.5580324530601501,-0.3522194623947143,-0.0543082691729068,0.1866485774517059,0.040813656425476,-0.162147119641304,-0.0781343196360394,-0.2645287421785295,49
1734063266774048000,-0.2132254385838285,3.0077187581807374,-1.8894331061422824,0.0288720477491151,9.798266787058116,-0.4043614296302199,-0.1092270761728286,0.0636762306094169,-0.11314208060503,0.2795898855505986,0.2894198203905619,-0.6609484571290932,-0.6334135596924515,0.2160224914550781,0.0364165343344211,-0.1957185119390487,-0.2631552815437317,0.199303925037384,-0.0848980545997619,-0.0859521478414535,0.1477960646152496,0.1002384898185729,-0.2058982104063034,-0.0513248578393831,-0.1420692143321037,50
1734063266814048000,-0.5043398437405004,0.301802680170536,-0.1089864444196224,0.03821874227816,9.80098013767004,-0.3312473127763718,-0.1441500037908554,0.033751331269741,0.0921142548322677,0.2812821659986502,0.2883833762025476,-0.6585772090616843,-0.6356032469496169,0.174207404255867,0.1506115496158599,-0.0952784493565559,0.0446367859840393,-0.0704231858253479,0.0639222264289856,-0.0791556686162948,0.0754577219486236,-0.0105137952297925,-0.1274844706058502,-0.0267006676599383,-0.0454537373162806,51
1734063266854048000,-0.0240131364758592,-0.8960311403572558,-0.095564652788639,0.066809367853566,9.802311678534746,-0.2839162738135084,-0.0887206643819809,-0.0152938505634665,0.0444731265306472,0.2831673741221451,0.2870141950726634,-0.6573420366860504,-0.6366635930073932,0.0921428948640823,0.1429563462734222,0.0056954310275614,0.0911189913749694,-0.1049029231071472,0.0601382255554199,-0.0291875340044498,0.013717345893383,-0.1062041202247142,-0.0677238553762435,0.0314964871017262,-0.0174845110252499,52
1734063266894048000,0.1099578832676634,-1.1264257038742302,0.041794447623752,0.0559899635735899,9.80241513890922,-0.2827106243507936,0.0129216592758893,0.0412329770624637,-0.0364913083612918,0.2823180471461443,0.2868274800063698,-0.6573767774218211,-0.6370890068522891,0.1063524559140205,0.1068365275859832,-0.0009633370791561,0.0761922597885131,0.0018398761749267,0.0212828516960144,0.0219028629362583,0.0072905733250081,-0.1625496923029422,-0.0588867031037807,0.0386145389460027,-0.0738594553284347,53
1734063266934048000,0.8897896156191826,-0.1120277118116617,0.5330079755485058,0.0586132886813487,9.802558931294085,-0.2771278740487061,0.0196188148111104,0.1918548345565796,-0.0501785278320312,0.2845574520110363,0.2887966653229526,-0.656297246026176,-0.636315608904273,-0.0842369273304939,-0.0252575874328613,0.0272685661911964,0.0148715376853942,-0.0375286936759948,-0.029262363910675,0.0281089730560779,0.0202962346374988,-0.0981914941608905,-0.1040897071361541,0.0261139903457835,-0.2285375374734401,54
1734063266974048000,0.2060452812887728,0.3507446979939937,0.4898807814836501,0.0428021633615717,9.802017079502344,-0.2983452514593489,0.0961969122290611,0.0447547361254692,-0.0722234100103378,0.2850029460245415,0.2909470439772219,-0.6561716179256298,-0.6352652314026751,-0.0816941410303115,-0.0822383165359497,-0.0045100017450749,-0.0444649457931518,-0.0083521008491516,-0.0012649893760681,-0.0228351652622222,0.063553087413311,-0.1534621304839849,-0.1732391268014907,-0.0453617481838911,-0.2897909014679491,55
1734063267014048000,-0.2138937115005217,0.4815864158689975,0.2484042309274896,0.0081419475361617,9.799864869904518,-0.3646733066359535,0.1988146901130676,-0.0242742821574211,-0.0498943775892257,0.2836717737578008,0.2938779710617766,-0.6574411771111124,-0.6331960860954655,-0.0426047965884208,-0.1480966955423355,-0.063106469810009,-0.0261055827140808,0.0270975828170776,-0.001052863895893,-0.059425514191389,0.0778596997261047,-0.0782955380797386,-0.223843514919281,0.0203747160414233,-0.175713417519629,56
1734063267054048000,-0.2350320140592753,0.1983382140427827,0.2972621506640687,-0.0248884648555307,9.796106394153831,-0.4539325026048347,0.2857109606266022,0.021215334534645,-0.071711741387844,0.2814640258511301,0.2964856020084971,-0.6597275223732824,-0.63058213183435,-0.0645521730184555,-0.0824407711625099,-0.0353044643998146,-0.0178648829460144,0.0017104744911193,0.0213266760110855,-0.0467856153845787,0.0716717392206192,-0.0699029727876186,-0.2496769577264785,0.0667449106154963,-0.0828692757360637,57
1734063267094048000,-0.2034680877445265,-0.0389455244660377,-0.1722586008906364,-0.0561530588805442,9.789182147848605,-0.5823641636634245,0.3315589725971222,0.0975335240364074,-0.0645816102623939,0.2793034718852874,0.3002208708913788,-0.6629930141025185,-0.6263364010592314,-0.0977737754583358,-0.0175736770033836,-0.0203934274613857,0.0054529905319213,-0.0092456936836242,0.0374108031392097,-0.0170873254537582,0.0638777464628219,-0.062597033688426,-0.2580136656761169,0.0681905793791636,-0.0532924681179225,58
1734063267134048000,0.4866078972928225,-0.2039157219141721,-0.3461924415171146,-0.0968019120991695,9.780872000142931,-0.7039634579513222,0.3101939558982849,0.0917249023914337,-0.2217465341091156,0.2781536553161689,0.3054905347699188,-0.665257604185288,-0.6218829614049131,-0.0221597123891115,-0.0402671657502651,0.0256846528500318,0.0130911469459533,-0.0163376927375793,0.0089325979351997,-0.0107393879443407,0.055807776749134,-0.0204711256206035,-0.2219911813735962,0.0612873027967289,-0.0095620474629104,59
1734063267174048000,-0.0173061039847321,-0.355887906101346,-0.1889174747467041,-0.1860515273889526,9.774677237156032,-0.7690624645233154,0.0413113422691822,0.2639550268650055,-0.167289137840271,0.2762774628155136,0.3115747211552283,-0.664930422953844,-0.6200479848870077,0.2427110970020294,-0.0672433897852897,-0.0722288638353347,0.0034787654876708,0.09588623046875,-0.0214796662330627,-0.0015945760533213,0.048654556274414,-0.0155178871273994,-0.154252216219902,0.0292420957710593,-0.0092567809060215,60
1734063267214048000,0.118220027113147,0.0218891757249832,-0.5785012411575764,-0.1973782647031359,9.777577634772658,-0.7282840986069291,-0.2837806344032287,0.6334592700004578,-0.0581016018986702,0.2824586632115545,0.3176702405522682,-0.6604678442203837,-0.6189385423635795,0.2935577630996704,0.0264380946755409,0.0329226590692997,-0.0065028667449951,0.0014228820800781,0.033511996269226,0.0048821503296494,0.0352652259171009,-0.0319464593589305,-0.099800631403923,0.0506458991318941,-0.0163761113919317,61
1734063267254047700,0.1969342472626827,0.1315454822301864,0.2677881093006581,-0.2183325159318745,9.78449077516198,-0.6216814075186848,-0.1605542600154876,0.6594481468200684,-0.12628835439682,0.2922343956920751,0.3260180934206216,-0.6522339564067029,-0.6187909824668206,0.0970284640789032,0.0996447727084159,0.0986379534006118,-0.0140160918235778,-0.0179594755172729,0.0295193046331405,0.0123391505330801,-0.0008080974221229,-0.0519476293802261,-0.0845288634300232,0.0478992307722568,-0.0952019569560885,62
1734063267294048000,-0.141660012476705,0.0460521416008472,0.0608300970811396,-0.2466494231494143,9.782893276837468,-0.6360376304555684,0.146413505077362,0.2377360463142395,-0.1209887862205505,0.2962740223138836,0.332629992302245,-0.6494506767768672,-0.6162733063496981,-0.0324528291821479,0.1434029042720794,0.1534360200166702,-0.0227667093276977,-0.0390389561653137,0.0267430618405342,0.0037659099325537,0.0116525012999773,-0.0615460633307695,-0.1097317487001419,0.0444863535888493,-0.1468428584747016,63
1734063267334048000,-0.5159312416065484,-0.7231471010446548,0.0139712422072887,-0.2633815083721652,9.777718504548073,-0.7051476262345909,0.2035889774560928,0.2391063421964645,0.047829020768404,0.2972323305769239,0.337053394036084,-0.6498827074998247,-0.612944046749383,-0.0509285107254982,0.1528717279434204,0.1904086768627166,0.017643392086029,-0.0319215059280395,0.0157877653837203,-0.0137543780729174,0.0229497961699962,-0.1241933659017086,-0.134479284286499,-0.0212103631479665,-0.1999614313304424,64
1734063267374048000,0.0455667875030078,-0.5474456662237643,-0.4078759405571967,-0.2635887944472953,9.771408006227016,-0.787728659613803,0.0996923819184303,0.1875321269035339,-0.0531021133065223,0.2993541462938001,0.3421134296575763,-0.6504778136925389,-0.6084605306791511,0.2100993543863296,0.2744265496730804,0.2699306607246399,0.0562189221382141,0.00992351770401,0.0574891567230224,-0.0452972613275051,0.0482678487896919,-0.0991524481475353,-0.1373432576656341,0.0040938451848924,-0.1522280586443841,65
1734063267414048000,0.3308320465063676,-0.5622498521238565,0.5849941833734512,-0.3104812593298032,9.767805597820878,-0.8148379080746322,0.0729623213410377,1.0252587795257568,-0.2854104042053222,0.3039640469367759,0.3510874144383488,-0.6467478626318401,-0.6050294815609422,-0.1859417259693145,0.0781701058149337,0.2094222009181976,0.0836988091468811,0.0280316472053527,0.0097541809082031,-0.0749808773398399,0.0720550715923309,-0.0660632484942674,-0.118764579296112,0.0007559694664552,-0.0788935039728879,66
1734063267454048000,0.3779096221648156,-0.3174661132484674,-0.3276162627976388,-0.3904791443480178,9.760645789194106,-0.8646967484820633,0.1459840238094329,0.6590928435325623,-0.1113981455564498,0.311239884292928,0.365901938835783,-0.640470948586902,-0.5992015236830607,-0.3132230043411255,0.0290648248046636,0.122564397752285,0.005742073059082,0.0570029020309448,0.0029753446578979,-0.0947589352726936,0.0833648294210434,-0.087621584829688,-0.1001756712794303,0.0174531660389155,0.0016179565906524,67
1734063267494048000,-0.2807107192378491,0.1367857209712266,-0.4971802908420562,-0.3920599837986752,9.751716048285363,-0.9595425854768604,0.1864021718502044,0.5883528590202332,0.0446957051753997,0.316530835715175,0.3751460372907084,-0.6388963190082448,-0.5923556710605203,-0.2833995819091797,0.1060042977333068,0.2427374124526977,0.0114534497261047,-0.0370981693267822,0.0011226534843444,-0.0835441127419471,0.0777678191661834,-0.0253512988775968,-0.0903551578521728,0.0152247859323397,-0.0055192018128931,68
1734063267534048000,-0.2611480136990547,-0.112107206788659,-0.1858849751830101,-0.3846880667911842,9.748020700898763,-0.9992445543333888,0.0209419298917055,0.9046157002449036,-0.1668947339057922,0.3237302765849096,0.3839311435454883,-0.6352512655825726,-0.5867294273973578,-0.552141547203064,0.1878744959831237,0.3034522235393524,-0.0200507044792175,-0.0082203745841979,0.0843452885746955,-0.0821995064616203,0.0938044860959053,-0.0208896432936191,-0.1029515266418457,-0.0020170389108359,-0.0210005563221871,69
1734063267574048000,-0.0313160159682854,0.27930326359272,-0.1308252781968563,-0.3692637762313708,9.741627200469374,-1.0652274310678242,0.1900673359632492,1.221461534500122,-0.048638854175806,0.3362336702687186,0.3990694739541376,-0.6285340406333277,-0.5767454906192822,-0.2169161438941955,0.0379103571176528,0.1216211020946502,-0.0204430222511291,0.0591680407524108,-0.1747722029685974,-0.0704420506954193,0.0672822147607803,0.0092523969918489,-0.1199495568871498,0.0855650541586801,-0.0144210318014025,70
1734063267614048000,0.2105664119750261,0.2347211945444345,-0.6010941812377423,-0.3335684857329353,9.737727270421384,-1.1116577583312988,-0.1769234836101532,0.462890625,0.1483854949474334,0.3464740189223135,0.4098368441428325,-0.6234681507144041,-0.5685744904607852,-0.025474015623331,0.0120702357962727,-0.00570496218279,-0.0088826417922973,0.0559926629066467,-0.0579781532287597,-0.0393854938447475,0.0380858927965164,-0.044139001455903,-0.154556393623352,0.0818654324557632,-0.0340291108518838,71
1734063267654048000,0.8017109346717596,0.3332487887918949,0.2420351708196103,-0.262866087929625,9.746191731905936,-1.0550158336549995,-0.0655314102768898,0.2283382564783096,0.0370179489254951,0.3530045953761529,0.4101542103802781,-0.6209382912354054,-0.5670952657922216,-0.050595611333847,0.0122925033792853,-0.0136848585680127,0.0334550738334655,0.0142802596092224,0.0112466216087341,-0.0342849567532539,0.0249721221625804,-0.0197094935983419,-0.174690842628479,0.1239232802560552,-0.0503071686968207,72
1734063267694048000,0.2775911441789008,-0.1089437743216752,-1.07473577558212,-0.262627292471379,9.749495449626446,-1.024081620078534,-0.2066982984542846,-0.1773768663406372,-0.0341197736561298,0.3548788365877727,0.4109142468321892,-0.6191632355570281,-0.5673159202335094,-0.0684622302651405,0.0862670168280601,-0.0104770148172974,-0.0129268169403076,-0.0406548976898193,0.0667805671691894,-0.0416583828628063,0.018082458525896,-0.0810948134094476,-0.1791256517171859,0.0421222548060119,-0.0681336250275373,73
1734063267734048000,-0.3282510901024565,0.1095066689014434,-1.089600313367322,-0.3285086085274815,9.763433958607912,-0.8589811473142355,-0.6016764640808105,-0.0939922407269477,-0.2033484131097793,0.3538368479516715,0.4072191914392384,-0.614791331738489,-0.5753292329505627,-0.1418581455945968,0.0648609548807144,-0.0374608263373374,0.0004369020462036,-0.0209192633628845,-0.0186803340911865,-0.0602992475032806,0.0671519488096237,-0.097099607270956,-0.1723479032516479,0.0313409312138333,0.0022895722419023,74
1734063267774048000,-0.1175081159841269,0.292615749630332,2.2130454670608044,-0.3532517489114776,9.772157947811484,-0.7419584036942571,0.1751992553472519,-0.4518642425537109,0.1563467979431152,0.3540218779954726,0.4042694893224154,-0.6118786904703334,-0.5803783762275624,-0.3535075485706329,0.0594038218259811,0.0071089705452322,0.0116291642189025,-0.0117203593254089,0.0518814921379089,-0.0360671952366828,0.0197303257882595,0.0061105918347835,-0.1474934816360473,0.1314524884507991,0.0517506455034017,75
1734063267814048000,0.7315871587403118,-0.3146387808680534,0.1890379593212157,-0.35420079326462,9.758716282436252,-0.9013124417610466,0.5144638419151306,-0.3578835427761078,-0.096478022634983,0.3452465921413993,0.4013466177911308,-0.6203829759451238,-0.5786627115131369,-0.1634483933448791,0.0156285930424928,-0.0431575290858745,0.0243957638740539,0.0582526326179504,-0.0257048569619655,-0.0127055272459983,0.0128726148977875,-0.0897299552857875,-0.1712768077850341,0.0218598400326445,-0.0457742014423012,76
1734063267854048000,-0.826444832303375,-0.1366343298017978,-1.051591119903326,-0.3941491380976513,9.74980290814042,-0.9779438460208476,-0.0754642710089683,0.1845164895057678,-0.0103333862498402,0.3409895528026609,0.4023606987468779,-0.6228700743025029,-0.5778104112967556,-0.0574452653527259,-0.0828605964779853,-0.0258262753486633,0.0903392434120178,0.0343840718269348,-0.0788484141230583,-0.0263507273048162,0.0441995710134506,-0.0333136560589075,-0.1708031445741653,0.0099011432241648,-0.0216921918481588,77
1734063267894048000,0.3992766737118363,0.3289315101146697,0.3710252694785594,-0.3056036981550045,9.75769044651985,-0.9297728125698864,-0.0823688879609108,0.2375622689723968,0.2712164521217346,0.3462088028434587,0.4004200677139136,-0.6221486864845062,-0.5768312409481,-0.148027092218399,-0.0966369658708572,-0.08921530097723,0.018578827381134,0.0510849952697753,0.0114889778196811,-0.0544259622693061,0.0337511897087097,-0.0208949039906263,-0.1422296166419983,0.0292156826881691,0.0384518957301974,78
1734063267934048000,0.0521365760810673,-0.164713592338562,-0.3455096468847244,-0.1278531305182725,9.757830731773376,-0.9689071376062928,0.0749515146017074,0.526220440864563,0.5080004930496216,0.355852395489206,0.4011340014330716,-0.6232912882086445,-0.5691823502077024,-0.0117595344781875,-0.0336454287171363,-0.1532388925552368,-0.0234805941581726,0.0752519965171814,0.082567274570465,-0.0454797446727752,0.0330119058489799,-0.0569219106614589,-0.1321504414081573,0.0190962022718973,0.0343926834672689,79
1734063267974048000,0.6828040578056126,-0.0870996067821979,0.7429682383239269,0.0492230586879653,9.759973589020968,-0.9544058801755309,0.0362125448882579,0.8222196102142334,0.2964487373828888,0.3683813870560033,0.4030320284142803,-0.6214711098288085,-0.5618131959791625,-0.0017825351096689,-0.0326085016131401,-0.0629687830805778,0.0128760337829589,-0.047967255115509,-0.0121892690658569,-0.0266175307333469,0.0489996969699859,-0.0798339996933937,-0.1635296046733856,0.0072417330228723,0.0008513561323285,80
1734063268014048000,-0.6097071843475103,-0.0536702153891325,0.7462953369200229,0.2465366286910139,9.751234402248263,-1.0114528785213828,0.2674965858459472,1.4644246101379397,0.5979586243629456,0.3845871789299876,0.4110252489569475,-0.6185693073871312,-0.548199788818949,-0.031961478292942,-0.0247502550482749,-0.1502511650323867,0.0031911730766296,0.0403932929039001,0.0220026411116123,-0.0169957764446735,0.0397045835852623,-0.0111836573153734,-0.1767243146896362,0.0369671005325391,0.0274856805577874,81
1734063268054048000,0.2930252072140574,-0.2940881602704525,0.945223479679972,0.5961216169895603,9.727241532242298,-1.0935139066144823,0.317921370267868,1.7525676488876345,0.7244911193847656,0.4104722732224689,0.4223191363713942,-0.6143290980100987,-0.5251273238998123,-0.0144301541149616,0.0562104806303978,-0.1482934653759002,-0.0395448803901672,-0.0049710869789123,0.0226052477955818,-0.0122504811733961,0.0743659809231758,-0.0701397041529417,-0.173960343003273,-0.0684057291003409,0.0189525377511978,82
1734063268094048000,0.2790741310119629,-0.065972647601366,-0.4746831392865627,0.9091979343138634,9.692757663360238,-1.1807578903034328,0.3237990438938141,1.5104604959487915,0.5375670790672302,0.43374772633719,0.4345179649621123,-0.6094227068629656,-0.5016582408905155,-0.0150866229087114,-0.0198586694896221,-0.0055415108799934,0.0682728290557861,-0.0585753917694091,-0.0476301237940788,-0.002996384166181,0.0649018287658691,0.0038689503878355,-0.2070984542369842,0.0113876006559468,-0.0041661797687411,83
1734063268134048000,-0.0867081232465803,-0.2073427737534046,-0.0561269608914852,1.2444545557968318,9.65411375218928,-1.191551525387913,0.2061040103435516,2.2995445728302,0.7776227593421936,0.4592541028063707,0.4456174769162113,-0.6018116676112566,-0.4778424700844243,-0.000222188886255,0.059496235102415,0.0441151224076747,0.024480402469635,0.0339278578758239,0.0382643267512321,0.0075033092871308,0.0444830916821956,-0.0432376687020063,-0.2232653945684433,-0.0221652070542331,0.053256958413124,84
1734063268174048000,-0.4783097322858869,-0.1804939297944307,-0.4441736539281904,1.684987076743692,9.595842765006422,-1.1184917690698055,0.1432902961969375,2.3782241344451904,0.9969520568847656,0.4938410470280503,0.4588981641716293,-0.5885912702328301,-0.4461994185467984,-0.0481710731983184,0.0689370334148407,0.0767543613910675,0.0152638554573059,0.0043866038322448,0.0083020329475402,0.0286669097840785,0.0478825904428958,-0.0233925660252571,-0.2158650755882263,-0.012869929901883,0.0652156917542219,85
1734063268214048000,0.3862123172163963,-0.2933072390258312,-0.9556056844193488,2.1823175897113978,9.517119941425324,-0.9123204502485692,-0.1842487901449203,2.925778388977051,0.9678986072540284,0.533629800761318,0.4702106327010235,-0.5704536435023175,-0.4107602385137315,-0.0673596784472465,0.0075871767476201,-0.0335300005972385,0.015693187713623,0.0053753852844238,0.0089007019996643,0.0417446680366992,0.0553402788937091,-0.0785433753609657,-0.2365908473730087,-0.0136006553292274,0.0180664025664329,86
1734063268254047700,-0.7704162172198296,-0.84954762160182,-0.8346376372396945,2.6533061853289603,9.432759988740086,-0.3916424890389666,-0.6113724112510681,2.15884780883789,0.7428967356681824,0.58323679633232,0.4789406631423801,-0.5390584863858017,-0.3739874062238159,-0.2877152264118194,-0.0878443792462349,-0.0153021952137351,0.0507507920265197,-0.1141515970230102,-0.0343196913599967,0.0449865907430648,0.0752659440040588,-0.0500333201915025,-0.2347075343132019,-0.0004869341335725,0.0151309336364269,87
1734063268294048000,-0.4067228980645537,-0.1701712732225656,-0.300609086471796,2.958193679772317,9.349091525450348,0.1182003725646063,-0.6517476439476013,2.3116455078125,0.8723854422569275,0.6184636695766276,0.4778273116185788,-0.5154168393609115,-0.3514673243944444,-0.2112460136413574,0.0642999932169914,-0.0494112968444824,0.0234430432319641,0.0137873888015747,0.0730710625648498,0.0425645485520362,0.0766936764121055,-0.0559223782300949,-0.2594035863876343,-0.0010228630746016,-0.0509980735704302,88
1734063268334048000,-0.4664207031801343,-0.2956494182378053,-0.2320989562820643,3.311480463464558,9.213004308137297,0.570130705034174,-0.3057085871696472,2.2412681579589844,1.1931028366088867,0.6527385491429774,0.4771135671296587,-0.4932484849584234,-0.3209378121148006,-0.0250060986727476,0.0570683889091014,-0.1710731536149978,0.0116695165634155,0.0764258503913879,-0.0496694445610046,0.0376905240118503,0.0985655263066291,-0.0377940163433551,-0.2663555145263672,-0.027604603362875,0.0675967416718602,89
1734063268374048000,-0.5066559751957654,-0.6970715795457363,0.97564068364501,3.746011113648117,9.004053514665365,1.031897554526478,-0.1211792230606079,3.42130184173584,1.7414098978042605,0.6894489237556448,0.4766802849033899,-0.4692161257990283,-0.2779790736319844,0.008061041124165,0.209252655506134,-0.2195656597614288,-0.0022324323654174,0.024880051612854,0.0997530221939086,0.0601752549409866,0.1269503831863403,-0.0926490576028823,-0.2896448075771332,-0.0261465957074426,0.0014148352339863,90
1734063268414048000,-1.8227192847847933,-0.9606289924740792,0.7094944232672452,4.258969403858482,8.662626095592975,1.7292990966789423,-0.4532696008682251,3.765977382659912,2.3902363777160645,0.7366675274717107,0.4744385762414517,-0.4321322979888686,-0.2132854134123452,0.0914603248238563,0.2775273025035858,-0.1682126522064209,0.0171974897384643,-0.0272346138954162,-0.0114306211471557,0.0945930927991867,0.1074303090572357,-0.1049222637206316,-0.3079667687416076,0.0197309884775197,-0.0044420741006731,91
1734063268454048000,-0.6032692602545022,-1.8188801450133325,-0.1319265905022621,4.905050508618355,8.091538857018946,2.5764064855217934,-0.9797490239143372,3.072329044342041,3.0429799556732178,0.7806459456129275,0.4514136858460901,-0.4060363385993163,-0.148162621546729,-0.0034656529314816,0.2930981516838074,-0.100087858736515,0.0118002295494079,-0.005062997341156,0.0078398510813713,0.0961895883083343,0.124425396323204,-0.2738590267121791,-0.3923442363739013,-0.0309350446935277,-0.322722426341474,92
1734063268494048000,-0.1897562636584043,-1.301150987139344,-0.2060325679376721,5.556808197709918,7.334988668066263,3.3897222255304453,-0.8796066045761108,1.7621759176254272,3.013843059539795,0.8159235906700197,0.4180452118602499,-0.3903978364224267,-0.0842407215901482,-0.060342252254486,0.2051747143268585,-0.0340848714113235,0.0225219130516052,-0.0221467614173889,-0.0223392322659492,0.0458671525120735,0.1691870987415313,-0.2415560090005397,-0.4735214710235595,-0.0527769015449099,-0.2500289460524916,93
1734063268534048000,-0.0781751265704631,-0.5226917487174272,4.499572642178833,6.104231067579985,6.583163754069805,3.945973714022338,-0.0788130536675453,2.100177049636841,2.695307970046997,0.836803758128645,0.3868971557987562,-0.3861630823331796,-0.0307925729979042,0.0260773263871669,0.1767100989818573,-0.0159159880131483,0.0198042392730712,0.0047833919525146,-0.0307263731956481,0.0371176563203334,0.1690512746572494,-0.1154594398260116,-0.4656884372234344,0.0479510705573484,-0.1284215049907565,94
1734063268574048000,-0.4106178596764803,-1.0514210240334272,1.6116741493821145,6.572993657711148,6.029864101120829,4.075153636164963,2.113981008529663,1.3719106912612915,3.192348957061768,0.840280486417771,0.3845383724985856,-0.3799410877439454,0.0412763351990385,-0.1124230250716209,0.1489702016115188,0.0090942904353141,-0.0154240727424621,-0.0082501769065856,0.0489504933357238,0.018013309687376,0.1635357439517974,-0.146059745272994,-0.4362588226795196,-0.0324017288457602,-0.1813604834958911,95
1734063268614048000,0.4714005374193191,-1.6629992629498245,-1.320858434911072,7.020055872687697,5.498659375602006,4.080924036259949,1.6231656074523926,1.9908283948898315,3.061570405960083,0.8325017046141583,0.3915522674929529,-0.3723138506413157,0.1225157720715305,-0.1475575715303421,0.1324549168348312,0.0374902449548244,0.0114396214485168,-0.0212193131446838,0.0006779357790946,0.0059434473514556,0.1553132385015487,-0.0699719463706016,-0.3688291609287262,-0.0023948957799002,-0.0834428378403186,96
1734063268654048000,0.2616910345345735,-1.581299469384551,-1.2209753344014287,7.258645433098077,4.853574003881215,4.463771553218365,0.6108781695365906,2.387934684753418,2.6264538764953613,0.8304895001002781,0.3814536898790279,-0.3562359674129427,0.1946178519861745,-0.0470975488424301,0.1391396075487136,0.0590944737195968,-0.0179668068885803,-0.0281457304954528,0.0097501799464225,0.0337404310703277,0.1153214052319526,-0.059935705524683,-0.3051404953002929,-0.0084505425570532,-0.0758984138101339,97
1734063268694048000,-0.780437845018506,-0.6296624694004654,1.3382342248648404,7.114747834295034,4.301470574979484,5.200779421833158,0.8125801682472229,3.321262121200561,2.1909430027008057,0.8354112627648668,0.3623933067562585,-0.3217221200147741,0.2593339829087425,0.0162577182054519,0.1623461842536926,0.1038576886057853,0.0029821395874023,-0.0118917226791381,-0.0001297071576118,0.0510836355388164,0.0948309525847435,-0.0942225905299186,-0.2678830623626709,-0.0151183298831805,-0.1210997838005423,98
1734063268734048000,-0.3875403509497642,0.2706280819669365,-0.3507949668765068,6.935232978665828,3.8138802425205705,5.790272085669637,0.4949884414672851,1.5164449214935305,2.477386951446533,0.8318072325760231,0.3463258959903663,-0.2912673442303654,0.3214318901317324,-0.0427419543266296,0.1001247242093086,0.058321289718151,-0.0213087201118469,0.0474094152450561,-0.0548850372433662,0.043238628655672,0.0892034918069839,-0.09034078066051,-0.2358278036117553,-0.0066235828582197,-0.1125701481252908,99
1734063268774048000,0.1400561209440231,-0.0233934428080916,-0.1525426775515079,7.007533660244941,3.185834268406033,6.07579758477807,-0.0163169726729393,1.0943657159805298,2.286961078643799,0.8202263282509759,0.3278410172348295,-0.2876469866818104,0.3701463578598206,-0.1156012415885925,0.101249486207962,0.1528324782848358,-0.0050241947174072,-0.0143712162971496,-0.0040686130523681,0.0380163453519344,0.0718307495117187,-0.0528811108380556,-0.2438303828239441,0.0813203292610123,-0.1681622714877128,100
1734063268814048000,-0.6185340494036674,0.0156599259465932,0.1128717614203691,6.995489586707949,2.518153618517518,6.394717988488078,-0.2457777857780456,1.0605162382125854,2.3881828784942627,0.8095636083449557,0.3041965678551707,-0.2853498987028577,0.4130941451227063,-0.0485479086637496,0.1138437837362289,0.2232246994972229,-0.0034298300743103,-0.0146945714950561,-0.0102794170379638,0.0464133508503437,0.0414799228310585,-0.1416512811809778,-0.254170686006546,-0.0122557435262948,-0.0724713619709014,101
1734063268854048000,0.940984965327382,-0.2125549554437398,0.417222372508049,6.948956968113779,1.725241345720738,6.701188075947761,-0.6198362112045288,0.9871928095817566,2.367992401123047,0.7966995771557115,0.274753683509764,-0.2878278934241545,0.4549014010604019,0.062950387597084,0.0479297004640102,0.2369115352630615,0.0028743743896484,0.005749225616455,-0.0535764172673225,0.0571871921420097,0.0383541919291019,-0.162630356323719,-0.2070790827274322,-0.0190468649711459,-0.0579267037898302,102
1734063268894048000,2.07711314804852,0.3473697416681796,2.1306009926080702,6.741180479118228,0.9912883346319198,7.0529586098581545,-0.1295715868473053,1.532314658164978,2.176013708114624,0.784673753269284,0.2435982347522117,-0.2847087857836132,0.4938502326557066,0.0593159720301628,-0.0008688922971487,0.2847945690155029,-0.0017685890197753,-0.0447321534156799,-0.0247840285301208,0.0652574449777603,0.0496947728097438,-0.1829267098993063,-0.2184935212135315,-0.0153316803729161,-0.2833972549080849,103
1734063268934048000,1.4546616329401731,0.3010514599444344,1.50399703399539,6.207531283056736,0.464793796098046,7.577658191266655,0.2036478072404861,2.522340774536133,2.0642943382263184,0.7735906598337355,0.2122807210343184,-0.2618851877205778,0.5365729018971488,-0.0850071161985397,-0.0741905122995376,0.3113526403903961,0.0053315162658691,-0.0327415466308593,-0.0117679685354232,0.0132688544690608,0.072590559720993,-0.2559118666112422,-0.2324830591678619,-0.0355929991677403,-0.2964870381057262,104
1734063268974048000,0.7289104868769646,0.6763903183057904,0.9278764774292708,5.520404758942127,0.0459105640059569,8.105147111132741,-0.102533034980297,1.6181880235671997,1.572725534439087,0.7638717455077679,0.1789372158424468,-0.2339529364257998,0.5742364175101263,-0.2183467894792556,-0.0341826416552066,0.2626929581165313,-0.0500655174255371,-0.0220758318901062,0.0094258114695549,-0.0473548658192157,0.0985957831144332,-0.2139244902312755,-0.1842884719371795,0.0013270108200609,-0.227782335191965,105
1734063269014048000,0.4597779041647911,-0.1117647500265389,1.4823025040596722,5.261316600382328,-0.2467668937829323,8.272123972228169,0.1038646847009658,0.2612748742103576,1.130377173423767,0.7523726680875582,0.1632966486202757,-0.2270974449182585,0.5964027698270985,-0.2398289144039154,0.0040084207430481,0.2647817134857178,-0.0156499743461608,-0.0213560461997985,0.0011965706944465,-0.0936117097735405,0.1321701854467392,-0.1882674864053726,-0.1868481785058975,-0.1139480123497545,-0.2636749018281698,106
1734063269054048000,1.0364274530410766,0.0540315595148131,1.164241347527504,5.150189636802673,-0.3941578693933785,8.336100477576256,0.4258279800415039,0.4127255082130432,1.1726595163345337,0.7387706709342752,0.1587644986137298,-0.2230941334682894,0.6158253118109429,-0.251021146774292,-0.0035183115396648,0.2771547138690948,0.0162072777748107,-0.0054694414138793,-0.026698350906372,-0.1109021455049514,0.1091108843684196,0.0383604180544614,-0.156652882695198,0.0236680950310081,-0.0869780262291431,107
1734063269094048000,1.752281474468112,0.2780282386882231,0.0270060803472995,4.925146955707669,-0.4299104065043851,8.469267423528432,0.5374755859375,0.6319560408592224,0.823763370513916,0.7270847217472368,0.1540079270095863,-0.2108769600737508,0.6349491245365672,-0.2603462040424347,-0.0373824313282966,0.2816498577594757,0.0377566218376159,-0.0162280201911926,-1.6085803508758545e-05,-0.1025867909193039,0.0794564262032508,-0.0625982027322053,-0.1366419494152069,-0.0440146444238722,-0.0498830980658531,108
1734063269134048000,2.862811690074205,0.4015518521022051,-0.6625520548284053,4.732344163960218,-0.388234105367586,8.580476804694532,0.3009446561336517,0.5402378439903259,0.2301746904850006,0.7210694121517598,0.1510826750338018,-0.199227191210239,0.6461744789277559,-0.0802824050188064,-0.1027134954929351,0.2649668753147125,0.0282745361328125,0.0333449244499206,-0.0252632573246955,-0.0960329696536064,0.0644582211971283,-0.0393821623176336,-0.1233668178319931,-0.0451576039139181,0.0188292036324739,109
1734063269174048000,1.973140440137684,0.1901611911974847,-1.2320353653371334,4.564077555315197,-0.3068784855974838,8.674411225932836,0.0258043184876441,0.3147290647029876,-0.3558900058269501,0.723544372831753,0.1477964075003262,-0.1894316315450429,0.6471131944563533,-0.0640467032790184,-0.093040257692337,0.2647436261177063,-0.005073070526123,0.0418246388435363,0.0582050681114196,-0.0851347744464874,0.0542433187365531,-0.0517453848063945,-0.1232811212539672,-0.0285375276982784,-0.0099579149127006,110
1734063269214048000,-0.5250175613164901,-0.2118529263879172,-0.5030559048771858,4.506874197363853,-0.2410999723287299,8.706338980591296,-0.1437781453132629,0.3726176917552948,-0.415920615196228,0.7308610562001822,0.1463128638602052,-0.1862599958728977,0.6401108925551531,0.0566469505429267,-0.0937388017773628,0.3106971979141235,0.0242708325386047,0.0466193556785583,-0.0071826539933681,-0.0580812469124794,0.0206261500716209,-0.0583393762439489,-0.1512956172227859,-0.0619781711377203,-0.0364566302597522,111
1734063269254047700,-1.7471183926165104,-0.2825283813853748,-0.5229547835677862,4.362334793525934,-0.2353673469608649,8.779807536906004,-0.0870710611343383,0.0189856439828872,0.0137312905862927,0.7351747830493951,0.140454003692021,-0.1806296250216023,0.638093760146237,0.1127959787845611,-0.1785718351602554,0.4179460406303406,0.0418200492858886,0.0055249333381652,-0.0556921362876892,-0.0263629294931888,0.0122435363009572,-0.0213940856844186,-0.1226833164691925,-0.0269383488733321,0.0381605115681886,112
1734063269294048000,-0.9002695085793733,0.0533234295117668,0.2128115605533123,4.246914516666531,-0.2764330053860321,8.835026150780916,0.068595178425312,0.3848141133785248,0.4365784823894501,0.7334815481197027,0.1354362455607451,-0.1766240275888565,0.6422350905761132,-0.1553649008274078,-0.2120656073093414,0.4926220774650574,0.0203158259391784,-0.014477789402008,0.0269345082342624,0.022557221353054,-0.0341123528778553,-0.0497457354217767,-0.1094428673386573,0.0452243855398148,-0.002465513330698,113
1734063269334048000,0.5809317562401294,0.3130067226868123,-0.4005757736116647,4.120232841080427,-0.354007426116988,8.892060874167084,-0.0540671609342098,0.410348117351532,0.5270225405693054,0.7281393488062633,0.1295568124890291,-0.1727602338348235,0.6505245176635556,-0.1307112276554107,-0.280490517616272,0.5393929481506348,0.0418360233306884,-0.0137076377868652,-0.0315690636634826,0.0355815663933754,-0.0152114350348711,-0.1186690495222806,-0.1470066308975219,-0.0586913314867764,-0.0281324540287256,114
1734063269374048000,1.0348436909809708,0.0983282722830772,-1.3729255990177391,4.021709923008084,-0.4809516981620341,8.931120964923501,-0.2776581346988678,-0.2221169620752334,0.1749258190393448,0.7245411611674127,0.1222114546171211,-0.1723482841374075,0.656049128411371,0.154458463191986,-0.3875048458576202,0.2898648977279663,-0.0180237889289855,0.1477740406990051,-0.0675194859504699,0.0348067544400692,-0.0162304174154996,-0.0982376713901758,-0.1461471766233444,-0.0674936466235667,0.0048649756878614,115
1734063269414048000,0.4356529322117566,-0.0737586253024637,-0.2234066043257713,4.100610733504593,-0.6118809116574004,8.887124002286791,-0.4727570116519928,0.115141749382019,0.0014288420788943,0.7244324204143918,0.1198479176566941,-0.1803309258869404,0.6544576898986094,0.5768659114837646,-0.4017077684402466,0.1782667338848114,0.008823812007904,0.0672642588615417,-0.0055059157311916,0.052975159138441,-0.0104761496186256,-0.0201478850156068,-0.1502516567707061,-0.0391023224629461,0.0721171417057514,116
1734063269454048000,0.6943357248410582,0.0514580192323774,-0.1643178710192442,4.032715885668993,-0.7891713327027857,8.904201393815875,-0.4689604043960571,0.1015649735927581,0.0330715551972389,0.7254555006211691,0.110355489883499,-0.1839395389267055,0.653989554029025,0.9961822032928468,-0.4909826219081878,0.211168959736824,0.0507000684738159,0.0789700150489807,-0.067971646785736,0.1035718470811843,-0.039800863713026,-0.0855348416835069,-0.1807719469070434,-0.025093524724245,-0.0333761999011039,117
1734063269494048000,0.7024936045944691,-0.0464491050291806,-0.6524328118741511,4.040569521778822,-0.9360713281922042,8.886391596359013,-0.4897346198558807,-0.1989510655403137,-0.2845307290554046,0.728060930714696,0.1041258725142431,-0.1899419085373012,0.6503900921570364,1.185937523841858,-0.5179671049118042,0.400112509727478,0.0589677095413208,0.0199223756790161,-0.0832995027303695,0.1089524924755096,-0.0475537963211536,-0.1058247655183076,-0.1700698137283325,-0.0544421496096998,-0.0180576347380876,118
1734063269534048000,-0.4904194184049963,0.0270723505165427,-0.7645259901374578,4.204574381326139,-1.0715428247597067,8.79452872069776,-0.5588475465774536,-0.6419298648834229,-0.2750284969806671,0.7313343869696066,0.1032301732702014,-0.2023545458520557,0.6430755247436567,1.6977347135543823,-0.4253382682800293,0.5343655943870544,0.018045961856842,0.0404651761054992,0.042469322681427,0.0959090366959571,-0.0514900162816047,-0.1245750586956739,-0.1406142860651016,-0.0156873984754085,-0.0462859503567218,119
1734063269574048000,-1.1106766383394595,0.0928757059656083,-0.2833902406454086,4.41153253967613,-1.244187429293245,8.669530468153953,-0.5946464538574219,-0.4318690001964569,-0.0407932102680206,0.732541878102042,0.1026980423605823,-0.2177844407433992,0.6367145410634707,1.026423454284668,-0.2494683265686035,0.6201538443565369,-0.0422572493553161,-0.0422998070716857,0.1209331154823303,0.0829748287796974,-0.0705646127462387,-0.1194558159857988,-0.147467091679573,0.0113617903612554,-0.0583557428568601,120
1734063269614048000,-0.659652533994615,0.122344230903685,-0.015604396367073,4.548434580503404,-1.471028099720925,8.562605047917366,-0.5990389585494995,-0.4105017781257629,0.2417663186788559,0.73045583360768,0.09869474976621,-0.2317066985652955,0.63482718962208,1.038377285003662,-0.165148377418518,0.7482395172119141,-0.0218560099601745,-0.0612866282463073,0.0819423794746398,0.0825263857841491,-0.0357756055891513,-0.157454999512434,-0.1602951437234878,-0.0043763884533196,-0.0420937593638896,121
1734063269654048000,0.6367799001902341,-0.0419023284450173,0.8000362794578075,4.597543187065423,-1.732799652145803,8.487071960288286,-0.5990530252456665,0.0953138545155525,0.3683060705661773,0.7167258374586644,0.0947944638791103,-0.2414410434733497,0.6473209137544105,0.2002187669277191,-0.2795256674289703,0.5380722880363464,-0.0303482413291931,-0.0208112001419067,0.0048189163208007,0.1003442630171775,-0.0319800898432731,-0.1221072072774171,-0.1673972457647323,0.0287179988317191,-0.0509720623463392,122
1734063269694048000,0.7554553794533014,-0.0370532809786498,0.6656178721398115,4.523908626534045,-1.9559699634976684,8.478137543204426,-0.3378474712371826,0.0612622760236263,0.2046295553445816,0.7073078114795074,0.0869507400777382,-0.2453056324813264,0.6572521335683738,0.0446289032697677,-0.3345732688903808,0.4307315349578857,-0.0067639052867889,0.0112000107765197,-0.0287739634513854,0.0923688858747482,-0.0250628590583801,-0.130007605138421,-0.1551044434309005,-0.0074151716273277,-0.0970540145635604,123
1734063269734048000,0.4818903672516346,0.2310989123940467,0.1979904235184192,4.562991805905104,-2.0337829787574706,8.438792790287733,-0.059300273656845,-0.2995927035808563,-0.0472473613917827,0.7057154088397839,0.0857535399035546,-0.2497752056785706,0.6574378390023464,0.0150688830763101,-0.3102651834487915,0.4155451953411102,-0.0142241120338439,-0.0283696055412292,0.0132111310958862,0.0473490804433822,0.0140907242894172,-0.1054074168890714,-0.1162561476230621,-0.0397153397947549,-0.0983007997542619,124
1734063269774048000,-0.9625584992319344,0.0992307740807533,-0.2227870111227035,4.677910562983155,-2.060680484163761,8.369058159804343,-0.2489411830902099,-0.2382697165012359,0.0281289257109165,0.7003550516777973,0.0905802417452737,-0.2551313391159574,0.6604590227206143,-0.1078988462686538,-0.2330729961395263,0.4152454435825348,-0.0107354223728179,-0.020979106426239,0.0280652791261672,0.0149679593741893,0.0095453094691038,-0.0698614717334508,-0.0909935608506202,-0.002043050134927,-0.0090139120608568,125
1734063269814048000,-0.6267267082095146,0.2899729800365865,-0.2569002931267023,4.724103574359416,-2.1994984416149554,8.307553013005853,-0.3112865686416626,-0.1491034626960754,0.2853206396102905,0.6880810774027806,0.0914191507426128,-0.2609122880533148,0.6709036213638223,-0.1791011244058609,-0.2436410635709762,0.2979081869125366,-0.0303901135921478,0.031709611415863,-0.0390456318855285,0.0039156395941972,0.0322402343153953,-0.1316477735608816,-0.1140412986278534,-0.0461247684456408,-0.0136865800470113,126
1734063269854048000,-0.916059198385477,0.3218232855446636,-0.7486240721285343,4.749026418691873,-2.362730563224107,8.248311134964228,-0.4844793975353241,-0.2642733156681061,0.2138433158397674,0.6758748303548373,0.0906733573550606,-0.2668923223511109,0.6809846413342339,0.1853785663843155,-0.2123169600963592,0.2123410254716873,-0.0192998647689819,0.031905174255371,-0.0333169251680374,8.01850110292e-05,0.0161891151219606,-0.0932031843543052,-0.1504015922546386,0.0766990626685321,0.065288172468543,127
1734063269894048000,1.4092922129064798,-0.3816992237061262,1.188484392902255,4.761014085866511,-2.6218264666989444,8.162668156731128,-0.572033166885376,0.3326800763607025,0.3691625893115997,0.6629961800102306,0.0861813059307088,-0.2763919909430548,0.690373942867987,-0.2884010076522827,-0.1853723227977752,0.184809461236,-0.0532850921154022,-0.018196702003479,-0.0230806916952133,0.0195359997451305,0.0219225976616144,-0.2176385423183441,-0.1301267594099044,-0.1399031954046338,-0.0225596223324537,128
1734063269934048000,0.9875605462804437,-0.2504898415625095,0.8856354185491799,4.569381506942213,-2.780419822591543,8.219513495025039,-0.0554758198559284,0.283520370721817,0.2655761241912842,0.65285497043345,0.0772584686608653,-0.273774670258425,0.7020391291633713,0.02165381424129,-0.2364697009325027,0.0816882625222206,-0.0093055069446563,0.047661542892456,-0.0174596756696701,0.0303994044661521,0.0085202846676111,-0.1244037937819957,-0.1250743269920349,-0.0132337217129766,-0.2823386857658624,129
1734063269974048000,0.6846613030448555,-0.4146913927257061,0.453906966304779,4.548763958588243,-2.797728684788942,8.225074051761627,-0.0106140747666358,-0.1174420863389968,-0.0933803766965866,0.6437564194189037,0.0793743134553206,-0.2726492951374044,0.7105911968105351,0.2487599402666092,-0.2674823105335235,0.1616467535495758,0.0542140007019043,-0.0583013296127319,-0.0058542340993881,0.0201829802244901,0.0078533682972192,-0.2260264314353466,-0.1042786613106727,-0.038855873421207,-0.2965484129041433,130
1734063270014048000,-0.2341469017878174,-0.4128405041620135,0.167718034851551,4.600871162444353,-2.7736919756412504,8.204206035777926,0.0613082833588123,-0.0834159478545188,-0.0009525260538794,0.6360247350125409,0.0851523252621212,-0.2728570575874929,0.7167779558160151,0.3058650195598602,-0.3140541911125183,0.3036660552024841,0.0400190949440002,-0.0109591484069824,0.0085165500640869,-0.0101447403430938,-0.0093331206589937,-0.1848246524751186,-0.0756845995783805,0.0822425952050834,-0.2475415131509304,131
1734063270054048000,0.2044289321333169,-0.2684033916547894,-0.2230851172864437,4.606120461274683,-2.780163509742916,8.19906867288947,-0.03621606528759,-0.0407430604100227,0.0926320776343345,0.6290568462036628,0.0877528305391172,-0.2725128975114263,0.7227195773973405,0.919269859790802,-0.2233750969171524,0.5922170877456665,0.0339953303337097,0.0104396939277648,0.0331301242113113,-0.0423074141144752,0.0232992265373468,-0.1721592321693897,-0.0503887273371219,0.0121134855113923,-0.2200707379013299,132
1734063270094048000,0.7244383098989725,0.00845773948282,-0.2465355509787797,4.60161321298331,-2.803538540111482,8.193639049056172,-0.0522899180650711,0.0363663770258426,0.0118548814207315,0.6206459041660718,0.0898927201700552,-0.2723233011782882,0.7297657895089497,1.2308378219604492,-0.1426323056221008,0.7477393746376038,-0.0039016008377075,0.0034837126731872,0.0302245020866394,-0.0729971751570701,0.0255427453666925,-0.1290086572289466,-0.0427191965281963,0.0378890742156654,-0.1392547414332628,133
1734063270134048000,0.4657803594499826,0.2668836347416043,-0.1895060882896184,4.593466439145804,-2.831671870923042,8.188533834871649,-0.1389714777469635,0.0275768991559743,-0.0689721554517746,0.6177772043711881,0.0896438590346887,-0.2728826808802648,0.7320179459517896,0.6932654976844788,-0.0575164072215557,0.4837984144687652,-0.030195415019989,-0.0640158653259277,0.0530760288238525,-0.0710359513759613,0.0075264237821102,-0.0337929640084505,-0.0260548945516347,0.0662237728182226,-0.010154898789525,134
1734063270174048000,0.0327732655718922,0.1105091239422559,0.0370335533648729,4.578758407096564,-2.86264422455281,8.186001686045527,-0.1381827890872955,0.0984024703502655,-0.0885838493704795,0.614470082265778,0.0892054837169459,-0.2732625987164502,0.7347084122893003,-0.2475020140409469,-0.049633502960205,0.2102134823799133,-0.0533473193645477,-0.0040437579154968,0.0327332913875579,-0.0517810024321079,0.0112725291401147,-0.0806201816350221,-0.0059565138071775,0.0146851626303046,-0.0125683896720409,135
1734063270213836500,-0.1987044170066714,0.0055994274422526,-0.0047287820875644,4.56961853056848,-2.885674679267406,8.183021793451905,-0.0690231695771217,-0.0142601672559976,-0.0213600732386112,0.615727116599609,0.0875648801582218,-0.2740700255014293,0.733551683129977,-1.0897771120071411,-0.0534246154129505,-0.1665741354227066,-0.0777806043624877,0.0792086124420166,0.0396102368831634,-0.0377806723117828,0.0072107454761862,-0.1489718789931852,-0.0167093127965927,-0.0310540907962014,-0.0068535088817763,136
1734063270253836500,-0.0854272896558046,0.0714244832664728,-0.0375607921093702,4.5762014160901305,-2.9051117856651545,8.172459482905268,-0.0792459025979042,-0.0084596602246165,-0.0256684254854917,0.6161826285332906,0.0869547654925651,-0.2752442637943558,0.7328018103476012,-0.1858112215995788,-0.2194413989782333,-0.1992632448673248,-0.0021966099739074,0.064024806022644,-0.2180505394935608,-0.0338262021541595,0.0102351196110248,-0.1251128188341856,-0.0308924056589603,0.0081518153388053,-0.0702735596656799,137
1734063270293836500,-0.1704600270360708,-0.2563447050705552,0.0201806182414293,4.560976958951354,-2.935575020729005,8.170083985945581,-0.1195834353566169,0.1583992391824722,0.0906289145350456,0.6163388300475704,0.0852216464354076,-0.2760052793905211,0.7325877455628824,-1.4118669033050537,-0.3602941632270813,-0.1551423817873001,0.0958140790462493,-0.125211477279663,-0.0130383372306823,-0.035015020519495,0.0057740216143429,-0.1236281332343816,-0.0321254394948482,0.0263517811570316,-0.099281627485156,138
1734063270333836500,0.7529539180263877,-0.0262324656262993,0.054284547895193,4.517731399203837,-2.981633007548749,8.177429672533274,-0.0964744687080383,0.0791117250919342,-0.0442634932696819,0.616260513925079,0.0819404716551922,-0.2763202714700669,0.7329091608133044,-0.1178454905748367,-0.2053572684526443,0.0334178060293197,0.0149343907833099,0.1137969493865966,-0.0927303880453109,-0.0428657233715057,-0.0047213654033839,-0.1630272466868162,-0.0281014777719974,0.0146539637744426,-0.0686819065600633,139
1734063270373836500,-0.0644493835568428,-0.1567766618594527,0.3046200756788254,4.496565277056396,-2.992645692211389,8.185068789109588,-0.010716606862843,-0.0016449107788503,-0.0446133725345134,0.6178074065109981,0.0801496883512731,-0.2761406380633561,0.7318717970508132,-0.979066789150238,-0.0390527099370956,0.1751458346843719,-0.0353442132472991,-0.1479832530021667,0.0981635525822639,-0.0381824858486652,0.0157492849975824,-0.146960493505001,-0.0178326331079006,0.0037619098167866,-0.0765489866733551,140
1734063270413836800,0.2902896447703242,-0.0487280828118324,-0.2326303597450256,4.544501332707703,-2.9628783304572104,8.169409447684883,0.0412913896143436,-0.1471289843320846,-0.1100893318653106,0.6184180686934547,0.0828251038013321,-0.2767960472118841,0.730809886179438,0.0196545794606208,-0.1672371476888656,0.1363274753093719,0.0102977454662323,0.0392745733261108,-0.0328940823674202,-0.0290503911674022,0.0152118206024169,-0.1249134968698024,-0.0253329090774059,0.001125350768119,-0.0860328543335199,141
1734063270453836800,-0.0828667915180325,-0.0945095907777547,-0.2296107196629047,4.567805051405728,-2.9539076730161904,8.159654946389795,-0.0791845023632049,0.0319231748580932,-0.0648708269000053,0.6196373587637373,0.0835768701346892,-0.2774676212566617,0.7294354567664176,-0.0613308176398277,-0.3835599720478058,0.2153848707675933,0.0797982811927795,-0.1476809978485107,-0.0649847984313964,-0.0201568789780139,-0.0024527553468942,-0.1032949547797441,-0.0321298129856586,-0.0122281248670071,-0.0992974095761776,142
1734063270493836500,-0.2488260000035166,0.1214344225823879,0.1061848310023546,4.591009693643451,-2.969935555492341,8.140791840487719,-0.1069625243544578,0.0155933462083339,-0.0812385082244873,0.620673681411053,0.0834885269255338,-0.2792217399294652,0.727893540990633,0.0396314859390258,-0.38292396068573,0.0736404582858085,-0.0162945389747619,0.0834842920303344,-0.0418660640716552,-0.0017023812979459,-0.0217023994773626,-0.102187285798788,-0.0173493847250938,-0.0043012043252587,-0.0541810875207185,143
1734063270533836500,-0.2950479452133178,0.3337719358831644,0.1782294919937849,4.549544295310974,-2.9817589720159767,8.159727427104116,0.0303415767848491,0.1112710013985633,0.0407305732369422,0.6215900268718839,0.0811299960424138,-0.2781862965730933,0.7277748561167929,0.3708791732788086,0.2972741723060608,0.0925230681896209,-0.0949036478996276,0.0198004841804504,0.2399782538414001,0.0139764193445444,-0.0214861705899238,-0.1067763671547174,-0.003292029723525,-0.0160606157019734,-0.0699158322691917,144
1734063270573836500,0.3636941959381103,0.2619301039874553,-0.1136573588401079,4.533645299911499,-2.9778526122272013,8.16999630766213,-0.0024655242450535,0.0274890027940273,0.0256629846990108,0.6212356947209066,0.0808007099165894,-0.2773397847535072,0.7284368165127328,0.2196092456579208,0.5040220618247986,0.0795634612441062,-0.0289649069309234,-0.0193284749984741,0.0524922683835029,0.0189490150660276,-0.0260306857526302,-0.0978629928588867,-0.0065564569085836,-0.0057041299257427,-0.0889729994386434,145
1734063270613836500,0.3591378478080034,0.0466147439196705,-0.0579576834499835,4.520993615870178,-2.9905849602893,8.172356607052683,-0.0604717917740345,0.0449063293635845,-0.0373809859156608,0.6216440103232808,0.0797028044281946,-0.2774405340679548,0.7281710482488167,-0.1238479912281036,0.4036032259464264,-0.0005117981927469,-0.0113760530948638,-0.0211302042007446,0.0290539115667343,0.021217631176114,-0.0389493145048618,-0.0811094264566898,-0.0022713541984558,0.0224028243355453,-0.0642278497606515,146
1734063270653836800,-0.0295429053485393,-0.1082195517003536,0.1021340943068265,4.5141818900287145,-3.0008009416162964,8.172376480796933,-0.0242211073637008,-0.0030856975354254,-0.0020112772472202,0.6221805775616187,0.0788691067770718,-0.277676835606884,0.7277131873687284,-0.0689988508820533,-0.0655548945069313,-0.1300568133592605,0.0854590237140655,0.0576595067977905,-0.1952672749757766,0.0227272398769855,-0.0385954417288303,-0.0980132149845361,0.0057525690644979,0.027287673767656,-0.0458960742563009,147
1734063270693836800,0.1223489070788025,0.0165194653853774,0.0463122538417577,4.526741804133355,-2.997749152830243,8.166547628512978,0.0467632599174976,-0.0654905587434768,-0.0023554505314677,0.6218768352650432,0.0795734969879488,-0.278010825642875,0.7277687300412082,-0.2619257271289825,-0.4836329221725464,-0.2889792621135711,0.0796790122985839,0.0629939436912536,-0.1578900814056396,0.0299292393028736,-0.0248618498444557,-0.1051455510824918,0.000361394137144,0.0382546195924282,-0.0563654458224773,148
1734063270733836500,0.0988604794636368,0.1065931195423006,-0.0624462270408868,4.547985667692124,-2.983974602238834,8.159785879293084,0.0025323964655399,0.0640556961297988,0.0053503201343119,0.6215989522895168,0.0809870291597952,-0.2782225837639556,0.727769159927125,-0.736676812171936,-0.3457628786563873,0.0381638221442699,0.0922775864601135,-0.138428509235382,0.0668886303901672,0.0269316975027322,-0.033024750649929,-0.0778425336152315,0.0008778686751611,0.024177871184051,-0.041281858459115,149
1734063270773836500,0.3577718201518058,-0.0163864866554737,-0.2094353621184825,4.519067323982715,-2.991329348915816,8.173149218735098,-0.0221172124147415,0.0188267920166254,0.0038117244839668,0.6217210723487131,0.0795731424768488,-0.2774049189730346,0.7281329133924167,-0.0085565512999892,-0.2108758687973022,0.1904041022062301,-0.0140418112277984,0.0748416185379028,0.1675414443016052,0.0119503224268555,-0.024234589189291,-0.0722574269592762,0.0276739206165075,-0.002037497176975,-0.0275830034524202,150
1734063270813836500,-0.1954389854699373,-0.196252639940381,-0.1798831044197082,4.532086380031704,-2.997163461896777,8.163796868500112,-0.0933535397052764,-0.0077467523515224,-0.057338897138834,0.6224847384345901,0.0795655563338263,-0.278265172360395,0.7271522809529467,0.2165399491786956,-0.229801520705223,0.276755690574646,0.045469731092453,-0.1437989473342895,-0.084293782711029,0.0117116263136267,-0.0434550642967224,-0.0215548292040824,0.0263444986194372,0.034517844216898,0.0189770876705646,151
1734063270853836500,-0.1532137086808681,0.0737190239444375,0.3337760275363922,4.518890506111085,-3.016491847223043,8.163993267855048,0.003889272455126,0.1012670993804931,0.0297464281320571,0.6228579052134727,0.0782199371561564,-0.2786284798727258,0.7268395337074697,-0.0919973775744438,-0.025878744199872,-0.0096829263493418,-0.1173865795135498,0.0726396441459655,0.0639010071754455,0.0202729906886816,-0.0223635211586952,-0.0942184988766908,0.0281673744320869,-0.0539939674507826,0.0396440281242132,152
1734063270893836500,0.1301189565584063,0.360369435429573,-0.1864765113353729,4.506252558334172,-3.006710457921028,8.17458071284294,0.0348856225609779,-0.0316483676433563,0.0093761328607797,0.622685410548693,0.0781607586465935,-0.2776747812997215,0.72735858084715,0.0659025013446807,0.458169162273407,-0.2137443125247955,-0.1202074587345123,0.0589427351951599,0.2139262557029724,0.0143174277618527,-0.0031159184873104,-0.0674298606723547,0.0168412402272224,-0.0613803513750433,-0.0259703075587749,153
1734063270933836800,0.2328457560613751,0.1624322034031152,-0.054206221961975,4.489268105785548,-3.0275434025913475,8.176236078834533,-0.1341214627027511,0.1166580021381378,0.0267764031887054,0.6226920761009963,0.0767571522378549,-0.2779142287384244,0.727410845439187,0.082616239786148,0.3327001929283142,-0.201547160744667,-0.0050341486930847,-0.0347777605056762,-0.0590149164199829,0.0253109335899353,-0.0226927585899829,-0.0315963307470083,-0.0095018520951271,-0.0120210579875856,-0.0125642980188131,154
1734063270973836500,0.0475420878976583,-0.060959495614469,0.3218471048116684,4.457447610893845,-3.0658678725495934,8.179364439988136,-0.0428136624395847,0.0305128749459981,0.034657284617424,0.6229174705809336,0.0740709847362114,-0.2783558268654972,0.7273275718994364,0.1325284093618393,0.0298181809484958,-0.1658379733562469,0.1010907888412475,0.0240029692649841,-0.1380007266998291,0.0473799966275692,-0.0439540892839431,-0.0339724122285842,-0.0003562830388545,0.0057351095858961,0.0179079971343278,155
1734063271013836500,0.0740545395091176,-0.0477501776903867,0.1120966853946447,4.469691298656166,-3.0617192284375427,8.174235260406135,0.0937393456697464,-0.1524429619312286,0.0341672338545322,0.6220222908366589,0.0750292241004375,-0.2785688526693936,0.7279136985527972,0.2684723734855652,-0.3945107460021972,-0.2229062616825103,0.1061875224113464,0.1478610634803772,-0.2527720332145691,0.0372616238892078,-0.0412791818380355,-0.0096393504828214,0.018467653542757,0.0247019681233912,-0.0408867216616868,156
1734063271053836500,0.2280795645728707,-0.0567199583485722,-0.1948760908901691,4.520370223274827,-3.0397309762522577,8.154549147683381,0.0443536862730979,-0.0893205776810646,0.0271439980715513,0.6205539488343208,0.0783171395237574,-0.2794640157884281,0.7284771787046069,-0.3666279017925262,-0.2210433781147003,0.0404715202748775,0.1495880782604217,-0.1598926186561584,0.0369055867195129,0.0263360701501369,-0.0349323861300945,-0.0795715493649244,0.0249027032405138,-0.0164312025800347,0.0281371302038431,157
1734063271093836500,0.0638330052241683,-0.0506502830460667,-0.3016296616911888,4.531537806238234,-3.045800651554764,8.146081763589383,-0.0293638687580823,-0.0309392660856246,0.0233044121414423,0.6198418277232922,0.078796460246815,-0.2801009342783436,0.7287871421108305,-0.1303378492593765,-0.3308460414409637,0.2735474109649658,-0.1259822249412536,-0.1520457863807678,-0.1034691929817199,0.0531840212643146,-0.0327416844666004,-0.0339712431848049,0.0242242440581321,0.0455241722039878,0.0328904622107744,158
1734063271133836500,-0.0601096007868647,0.0765130385771393,0.1671744294941425,4.518412367205322,-3.059239394320548,8.148336849039792,-0.0002418770454823,0.0785739943385124,0.0715188980102539,0.619434365593819,0.0779663166177303,-0.2801280095516885,0.7292123693249933,0.0039392663165926,-0.0596371367573738,0.0184449814260005,-0.0784731209278106,0.1201270222663879,0.1825718879699707,0.0644567012786865,-0.0375806614756584,-0.110943423706293,0.0218874681740999,-0.0375255016002804,0.0160398651748895,159
1734063271173836800,0.2614624864757061,0.1952463855072856,0.0216927763700485,4.505393018895387,-3.059609396676719,8.155403718686104,0.0268421825021505,-0.0279309749603271,0.00940961856395,0.6189344824574965,0.077647829796751,-0.2795727938270697,0.7298835690585885,0.1489087045192718,0.2819197177886963,-0.0564654134213924,-0.0442845523357391,0.0187646150588989,0.1651339530944824,0.0297023504972457,-0.0182812232524156,-0.0736152713090181,0.0151311829686164,-0.0355892728406935,-0.0541390019446611,160
1734063271213836500,0.1266270227894187,0.1385007081955671,0.0580734187841415,4.525606078101695,-3.0549376054733988,8.145957844948768,-0.0220811683684587,-0.0638181641697883,-0.0287275724112987,0.6189150255624253,0.0785958203399753,-0.2801685694188662,0.7295700817918821,0.3159906268119812,0.260292649269104,-0.1820835173130035,-0.0085762739181518,0.0575885772705078,0.001374252140522,0.0164493806660175,-0.0205792672932147,-0.0413783045709133,0.0031387498602271,0.0027115239810198,-0.016719664132595,161
1734063271253836500,-0.0872942525714635,-0.1169020398497581,0.0803027862489223,4.542154769581556,-3.0593054452940818,8.13510035084784,-0.0193406045436859,-0.0322538241744041,-0.0204770509153604,0.6191134251437053,0.0789930819519985,-0.2810434107104938,0.7290220775131524,-0.0032041305676102,0.0093732522800564,-0.0764672830700874,0.0308990180492401,-0.0823335647583007,-0.0844929814338684,0.0318956673145294,-0.029883936047554,-0.0417062213510274,0.0098233623430132,0.0441663278542459,0.0103109661340713,162
1734063271293836500,-0.1095177748173475,-0.1587049995735287,-0.0044821138501167,4.549864028784633,-3.057156742827594,8.131599649250507,0.033669576048851,-0.0077550043351948,0.0394983738660812,0.6188272562654785,0.0794753169300433,-0.2812249568907044,0.7291426322614292,0.1052970513701438,-0.1313448846340179,-0.0966861993074417,0.0345226526260376,0.0505862236022949,-0.0124990865588188,0.0254569500684738,-0.0349784195423126,-0.061444356521964,0.0200141202658414,0.0574118130702525,-0.0295148482978343,163
1734063271333836500,0.1822641543373465,0.0282581262350082,-0.0763619396686553,4.546583399678767,-3.055127575087547,8.134197264528273,0.0320133566856384,-0.0328638181090354,0.0321158245205879,0.6181122702269043,0.0796988472932635,-0.2809260873979348,0.7298396082750743,0.0783021822571754,-0.1014212816953659,-0.1104210540652275,0.0141578316688537,0.0936536192893982,-0.0343003198504447,-0.0007603708654642,-0.0253886543214321,-0.0711737233757972,0.0318206138908863,0.0352423590991646,-0.0358966582894325,164
1734063271373836500,0.3347700070098042,-0.0018485504761338,-0.193484928792715,4.570500281839072,-3.0458205252990123,8.124277928060293,0.0105518540367484,-0.0391978770494461,-0.0306281093508005,0.6177833322357623,0.0810758083664755,-0.2814317174450789,0.7297717245677191,-0.4998394846916199,0.0691689401865005,0.1157592833042144,0.1042757630348205,-0.1165302395820617,0.0063142776489257,-0.0031767829786986,-0.0134353404864668,-0.0695768095731735,0.0363173745572567,0.0352829103052616,-0.009500234273076,165
1734063271413836800,0.4465265006646514,0.1409521930009126,-0.3891542158871889,4.579800609625876,-3.044370618751645,8.119582463720441,-0.0419392026960849,-0.0703159868717193,-0.0677120015025138,0.6179613939980896,0.0814149494054845,-0.2817589617500093,0.7294568261030767,0.3268065154552459,-0.2846142649650574,0.1940933018922805,-0.052210509777069,-0.0648345947265625,-0.1755454540252685,0.0180641915649175,-0.0130115495994687,-0.0460129786342382,0.0338947400450706,0.0780577107358723,-0.0018435820400714,166
1734063271453836800,-0.1579609032079577,-0.1397545076489448,0.2777624638915061,4.576759342233836,-3.0560557958483696,8.116907691553235,-0.0622608624398708,0.1638914346694946,-0.0273160710930824,0.6192935357963144,0.0803606970924361,-0.2823031240378945,0.7282325972408102,0.0552083104848861,0.0143128838390111,0.0375734008848667,-0.1182345449924469,0.0788029432296752,0.1425893306732177,0.0293167755007743,-0.0163318682461977,-0.0800648858398199,0.0284845829010009,0.0158297295555472,-0.0124596686005592,167
1734063271493836500,0.0982023078158497,0.2158487362921237,0.0705406861692667,4.55283339998424,-3.0472914746344086,8.133640215167402,0.0714019611477851,-0.0311024002730846,-0.0257456749677658,0.6197777034507972,0.0795789573908887,-0.2810105695516546,0.7284063663229574,0.258101224899292,0.3258085250854492,-0.0269308220595121,-0.0564398467540741,0.052520751953125,0.1800011396408081,0.0086735375225543,0.0056441873311996,-0.0939087022751569,0.0365118980407714,-0.0223283708598464,-0.0464244820445775,168
1734063271533836500,-0.0537128854870796,0.1264721244886517,-0.1004740521401166,4.577856197559833,-3.033781127937138,8.124640916153789,-0.0428577624261379,-0.029245113953948,-0.0273473002016544,0.6200580436053145,0.0809135465038171,-0.2814455297310462,0.7278526883333859,0.3099417984485626,0.4000183343887329,-0.1583596169948578,-0.0390449166297912,0.060520052909851,0.0187034532427787,0.0038868184201419,0.0023482453543692,-0.0459124408692121,0.0233965646475553,0.0306142609070986,-0.0068710548132658,169
1734063271573836500,-0.0736374831408262,-0.1032321186766028,0.0206236858338117,4.580722108384967,-3.0559169718995687,8.114723917773366,-0.076206661760807,-0.038575354963541,0.0109194451943039,0.6201390841479998,0.0801885622498105,-0.2825491530443399,0.727436145762931,0.1975092738866806,0.2455206364393234,-0.0821201056241989,0.0317040383815765,-0.0947530269622802,-0.0460112541913986,0.0176082160323858,-0.0071490574628114,-0.017629764714837,0.0166415534913539,0.0657122430995106,0.024526538491249,170
1734063271613836500,-0.0272749604165554,-0.0346574718832969,-0.1222264497429132,4.628481638425589,-3.0653844729468225,8.083993848466873,0.0065969908609986,-0.2294762283563614,-0.0089914221316576,0.6192583986810983,0.0820063953273188,-0.2847910816632638,0.7271093476324098,0.1077982857823371,0.265244722366333,-0.0987478196620941,0.0063506364822387,0.0266084671020507,-0.0039589405059814,0.0161198191344738,0.0005864072591066,-0.0582873537957668,0.016589306294918,0.041010859498009,0.034327217015624,171
1734063271653836800,0.1218988252237439,-0.1199094049721956,0.0284159471452236,4.674285358223319,-3.0639295979633925,8.05814921311438,0.0028207059949636,-0.0448035411536693,0.0237777028232812,0.6185352212602949,0.0840876846372028,-0.2864925540554966,0.726818658465003,-0.1248064637184143,-0.0655504167079925,-0.083026647567749,0.0880072116851806,0.0183172821998596,-0.0660952851176261,0.0158785860985517,0.0101230442523956,-0.0608130728811025,0.0054319417104125,0.0429820865057408,0.0368482599258422,172
1734063271693836800,0.1169721824765205,-0.032547932383418,-0.6167553492933512,4.720063066796958,-3.076771836140752,8.026510212269425,-0.0612667873501777,-0.2783890664577484,0.0087036546319723,0.6169725763270228,0.0859846096990296,-0.2887360808387529,0.7270371214731554,0.3124350309371948,-0.1485485285520553,-0.1135601922869682,0.0425458848476409,0.0417444705963134,-0.010127954185009,0.0114532355219125,0.0066730100661516,-0.016024083083868,-0.0045911353081464,0.0615501549839973,0.0398912808835506,173
1734063271733836500,0.1013046577453613,-0.1421726747065782,-0.0877735605210065,4.789450783538818,-3.1121459318608045,7.971580352208018,-0.1285267472267151,-0.0851403325796127,0.0142650008201599,0.6161935972453979,0.0876554229642509,-0.293051242111496,0.7257706553146659,0.3367124199867248,0.01558044180274,-0.0056658135727047,0.0196588337421417,-0.0236921310424804,0.1055811047554016,0.0059285066090524,0.0143877007067203,-0.0449625927984714,-0.0070881452411413,0.0349701910942792,0.0398088632971048,174
1734063271773836500,0.2137695919305086,0.1390948746964335,0.2288146008491516,4.768264495386183,-3.145912884645164,7.971026809978484,0.0422461703419685,0.0556721910834312,0.095740295946598,0.6149752093841222,0.0861102024132584,-0.293557083427756,0.7267838712878131,2.2994205951690674,0.2665116786956787,0.1673196703195572,0.026914894580841,0.0020471215248107,0.0848605781793594,0.0048645939677953,0.0221200175583362,-0.0433756158679723,-0.0100974310189485,0.0419043742716312,0.0363140069186687,175
1734063271813836500,0.1541901524975895,0.209259128768742,0.1728536441743373,4.736864563994109,-3.145148914535344,7.990027278524637,-0.0120345624163746,0.1178513839840889,-0.022361883893609,0.6150840305187785,0.0848959348674071,-0.2922578603308266,0.727358029508516,2.575737237930298,-0.0004078991478309,0.3898865878582001,0.0346589088439941,-0.015577495098114,0.0865767896175384,0.0090466383844614,0.0070198737084865,-0.014461071550846,-0.0216374211013317,0.0795255913313478,0.0599070639520883,176
1734063271853836500,-0.1350511522635817,-0.0550756982728838,0.4404115249156952,4.689870173107088,-3.145523008544743,8.017554752397537,0.0690190121531486,0.1424934864044189,0.0683965682983398,0.6155357927093232,0.0829077014366806,-0.2904217172984695,0.7279403953478213,2.08403754234314,-0.0248460229486227,0.221594899892807,-0.0350250303745269,0.0168129205703735,0.1052645742893219,0.0270102936774492,0.0235245320945978,-0.0809673876374959,-0.0370972529053688,0.018199527426809,0.039560441493988,177
1734063271893836500,0.564705136321485,-0.0464651063159108,0.3794868083536624,4.636697970367968,-3.1128336218640205,8.061121506923437,0.1577538400888443,0.1795633286237716,-0.0069189462810754,0.6154610117844697,0.0820903349139777,-0.2868071756336171,0.729527601797325,1.9962284564971924,0.0195861551910638,0.3650111258029938,-0.0023275911808013,0.126383364200592,0.1021468639373779,0.0367011576890945,0.0176514443010091,-0.0134112702369689,-0.0393435955047607,0.0249506091222167,-0.0056722004175186,178
1734063271933836800,0.5637526579022407,-0.2114417335048317,0.2374526653349399,4.570762147645652,-3.04018310393393,8.12624133708775,0.2440655827522277,0.2498107552528381,-0.0817959755659103,0.617230315609629,0.0815022418538939,-0.2811305180513216,0.7303079828848883,0.0300925727933645,-0.1759540438652038,0.1306478828191757,-0.0480067431926727,-0.1564450860023498,-0.1197916269302368,0.0368056967854499,-0.0015931278467178,0.0155208097368478,-0.0120371617376804,0.0668269263431429,0.0152162738323211,179
1734063271973836500,-0.101541973632574,-0.2726107802167534,-0.6411719976693392,4.565381039129197,-2.926341912959516,8.170936218860746,0.2833335399627685,-0.2870283424854278,-0.1668486595153808,0.6189492645750568,0.0847364989567433,-0.2760759401911472,0.730413211475858,0.1010429114103317,-0.0824573934078216,0.0648773983120918,-0.0052478015422821,0.0560375452041626,0.0401727855205535,0.0475269667804241,0.0029240869916975,-0.0908031374752521,-0.0065050525590777,-0.0084789284013211,0.0252028303176164,180
1734063272013836500,-0.0019324293673038,0.0078024904444813,-0.3861246389329433,4.684840946768224,-2.81440567882359,8.142589829820395,0.219624787569046,-0.1363322883844375,-0.0813624858856201,0.6189683460445906,0.0933258621386014,-0.2759234408739784,0.7294070559003594,-0.2949893772602081,0.4805707037448883,0.1791334599256515,-0.0352404713630676,-0.1597426533699035,0.2271194458007812,0.0597280971705913,0.0088692149147391,-0.0555178890824317,-0.0185461603105068,0.0312085004732012,0.0098462712317705,181
1734063272053836500,0.3008756284534931,0.3632739246994256,-0.4396101454049348,4.694625843201577,-2.766752824027836,8.153278397095203,0.0254999883472919,0.0061469660140573,-0.0653916150331497,0.6191972003580585,0.0953216216100638,-0.2742485714762762,0.7295863765389378,-0.4490106403827667,0.4846635162830353,-0.149856612086296,-0.0750001966953277,0.0878302454948425,0.0297843217849731,0.0480727478861808,0.0050512636080384,-0.0462047018140554,-0.0084058782085776,0.0008393734335899,-0.0189531222730875,182
1734063272093836500,-0.1986108935043215,0.1302329383268952,-0.0719113900005817,4.720808624467254,-2.7451500640288,8.145458663254976,0.0340162813663482,-0.112641341984272,-0.0929904580116272,0.6204511503330616,0.0966282908571244,-0.2745180299180337,0.7282466588601678,-0.4924052655696869,0.1507706940174102,-0.3517667055130005,-0.0442978143692016,0.0395358204841613,-0.0897949934005737,0.0242399144917726,0.0074752108193933,-0.0197837278783321,-0.0036535803228616,0.0240710498087108,-0.0225128605812788,183
1734063272133836500,-0.240807528720796,0.049359074191749,-0.125350719243288,4.752530919681489,-2.727123993472755,8.133058031365275,-0.002476054476574,0.0206068456172943,0.0142452511936426,0.6204010160248653,0.0985101705096842,-0.2750003715858058,0.7278551658961774,0.1209077015519142,-0.060446735471487,-0.2090248614549636,0.0518916547298431,-0.0226783156394958,-0.1052181720733642,0.0341362878680229,-0.0025195167399942,0.017629764714837,0.0013918024487793,0.0523342175450175,0.067734981098771,184
1734063272173836800,-0.2540969261437654,0.0583133650198578,-0.3299497472465038,4.739783374050259,-2.748647843016684,8.133250923588871,-0.0440255589783191,-0.0124979689717292,0.0955418199300766,0.6198219036737516,0.0974684090051813,-0.2753534214954382,0.728355176308204,0.0407782420516014,0.0772155225276947,-0.0363844409584999,0.0437115430831909,-0.0141701698303222,0.0059040188789367,0.0445911772549152,-0.0043707308359444,0.0291974529117345,0.0049747796729207,0.0687620591241866,0.0597089110314846,185
1734063272213836500,-0.1022866545200347,0.5325155158564449,-1.2098790631085634,4.757512215225399,-2.792641883043945,8.107873321226238,-0.2010668218135833,-0.3924552798271179,-0.0334558971226215,0.6186956179941973,0.096999124328488,-0.2778572995610595,0.7284244116624365,-0.0641060918569564,0.1815671622753143,0.3330601751804352,0.0807946324348449,-0.1904079914093017,0.0753783583641052,0.0392796136438846,-0.0084719527512788,-0.0029793080717325,-0.0053151482716202,0.0695211338631808,0.0429588517606258,186
1734063272253836500,-0.5180675960481167,0.2234454750314354,-0.7017278809189796,4.929982705301046,-2.890585832184553,7.969327020323276,-0.4424188733100891,-0.4236278533935547,-0.0194410514086484,0.6172657995652332,0.1006353411600277,-0.2890500315434669,0.7247797761512256,0.0619021654129028,-0.0269862469285726,0.1841650456190109,-0.0238907933235168,0.0527538061141967,-0.0199989080429077,0.0438291318714618,0.0233016330748796,-0.0743020845293998,0.0017304406501352,0.0311655381143093,0.1070019926041364,187
1734063272293836500,-0.389784330484271,-0.0641030543372035,0.8484978202879428,4.909438514444232,-3.044019613356888,7.924755472669005,-0.3326537907123565,0.4295633435249328,0.249206081032753,0.616755333857014,0.0944808371995485,-0.2949971227426847,0.7236456009504781,0.2547725439071655,-0.1826914697885513,0.2694100439548492,0.0019123256206512,-0.069474458694458,-0.0101837515830993,0.0463963970541954,0.0405777916312217,-0.0287877030670642,-0.0050595086067914,0.0576806200742721,0.0540215130448341,188
1734063272333836500,0.3013295097008347,0.0507592963784933,1.0056219804108142,4.713924417911469,-3.1629221793740987,7.996575677254795,-0.0307851191610097,0.4583483636379242,0.3319500982761383,0.6151969176058303,0.0833288700615492,-0.2921376251370571,0.7274921094652873,0.4022096693515777,-0.1139512956142425,0.2904841601848602,-0.018923670053482,-0.0025635957717895,0.026790976524353,0.0431751608848571,0.0409416444599628,-0.0292909764140844,-0.0121586713939905,0.0126839058104902,0.0506605121791362,189
1734063272373836500,0.4818564649820328,-0.1471957635655999,0.9643956515312194,4.521127471382916,-3.1909199011072515,8.096161256122588,0.1532964259386062,0.5187438130378723,0.2078665345907211,0.6141361722693626,0.0753621908770944,-0.2855366732474128,0.7318649402522039,1.2067607641220093,-0.3186467587947845,0.0355357527732849,-0.0084514617919921,0.1282523274421692,-0.0486872196197509,0.0527733564376831,0.0260763335973024,0.0285240836948156,-0.0059481402859091,0.0254188842210918,0.0456277787089347,190
1734063272413836800,-0.013644202210009,-0.3055702160105109,0.8004267400801182,4.327845663946866,-3.1320544551625846,8.223768229860067,0.4523175060749054,0.4639063775539398,0.2572759687900543,0.6133850209151227,0.0703328218363795,-0.2752413398980303,0.7369221094094326,2.549488306045532,-0.3929118812084198,-0.0103445881977677,0.0222788155078887,0.1842066049575805,-0.0089937448501586,0.0556940734386444,0.013726258650422,-0.0157885207623243,0.0030007502064108,-0.0098597152352333,0.0384895973920822,191
1734063272453836800,0.4381041247561574,0.0848088654965162,-0.0807850168079137,4.18928884164989,-2.9994501115292307,8.3440721871078,0.5454230308532715,0.2030006349086761,0.1914289146661758,0.610690579494007,0.0706384178814187,-0.2637819663012352,0.7432942009255822,1.9725992679595947,-0.3496531844139099,-0.0410474389791488,0.0489341616630554,0.0351095795631408,0.0560138821601867,0.0514181070029735,0.0080008599907159,-0.0105383451491594,0.0008358231279999,0.0023648294351994,0.0150157828241586,192
1734063272493836500,0.4987096923664212,0.1673109153553843,-0.6331237157702445,4.11611400758475,-2.853605178050697,8.43118816050291,0.4613001346588135,0.0482125170528888,0.1214228868484497,0.6076407816389036,0.0739133914128288,-0.2542948260310075,0.7487614649207601,2.002311944961548,-0.271721214056015,-0.1580398976802826,0.0415815711021423,0.0327964425086975,-0.0308033227920532,0.0410694926977157,0.0174441486597061,-0.0490185901910066,0.0042594550177454,-0.0261857769403606,0.0387497096329927,193
1734063272533836500,1.4097697672903535,-0.1763958468258381,-0.9959604180961846,4.132058595691621,-2.7324095326602458,8.463475396123528,0.1689795702695846,0.1123648956418037,-0.0910501256585121,0.6008527358470942,0.080963277145274,-0.248852984746796,0.7553098673326237,1.392506122589111,-0.1548497825860977,0.076259009540081,0.0297219455242156,-0.0832084417343139,0.0059435963630676,0.0308403335511684,0.0101874358952045,0.001586976930499,0.0045016282238066,-0.0075051879983395,0.036341479447484,194
1734063272573836500,-0.0714753366708755,0.4120128211662173,0.1046913775742054,4.067846820282936,-2.7076033004447817,8.502463590687514,-0.0070022530853748,0.240949347615242,-0.0339333191514015,0.5981516706538794,0.0801223672758969,-0.2451028371771818,0.7587618501478446,1.6761645078659058,-0.0166164841502904,0.124839536845684,0.0008311569690704,0.0788402557373046,0.0093704462051391,0.02182387560606,-0.0135599114000797,-0.0169756847202777,-0.0196089446544647,0.0011279080513864,-0.0222077401548624,195
1734063272613836500,-0.3412754433810711,0.0886018280386924,0.3506166877001523,3.988392759817839,-2.721475173930824,8.53561241157353,-0.0216157454997301,0.0936512574553489,0.0766727179288864,0.5933558282171444,0.0780075823632562,-0.2423214710122895,0.7636255964309626,1.4370994567871094,0.0465959347784519,0.1785957068204879,-0.0229006707668304,-0.0416770577430725,0.064885675907135,0.0183082148432731,0.0035372003912925,-0.0628027853935957,-0.0122005753219127,-0.0626367081116884,0.0756774645358324,196
1734063272653836800,-0.1680827765107155,0.0443570281207561,0.3137824562996625,4.030678242361545,-2.680373055952787,8.528752462676167,0.3336686491966247,-0.3298708200454712,0.0226876381784677,0.5871014665601022,0.0830515882258043,-0.241365024833637,0.7682169455699807,0.8384146690368652,-0.0367734692990779,0.2441318333148956,0.0290592610836029,-0.0296871662139892,0.04631108045578,0.0173372942954301,0.0025696579832583,0.0056681087642908,0.0119780004024505,-0.0669857701666653,0.0971831939011812,197
1734063272693836800,-0.10801175416857,0.4992185186713934,-0.09297054464221,4.1455335788145655,-2.5549399191230533,8.512180682581663,0.3126513659954071,-0.3144408166408539,0.0178591646254062,0.5798779675914587,0.0940843410127032,-0.2390558442562342,0.7731378595512381,0.3898342251777649,-0.1156376600265502,0.3314368426799774,0.0206300616264343,-0.0220427215099334,0.0144715905189514,-0.0089268814772367,-0.0153584154322743,0.0287152223527431,-0.0041994247585535,-0.0875793531231582,0.0262047008365392,198
1734063272733836500,-0.0894081759855151,0.610321516853571,0.0692424630522727,4.249782473318279,-2.486777068001032,8.480900578176975,0.1839537024497985,-0.3571781516075134,0.0606513321399688,0.5727773158688731,0.1027671444679085,-0.238816519564677,0.7773877344898851,0.267360508441925,-0.2080458253622055,0.4308901131153106,0.0500658452510833,0.0032239556312561,-0.0142117142677307,-0.0400076285004615,-0.0434564687311649,0.0649292760282754,-0.0309414993971586,-0.0745110511049628,0.0574672695845365,199
1734063272773836500,-0.2274661088496446,0.2055333862438798,0.3297691299825906,4.396369749596714,-2.3882969661571085,8.434355684623121,0.497024655342102,-0.4753879904747009,0.0211728103458881,0.5652170498510289,0.1143221007747255,-0.2385330093911507,0.7813847697030861,0.0204234346747398,-0.1975142508745193,0.4719151854515075,0.031574010848999,-0.0137946903705596,0.0067536830902099,-0.0265034399926662,-0.0800042152404785,0.0692944855004549,-0.0430982820689678,-0.0389634254489094,0.1269552318304777,200
1734063272813836500,-0.2724956294044852,-0.6364400007113814,-0.7588590504169463,4.511429668711125,-2.2470767698697744,8.412373569917678,0.3677927255630493,-0.2116142660379409,0.2182835936546325,0.5566383375287746,0.1261766758086702,-0.234878166234966,0.7868070729398692,-0.1041882634162902,-0.0370892696082592,0.4456154108047485,0.020530492067337,0.007510095834732,0.0449841618537902,0.0048040300607681,-0.0761998444795608,0.0575227991640567,-0.0347582772374153,-0.0388110844314098,0.1873287442505359,201
1734063272853836500,0.4926905782073736,-0.1567617565512657,-0.979888988739252,4.509245310409367,-2.2238228816628456,8.419721010071038,0.1139520853757858,0.0299873165786266,0.3498961329460144,0.5491714579242196,0.1290050925105723,-0.2325325525852993,0.7922732852902294,-0.1158467903733253,-0.0473229438066482,0.3566553890705108,0.0074828267097473,0.0257920026779174,-0.013045310974121,0.018313568085432,-0.0384167097508907,-0.0452127681672573,-0.0349880419671535,-0.1073533633250743,0.116165542268753,202
1734063272893836500,0.6971358769536018,0.0062763037905097,-0.6247141993433236,4.4331893679499625,-2.2665523085817694,8.44866594952643,0.0374987535178661,0.258306622505188,0.404231309890747,0.5436737414608177,0.1260404964161947,-0.2309798717578905,0.7969824963635249,-0.2185760885477066,-0.1171072944998741,0.2839932143688202,-0.0262342989444732,0.0117327570915222,0.0126427412033081,0.0076551279053092,-0.0164822693914175,-0.0018394903868436,-0.0156299322843551,-0.1263772858120501,0.0951747766882181,203
1734063272933836800,0.4685384259864688,-0.0419515744142234,-0.0981026468336582,4.284849695046246,-2.3700569605894386,8.496662795454263,-0.2264359593391418,0.3376013338565826,0.3516199588775635,0.5392252344370384,0.1178162561760046,-0.2300219307236184,0.801526933745329,-0.2909480333328247,-0.2241553366184234,0.1819339096546173,-0.0358639955520629,0.0200714468955993,0.0260916948318481,-0.0001206696033477,-0.0516255348920822,0.1188584346145391,0.0146339926868677,-0.0669506988532841,0.1044710128217935,204
1734063272973836500,0.3304047975376248,-0.2600561268091201,0.810324449238181,4.175033521804213,-2.4739722392246124,8.521674487113952,-0.0598347224295139,0.1551389694213867,0.2307138741016388,0.536048433862226,0.1108900217166083,-0.2306922402037375,0.8044479496377377,-0.2783361077308655,-0.3204551339149475,0.0966492444276809,-0.0567273497581481,-0.0041691660881042,-0.0327327251434326,0.0090081272646784,-0.080603078007698,0.1240589258670806,0.0853066518902778,-0.0770868198771029,0.1296434480011463,205
1734063273013836500,0.0619981910124421,-0.3205643715247511,0.7731231380909681,4.179928308108448,-2.4828961349144576,8.5166785785228,0.2233680337667465,-0.3044074475765228,0.0748729929327964,0.5332758415038946,0.1116336407413365,-0.2308856430854384,0.806130634973674,-0.2641790211200714,-0.2476319074630737,0.0758418291807174,-0.0145464539527893,-0.041110336780548,0.0188047289848327,0.0113898161798715,-0.107123889029026,0.1168786589741706,0.1802316308021545,-0.0465330569855868,0.0895113440990447,206
1734063273053836500,0.2983367576256394,-0.0859589123144745,-0.2760609206706285,4.283716307102144,-2.384258650551736,8.493260293534398,0.3119527995586395,-0.3405413329601288,0.0653603002429008,0.5300967108322434,0.1199542610649459,-0.2292928449816542,0.8074857998732565,-0.2035526633262634,-0.1298830658197403,0.1131671667098999,-0.0169593095779418,-0.0732258558273315,-0.0157109498977661,0.0136731201782822,-0.1597625017166137,0.2108715324014425,0.3947152495384216,0.0079446753941476,0.1364537125378847,207
1734063273093836500,0.4957970197901129,-0.1336059218913316,-1.1360153699964284,4.433564923264086,-2.335564177748561,8.429651452454925,0.0831175148487091,-0.5601183176040649,0.2063709944486618,0.5249870983597422,0.1294007561100878,-0.2312203035461006,0.8088146162404878,-0.3123047351837158,-0.0001865371305029,0.1134775578975677,-0.03757244348526,-0.0524026155471801,0.0097718834877014,0.0054094465449452,-0.2188191711902618,0.1399684426605701,0.7402606010437012,-0.077104866990447,0.1424374631226062,208
1734063273133836500,1.8273592195451256,0.0786427440822124,-0.2404272972315549,4.585359997318685,-2.397127776736021,8.330584344503283,-0.219530388712883,-0.5098961591720581,-0.0367877148091793,0.5211368833991034,0.1354436510405828,-0.2385653456430904,0.8081818621028157,-0.3675131201744079,0.0442694500088691,0.0914942920207977,-0.0204114913940429,-0.0490316748619079,-0.0186630487442016,-0.0332002528011798,-0.2606304287910461,0.1134036763399839,1.0782345533370972,-0.0859189456302672,-0.0229869078338146,209
1734063273173836800,5.8194438196182245,0.7157061373889446,-0.8489940793722868,4.950124745097756,-2.316080309599638,8.142630161830782,-0.0971933975815773,-1.2909862995147705,-1.1310690641403198,0.5263478904709221,0.1523851688117334,-0.2482341005600098,0.7988219323220547,-0.3309998512268066,0.0078606829047203,0.2147531062364578,-0.033367782831192,-0.1369524598121643,-0.0540557503700256,-0.0562738254666328,-0.2823327183723449,0.0294984816849231,1.34773588180542,0.0152983260925859,0.0257563725471496,210
1734063273213836500,5.826683707743883,0.4799884791530668,1.916600514531136,5.38266918990016,-2.0794648257412014,7.929255122175812,-0.2367358803749084,-0.5038822293281555,-1.756511092185974,0.5446555838131127,0.1727135689180226,-0.2566915198422769,0.7795061237464112,-0.1072612851858139,-0.0822334662079811,0.2599785029888153,0.0046422183513641,-0.0575428009033203,-0.0787252187728881,-0.0838778540492057,-0.2884544432163238,-0.0618704729795455,1.4768418073654177,0.0295782689228653,0.0050555298238992,211
1734063273253836500,3.806986391353607,0.3960746628001332,3.4556513262510298,5.68198297586441,-1.6771221885874867,7.814903351330757,-0.099654771387577,-0.6661733984947205,-2.412595748901367,0.5750784539421446,0.1882235068038162,-0.2571433872577683,0.7534812253674658,-0.1319469213485717,0.0761059448122978,0.1619216650724411,-0.0586380958557128,-0.0230253934860229,0.0346689224243164,-0.1584180295467376,-0.2393324971199035,-0.0630547143280506,1.5149019956588743,0.0257096838612109,0.0752311820730567,212
1734063273293836500,2.673591432988644,-0.6644657794952392,4.745757772284746,6.092478670465946,-0.995015392331034,7.619844889611005,0.2256464660167694,-0.7928287982940674,-3.287955045700073,0.6125773169503727,0.2154896825699586,-0.255069087640734,0.716416722497576,-0.3413867056369781,0.2576918601989746,0.0228795446455478,-0.0734016299247741,-0.0184947848320007,0.0545520782470703,-0.2233388721942901,-0.1709142923355102,-0.1123439381539821,1.5103459358215332,0.0548668778277933,0.2576616328880191,213
1734063273333836500,-1.0543167454749345,-1.1367822627156972,2.664543618658185,6.321710035422444,-0.0981768902468029,7.49644764252305,0.2142565548419952,-0.2172331362962722,-3.090306043624878,0.6539238138695705,0.2426232120178227,-0.2427375237242302,0.674237432149129,-0.4485930502414703,0.2427162826061248,-0.0187585111707448,-0.0795186460018158,-0.0332682132720947,0.0076939463615417,-0.2361200153827667,-0.1898216605186462,-0.0316688114613294,1.4592493772506714,0.215735850502178,0.3968792571812868,214
1734063273373836500,-1.2437819172322748,-1.787490735015273,1.971732619166374,6.262776784938573,0.745713810705021,7.509455592656135,0.6164072751998901,0.1603411883115768,-2.816304922103882,0.6913700223429985,0.2599081009127567,-0.222647937141879,0.6363043218213879,-0.472933828830719,0.3089780211448669,-0.0191848836839199,-0.0715050101280212,-0.0733616948127746,-0.008180022239685,-0.20388925075531,-0.1565552651882171,-0.2912134816169738,1.3916748762130735,0.2471108666487038,0.5115025384441018,215
1734063273413836800,-2.16560683953762,-1.6797702188782393,1.8690777158558367,6.02850158059597,1.6746822480894623,7.551357044318318,1.2910059690475464,0.5075817108154297,-2.300973653793335,0.720084040245983,0.2797254584662857,-0.1916809929202171,0.6053850284255939,-0.3359376192092895,0.3462220132350921,-0.0390462726354599,-0.0475596487522125,-0.0715306997299194,-0.032402753829956,-0.2104825675487518,-0.1219140812754631,-0.2695651289105415,1.2768175601959229,0.4064016667535528,0.4460425165399909,216
1734063273453836800,-0.9556295767515898,-1.694083552521467,0.5840823292255402,5.700637991973758,2.6194422019109127,7.537348977231979,1.8495533466339111,0.7716600894927979,-1.6902289390563965,0.7359735158326015,0.3035481570733026,-0.1534948545004636,0.585355267552573,-0.2986046373844147,0.4220500290393829,-0.057123877108097,-0.0459045469760894,-0.0297780036926269,0.0124363303184509,-0.253664880990982,-0.1249393746256828,-0.0233458042740821,1.074721336364746,0.5031710191568359,0.2790422745689749,217
1734063273493836500,-0.6806739869743585,-2.364042376475036,-0.158288527727127,5.2450692299366,3.515803012613952,7.503250308275223,1.965114951133728,0.9717927575111388,-1.2841876745224,0.7429448460946718,0.3251210672527301,-0.1083374507859227,0.574971569328173,-0.3552290201187134,0.3153111636638641,-0.0638324469327926,-0.0687717199325561,-0.0050622820854187,-0.0468699932098388,-0.3178986310958862,-0.0748669654130935,0.0259586171209812,0.8660197257995605,0.4190346826270222,0.2527380588807165,218
1734063273533836500,0.7570701211735605,-3.1442133872509,-0.1683288602262735,4.6530774427607655,4.400720053760707,7.426500830593705,2.2478811740875244,1.832472562789917,-1.5844639539718628,0.7457279746345248,0.343775069545061,-0.0563253075088719,0.5679224104388267,-0.2885719835758209,0.10843176394701,-0.0349693745374679,-0.0747558176517486,-0.0360310673713684,-0.0530019998550415,-0.3549280762672424,-0.0147167295217514,0.0914741686046123,0.6204739212989807,0.383480554164946,0.440205261753872,219
1734063273573836500,0.2724614348739385,-2.9029104762285947,-0.916862915983796,3.602553659828007,5.413978520399332,7.340355748057365,2.523484945297241,2.42967176437378,-1.7555601596832275,0.7483005540007107,0.3540539151081908,0.0197945759920799,0.5606248327929383,-0.3138608038425445,0.0902445614337921,-0.0140980472788214,-0.0645431727170944,-0.0761623978614807,-0.006787896156311,-0.3302265703678131,0.0443870313465595,-0.0886228708267211,0.4340437650680542,0.461285130389966,0.7808955987233668,220
1734063273613836500,-1.409176185311377,-0.3457306692242622,-2.0160183356165886,2.857668189705908,6.210776548588275,7.030673712813853,1.6185016632080078,0.2172477394342422,-1.0915653705596924,0.7480140487558536,0.3687158713072348,0.0747261753563021,0.546753681529596,-0.3680952787399292,0.1784622967243194,-0.0400033481419086,-0.0715168863534927,-0.104615032672882,0.0026043057441711,-0.2598723769187927,0.0821491330862045,-0.2750765858083963,0.3053683042526245,0.4578364147081971,0.9957372768647968,221
1734063273653836800,-1.7214809702739118,-0.7670639841824769,-0.9123860628306864,2.771488328117132,6.664880498769879,6.638418023779988,1.4110660552978516,-0.3656483292579651,-0.2634714841842651,0.7444330708057538,0.3915623551258189,0.0906299542145594,0.5331832964066892,-0.3145779967308044,0.1521860063076019,-0.0563740655779838,-0.0802459269762039,-0.1227935552597045,-0.0468890070915222,-0.2087369114160537,0.1702263355255127,-0.4613251336067914,0.1921616196632385,0.345954139249213,1.0122557924021034,222
1734063273693836800,-0.0495069582298398,-0.9101847533941269,-1.5556623393028974,2.7387942652612924,7.0888716347604985,6.198168995949626,1.6970782279968262,0.2563227117061615,-0.1598569303750991,0.7323759150683987,0.4148769451937402,0.1088964441832326,0.5288140909539434,-0.2063204944133758,0.093458354473114,-0.1023992151021957,-0.1093147695064544,-0.1184944510459899,-0.0255597233772277,-0.1908005028963089,0.2422685623168945,-0.3268307384431362,0.1027082130312919,0.3298250248882919,1.0127587004229426,223
1734063273733836500,-0.692463793489337,-1.2844301539629697,-2.9247090510606766,2.623836345216632,7.497982012483477,5.7503159228563305,1.471037745475769,-0.2758220434188843,-0.4725731611251831,0.7220566307005338,0.4359421664885714,0.1294987222566865,0.5213623633713051,-0.153092160820961,-0.0326231457293033,-0.1906396597623825,-0.1372667998075485,-0.0697335600852966,-0.0469291806221008,-0.2098051756620407,0.2231203913688659,-0.1519067177355289,0.0287173092365264,0.3428965783094987,0.9157992322750388,224
1734063273773836500,0.3780769415557384,-0.4741624033480882,-3.4680373450934887,2.627244692355394,7.892745884945988,5.193508554047346,1.6354787349700928,-0.9583308100700378,-0.5856704711914062,0.7142157201788042,0.464195957183675,0.1404523473610965,0.5046693412770935,-0.0757462382316589,-0.1578333079814911,-0.3103490173816681,-0.1352025866508484,-0.033698558807373,-0.0712658166885376,-0.218919575214386,0.2174621224403381,-0.0685451284378767,-0.0467735901474952,0.2704211977506056,0.935319925303012,225
1734063273813836500,0.4899161450579762,-0.1099339544028043,-4.1479950004920365,2.543237790891528,8.226426635414361,4.693423773935437,0.8805497288703918,-0.4360767900943756,-0.7620004415512085,0.7111619025446798,0.4882308892566129,0.1494409202448295,0.483266703431746,-0.0189764350652694,-0.2007113844156265,-0.30202117562294,-0.0930986404418945,-0.0509042143821716,-0.0526859760284423,-0.1619508564472198,0.1654109060764312,0.1963163528263568,-0.0947617143392562,0.4068156909145414,1.0935676095630973,226
1734063273853836500,-0.0596150952681899,0.5302917023271322,-2.748091378177702,2.394410626731813,8.422226270890235,4.41625080036968,0.8317098617553711,-0.0873362347483635,-0.2953707575798034,0.7085470360468356,0.4990948400963069,0.1604313144839934,0.4723633210943834,-0.0287473071366548,-0.1971087157726287,-0.2147663086652755,-0.0720453262329101,-0.0529195070266723,-0.0539355874061584,-0.0588510036468505,0.1250530332326889,0.4494505714178085,-0.0919204577803611,0.4778866115029901,1.2307704599678515,227
1734063273893836500,0.3343469592921436,0.6921557504534721,-1.8592478112369768,2.3223189117282628,8.588069159519671,4.125808887647092,0.8409336805343628,0.1427093297243118,-0.1637095361948013,0.7015471904574982,0.510298107397894,0.1709916296312357,0.4671073792281654,0.0128715084865689,-0.2221104651689529,-0.1535351723432541,-0.0740168392658233,-0.0090300440788269,-0.0937252044677734,0.021697387099266,0.1032135635614395,0.8427706748127937,-0.0555112361907959,0.4586905473195016,1.1532160956442354,228
1734063273933836800,0.084618895882368,1.0755647006869316,-1.880834496884048,2.234464541056007,8.734676017281412,3.857846225497126,0.7215684056282043,0.0250170677900314,-0.2681834697723388,0.6944740128563365,0.5196416370653295,0.1824202812659532,0.4630347405899801,0.1301856189966201,-0.4100894331932068,-0.1334626525640487,-0.0748893022537231,0.0509895682334899,-0.1590195298194885,0.0978379249572753,0.117448940873146,0.7799889322072268,-0.015641376376152,0.3826013601776212,1.0453634775601326,229
1734063273973836500,-0.0034773207217454,1.1962889291733505,-1.1726906114429234,2.1153128225833178,8.849930874446034,3.657123454405367,0.5218408107757568,0.2710166871547699,-0.2573936581611633,0.6903630004017701,0.5257590679941303,0.1926551258675654,0.4581050973735808,0.28488889336586,-0.6214886903762817,-0.1096199080348014,-0.0650394856929779,0.0403855443000793,-0.1212878823280334,0.1884818375110626,0.0326511561870574,1.2075561731189488,-0.0222108159214258,0.457205642523989,0.9322655061684548,230
1734063274013836500,-0.0388002707764506,1.4003081114619969,-1.090940841256082,2.020750478705019,8.952220451575517,3.4561128062829374,0.7730937600135803,0.1781013756990432,-0.0726475939154625,0.6830847181020214,0.5308308222041319,0.2049534625484149,0.4578298144141126,0.1935534030199051,-0.7141873240470886,-0.0456852689385414,-0.0367386639118194,0.0512787103652954,-0.0309832692146301,0.2829445600509643,0.0468509271740913,0.9357119933605194,-0.0376896820962429,0.1205043751906603,0.7459728269673883,231
1734063274053836500,0.2919287902794778,1.613963137102127,-1.5653157183110713,1.9378211433447896,9.058340400648117,3.218960585199296,0.4337548613548279,0.1158064752817154,-0.3187331259250641,0.6774816159505883,0.5385194133901258,0.2141857209386945,0.4529238218955126,-0.0415025204420089,-0.7299933433532715,0.020028231665492,0.0321578979492187,0.0718166232109069,-0.0026967525482177,0.3263361155986786,-0.039398618042469,0.3648924658119678,-0.0593383833765983,-0.2335151066903024,0.5454501450249924,232
1734063274093836500,-1.1770030678145589,0.3305488821834325,-0.4368766287878155,1.8307696125105024,9.106196376800536,3.145765877389908,0.2084225565195083,0.5747732520103455,0.0272315926849842,0.6740955147683739,0.5380734769503847,0.2238023797516034,0.4538552168819295,-0.0196731183677911,-0.7229036092758179,0.0150169618427753,0.1383611559867859,0.0047119855880737,-0.0061942338943481,0.2879818975925445,-0.0321848504245281,-0.2103904708862304,-0.1292396187782287,-0.4659690504224971,0.3489440783128142,233
1734063274133836500,-1.0626064349144697,-0.3255401141107082,-0.3148608991861343,1.8128893801659345,9.1284210680902,3.091236999344825,0.2898596227169037,0.5217880606651306,0.1894005239009857,0.6672976304029802,0.5370435203973254,0.2323252849017528,0.4607852741550833,0.2532388269901275,-0.5927155613899231,0.2131319046020507,0.1835402846336364,-0.0994517803192138,0.0419144034385681,0.2116053998470306,-0.0524347908794879,-0.0949158334910869,-0.1194259747862815,-0.1930507020939141,0.4695292636547237,234
1734063274173836800,-0.492630080191791,-0.1601929000437259,-0.0979790204539895,1.8390690926916893,9.16628171992898,2.9609947086676955,0.5844161510467529,0.5343736410140991,0.2221804112195968,0.6578232776321458,0.5395615896153132,0.2406336938582782,0.4671586739883754,0.0575849190354347,-0.4913995563983917,0.5551120042800903,0.2079804539680481,-0.0587173104286193,0.0645500421524047,0.2557548880577087,-0.1307928562164306,0.0781762956142425,-0.1772167831659317,-0.2474314221062697,0.510502421490848,235
1734063274213836500,-0.1155760519430041,-0.5274474188119173,-0.7857952803984284,1.8093239427693184,9.213460819733143,2.8299942930996416,0.3280712962150574,0.6139893531799316,-0.0167555920779705,0.6489153630889003,0.5407726161907245,0.251546069713659,0.4724387787817404,-0.0956911817193031,-0.5745628476142883,0.7564800381660461,0.1843943297863006,0.0225515365600585,-0.025360107421875,0.0954482406377792,-0.1753912717103958,-0.3339806101977825,-0.2361123263835907,-0.3181007944228127,0.373564797893539,236
