frame,pose_x,pose_y,pose_z,ori_x,ori_y,ori_z,ori_w,phone_acc_x,phone_acc_y,phone_acc_z,phone_gravity_x,phone_gravity_y,phone_gravity_z,phone_gyro_x,phone_gyro_y,phone_gyro_z,phone_ori_w,phone_ori_x,phone_ori_y,phone_ori_z,watch_gyro_x,watch_gyro_y,watch_gyro_z,watch_acc_x,watch_acc_y,watch_acc_z,headphone_gyro_x,headphone_gyro_y,headphone_gyro_z,headphone_acc_x,headphone_acc_y,headphone_acc_z
0,0.016277,0.23209,0.182316,0.043461,0.006548,-0.730873,0.681097,-1.0906393010262398,21.395247713935373,-3.145845372366905,-0.0403218177879229,9.66772317534685,-1.6443534530602395,-0.6439068913459778,0.2564208507537842,0.4211630523204803,-0.3637042625924921,-0.4281525450525885,-0.6328697247019126,-0.5328044373673732,1.3108426332473757,0.7928453087806702,-0.8162381052970886,16.80905623422861,-16.73100619534254,3.2845202680855987,0.2559599578380584,-0.0794609114527702,17.027791339612005,0.9357412457466124,1.0112648086033762,2.202205800877511
1,0.01839,0.229481,0.179567,0.039298,-0.001655,-0.731745,0.680442,0.9676919896628708,14.526818572998046,-4.2412078294575215,0.1324436914452351,9.71058324290812,-1.362869776688516,-0.8828468322753906,0.1186130493879318,0.313923716545105,-0.3623989762015238,-0.4253484423416241,-0.6233504029646595,-0.5469734306817805,1.0393568277359009,0.963545024394989,-0.8474622368812561,11.653885301882028,-11.190704311275482,1.8616145403683184,0.1974177807569503,-0.386801928281784,14.70292683505416,0.4706642031669616,1.154850345782563,1.1267079548817127
2,0.019759,0.215564,0.175633,0.032757,-0.013319,-0.731377,0.681056,0.323625951052457,3.2402947573900223,-4.048905972969532,0.200853722261358,9.759023156428336,-0.9442010047644376,-1.346163034439087,-0.2902983427047729,0.0803433656692504,-0.3708871808892337,-0.4211138640188415,-0.608936752513382,-0.560626342294316,0.9895361065864564,0.797308623790741,-1.0646418333053589,4.268879095715284,-4.776584287703037,-0.2539531337589025,0.1655630618333816,-1.3824886083602903,5.125509953576326,0.3294366598129272,1.020819987934083,1.0445520150467753
3,0.023857,0.152274,0.167599,0.008792,-0.037191,-0.727774,0.684751,-1.0743326016087085,-8.264321774044632,-0.8812357222855091,0.2398038863698951,9.797208217915893,-0.3571645749736577,-1.521590232849121,-0.233517587184906,0.2029133290052414,-0.3849185830983601,-0.4137410745348172,-0.5890913747044844,-0.5776047577996793,0.8879690170288086,1.071152687072754,-1.108633279800415,-4.361418263202905,3.1440596579939126,-2.7941660238713024,-0.0082346005365252,-1.4814975261688232,-8.045639860153198,0.2399750649929046,-1.3231841013796626,-1.1180408104319124
4,0.025803,0.110606,0.168355,-0.002904,-0.041422,-0.727264,0.6851,-0.2355293325895443,-14.090366599363088,0.8506886083304882,0.3128921198638156,9.79905881421864,0.2256542371220886,-1.430221676826477,-0.2381386160850525,0.1183509901165962,-0.3977807586956147,-0.4070700905887596,-0.5681450320279591,-0.5943699259118405,0.6001784801483154,0.9243845343589784,-0.6303075551986694,-10.363276167023182,7.116123798823356,-4.529641617228091,-0.3510206639766693,0.3369418084621429,-10.515060135161876,0.1452899873256683,-2.676951557071507,-2.156178501456976
5,0.025461,0.063049,0.169759,-0.006918,-0.038404,-0.722792,0.689963,-0.4152864725420251,-14.627025498634575,2.38704009796381,0.38027127326224,9.779664962440728,0.6196282013159244,-0.3885855674743652,-0.1132656633853912,0.2460322976112365,-0.4058519998870557,-0.4027734318059581,-0.5533365324314222,-0.6057032524722331,0.1967268735170364,0.3992965519428253,-0.0430848263204097,-12.50941375145912,6.111386200031638,-6.517611962229013,-0.1734044998884201,-0.2381475269794464,-7.853710928630829,-0.3268685042858124,-0.7927418846659362,-0.8417197044551372
6,0.023911,0.021461,0.169203,-0.013484,-0.046691,-0.717355,0.695011,-0.0827385620284825,-13.74252112994194,0.229653462826088,0.4707488320449366,9.778921450597048,0.5670176510475575,0.4199372231960296,-0.1675589829683303,0.1395798325538635,-0.4038188539865351,-0.4081143461501655,-0.5518449290999147,-0.6048473895431947,-0.3436383306980133,0.0705921724438667,0.3546389043331146,-11.513008512204884,7.194027122715115,-6.281999956324696,-0.0976618900895118,-0.321144551038742,-9.781702605748176,-0.1111360341310501,-1.4693442382872104,-0.8590392341770231
7,0.022416,-0.006037,0.169938,-0.021568,-0.04854,-0.7124,0.699761,-0.3521837178211659,-11.795726552677154,0.3720382459133863,0.4932918685687705,9.78744027261734,0.3647774245975539,0.6264819502830505,-0.2505818009376526,-0.0182007849216461,-0.4011565153266586,-0.4150166722153847,-0.5560240002178903,-0.598056783833528,-0.5954785943031311,-0.1893959939479828,0.5846136212348938,-9.247582869565486,7.038298216342926,-5.144239203965664,-0.0322145856916904,0.008663110435009,-10.314455729752778,0.0062617515213787,-2.164870926478505,-1.2492042345419525
8,0.020918,-0.020782,0.167803,-0.031087,-0.063128,-0.704956,0.705752,-0.3944656201682984,-10.085312627601622,0.3414332642912864,0.4589594639213755,9.795763864326476,0.052412516078772,0.953486442565918,-0.1375564336776733,-0.1930604726076126,-0.3980601448098956,-0.4228166878077293,-0.5644056642250873,-0.5867030050591882,-0.5452902317047119,-0.2221892029047012,0.644330620765686,-7.751752775412798,5.837998297962546,-4.834525020018219,-0.0115161947906017,0.0779226496815681,-9.439325338605046,-0.1396383494138717,-1.94431532766968,-1.6391896405562758
9,0.020995,-0.015165,0.169264,-0.02802,-0.060243,-0.707635,0.703447,-0.9756349845565856,-9.147062640196085,-0.949228477537632,0.3742413454482332,9.793348035356402,-0.347381322508119,0.9930067658424376,0.0786561444401741,-0.1608956158161163,-0.3927016285982957,-0.4292319464078946,-0.5774698730384645,-0.5727774008238812,-0.0647393465042114,-0.1090718656778335,0.4800372421741485,-6.469289537608623,4.742016247668862,-4.115288954937458,0.0363019034266471,-0.0275545194745063,-9.873522811311483,-0.2222747653722763,-2.346938096939027,-1.270023296817392
10,0.021665,-0.007902,0.170625,-0.023322,-0.053148,-0.710368,0.701433,0.6892623670995235,-7.003008291774988,-2.225961062735319,0.3492226395258679,9.77773837829232,-0.6665335256800055,0.5975372791290283,0.3190502524375915,-0.0615377649664878,-0.3836540729599186,-0.4319918875739748,-0.5893782826149923,-0.5646466627944735,0.143912672996521,0.0579345934092998,0.1364068388938903,-5.591094498193264,3.339563525393605,-2.8734795068219303,0.0921074748039245,0.2661087810993194,-9.507121694502231,-0.1915913820266723,-2.962690991191566,-1.3322574885427951
11,0.021892,-0.004243,0.171434,-0.019024,-0.050045,-0.711613,0.700528,3.589077215400338,3.102769616228342,1.2396984473109245,0.2334153909091837,9.776987852185965,-0.7255431293357163,-0.0235845260322093,0.2985325753688812,-0.6804540753364563,-0.3821468074849853,-0.4259016128704021,-0.5963222472899505,-0.5630021314601936,-1.0344394445419312,-0.5440750122070312,0.5831791162490845,-2.0041139628112314,0.3113625356763601,1.3654615467473863,0.5426883101463318,-0.1778744757175445,5.095447408267855,-0.9010910391807556,2.258108743754774,0.5479927787125111
12,0.019663,-0.008969,0.174358,-0.017068,-0.049048,-0.713475,0.698753,0.9907381534032524,11.393831513160466,-0.9947579104386268,0.0416116977682569,9.761183549332618,-0.9423000665139406,0.5807064771652222,0.0207474548369646,-0.3900238871574402,-0.3833495358404119,-0.4247267635251619,-0.6063424027856267,-0.552267257496254,-0.5022772550582886,-0.5885562300682068,0.0449251271784305,9.464912784326076,-7.525244113418459,3.0809105433806776,1.093268632888794,0.6129288673400879,14.173757999277116,-0.8732656240463257,2.726453839126229,1.814397154380381
13,0.018931,-0.043672,0.17393,-0.024863,-0.049665,-0.714324,0.697608,0.6115481360390782,13.553666783559322,-1.6311584559224546,-0.1271710208724718,9.745955000540611,-1.0819202071934937,0.2523784041404724,-0.0551527291536331,-0.5681599974632263,-0.3825700428740882,-0.4193864804664158,-0.615855143870063,-0.5463309422124755,-0.1633157134056091,-0.5811018943786621,0.2432775646448135,8.366421381559967,-8.453210022696853,4.338724493096769,0.5900982618331909,1.0251338481903076,15.3209126029253,-0.5140254497528076,1.526694749624282,2.8839249129906297
14,0.016051,-0.072511,0.175159,-0.032166,-0.052919,-0.711879,0.699566,-1.365284728875756,11.68269755486846,0.1994458830237388,-0.2867143800994381,9.719669635683298,-1.2713006232768296,0.7696365118026733,-0.1677460521459579,-0.0217507258057594,-0.3840865543802402,-0.4193640043827501,-0.6236602650506117,-0.5363387296541685,-0.708250105381012,-0.34059739112854,0.5098299384117126,10.415455267071724,-9.286821239498256,4.386830060096085,0.0066214865073561,-0.3980664610862732,10.145523058414458,0.0639175251126289,1.3609938998140394,1.5647906715236604
15,0.014858,-0.098924,0.173216,-0.040916,-0.063726,-0.706565,0.703584,-0.310240984300524,3.521437511369586,-2.6428116793215275,-0.2324947506666183,9.708771225050093,-1.362388715173304,-0.4679496884346008,0.0983083546161651,0.2249718755483627,-0.382105875872088,-0.4246388714749998,-0.6238143314869985,-0.5334160467756434,0.3106963336467743,0.0286323111504316,-0.0210660081356763,6.032091129520535,-3.509123973241448,3.472191542163491,-0.1513077169656753,-0.6112632155418396,2.213108157033473,0.3547987937927246,0.4490193403936922,0.2574909342299215
16,0.013875,-0.109387,0.169966,-0.048539,-0.07933,-0.700032,0.70803,0.7467818783279508,-1.951446786984801,0.6305752003312111,-0.1403006520233116,9.736792035397889,-1.1599926771070808,-0.3497727215290069,0.0225972570478916,0.1414706259965896,-0.3825584449244152,-0.4219842347129541,-0.617310676334778,-0.5426839463082088,0.5166189074516296,0.2442734092473983,-0.1970416903495788,-0.3570172023922204,-0.0469452910482883,-0.6223372410789132,-0.1425326466560363,-0.330981582403183,-2.604492470060289,0.2387996315956115,-0.4561694678766653,-0.5633878066452219
17,0.01272,-0.090426,0.16995,-0.045194,-0.077589,-0.699322,0.709145,0.1749524065518751,-5.85749794820249,1.028424179327488,-0.1023783057257067,9.750768538302182,-1.0403954068239778,-0.2756460905075073,-0.0853920429944992,0.1396435350179672,-0.3845505348729375,-0.4213514939329269,-0.6127873386785295,-0.5468779897742851,0.007834194228053,-0.0820390805602073,-0.211610198020935,-4.177338291615247,4.357427147740125,-1.7835884668797253,-0.1248576343059539,-0.4176796078681946,-4.650023023626208,0.1237526461482048,-0.630474662566185,-0.4891337990412488
18,0.013096,-0.04246,0.17225,-0.031108,-0.058659,-0.704395,0.706695,0.1633625247894786,-8.161200422266125,1.266889236575365,-0.0396122127804206,9.75394307668507,-1.0146006750278174,0.1235742419958114,0.1035859733819961,0.140835091471672,-0.3833072840873507,-0.4227697211903933,-0.6107339844173498,-0.5489492563929974,0.0894294530153274,-0.2698799967765808,-0.0537689626216888,-5.749429787671565,3.75108622495532,-2.5966002555057406,-0.0456314906477928,-0.3673940300941467,-6.259528012275696,0.1626542210578918,-1.112050703171641,-0.484359826105088
19,0.016431,0.097253,0.188204,0.008874,-0.020148,-0.714003,0.699797,0.2069503038370981,-8.492120475849509,0.4002432537216693,-0.0151147873608686,9.747130474060771,-1.0787000761032104,0.1872172802686691,0.1848664581775665,-0.0174941420555114,-0.3794367677780066,-0.4227942582016284,-0.6133868372462697,-0.5486613754875184,-0.1093659326434135,-0.2862920761108398,0.1500261723995208,-6.9101821240395305,5.340317071861028,-2.802676662585139,0.1095079034566879,-0.0463865213096141,-6.8391288121730085,0.1444562226533889,-1.56157857760936,-0.8638092981230467
20,0.019837,0.159868,0.197502,0.028988,0.003062,-0.717751,0.695689,0.6205799490828067,-4.24514458438456,1.2323241191506384,-0.0426795735949417,9.732804427066444,-1.2004513095498084,0.4628866314888,0.1804907023906707,-0.2309741377830505,-0.3756979287939251,-0.422173591913291,-0.6188500964520863,-0.5455685793591131,-0.328190416097641,-0.4977358281612396,0.4228332936763763,-5.111314839485288,3.70619669739306,-2.332313213128596,0.3395734429359436,0.4193344414234161,-3.435864383502304,-0.0265920646488666,-1.0716814295127988,-1.0746563536703586
21,0.023448,0.204417,0.205801,0.048002,0.02187,-0.719712,0.692266,-0.0857779297243803,8.04401138216853,0.3810042271792888,-0.1813252295194193,9.694030167514086,-1.4708148953616618,0.9722908735275269,-0.2618788480758667,-0.4201320707798004,-0.3737801962268874,-0.4230631021021824,-0.6292919050435137,-0.5341327011317297,-1.4020755290985107,-0.7799244523048401,0.6193628311157227,2.6562819862693545,-0.9455500812858344,1.275725307851285,0.4518706500530243,0.959389865398407,4.640732340450585,-0.0339769273996353,0.4089302353831008,-0.2856353892236948
22,0.027255,0.23201,0.207656,0.050827,0.023425,-0.722449,0.689155,0.0550461433848366,24.32576691257953,-4.658507358855009,-0.3742230791391804,9.626106970366836,-1.8353152931161223,0.6337369680404663,-0.3047674596309662,-0.2965854406356811,-0.3747548414538659,-0.4283386426521406,-0.6403913220855119,-0.5157360520069263,-0.4926720261573791,-0.1497451514005661,-0.2264833450317382,17.21747570707798,-13.760979162174465,5.346402529254555,0.1142300590872764,0.8050826787948608,14.210705627924202,0.3151599466800689,3.1968472453296184,0.9942770681191236
23,0.030789,0.243905,0.205202,0.04162,0.012468,-0.725311,0.687049,-1.2413343779496848,26.46730781687498,-7.311891870117187,-0.3811859769543632,9.657752985474469,-1.659181312096864,-1.3850793838500977,0.2476353198289871,0.1960956901311874,-0.3789418410173185,-0.4247938716284042,-0.63572389641203,-0.5213524085162317,1.0801279544830322,0.6416811943054199,-0.8448129296302795,21.785932792651654,-19.72737996816635,7.260025489279627,0.0796590745449066,-0.4007126688957214,20.300707094621657,0.5688287615776062,2.804845531056821,2.1426533955819904
24,0.035819,0.228619,0.200295,0.017868,-0.009555,-0.728262,0.684999,-0.88288918858096,15.691567285525798,-5.223585712403059,-0.2127572182838805,9.739642164132,-1.1244905710931867,-1.437639832496643,-0.0217318814247846,0.490211546421051,-0.3843128669281561,-0.4178130136991488,-0.6186803287362674,-0.5431118810900922,1.4745218753814695,1.2436552047729492,-1.1144399642944336,14.864838229453564,-14.708885451197624,2.968687308996916,-0.0237955562770366,-0.5167217254638672,15.59467810613513,-0.0356290712952613,2.337708788561821,0.7658209253188222
25,0.037916,0.205112,0.199905,0.007288,-0.020473,-0.728509,0.684692,-0.5210449678910896,-1.3413655086278915,-1.9330279177188872,-0.0731660434039076,9.7949917109102,-0.4723962339257821,-1.79475200176239,0.0002470856998115,0.2012450695037841,-0.3950596935849955,-0.4101268395302778,-0.5965580275064581,-0.5655460193648265,1.4773943424224854,1.5819185972213743,-1.2847635746002195,3.716041799581051,-3.014225071334838,-2.257942593407631,-0.2910950779914856,-1.3470817804336548,1.9313167298868297,0.0554018579423427,0.7760847643755376,1.7023469384759664
26,0.039778,0.172389,0.202207,0.001073,-0.024404,-0.727399,0.68578,-0.5804178153686225,-13.806355596470832,0.1669108101218938,0.046211583645991,9.803998024186493,0.2233443162119016,-1.8347249031066888,0.0706269219517707,0.3976286649703979,-0.4044006620072004,-0.3980059802653947,-0.5746336646959473,-0.5897860363942534,1.679822564125061,1.014381766319275,-0.8997558951377869,-8.611847509992122,6.153147366440296,-4.523157223644852,-0.1884480267763137,-1.0067788362503052,-9.905743995958566,0.2564509510993957,-1.7600740280404683,-0.8467464465759694
27,0.039993,0.131677,0.206805,-0.001328,-0.025732,-0.726026,0.687184,-0.2706397541384212,-16.20938353716135,2.8701053542137145,0.1501815013781189,9.769129539901018,0.8437501143041998,-0.9949604868888856,-0.0024914308451116,0.2050269097089767,-0.4136773257469762,-0.3880467628265224,-0.5535344851953483,-0.6098280254354423,0.430603563785553,0.1903321593999862,-0.4318632483482361,-13.976159205424786,7.707821279227733,-7.804947774505615,-0.3600433468818664,0.1370626538991928,-6.87773180681169,-0.1016051322221756,-0.9168194421682506,-1.1128220528703183
28,0.040372,0.086675,0.211995,-0.002818,-0.019717,-0.723141,0.690413,-0.1177451944093219,-14.61150176628828,1.7634715615242718,0.2519700336502865,9.767133397647738,0.8426172378167509,0.7962524890899658,-0.1567593514919281,0.2460435479879379,-0.4115382160357823,-0.3919104725920067,-0.5508581098584505,-0.6112264852201266,-0.5208885073661804,-0.250466912984848,0.2859694361686706,-12.524440640199185,7.120757888364792,-8.168381858202814,-0.0812522992491722,-0.2383416593074798,-9.742654789951445,-0.1412717401981353,-1.6541823347657918,-0.4420508530879393
29,0.036832,0.017285,0.218337,-0.003956,-0.019627,-0.710217,0.703698,0.1628978116208687,-12.316374228346348,-0.7592424967765807,0.3133985715486109,9.788545603510736,0.5065048397546634,0.8323706388473511,0.086216926574707,0.0945840924978256,-0.4032394025092533,-0.401041769455324,-0.5597686478337004,-0.6026795034724776,-0.5401005148887634,-0.6263360977172852,0.6706133484840393,-10.566370635682343,5.424095425266027,-5.30092438814938,0.0017430398147553,0.0690052062273025,-10.474924524128436,-0.062742069363594,-2.434094840735942,-1.05108930786103
30,0.034946,-0.000321,0.222066,0.000373,-0.010946,-0.707178,0.706951,0.0720103933956474,-9.705457570457458,-0.9911579862505197,0.3508655478946864,9.7994294010967,0.1358294522928539,1.0795612335205078,-0.0927699655294418,0.098004974424839,-0.3940244864445183,-0.4092827306826784,-0.5705806442345179,-0.5930177127780386,-0.6227309703826904,-0.670711100101471,0.6619464755058289,-7.783156798458099,5.154349679091572,-4.405851279169321,0.0460567846894264,0.1364657580852508,-9.465311428254845,-0.2052831053733825,-2.17043309065029,-1.4147652374900876
31,0.032429,-0.005373,0.221851,0.003979,-0.005962,-0.702857,0.711295,-0.163590725788474,-8.772722547081113,-2.02323367382288,0.3711381187358871,9.796544201049208,-0.2457214033179916,0.7684805393218994,0.0092886295169591,-0.0382289811968803,-0.3861398362608459,-0.4182359617816016,-0.581039573220407,-0.5816938914451293,-0.4578868746757507,-0.488031268119812,0.4862082004547119,-6.491366344860196,4.606965387666225,-3.8050697440773247,0.0187363289296627,0.0839350968599319,-9.581201660713552,-0.4047501981258392,-2.560184249517321,-1.438770966977626
32,0.03076,-0.003767,0.215529,-0.012464,-0.028015,-0.705789,0.707758,0.1214877236722037,-7.903306441926956,-1.3665665853798388,0.3368520374482497,9.791584532815218,-0.4263914751306176,0.2609869539737701,0.0978298187255859,-0.1285423189401626,-0.3824165111023999,-0.4198775614916469,-0.5877437786148382,-0.5762098815158434,-0.3682264983654022,-0.2188661098480224,0.2413634806871414,-5.903983805045486,4.616082760101556,-2.681597044789791,-0.0429187603294849,0.0748731195926666,-9.613779988235237,-0.3804362118244171,-2.436231706634164,-0.9175684339046478
33,0.030174,0.001598,0.210084,-0.022101,-0.032979,-0.70741,0.705687,-0.0056838543226942,-5.305415854349732,-0.6753297033369541,0.2962802086883224,9.790653389444946,-0.475083865574561,-0.0426508076488971,0.1358557492494583,-0.0753566399216651,-0.3819630974556612,-0.4189905443223528,-0.5904823963639697,-0.5743532280603991,-0.2179158478975296,0.0041072601452469,-0.0800648182630539,-4.691775422206521,3.532646303126216,-1.2709303286597131,0.0107416501268744,-0.0091130025684833,-9.636828855389355,-0.4597026705741882,-2.680941795751452,-0.8868556079939007
34,0.029903,0.00647,0.203849,-0.032727,-0.029765,-0.70735,0.705478,3.743499130827188,6.074235742288828,2.247889985948801,0.1171510553079191,9.799321264547109,-0.360510159074515,-0.2546967566013336,0.2869618833065033,-0.8343503475189209,-0.3850478987124245,-0.4066049762950194,-0.5941828802578335,-0.5773709739598452,-1.1521592140197754,-0.2840924859046936,0.2552292943000793,0.5158528426080942,-0.5538578713536262,1.2057090839475393,0.575421154499054,-0.7536510229110718,7.255979428759216,-1.3135219812393188,4.032136624476314,1.0297708446960896
35,0.030586,0.000118,0.20104,-0.037724,-0.031375,-0.70876,0.703741,1.3126174069188534,11.010825883030892,-0.2972410348108038,-0.0983082432752009,9.79673066353202,-0.4298478626621886,0.0789735242724418,-0.1150750070810318,-0.4206206202507019,-0.3914918061753343,-0.4030491324930584,-0.5995561174900201,-0.5699279896206184,-0.9744138717651368,-0.2254863083362579,-0.3320536315441131,9.655754505133627,-4.607793655183911,4.989382404252886,0.4345517158508301,-1.1369365453720093,16.747088730615378,-0.6965107917785645,4.104881542691588,2.1415483569495377
36,0.031496,-0.014101,0.198534,-0.041272,-0.032422,-0.71148,0.700744,1.384557876883447,11.216493417048454,-0.9374830946862696,-0.2030193027974106,9.799659702721238,-0.3095968777107075,-0.830759584903717,0.0642111673951149,-0.3322112262248993,-0.3951691801928564,-0.3955164977715949,-0.5994595470231974,-0.5727620336648699,0.4883667230606079,-0.1831640899181366,-0.3303655982017517,7.301848615008592,-7.474546776360273,5.430237581282854,0.3979578614234924,2.449127197265625,17.80203617520928,0.1253593266010284,2.664219501270354,3.5367627985343333
37,0.031403,-0.035925,0.195139,-0.045887,-0.036777,-0.714677,0.696978,-2.080520033882558,9.471896651864052,7.8193223368167875,-0.3476494719250127,9.799631061148643,-0.1294454412110149,0.8238756656646729,0.0131349209696054,-0.0223677810281515,-0.402410443047026,-0.3868184599835174,-0.5974708023306549,-0.5757307946006246,-1.1952019929885864,-0.6991109848022461,0.6469375491142273,8.174176808217167,-5.401528204149008,2.10749484230876,-0.2272345274686813,-0.9390923976898192,4.84946247690916,0.9696723222732544,0.0835077197700738,2.9280688828825947
38,0.031814,-0.062446,0.190826,-0.054476,-0.045998,-0.714476,0.696018,0.0927877536875195,2.3468074562966823,-1.2378478510081767,-0.243772059348505,9.7762320653826,-0.7322814246147871,1.149780035018921,-0.0303574912250041,0.2597233653068542,-0.3894776992712017,-0.404621634541257,-0.6112424176932832,-0.5576478261451304,0.4420482516288757,-0.1082339286804199,0.081840731203556,5.028496271023154,-4.410117704442143,3.003513707706332,-0.0471639558672905,-0.1963876783847808,2.863994762378931,0.7942220568656921,0.2282154841785319,0.2378911663500592
39,0.032526,-0.089982,0.179495,-0.060824,-0.072382,-0.70698,0.700886,-0.2980630369844846,-1.978991796514392,-1.284276424705982,-0.2054675727323628,9.76852689783275,-0.8390813187755644,-0.1035433635115623,0.3711103200912475,-0.0269237961620092,-0.3825554268058477,-0.4039492679718516,-0.6161219287497202,-0.5575572847913726,0.4603140652179718,-0.2464373856782913,0.3274458944797516,0.0145808985382318,1.2627519906401634,-0.5987158347338438,-0.1030875369906425,-0.5851143598556519,-0.7232647360749542,0.0104931332170963,0.2494072704901918,-0.8251137298300861
40,0.03321,-0.06436,0.17675,-0.041477,-0.074883,-0.70945,0.699537,-0.256465244443994,-4.376169842132926,0.3888625394642352,-0.2054661844928748,9.762824302276968,-0.903017711308971,0.3579138219356537,0.2404309809207916,0.0283177252858877,-0.3781125684089295,-0.4017309700272611,-0.6202042545580162,-0.5576646568016708,-0.1456797271966934,-0.1634025871753692,0.3146829605102539,-2.829956299176812,2.67343010494709,-2.233837495198846,0.0147541733458638,-0.5511295199394226,-4.390295398119092,-0.1479139029979705,-0.1958650653949007,-0.4895055549630895
41,0.03513,-0.009414,0.176832,-0.025963,-0.07618,-0.718728,0.690618,0.2554134886350482,-6.6902820665299885,0.1996247467219829,-0.1588973620741628,9.751418526643514,-1.0271209877744316,0.2190834432840347,0.1379106640815735,0.1502784043550491,-0.3722756019568375,-0.4034250082599219,-0.6241929659727556,-0.5559157137198822,-0.0296553913503885,-0.238788366317749,0.3270788490772247,-4.355015994945168,3.355117652878165,-0.8394618425257504,0.021812779828906,-0.3712367117404938,-5.93454319396019,0.0543885789811611,-0.9633047875545918,-0.1930598352484405
42,0.036148,0.064022,0.180472,-0.00976,-0.059011,-0.725838,0.685261,0.0124685460267588,-7.265733930054306,0.8153342402242124,-0.0654402212250977,9.744482005378604,-1.100543659120798,0.2389906942844391,0.0651104152202606,0.2927729189395904,-0.3667267646806769,-0.4062850982907222,-0.625335532812572,-0.556236876377379,-0.1024779379367828,-0.2191710919141769,0.3309628963470459,-5.370879967907071,4.530418154558539,-1.2564531827569008,-0.0111844055354595,-0.0211397800594568,-6.549875816974043,0.3341845273971557,-1.5565804770611225,-0.4157949700534343
43,0.035765,0.135458,0.188858,0.011632,-0.032591,-0.727265,0.685484,0.215216320140101,-5.066212545955181,1.727930730935186,0.0512881014589918,9.72592869607806,-1.2546275747649371,0.6167140007019043,0.0467759706079959,0.2450780421495437,-0.3598391169929184,-0.412553324639019,-0.6275093292501548,-0.5536675010722129,-0.2736243605613708,-0.0608770102262496,0.556387186050415,-4.454962223818898,3.9404239709407087,-1.3754887275040149,0.0492854826152324,0.3248269259929657,-3.709908411392569,0.1556722521781921,-1.0630822357326746,-1.1520764971550554
44,0.033854,0.231638,0.200322,0.048832,0.010352,-0.722958,0.689086,0.4875352412708103,3.6569817078471183,1.089658838621527,0.0067179066532349,9.678720370179414,-1.5788240191817282,1.0673328638076782,-0.3147979974746704,-0.3693857491016388,-0.3552962675282671,-0.4183914614783572,-0.636746577877235,-0.5415411671840461,-1.5371968746185305,-0.0791068822145462,1.141717553138733,-0.892161020925641,1.806168547478318,-0.8268973983764648,0.0499133318662643,0.644976019859314,-0.0835837258820422,-0.0872491374611854,-0.5424679874090478,-0.8104317090049385
45,0.033937,0.252804,0.19704,0.042753,0.004398,-0.722377,0.690163,0.2083139386068098,20.204041202592848,-4.070411410073936,-0.1097025567997247,9.61798445418775,-1.91120245487988,0.2635446488857269,-0.4574752151966095,-0.1019591763615608,-0.3555609050786458,-0.4258319090407326,-0.6450669693958241,-0.5254827475113555,0.3128377795219421,0.688096284866333,0.9565492272377014,13.041574170267582,-10.634925700992346,5.071181566539407,0.2615205645561218,1.096429467201233,10.148264466077087,-0.2202078700065612,1.3456152750268575,0.3035818186722696
46,0.034575,0.258509,0.193013,0.03355,-0.00156,-0.721521,0.691577,-0.3853660756506025,29.3624353841424,-7.365967159175872,-0.1629063785198144,9.650633508858084,-1.7346927724160253,-0.7795427441596985,-0.9740939140319824,0.4026282131671905,-0.3694044145640905,-0.4310653830568997,-0.6345292381809461,-0.5244958106797825,0.4196782112121582,1.023838996887207,0.2928391695022583,20.23956376687288,-19.221113869071004,9.95178444712162,0.4995329976081848,-0.181852713227272,24.35631636462212,-0.1239911019802093,4.52895246592015,2.1527691314049062
47,0.034803,0.252028,0.189528,0.02793,-0.009693,-0.721143,0.692155,-0.0841760931514669,19.16280430344343,-7.794248685836791,0.0840264646808616,9.690766781803966,-1.5007902007780969,-0.7476385235786438,-0.2992525994777679,0.849967896938324,-0.3757765786141186,-0.4438078402177994,-0.6160792219996112,-0.5312936771842146,1.294421911239624,1.1311699151992798,-0.6590145230293274,14.447152915608882,-21.9578734136343,2.933035565379262,0.4497008025646209,-0.6432642340660095,19.277201082474,0.1915967464447021,2.764476111267507,1.4620067350059749
48,0.035258,0.234943,0.186702,0.021839,-0.021079,-0.722969,0.690213,1.3287094406723976,0.3689437870293856,-3.241363263404369,0.2905190330794081,9.755985980689523,-0.9522299974411724,-1.8653329610824585,0.2939766943454742,0.1592829823493957,-0.3813439406003516,-0.4383234069741334,-0.5970115659994738,-0.5531967672973002,1.920772910118103,1.592449426651001,-1.161681890487671,4.434579945525527,-5.836785415041446,-1.4577224818155168,-0.1011051312088966,-1.6375577449798584,3.536719836175441,0.2778256237506866,0.4262486691264435,0.3616533742928877
49,0.035927,0.207916,0.185716,0.01644,-0.024251,-0.726367,0.686682,-0.2160468526801094,-13.693684326058625,0.2387315992295741,0.3224390062902122,9.800263513833285,-0.1458066472947597,-2.2585763931274414,0.2896415591239929,0.0593295954167842,-0.3951356154610325,-0.4201969540258324,-0.5752117781562336,-0.5800291315303999,1.8922933340072632,0.7818512320518494,-0.9797059297561646,-7.645259316852688,8.343127015212177,-4.7098675437361,-0.3287506997585296,-0.7533174753189087,-10.623736782979964,0.203180193901062,-2.9369337418615817,-1.104984564177692
50,0.032726,0.127782,0.188933,0.00432,-0.022596,-0.725281,0.688068,-0.3589865297038108,-16.85838403649926,4.859556585422158,0.2563353161877021,9.78501392225325,0.5984746463891119,-1.0685495138168335,0.0377525053918361,-0.2730527818202972,-0.4104877115782051,-0.4008466168610698,-0.5557052055966961,-0.6016755841923792,0.716091513633728,-0.0506286323070526,-0.471366137266159,-13.130302255034444,9.959719916296004,-8.561987792801856,-0.2542361915111542,0.1306308507919311,-5.972696106743812,-0.0198904033750295,-0.7587985524013638,0.3118043976923451
51,0.029583,0.07889,0.190057,0.001892,-0.020749,-0.719068,0.694627,-1.2407555551484226,-14.7983383431077,1.759485706758499,0.2048145887163467,9.786825940111278,0.5886280828963965,0.7414870262145996,0.0766898170113563,-0.0517370887100696,-0.412300896635256,-0.3999901530158184,-0.5567730212897815,-0.6000164050373059,-0.2505494058132171,-0.2677939534187317,0.27277472615242,-10.647926636862756,7.92868229072392,-8.076355316412448,0.0354996770620346,-0.0430253744125366,-10.137840102696416,0.0283278934657573,-2.3457810358583924,0.2011697659405879
52,0.024844,0.035213,0.189827,-0.008037,-0.0198,-0.7142,0.699616,0.1794366027612239,-12.075359486615657,-1.2190215699851512,0.1650291793600656,9.799670224115252,0.3310721388725564,0.4698746502399444,0.0690588653087616,-0.1093228086829185,-0.4066855002424302,-0.4027752558614148,-0.5664733994019955,-0.5928632929490923,-0.3464908599853515,-0.3796081244945526,0.5936954021453857,-8.946614886653423,7.545025503209233,-4.969169637307524,0.2643420398235321,-0.0689718201756477,-9.818030641192196,-0.1078505218029022,-1.876129387933016,-0.9829453075699508
53,0.023337,0.004369,0.186837,-0.030967,-0.02974,-0.715696,0.697091,-0.3035152562420815,-9.522451365581157,-0.5168874463528395,0.1489395110935438,9.804967161479592,0.1040376446395181,0.7552948594093323,-0.2609564363956451,0.0472089052200317,-0.4039028146729223,-0.4083849651898937,-0.572640617355989,-0.584950424661339,-0.468886524438858,-0.470509797334671,0.5546429753303528,-6.330425256797671,6.165986389747261,-4.547446446248888,0.2329837083816528,-0.0342091396450996,-9.870274038648605,-0.2265008389949798,-2.383027939713001,-1.4715201210215687
54,0.020097,-0.01119,0.188116,-0.032744,-0.028961,-0.712409,0.700402,-0.4428410170849412,-9.04227481651008,-1.6115794568359851,0.2279613815532997,9.80273428786099,-0.1575858958831056,0.4500686228275299,0.0195951834321022,0.2983037531375885,-0.3981866196614727,-0.4181697095429509,-0.5772077081952618,-0.5774191112030637,-0.069277636706829,-0.4475433528423309,0.2042369544506073,-5.8616591595351695,4.930809219253063,-3.793206287804246,0.1410157084465026,0.0453949011862278,-9.518453820377587,-0.4003904163837433,-2.5207018416956064,-1.7370502953276037
55,0.013365,-0.006719,0.185841,-0.061517,-0.06109,-0.706499,0.702383,0.5733266149986534,-8.542657653909922,-0.5270364999234676,0.3304845482429489,9.798415840139985,-0.2284838527911342,0.063461922109127,0.316754937171936,0.1198532879352569,-0.3912195284908851,-0.4201951117988099,-0.5788657031865201,-0.5790490737486594,0.0574462227523326,-0.4492286443710327,0.0978275537490844,-5.907879058918357,5.260952443245053,-3.911128610612452,0.0910416767001152,0.0372924320399761,-9.414059379923344,-0.5280941724777222,-2.369120264261216,-1.50807626613304
56,0.013246,0.002854,0.183984,-0.068673,-0.067668,-0.70863,0.698963,1.247267713521421,-7.127281737175584,-0.2295323206644505,0.2925031926339492,9.796964472287891,-0.3229292009599506,0.3663637340068817,0.2038583755493164,-0.2967715859413147,-0.3867529302043963,-0.4173510489138683,-0.5850494927846915,-0.5778902889579881,-0.2666785717010498,-0.3050422668457031,-0.0361586734652519,-6.089801560211181,5.588765178462863,-4.2989527469396585,0.0619864463806152,-0.0788599625229835,-9.748354462897778,-0.6052119731903076,-2.664482828381657,-1.0932418847400691
57,0.011051,0.011875,0.185752,-0.069751,-0.050082,-0.712575,0.696321,2.491127956686914,2.347987021470069,0.8750175784230232,0.1125663030672352,9.799145907980202,-0.3666984557880088,-0.2586423754692077,0.2683994472026825,-0.8034490942955017,-0.3891978038590568,-0.4108551899052642,-0.5915187492756233,-0.574307171947098,-0.495487779378891,-0.5518130660057068,0.1257752925157547,-3.896992825493217,3.5943355743199583,-0.7594415264800191,0.4107369184494018,1.7669106721878052,4.438503256449103,-0.676222562789917,0.6930632937524467,0.3871207738308235
58,0.011013,0.018392,0.187336,-0.066646,-0.023938,-0.718375,0.692042,-1.49848586935848,11.791100646442176,2.341787582308054,-0.0354492889812681,9.792328044658898,-0.5286287010183558,1.3805562257766724,0.6899879574775696,0.1140125319361686,-0.3847943345487328,-0.4039464078220856,-0.6031416601622835,-0.5700708772390884,-1.3185244798660278,-0.9620152711868286,0.1622195243835449,6.599620383352041,-7.043788045930862,1.9654808652952311,0.5900547504425049,0.6682394742965698,9.585799509897829,-0.2483302801847458,1.9013135135501624,1.152662115023285
59,0.010445,0.022196,0.187867,-0.065948,-0.001182,-0.721599,0.689162,2.8940792272582647,12.845952229446173,-5.477430709612369,0.0246021861269022,9.758453247585892,-0.970753349994868,0.1280446648597717,0.0319315828382968,-0.144125148653984,-0.3689880498886605,-0.4090752589668015,-0.6181845011091116,-0.560672030075236,0.0562038570642471,-0.5495374202728271,-0.0288384445011615,6.3063710119932885,-9.11943112142682,5.268494529187679,0.5208712220191956,1.878914475440979,13.32613813086748,0.128971442580223,1.7647183467149734,2.127742972828448
60,0.009658,0.023769,0.187624,-0.073805,-0.019159,-0.722375,0.687285,-0.2466711235245689,12.764646403634549,3.037014410769939,-0.1519634894240647,9.75431775521636,-1.0002973513219504,0.8621861934661865,0.226770669221878,-0.5009804368019104,-0.3717257130095741,-0.4021197731458771,-0.6239396268232553,-0.5575115570417982,-1.203220248222351,-0.5928378701210022,0.6155025362968445,9.0281048368603,-9.322618529066444,2.816142877879739,0.201115608215332,-0.2433257550001144,14.06287419680357,-0.1383008807897567,2.2944551916383205,-0.187868732878752
61,0.009802,0.023339,0.188219,-0.076763,-0.032992,-0.722187,0.686633,-1.258899406865239,5.142356458958983,-0.7638764401875436,-0.1758260475812479,9.670418405780197,-1.6194016748942437,1.6651105880737305,-0.4042675793170929,0.2484096735715866,-0.3611342243095466,-0.4150506641300296,-0.6405462156813466,-0.5357382766233256,-0.3613108098506927,0.283727616071701,0.240364134311676,7.644892821627855,-6.569440349143743,3.285778743714094,-0.165637582540512,0.0429872758686542,3.700140466094017,-0.0605610199272632,0.1270787760117556,-0.3495455148046836
62,0.007398,0.023828,0.189731,-0.083945,-0.018085,-0.717765,0.69097,-0.1523907749254256,0.0080704937309026,-1.4692194428637624,-0.0817922758880071,9.61138403300941,-1.9455105288036167,0.0196924824267625,0.3476482927799225,0.1808798909187317,-0.3524233951008404,-0.4254165287717247,-0.646694836680173,-0.5259319502926342,-0.1162938848137855,0.4596058130264282,0.1283473223447799,2.787536961120367,-0.0347381359040737,1.406751296252012,-0.3579501211643219,-0.0457180701196193,0.1028384249175898,0.1401088684797287,-0.2498669969564303,-0.4474487666087224
63,0.00649,0.02441,0.191036,-0.088504,-0.003886,-0.71706,0.691359,-0.4382231845585629,-2.9323142653673884,-1.1211281819880008,0.0588917037639301,9.66002093040645,-1.6884677584663033,-1.1459283828735352,0.8672500252723694,0.3245150446891784,-0.3458424119010536,-0.4154616373728719,-0.6430237371156893,-0.5424989965854561,0.8807161450386047,0.4913585484027862,-0.1261867731809616,-0.7888181353509426,0.9585434183716772,0.44870179887712,-0.5050328969955444,0.1075116544961929,-2.65579595631808,0.2125585079193115,-0.4629905826009809,-0.2202500582573004
64,0.005827,0.025084,0.192513,-0.092573,0.003888,-0.716689,0.691211,0.9002568682935088,-2.32361128962636,1.1480875736493616,0.2341458058092743,9.728427527156471,-1.2137784086346626,-1.1089928150177002,1.146310329437256,0.1495130211114883,-0.3390158723801008,-0.3993078768666649,-0.6343805606424493,-0.5684916489615033,0.9502416849136353,0.2626811861991882,-0.073284275829792,-2.6487626966804263,1.897209000840783,-0.8325783666223288,-0.4632724821567535,0.2832649648189544,-2.3780631569124755,0.3980787992477417,-0.2099950966267846,0.6123860116353258
65,0.005495,0.02646,0.198665,-0.091784,0.018892,-0.710658,0.697269,-0.0687352807151153,-0.259817641878128,1.586394746696949,0.3451159713920205,9.75192881425321,-0.9752744076158852,0.1936114579439163,0.1224986463785171,0.2168095558881759,-0.3338735667084353,-0.3914217303241509,-0.6296937231543462,-0.5820681091991531,-0.0029468149878084,0.2719433009624481,-0.1410207748413086,-0.5990162789851426,1.339617203655839,-2.381262683606148,-0.3784731328487396,0.379120409488678,-1.3805936494275928,0.3483875393867492,-0.0018764111640164,0.3494965976290404
66,0.00527,0.027346,0.200611,-0.088789,0.016969,-0.707127,0.701284,-0.2657171482454985,-1.4052362155139446,-1.1441162588655949,0.3556494577029719,9.719700030821562,-1.25352648165524,0.9481148719787598,-0.6298961639404297,0.0361656956374645,-0.3307832038773009,-0.3996651411864952,-0.6357513953692598,-0.5715508700950861,-0.5900505185127258,0.2514663636684418,-0.0162587370723485,-1.1988210779994726,0.533427077743411,-2.4693682525604963,-0.3270222544670105,0.4912017583847046,-0.4125263967115432,0.1454979926347732,0.0858293585175182,0.1204447722242213
67,0.006174,0.027393,0.201889,-0.087672,0.004346,-0.704882,0.703872,1.341300188306719,0.0747317081183195,-0.3007354893304407,0.360229077110812,9.674757896289227,-1.5619536945320665,0.441458523273468,-0.0101410374045372,-0.090440884232521,-0.3311080971211607,-0.4128949018114721,-0.6396524651968423,-0.5574316404181306,-1.0749653577804563,0.060464221984148,-0.0799012258648872,-1.4375497546195983,0.2246381919473409,-0.2739472895175218,-0.25853031873703,0.4238666892051697,0.0709842743514571,-0.1290580630302429,0.4005069826917722,-0.0255272993318969
68,0.009213,0.027077,0.202649,-0.093862,0.000955,-0.707241,0.700713,-0.7364880094591528,-0.905523775845766,-0.2450469198562204,0.2501657607072964,9.69418974198997,-1.4596246621750295,-0.5774732828140259,1.1594130992889404,-0.2924025058746338,-0.3269446710780402,-0.3966308212567483,-0.6458359993467828,-0.5645238108567667,0.4919135272502899,-0.0311557091772556,-0.1510856002569198,0.3921469679623842,-1.4227742102921008,0.2971531007990241,-0.1767449378967285,0.2904863953590393,0.1269713609813712,-0.3461972177028656,0.5470384371297433,-0.0463177565673599
69,0.013311,0.02647,0.202905,-0.108372,0.013817,-0.712174,0.69345,0.5449954965926707,0.0325017551541328,-0.0663023179471492,0.2504780963257886,9.711749364078043,-1.3377476103916763,-0.0540733076632022,0.4442773163318634,-0.0378301925957202,-0.3215225399827475,-0.3856567783807949,-0.6476688908512049,-0.5730768593265461,-0.2186524718999862,-0.1253886222839355,-0.2074475288391113,-0.0328875396013259,1.1685311536759138,0.8598857680037617,-0.1478374749422073,0.1527053564786911,-0.0611884592318674,-0.3870031535625458,0.5242029569979757,0.1859651277471333
70,0.020918,0.025177,0.20447,-0.133348,0.018625,-0.719124,0.681713,-0.1198069127121008,-0.1739203966230154,-0.5969288051865994,0.207045580905117,9.726036248105764,-1.2376286552995444,-0.3716858625411987,0.5623019337654114,-0.279795229434967,-0.3184374711716793,-0.3754290606014488,-0.649734190946704,-0.5792202104504459,-0.098303698003292,-0.0303850434720516,-0.2754490971565246,-0.4845166241019964,0.0006353752940893,-0.0521148026406764,-0.1738200038671493,0.1026877984404563,-0.3388008699610829,-0.275414764881134,0.5227545117553323,0.1781074365166947
71,0.022067,0.02552,0.206926,-0.124791,0.011018,-0.716675,0.686063,0.2946189061462879,0.0773895291507244,0.2302723984420299,0.0926431210524402,9.742727855187654,-1.1140317209210246,-0.2540619969367981,-0.0760634541511535,-0.3573931455612182,-0.3209452915485569,-0.3659331697150178,-0.6503020255197764,-0.5832618501458722,-0.629557728767395,-0.1849711537361145,-0.2584388852119446,0.1903168201506137,1.3154144902914762,-0.1308015319950878,-0.1707606762647628,0.0168929900974035,-0.0272268515250878,-0.2542911767959595,0.6831788094021379,0.0656394335916265
72,0.022929,0.026706,0.209019,-0.103348,-0.008307,-0.713329,0.693118,-0.0673655860973754,0.1839279958963394,0.5879622393988072,-0.0396255517526064,9.747072606393694,-1.0786242343880237,0.1013238281011581,-0.2909823060035705,-0.3043030798435211,-0.3276872750237501,-0.3633084719329942,-0.6503856426126255,-0.5810565244509318,-0.791105329990387,-0.3117763996124267,-0.2063387334346771,0.0669955609083175,0.7073106494873762,0.1514814780607819,-0.1516928225755691,0.0167327020317316,0.1083104448541998,-0.318020612001419,0.5609064746908843,-0.0782333686968777
73,0.023646,0.02841,0.209331,-0.095657,-0.02275,-0.709549,0.697762,-2.2733000292763115,-0.3351479004114866,0.3999614411056041,-0.113270103955036,9.72535644914806,-1.2549912935107943,0.7188754677772522,-0.5292093753814697,0.1953168958425521,-0.3329920152641759,-0.3711419234919057,-0.6528709058924598,-0.5702013630558157,-0.9238335490226746,-0.27774178981781,-0.1559744924306869,0.4764391161084175,0.3222802355319261,0.443731609249115,-0.1299861371517181,0.0490379557013511,-0.1626008745009079,-0.3533878624439239,0.5218017410751432,0.045933296427573
74,0.024318,0.030331,0.20903,-0.089552,-0.043145,-0.705027,0.702179,-0.6745555040940642,-0.1782178015559911,0.2647919231593608,0.0353035443846252,9.712078449901938,-1.3581933093100786,-0.0928855463862419,1.110639214515686,0.4903872907161712,-0.3229376009033026,-0.3736263496586003,-0.6554784063085265,-0.5713692410804369,0.1813433915376663,-0.0626407191157341,-0.127282053232193,-0.500851088309288,-1.9856191056996584,-0.5569733730256557,-0.1233728602528572,0.0568596720695495,-0.1809264394601807,-0.3332321047782898,0.3705404816363006,0.1259846971647348
75,0.024325,0.034039,0.208277,-0.086584,-0.073434,-0.696155,0.708857,0.2024833510234951,0.3857376854419708,0.6196631995640695,0.2735137204058468,9.697892688161136,-1.430549666599184,0.5274425745010376,0.9835896492004396,0.4555256962776184,-0.3002685233570339,-0.3666058460335052,-0.6622219336847041,-0.5804318821756398,-0.216014876961708,-0.0272326059639453,-0.0564469695091247,0.4179606236547231,0.3717518301874399,0.020616525440663,-0.1096116378903389,0.1194134503602981,-0.1533829095016233,-0.2624709010124206,0.196535110143572,0.2354284477646462
76,0.025786,0.03516,0.209072,-0.081617,-0.075166,-0.696956,0.708478,1.766977085427195,0.0918330650448799,-0.984152491402626,0.497189570127055,9.66304232405424,-1.5964984998211265,0.2322457432746887,0.6828305125236511,0.2612841725349426,-0.2820168075044144,-0.3671858113030443,-0.6682614357483994,-0.5822952960490854,-0.6969141364097595,-0.0384452044963836,0.0677554085850715,0.3182891200691461,0.4251023121029138,0.5791758524835109,-0.0796821117401123,0.1027748510241508,0.0554716479210648,-0.2523967027664184,0.1554046428538859,0.1241767800930887
77,0.02705,0.036548,0.210881,-0.076027,-0.067317,-0.700334,0.706556,-0.6208093008592724,0.3745364924699068,-1.0226699997149409,0.5826517119005322,9.659262220993638,-1.5904507440894842,-0.1681578457355499,0.7632691860198975,0.0729885697364807,-0.270137776768715,-0.3592933899049919,-0.6723084732841368,-0.5881624676349667,-0.6780632138252258,0.0245256628841161,0.1185912862420082,-0.018498948764801,0.2712918065726757,0.0078049746625125,-0.0733272582292556,0.0837248787283897,-0.0308844059182563,-0.2822917103767395,0.024949739189248,-0.0573111702739493
78,0.029774,0.036488,0.21155,-0.069398,-0.062961,-0.704777,0.703213,-0.0964323024686425,0.4035381305485964,0.6976748061358928,0.7665096382353455,9.664528763219714,-1.4763890422321857,-0.1320444196462631,1.692280650138855,0.4750576019287109,-0.2550191656186,-0.351051211361698,-0.672337666379197,-0.5997418578882747,-0.3833708465099334,0.0406114235520362,0.0303957816213369,0.1090828905314207,-1.47756963031888,-0.4262548431389033,-0.0864104405045509,0.0906399637460708,-0.0607060962421353,-0.3433278203010559,-0.0518445617313962,-0.1450853655491955
79,0.033119,0.035627,0.211365,-0.063913,-0.067168,-0.709492,0.698587,-2.4412081798724827,-0.0477893406569957,-0.9231786750018596,1.145645733455196,9.632676996406913,-1.438551186747104,0.1586253494024276,2.3232991695404053,1.0105903148651123,-0.2161998836074405,-0.3332566869641348,-0.6799159334289424,-0.6163699890231028,-0.7759959101676941,-0.0171476416289806,-0.1236504390835762,-0.1148328323602676,-0.1985024646937847,0.0195440008383244,-0.127293661236763,0.0460375174880027,0.1853786878949962,-0.4011791944503784,0.0326790022840257,-0.0424641087799333
80,0.035892,0.034914,0.21245,-0.062253,-0.073503,-0.711544,0.696008,-0.1626606053315103,-0.2452244683802127,-2.750216407507658,1.7480708710357546,9.5751290628016,-1.1964756108518688,-0.7484546899795532,3.279231548309326,1.1894190311431885,-0.1649196520870944,-0.3136858631812522,-0.6801503206480501,-0.641715141681405,-0.7232916355133057,0.0614808052778244,-0.1685643792152404,0.2440425651192665,-0.1006231052219867,-0.0722276163429021,-0.1538412421941757,-0.006634715013206,-0.0146213036138564,-0.4380806088447571,-0.1268313679887913,0.1431007493369281
81,0.039817,0.035653,0.212909,-0.056891,-0.075029,-0.708152,0.699754,-0.0306520356342196,-0.8901438358843327,-1.9216297408699987,2.228678797261417,9.539796468135714,-0.442345707848668,-1.7131452560424805,2.3316140174865723,0.7107919454574585,-0.1197053464878493,-0.2839122864768172,-0.6647910709185195,-0.6805272267315722,-0.6636011600494385,0.0928670093417167,-0.1139617264270782,0.0438309584200382,-0.047111879786849,0.2446142275273799,-0.1421769559383392,0.0384525693953037,-0.0890972377396654,-0.4130355715751648,-0.1409746148952748,0.4075215376289561
82,0.039314,0.034686,0.213663,-0.051072,-0.071698,-0.705447,0.703275,1.634413219934702,-0.5976975976020097,0.1208610066086053,2.3220048773430286,9.521187044733765,0.35453766053617,-1.5660983324050903,1.4971452951431274,-0.2030281126499176,-0.1024762796088147,-0.2588271770874514,-0.6441522348594922,-0.7124430451584939,0.1507154405117035,0.0417641475796699,-0.0640943720936775,-0.3346253378421068,-0.7704460278362035,0.7537298708349466,-0.1033310368657112,0.0158111453056335,-0.0086432327096059,-0.3359912931919098,-0.0397374054960906,0.3010178499357774
83,0.040172,0.034636,0.213118,-0.052769,-0.062391,-0.704163,0.705321,0.5175573084384203,-1.046415763092041,0.9397749319504946,2.146590588900447,9.515155363354086,1.0120980445571244,-1.3137826919555664,1.0307217836380005,-0.4376943111419678,-0.0988641296739351,-0.233002156536182,-0.6277797019812699,-0.736089975488466,0.3513129949569702,0.0525253415107727,0.0217119492590427,-0.2588847449421882,0.1220358956068754,0.0633394495535641,-0.0982229560613632,-0.0014284687349572,-0.0236877952453214,-0.3175396919250488,0.0015510259801725,0.0662503183318534
84,0.040875,0.034479,0.211546,-0.057584,-0.060686,-0.700392,0.708839,0.0598323912806808,-1.3577742071151733,3.232702987086773,1.9716475712314248,9.483543835037946,1.531459041416645,-0.6948904991149902,1.9778635501861568,-0.0087974686175584,-0.0890725779670834,-0.2058085244169664,-0.6160845501054615,-0.7550818893317615,0.1141425222158432,-0.0087813204154372,0.0760717317461967,0.0047755438387393,0.5658136820852756,0.1802729805201292,-0.0981129929423332,-0.0065709110349416,-0.0763421389896422,-0.3494578897953033,-0.0595591775296023,-0.1048110675642732
85,0.038601,0.030873,0.212166,-0.060649,-0.065983,-0.695478,0.712936,-0.6303653569728136,-0.7108505140513182,3.067066434684396,1.9346065652124584,9.44400034467876,1.7995972062639891,0.0333633944392204,1.807478666305542,0.4926939606666565,-0.0619528931351815,-0.1782191434278163,-0.6135829345111194,-0.7667566970143596,-0.0492876805365085,0.0765045434236526,0.0966835245490074,0.0751706840574741,0.4388689716488123,-0.5936609624970703,-0.1065582931041717,0.0479300133883953,-0.0906193875393364,-0.3824098110198974,0.0247512871578335,-0.0828178834755439
86,0.038085,0.030564,0.210777,-0.056853,-0.080363,-0.691001,0.71612,-0.6827089999333024,-0.2320277176767587,2.3158465008437634,2.0634150236941875,9.422021152582763,1.7715046458542345,0.7030932903289795,0.5809242129325867,0.5971778035163879,-0.0356028496929954,-0.1657534247294474,-0.6182266579266337,-0.7674986037661452,-0.3043569922447204,0.1013946086168289,0.0685792490839958,0.1014081181198358,0.4469517403393984,-0.4129570432137697,-0.1015074178576469,0.0241338312625885,-0.037613547493203,-0.4465624690055847,0.0221025330645847,-0.1925504244215786
87,0.035783,0.030013,0.210739,-0.059692,-0.083202,-0.690559,0.71599,0.0076359017059206,0.0185696759134531,0.7913118518628179,2.217325774728507,9.449900508633256,1.3975870159350334,1.1583977937698364,-0.1646010875701904,0.2574655413627624,-0.0240850794879397,-0.1698142959305938,-0.6323812144764072,-0.7554317291838762,-0.2785062193870544,0.0416857972741127,-0.035124834626913,-0.2031190185785293,-0.408674908915162,-0.0478016521492973,-0.0936514288187027,0.0579843297600746,-0.1409762223304715,-0.4700359404087066,-0.1213268522883765,-0.0392593350889859
88,0.035697,0.029713,0.209517,-0.066321,-0.083113,-0.689996,0.715961,0.4799301730945706,0.31445874812603,-0.8314853106886148,2.2931538997814056,9.477526766705513,1.043222812269628,0.5524346232414246,0.0702922493219375,0.1272563487291336,-0.0208187263592766,-0.1753213474695909,-0.6450371020967871,-0.7434757175331417,-0.3222022950649261,-0.1035387217998504,-0.0162351671606302,-0.48538639267385,-0.5814823758602142,0.316100158657506,-0.0377105139195919,0.0796745643019676,-0.0248346591589273,-0.3974458575248718,-0.0182155972121981,0.087068636255199
89,0.036261,0.029156,0.208313,-0.068275,-0.087281,-0.692378,0.712975,0.4390454972594976,0.1727156970083713,-0.6366156495392322,2.334487488427758,9.471577502912282,1.0048734270658344,0.0333090014755725,0.8135048747062683,0.2430246472358703,-0.0108429827808139,-0.1697965248600832,-0.6480238077946363,-0.7423723649639927,-0.0664544180035591,0.0052030980587005,0.0235613118857145,-0.3273310891807079,-0.8306243099451065,-0.1666671010265126,-0.0203342139720916,0.0164099652320146,0.0046392086745472,-0.324089378118515,-0.0280619666253798,0.0396938220826908
90,0.034687,0.02834,0.206967,-0.07118,-0.091881,-0.694702,0.709845,0.4741996666185558,0.5002256498873233,-0.0601893880248069,2.40183507764414,9.445736959213018,1.086104434075579,-0.0395928435027599,0.8528696298599243,0.2069693356752395,0.004553776284016,-0.1603713294524176,-0.6472288009241662,-0.7452215667462264,-0.9242021441459656,0.0398444309830665,0.1067432835698127,-0.1863005702465772,0.5336193854451179,-0.1869943977296352,0.019762672483921,0.0251808054745197,-0.0539968809270765,-0.2310671359300613,-0.0258665092575829,0.1266582764442078
91,0.034764,0.027213,0.203001,-0.078313,-0.097369,-0.693617,0.709424,0.3234352507859468,-0.0503816952377557,-0.0059323857236653,2.4171774620741604,9.429666114377977,1.187021846069023,-0.0966952815651893,0.5018025040626526,0.0380199626088142,0.0136462335566339,-0.1528799187267311,-0.6450631438198133,-0.7485552605914501,-1.1624664068222046,-0.0824735984206199,-0.0572689548134803,-0.161164375424385,-0.1107762504458427,0.4487526522815227,0.0629024878144264,-0.0015483347233384,-0.0566820557572878,-0.1670936942100525,0.0187224302061949,0.0498980901390081
92,0.033454,0.027191,0.202602,-0.080653,-0.093583,-0.691925,0.711321,-0.3978922336161136,-0.2777583722382784,0.4785556698709726,2.4117151050150394,9.420316686752438,1.269510671120137,-0.0312154702842235,0.4581483900547027,0.1051188334822654,0.0209280269617757,-0.1457645641655266,-0.6434482559251217,-0.7511917961549338,-0.5144249796867371,-0.0455748625099659,-0.1207314804196357,0.373320102417469,-0.9486509699106216,0.5254886859595775,0.0829256251454353,-0.0119968736544251,-0.0405504937109537,-0.1385699957609176,0.0406946879546157,0.0011609358214423
93,0.033823,0.02678,0.201685,-0.084971,-0.090069,-0.694055,0.709194,0.0091669106654822,-0.219857971933484,0.7814597354121505,2.43636059371084,9.412845327958465,1.2778528213992717,0.2158956229686737,0.3976288735866546,0.1181337460875511,0.0288900754279604,-0.1405820774789,-0.644270374270729,-0.7512109577804189,-0.7415388226509094,0.0448435060679912,-0.0988691970705986,0.0473936193376779,0.3779945239692926,-0.3554781562566757,0.0974584519863128,0.0280875973403453,-0.0742042273452272,-0.1454561352729797,-0.0112772904155775,-0.1425551164192147
94,0.034144,0.0264,0.200757,-0.085798,-0.092145,-0.692652,0.710198,-0.0012649053692817,-0.2701215937495231,0.1272704352594912,2.462953417082131,9.41432709094882,1.2143803931158037,0.274095207452774,0.1567452549934387,0.0875592306256294,0.0349968728375597,-0.1374436605889983,-0.6474512128661304,-0.7487933977881746,-0.6640855669975281,0.0658332109451294,-0.144223615527153,-0.0064496145308017,-0.1742576657533645,-0.2358206436863169,0.0950511023402214,0.0477102324366569,-0.0798064266998786,-0.1520918160676956,0.028772966722236,-0.1621083052109926
95,0.033206,0.026468,0.200822,-0.083345,-0.096309,-0.691432,0.711125,0.1231982173845171,-0.342252763980627,0.1488835705220699,2.4881276058271524,9.415079955142737,1.1558066966593266,0.1408532112836837,0.4607055187225342,0.1571748554706573,0.0406080363731917,-0.1345583465746892,-0.650357064261702,-0.7465124344373908,-0.0101077891886234,0.0406600497663021,-0.1838050633668899,0.0637099633663892,-0.9265706555277108,0.6441068820774555,0.0828107222914695,0.0447517000138759,-0.0477471043838886,-0.1403034180402755,0.0640934005928691,-0.1224005550676491
96,0.033272,0.025268,0.199708,-0.085706,-0.101779,-0.69277,0.708777,0.0286456642478704,-0.0902209536731243,0.15504494269602,2.548861768253148,9.397230410197375,1.1686491540323942,0.063524454832077,0.5541348457336426,0.2537350058555603,0.0503009238579862,-0.1302635087159227,-0.650727970812038,-0.7463607178199688,-0.0428396351635456,0.0419998876750469,-0.0440927632153034,0.0100181206673383,0.0974491513609886,0.0898258899409324,0.1061930656433105,0.0234314762055873,-0.0550197440016781,-0.1026066467165947,0.029615847287164,-0.1158874651128891
97,0.032468,0.025087,0.199282,-0.088388,-0.103133,-0.692673,0.708347,0.2430295886844396,0.0811760619521141,0.1107580572020262,2.5972414760187266,9.381456502482294,1.1886945285215973,0.0795105844736099,0.1991569697856903,0.0749519616365432,0.0586163282136984,-0.1263057270595504,-0.65072291386722,-0.746438666950122,0.1351942718029022,0.1201016679406166,0.0158491320908069,-0.0460416202068328,-0.1329483347654342,-0.2905143934369087,0.101137988269329,0.0140050463378429,-0.146814043372171,-0.1027785465121269,-0.00590304032735,-0.1811019421575591
98,0.032474,0.024994,0.19998,-0.085266,-0.09872,-0.693108,0.708933,0.4627183415308594,0.2003957310944795,-0.5255401969511062,2.568789580777288,9.393169736629725,1.1576096544280647,-0.056924145668745,0.1612058877944946,-0.1019526347517967,0.0580383339602478,-0.1249210796099282,-0.6522063000784595,-0.7454214583875928,0.5545201897621155,0.1623580455780029,-0.0600385069847106,-0.0824941588133573,-1.383129597645998,-0.0160251790624111,0.1038965582847595,0.0141446786001324,-0.1687316871398128,-0.1027915328741073,-0.0195799535011174,-0.1512402805828955
99,0.03262,0.024803,0.200468,-0.084887,-0.09843,-0.694623,0.707534,-0.2551674779847264,0.0007008417457342,-0.142399615330249,2.5824808369994163,9.38202465775907,1.2160492031108587,-0.0797513127326965,0.3993718922138214,0.188937559723854,0.062106408943499,-0.1221717800087105,-0.6504404674717714,-0.7470903450334001,0.0466785281896591,0.2117090821266174,-0.1058182418346405,-0.1744219164043665,0.4310422235459089,-0.5465150708427653,0.1082556694746017,0.0369640253484249,-0.1562763476544991,-0.1064530164003372,0.0184659746520279,-0.2598118879907764
100,0.030608,0.023908,0.200433,-0.087807,-0.101831,-0.695547,0.705786,0.5534402304634451,0.1279804832249879,-0.3991226521939039,2.6241142853751778,9.363831998464464,1.2661229283779858,-0.0421093441545963,0.2675926387310028,0.0364376455545425,0.0683780247835088,-0.1195016129426607,-0.6489723139472707,-0.7482505018852229,0.0464931726455688,0.0972120612859726,-0.3202740848064422,-0.1706044039428234,-0.7234808630436659,-0.1170879178106784,0.0852890014648437,0.0526917912065982,-0.1582584248498082,-0.1159979477524757,-0.0385645486247027,-0.2259604352607391
101,0.029784,0.022715,0.201951,-0.092376,-0.108541,-0.695037,0.704704,-0.1230368893429636,-0.3332341757446527,0.0673269848197698,2.638145733337104,9.348001976647971,1.3510875689581037,-0.1271930932998657,0.6098766326904297,0.2250770926475525,0.0746808419935499,-0.1148902393329465,-0.6464626370204675,-0.7505392177383771,0.1905805766582489,0.1592353284358978,-0.1506785303354263,-0.3705500531822442,1.007372038948536,-0.5749976900160312,0.0748137757182121,0.0690993070602417,-0.0976882208138704,-0.1085187345743179,-0.0011021925131732,-0.2134868659989908
102,0.027778,0.021891,0.204186,-0.092601,-0.108437,-0.694261,0.705456,0.2272892909780144,-0.0601496405363082,0.4514893837690353,2.7039617290720344,9.317330359530448,1.4305027587175367,0.0257800221443176,0.3617251813411712,0.1875522285699844,0.0854648269031477,-0.1101082871882708,-0.6441590046360278,-0.7520845588763775,0.0164516512304544,0.1990532130002975,-0.1909200251102447,-0.0624023878991603,0.1571440338671207,-0.4834358431279659,0.0694180205464363,0.0649889186024665,-0.1189545154001563,-0.123890072107315,-0.0092701141699857,-0.1959806728648953
103,0.026324,0.021109,0.206703,-0.091571,-0.110486,-0.693062,0.706451,0.372454717759788,-0.0231733703166246,0.1038632561869919,2.7139707896500824,9.312826618370414,1.4408460196860131,0.0884543880820274,0.1464955359697342,0.0136487307026982,0.089845641237716,-0.107044640865498,-0.6442660495380697,-0.7519246193629976,0.401604413986206,0.2612890005111694,-0.2475672662258148,0.2163017407566309,-0.514691397613287,-0.1061117657661438,0.0658567026257515,0.0793124958872795,-0.0704800328900571,-0.1388786435127258,-0.0099782567311194,-0.2160101373989134
104,0.025231,0.020351,0.209605,-0.089716,-0.116906,-0.692217,0.706484,-0.0420288774341344,-0.1634217989623546,-0.1933129332266747,2.706625687584281,9.311817149066924,1.4610432968012987,-0.0719039514660835,0.5908001065254211,0.1904061138629913,0.0953564805080094,-0.1018178721738947,-0.6443140908573788,-0.7519307005819242,0.6258835792541504,0.158771201968193,-0.1597936600446701,-0.2086468420892953,0.8065601282685995,0.5706406638503074,0.0538273341953754,0.0694855824112892,-0.0852808577892836,-0.1561006754636764,0.0195710258425679,-0.1887689879204146
105,0.023075,0.020322,0.212027,-0.087917,-0.119467,-0.692248,0.706252,0.0122308282807469,-0.1252384910404682,0.119103787677735,2.791977573916316,9.277672302880882,1.5165848590202629,0.1234285831451416,0.6921411156654358,0.3851672112941742,0.1088050892058795,-0.0962688998481854,-0.6429681079950118,-0.7519878442290814,0.4363732933998108,0.2291520982980728,-0.1768529415130615,-0.0372118325412273,-0.4407166453421116,-0.5044681462952867,0.0432909540832042,0.0311468839645385,-0.1371678795560728,-0.1627481877803802,0.0014828492649219,-0.1030696672570426
106,0.021126,0.020008,0.21521,-0.086968,-0.118029,-0.693237,0.705641,0.062481298354268,0.0356985053688287,-0.3725378659985959,2.8871754392191766,9.236746418252586,1.5865478914320468,-0.0078465705737471,0.695259153842926,0.4028944373130798,0.1236828964971744,-0.0903083576909201,-0.6410561386887568,-0.7520598846850498,0.0268592834472656,0.1752611696720123,-0.1491851657629013,-0.5307832852363586,0.1994564044177532,-0.0357458516418933,0.0740622580051422,0.1044304594397544,-0.1985452443895861,-0.1819785684347152,-0.0327398587759234,-0.0992951993527822
107,0.017995,0.018881,0.222324,-0.085787,-0.112353,-0.694945,0.705031,-0.0127697574630379,-0.0088502459317445,-0.7610605059839785,3.016744360679388,9.176845784041284,1.689711036525667,-0.136179581284523,0.8210859298706055,0.5575100183486938,0.140113925090254,-0.0856639434606431,-0.6375816819187875,-0.7526747657957368,0.1008813083171844,0.1754728853702545,-0.1337492167949676,-0.2210655941575765,-0.0829623608469963,-0.1357681048939004,0.0911693349480629,0.1412734538316726,-0.1587738635586574,-0.2643450498580932,-0.0296913419424789,-0.0809931887990329
108,0.017052,0.017352,0.225718,-0.087094,-0.107383,-0.696082,0.704524,-0.1916635585844516,-0.0897854848653078,-0.7912094144016504,3.1803754184782504,9.086746410921217,1.86725313077718,-0.1763689517974853,1.0416806936264038,0.7407674193382263,0.1609622135916678,-0.0802663494104975,-0.6311528321742437,-0.7545161196490366,-0.0344181880354881,0.1676765382289886,-0.1204954609274864,-0.4069078992426395,0.0343394919753074,-0.252676537951827,0.1091329157352447,0.1892490088939666,-0.1528319702211301,-0.3388214707374573,-0.046735328958882,-0.0660102761980146
109,0.016549,0.014922,0.229686,-0.08309,-0.107968,-0.696844,0.704164,-0.5380255114495754,-0.1492839680165052,-0.9540217031635344,3.4034356935843824,8.958748392039537,2.08034394666329,-0.2165144830942154,1.1141464710235596,0.99092698097229,0.1876115002541256,-0.0749334488440527,-0.6231508277613802,-0.7555593230197563,-0.2143615931272506,0.0872138142585754,-0.1505439132452011,-0.4689946453213691,-0.244479787492752,-0.0375958634227514,0.135624811053276,0.2027977108955383,-0.1270542443586979,-0.4405884742736816,-0.0173771759099676,-0.0367151601816411
110,0.015998,0.010282,0.234711,-0.078748,-0.115356,-0.695726,0.704597,-0.929846900719404,-0.4386731568157672,-0.1263882455974817,3.7092157529532894,8.790546373063325,2.2668045297771693,0.1194395795464515,1.0163891315460205,1.1921193599700928,0.2177626177876429,-0.0730202388985425,-0.6157054300019299,-0.753760158388461,-0.1486454308032989,0.0868208333849906,-0.1968491524457931,-0.1904758101046085,-0.4466249926030635,-0.1207897314706817,0.1800299435853958,0.2196869999170303,-0.1486321895768866,-0.5200046896934509,-0.0080478178206802,-0.0114237839308916
111,0.01603,0.00588,0.237657,-0.076995,-0.124848,-0.69388,0.704993,-0.9833853064224124,-0.3102671416550874,-0.1268530866302549,4.06547073880136,8.624880010044574,2.2921096514254806,0.4574779868125915,0.7649114727973938,1.3531731367111206,0.2484591007950331,-0.0732422817807565,-0.6146303785919351,-0.745072532231312,0.0680892765522003,0.098154716193676,-0.1987703591585159,-0.2820639604777097,-0.3568821778357028,-0.0910206526834517,0.2019892036914825,0.2171465307474136,-0.0995063578854315,-0.5826235413551331,-0.0032469677232147,-0.0438087146221892
112,0.016424,-0.003672,0.241968,-0.076609,-0.135346,-0.692255,0.704695,-1.2049556352317332,-0.6641255877554416,-0.1842506519794464,4.518530732887983,8.404729192644357,2.261369937507808,0.5012325644493103,0.8769911527633667,1.7922558784484863,0.2807070155481331,-0.0787525999201843,-0.6152237406845491,-0.732462518463919,0.1839506328105926,0.1132095605134964,-0.1452275067567825,-0.1251777007639408,-0.1021118824750185,-0.1408891377020627,0.1875044405460357,0.20200215280056,-0.076002440440189,-0.5911093354225159,-0.0365529051249031,-0.1093813437550328
113,0.017006,-0.008492,0.242442,-0.080883,-0.134008,-0.69338,0.703366,-0.6154267310380935,-0.79980773139894,-0.5143281172588468,5.0801633298963305,8.069350990608335,2.290825456833839,0.5541391372680664,1.3874868154525757,2.170985698699951,0.3239907547421565,-0.0843207883901609,-0.6132621050916159,-0.7154225870039124,0.3284039497375488,0.1534771472215652,-0.0829652622342109,0.0742483085155487,0.202727973434329,-0.2849146737337112,0.1956587582826614,0.206252172589302,-0.1515012330740224,-0.575751006603241,0.004786210792404,-0.0875062787537928
114,0.017616,-0.012405,0.242283,-0.084802,-0.12676,-0.693016,0.704606,-0.8283961125016212,-0.8724374988019465,0.2458528294116258,5.66213962675333,7.625881831687688,2.4405912170179187,0.8346062898635864,1.776325821876526,2.5958118438720703,0.378314044167351,-0.085181069478605,-0.6068843918015452,-0.6937679842410559,0.1068049818277359,0.0817364379763603,0.0069803399965167,-0.3969844711214303,0.6394149248689412,-0.0070938307184726,0.201447308063507,0.2021474689245224,-0.1343786324300337,-0.5652695298194885,0.0552737278959015,-0.1531691662862431
115,0.018515,-0.01569,0.241811,-0.086507,-0.117166,-0.69128,0.707757,-0.4480623319298029,-0.9630120882183312,2.079832051618397,6.262829391908645,7.082291671848297,2.6054703751817345,1.6352745294570925,2.729047536849976,2.955117702484131,0.4444340347078616,-0.0793199580402541,-0.60072150766118,-0.6597880610736655,0.0010521879885345,-0.0594257488846778,0.1383867561817169,-0.4644856434643268,1.045136244675517,0.120133788312599,0.1766910851001739,0.2284535318613052,-0.2886691126300953,-0.5474828481674194,0.0062690600573259,-0.1905759460108354
116,0.01873,-0.018531,0.241453,-0.085998,-0.110603,-0.688351,0.71172,0.1341682319492101,-1.6893138539016246,0.9113122961193324,6.737638860988617,6.515276212757826,2.885442624077201,1.8374054431915283,3.01139497756958,2.7945799827575684,0.5200667959881804,-0.0588253704899677,-0.5911200768205538,-0.6137158558931967,-0.3235293328762054,-0.2546925544738769,0.2958927452564239,-0.6226777250796556,0.7727005287647247,0.0134499217469245,0.0808557868003845,0.2406353056430816,-0.1558088762732222,-0.505435585975647,-0.0077799395443114,-0.2714896489660255
117,0.019027,-0.024765,0.239676,-0.087341,-0.104979,-0.684399,0.716204,0.4119073149651289,-1.0559206735402344,-1.0379194451645015,6.992610231879353,6.043640697538852,3.2784427017375823,1.133721113204956,2.440127372741699,1.98140811920166,0.5822256363977176,-0.0372191665996121,-0.5757262155629487,-0.5728588542506899,-0.3347119688987732,-0.2925419211387634,0.3449332118034363,0.179497319972515,0.6808376531034708,0.1447533023169264,-0.0020397079642862,0.2233435064554214,-0.0538810085956007,-0.38162761926651,-0.0142519177456153,-0.2764250595415942
118,0.019758,-0.028036,0.2396,-0.085949,-0.100879,-0.686292,0.71515,0.0085907182127237,-0.2604389886468649,-0.4742904136419296,7.1159548719972365,5.734332171782851,3.5568247588321564,0.8789718151092529,1.8911617994308472,1.9604958295822144,0.6172654291936363,-0.0269475886606318,-0.5638494782158715,-0.5480246252281072,-0.2289405316114425,-0.325944185256958,0.3139393329620361,0.3303285174310207,-0.0082423431664705,0.0617260595401749,-0.0424460098147392,0.1518660187721252,-0.0558350378733593,-0.3334402441978454,-0.0307788974338793,-0.2393586998856626
119,0.020866,-0.031332,0.239749,-0.085278,-0.097238,-0.689158,0.712975,-0.0620253712803125,0.4752718258947134,-0.0491182511731982,7.316905314365029,5.266322445845604,3.859938813862205,0.7526840567588806,1.599756121635437,2.052098274230957,0.6579581213475211,-0.0214913593995832,-0.550214514018382,-0.5137053629022552,0.0940132811665535,-0.3327621221542358,0.2881612777709961,0.7196095745682716,0.0010989011526107,0.4230459640949964,-0.0383059121668338,0.1612032651901245,-0.2185450261713936,-0.2348964065313339,-0.1340277366331312,-0.2494340854318812
120,0.021762,-0.034787,0.240039,-0.086266,-0.094793,-0.692883,0.709567,-0.5674561885952949,-0.4729921905249357,0.4333119220435619,7.41487293664217,4.748437805148959,4.317682581850886,0.4859461188316345,2.268232822418213,2.298370122909546,0.7002348238356823,-0.0162535658333644,-0.5287676995770891,-0.4793868062421866,0.2765519618988037,-0.3128352761268616,0.3485047817230224,0.3783054896146058,0.7049900975853204,0.4626508292526006,-0.0438580065965652,0.1657900214195251,-0.2033484068876132,-0.189999833703041,-0.0595636390755884,-0.2748157063825056
121,0.022558,-0.03795,0.240174,-0.086952,-0.092334,-0.6959,0.70685,1.6895412329167128,0.6892731807544827,1.6604770509958269,7.348270758965611,4.211507979981601,4.94332967813015,0.7031707763671875,2.4316511154174805,1.7477624416351318,0.7455332655862227,-0.007811757359619,-0.4978948799771189,-0.4429671518776047,0.4321497976779938,-0.3958396017551422,0.3538516759872436,0.0971019453585147,0.1681178478240966,0.9369482571572064,-0.0662272274494171,0.1745786219835281,-0.2872947555369697,-0.1472723633050918,-0.1129722535196226,-0.2288241358624771
122,0.022508,-0.043489,0.23883,-0.092506,-0.09636,-0.697725,0.703802,0.3814472947716713,0.9060460461542008,0.8766910645931959,7.162681551858783,3.9449057925298807,5.413325609448552,0.6903566122055054,1.831119537353516,1.2688645124435425,0.777349533216068,0.0064604678608285,-0.4732393297312876,-0.4144037887482181,0.206485241651535,-0.372976005077362,0.3718003034591675,0.0728957248628139,-0.0287502936661243,0.26055824937867,-0.1059245690703392,0.195543110370636,-0.2552155001112259,-0.1295131146907806,-0.1007826431652531,-0.3256207415988668
123,0.022739,-0.045726,0.238301,-0.095039,-0.098798,-0.697634,0.703216,0.6432043802797794,1.1155509663775562,1.2242132934093477,6.869650791686773,3.749915719871223,5.909011862340569,0.6408853530883789,2.241816759109497,1.1042579412460327,0.8062908712613125,0.0224333616919444,-0.4452201607504195,-0.3888069123059022,0.1635857075452804,-0.3544372022151947,0.3523880839347839,0.0427145216107368,-0.6067196929693222,0.3144377053380012,-0.1532726138830185,0.1751330643892288,-0.1685839857648126,-0.1255512982606887,-0.0919629750348627,-0.2948521486465819
124,0.022339,-0.046844,0.237267,-0.099179,-0.100125,-0.694771,0.705289,1.1825848134696484,1.2572431640908122,0.7061871984153986,6.497714837104081,3.716710784883797,6.335309521707892,0.7861517667770386,1.6928435564041138,0.6330176591873169,0.8294001674435157,0.043011413900963,-0.4184962731087943,-0.367567999227878,0.3025851547718048,-0.2390976697206497,0.3160474300384521,0.5217722957849502,-0.5083189399719238,-0.168277404033672,-0.1869761198759079,0.1844688206911087,-0.2783080602766014,-0.1345814317464828,-0.1747297402445226,-0.2781557009927928
125,0.020946,-0.046847,0.237574,-0.099784,-0.102443,-0.692324,0.707274,1.447341665315628,1.3716326365977525,0.0344108036458492,6.201683726072311,3.7247251645132895,6.620871261173487,0.4681184291839599,1.2567400932312012,0.4639134705066681,0.8448811989138552,0.0587639650402364,-0.3987183267503273,-0.351776046916936,0.1728132963180542,-0.143705204129219,0.2655362784862518,0.4086632184773683,-0.3120201228022575,-0.2967763947074301,-0.1878758519887924,0.1728188395500183,-0.1259435523035936,-0.157208114862442,-0.1017485016558785,-0.20046764555322
126,0.020299,-0.047102,0.236762,-0.100365,-0.10554,-0.690711,0.708313,1.4616449159562588,0.7603478276699781,0.1636053388357162,5.92566430645585,3.778759244778752,6.839435101643204,0.5520175695419312,1.2941758632659912,0.2861360609531402,0.8561645380174742,0.0732708306412814,-0.3819911630818257,-0.3401419626188598,0.2941764891147613,-0.1303053498268127,0.299617052078247,-0.0243956055879592,-0.0394499668568372,-0.0235901344239711,-0.1718997508287429,0.1309566050767898,-0.1349583046146668,-0.1511256098747253,-0.0804945550945121,-0.1543510056151077
127,0.01938,-0.047064,0.23738,-0.095123,-0.108242,-0.688258,0.71101,1.5498194584935905,0.5145747854962944,-0.8579641522914171,5.592533006563782,3.866664614985883,7.067026882699132,0.3527120947837829,0.7826434373855591,0.0858987495303154,0.8663242939911423,0.0886964666095501,-0.3630631376767813,-0.3313614502142371,0.108827918767929,-0.1211069598793983,0.2656350135803222,0.1854126814961433,-0.1709609622955322,-0.2730009485781192,-0.1444141864776611,0.1103118807077407,-0.1319614791525527,-0.1157943159341812,-0.1425807805834338,-0.0853759978599846
128,0.019469,-0.047251,0.238178,-0.093089,-0.10602,-0.688689,0.711197,0.8891273523181676,-0.1343266373813152,-1.9086217907369136,5.508778034034371,3.88544208843112,7.122295180934668,-0.1555867195129394,0.1155564412474632,-0.0207924582064151,0.8685717017313157,0.0920552204657402,-0.3583152675918052,-0.3297259770338429,-0.1157617792487144,-0.1841680109500885,0.2385474443435669,0.0753600691497325,0.311036372461915,0.179447032823693,-0.1052138730883598,0.1033605635166168,-0.1435336243288591,-0.0884850844740867,-0.1259900948590599,-0.1231270061786752
129,0.020029,-0.047876,0.239258,-0.090067,-0.102843,-0.69116,0.709654,0.7942600341439247,-0.21800036136806,-0.3080775226563215,5.416148850175738,3.848806886734068,7.212655250817537,-0.1627136021852493,0.427956610918045,-0.2014775425195694,0.8701322486661053,0.0909343966070961,-0.3521190910135259,-0.332585154191946,0.1136967092752456,-0.1190523281693458,0.2562910318374634,0.4004997857660055,-0.0679705434203147,0.0610895517349243,-0.0785196051001548,0.0984903499484062,-0.1267426028599496,-0.0516344979405403,-0.0348744596518226,-0.0445003364484291
130,0.021138,-0.050409,0.239753,-0.089011,-0.101695,-0.695297,0.705901,-0.4637134900480508,-0.6214920224264264,0.199234870621562,5.276806430459022,3.851269769716263,7.31391957655251,-0.0022691804915666,0.1207100078463554,-0.0259345173835754,0.8726602575634858,0.0934469814129757,-0.3440371390996169,-0.333721669090621,-0.0275477655231952,-0.1525745540857315,0.1821867823600769,0.4053641769319772,0.2627987035155296,0.4229506870269775,-0.0540665574371814,0.0773621276021003,-0.0931487324870191,-0.0781444609165191,0.0605915893172612,-0.1634706430727615
131,0.022482,-0.052653,0.23991,-0.089762,-0.101495,-0.699061,0.702107,0.4146756106346845,0.1047960069924592,0.4596142380356788,5.232946830466389,3.8544650586262335,7.343686938306689,-0.1349238902330398,0.1393120139837265,-0.2173351049423217,0.8728411894256164,0.093793538191585,-0.3417293186441918,-0.3355175086551508,0.2057669758796692,-0.1981533169746399,0.0882863774895668,0.2267413017064332,-0.7249842533439398,0.3064075436174869,-0.0415939390659332,0.047580100595951,-0.0154758586335577,-0.0988794043660163,0.1716723071689717,-0.0801555871974211
132,0.025617,-0.057072,0.241292,-0.08637,-0.09979,-0.709623,0.692111,0.1761228751033544,-0.3298670373991131,0.4477063580989837,5.186589568439126,3.886004690749943,7.359934893274307,-0.0067360205575823,-0.07481000572443,-0.2831148207187652,0.8712477959566657,0.0942422154520232,-0.3403911832263898,-0.3408513107309273,0.081736110150814,-0.1978797167539596,0.0524338409304618,0.2397819850653409,0.014998247167468,-0.0172556707054376,-0.0200134757906198,0.0592938363552093,-0.1628895004502497,-0.0887408033013343,0.0531318067966494,-0.1259349762714933
133,0.027524,-0.058443,0.242952,-0.082489,-0.095781,-0.714422,0.688203,0.3561398350358009,-0.342569867105782,0.5230459689825773,5.151870137235522,3.962154156711698,7.34370213587582,0.1586823314428329,0.0448170565068721,-0.2576227188110351,0.8692602718453559,0.0972775121541873,-0.3407528119282719,-0.3446902213200077,-0.0045508365146815,-0.1463023275136947,0.0689087584614753,-0.0430640657007694,-0.0253390239179134,-0.371648954334855,-0.0130449067801237,0.0590386651456356,-0.208263085202407,-0.0799511075019836,0.0901335493843071,-0.1637901756170205
134,0.029384,-0.059347,0.244598,-0.078464,-0.092751,-0.718524,0.684809,0.8313426873475313,-0.0213137139245867,-0.2031225257098674,5.075601721069217,4.066467056362331,7.339788761824369,0.0871974825859069,0.2043839544057846,-0.380589097738266,0.8675011372438366,0.1024852130619208,-0.3395168806553174,-0.3488076233120418,0.1320674568414688,-0.0726911202073097,0.0857001841068267,0.0570066663354635,-0.3489560610115528,-0.1034843398720025,0.004868347197771,0.0623792707920074,-0.1668773645100183,-0.0576002709567546,0.0867027712180279,-0.1779842485284432
135,0.029946,-0.05972,0.246781,-0.074596,-0.089594,-0.72194,0.682063,0.751919898803532,-0.0690229750826954,-0.0570773934841156,4.891961017681658,4.167896217270195,7.407276490163802,0.0209668651223182,0.4939972162246704,-0.4842695295810699,0.8667144830860146,0.1087870208272118,-0.3324144757046781,-0.3556291423819227,0.1643327176570892,-0.0146307945251464,0.1295413970947265,0.025649405041337,-0.0926069720268249,0.0445803154826164,0.0290207676589489,0.0511566959321498,-0.1789450381183065,-0.0414866954088211,0.0890358172754757,-0.2072723936646245
136,0.031171,-0.060412,0.248624,-0.06932,-0.087151,-0.725607,0.679039,-0.168089206251502,-0.1111208260998129,-0.3203916453063488,4.679363684400916,4.255483899830281,7.494317644757032,0.0011048470623791,0.4107707738876343,-0.3207367360591888,0.8668345909006917,0.1154319396602502,-0.3233753212297515,-0.3615269861980578,0.1227416023612022,0.0560865178704261,0.1769014000892639,0.240350724864006,0.0055085342884063,-0.3685165015280247,0.0234400629997253,0.0524651706218719,-0.180567506487295,-0.0378922559320926,0.0318807257625157,-0.3144956095376983
137,0.032941,-0.061458,0.249728,-0.066009,-0.086591,-0.729626,0.675123,-0.0061155602708458,0.0312035320371389,-0.399672687292099,4.555996247929334,4.290330172283947,7.550254636034369,-0.1106907278299331,0.1483057737350464,-0.2608943283557892,0.8664934049795731,0.1180436930753095,-0.3179777315829306,-0.3662579708629826,0.130814179778099,0.074961245059967,0.2209119945764541,0.0710503892570734,0.249194541054964,0.3079986122012138,0.0104181617498397,0.0380976758897304,-0.1581742719640023,-0.0210415069013834,0.0829461129650939,-0.2163157327493652
138,0.036388,-0.063951,0.247409,-0.06314,-0.08686,-0.735054,0.669451,-0.0239238964229822,0.0635375294089317,-0.2791676545143127,4.482226662841439,4.276401600174606,7.602132122787832,-0.2140924036502838,0.1177384927868843,-0.1775601655244827,0.8661705978604397,0.1173517255426574,-0.3140504691782538,-0.3706066442953892,0.3092869818210602,0.1334362179040908,0.2573783993721008,0.1913262894541025,-0.1105664070874452,-0.0612345131635665,0.0068895095027983,0.0278603937476873,-0.1482164575160015,0.0005546817556023,0.0728347199571551,-0.1460686409655027
139,0.037216,-0.064105,0.247523,-0.061984,-0.087276,-0.735791,0.668694,0.0688701226085424,0.0337561391294002,-0.1959820063054561,4.416367120225727,4.234656508117914,7.663796259540319,-0.2328019738197326,0.1191014051437377,-0.1368983685970306,0.8662881833950721,0.1152958595767336,-0.3097773347722704,-0.3745527768476625,0.2160017788410186,0.1697700917720794,0.2161848992109298,0.2973608983308076,-0.0273322435617446,0.0865951643913984,0.0170950014144182,0.0443316511809825,-0.1914003776036202,-0.0044541954994201,0.0509898902639746,-0.0987007953898981
140,0.038087,-0.064384,0.247637,-0.060985,-0.087135,-0.736554,0.667964,0.0014236030623316,0.1307709907263517,-0.1058189202994108,4.351085669758915,4.184328588894009,7.728508093425631,-0.2351884990930557,0.1940847188234329,-0.1138531044125557,0.8669420517209144,0.113219746376884,-0.3051836268644051,-0.3774331887680727,0.2631080448627472,0.1771262288093567,0.1770738512277603,0.2765408131420612,0.0711743078976869,-0.0461129318773746,0.0452429763972759,0.0586218386888504,-0.1799840623098425,-0.0402432456612587,0.0431478441272396,-0.0570571955128805
141,0.038721,-0.064325,0.248678,-0.057023,-0.084549,-0.737408,0.667704,0.3011892244473099,0.0683121964648365,-0.0119984808295965,4.261859572342038,4.145482725410163,7.79884010528028,-0.2088365703821182,0.1875133663415908,-0.1856009364128112,0.8672787149583644,0.1118890660303125,-0.2997509891803824,-0.3813892098542402,0.3865402340888977,0.1707729995250702,0.1504470258951187,0.1102823294490575,-0.2304009932577609,0.3996843046646565,0.0836176648736,0.0635111108422279,-0.1403965501458384,-0.0609772764146328,0.0144414466850575,-0.0380775026099872
142,0.039241,-0.0644,0.249799,-0.053534,-0.082594,-0.738481,0.667052,-0.302089972679317,0.07241817047894,-0.022980478093028,4.192667962694168,4.096934383079409,7.86174635104835,-0.208510547876358,0.1128179058432579,-0.0513993129134178,0.867933928685464,0.110111215432702,-0.2950220562768442,-0.384094199256059,0.0840290933847427,0.1902191787958145,0.1777807027101516,0.0573199700683355,0.3413736430585384,-0.4189023614842444,0.1162682622671127,0.0471503511071205,-0.1135280607714783,-0.0573922619223594,-0.0174408876542991,-0.0360305046690162
143,0.042857,-0.068617,0.250839,-0.048913,-0.091977,-0.745053,0.65882,0.0257318226277828,0.0293956058323383,0.2069359465181827,4.1831247660622,4.055710976809263,7.888159141677618,-0.1079240068793296,-0.0655584707856178,-0.0693919137120246,0.8678728700700442,0.1076721223129394,-0.2936367088624346,-0.3859803607142505,0.0834780856966972,0.1521556377410888,0.1747218072414398,-0.0960989057958126,-0.1180360123157501,0.3719587509363889,0.1140785440802574,0.0367932692170143,-0.0571576510795159,-0.0464089848101139,-0.0186660398268606,-0.0781434162579476
144,0.043405,-0.069915,0.250792,-0.049,-0.090491,-0.746475,0.657408,-0.0254649883851408,0.1132563768237829,0.2253548157840967,4.183594429400563,4.062231318488717,7.884554395183921,0.0463216863572597,-0.0512639805674552,-0.0238003209233284,0.8670469264130909,0.1074321738468627,-0.2940373083558571,-0.387595113385642,-0.0211670976132154,0.1461457312107086,0.2224112302064895,0.0793207894742488,0.2871113069951534,-0.2325660623371601,0.0873550474643707,0.0471851639449596,-0.1396735422340687,-0.0301285684108734,-0.1103088612629566,-0.0639702400040812
145,0.043611,-0.070309,0.250253,-0.051534,-0.094838,-0.745544,0.657658,0.0294034968778491,0.2217886477351188,-0.3065782240092754,4.202198299844563,4.063982253809273,7.873751261618733,-0.0583811402320861,-0.0720125064253807,-0.0225406866520643,0.8666339423536175,0.1070302453268431,-0.2951184894464078,-0.3878082291407254,-0.0806586593389511,0.0962241366505622,0.1431096792221069,0.1047030680119991,-0.1334475164592266,0.2247264547526836,0.0765269324183464,0.0153356082737445,-0.0807176689264364,-0.0289784763008356,-0.0663672044434817,-0.0190005918437382
146,0.042969,-0.070028,0.250396,-0.050848,-0.096478,-0.742163,0.661288,-0.0464051928222179,0.0383510657042264,-0.0008610007435083,4.190917904156446,4.051543920257688,7.886164168468118,-0.0202747099101543,0.0733811855316162,0.0250221882015466,0.8667172952996136,0.1064632511519167,-0.2942500860953166,-0.3884373098817563,-0.0187034085392951,0.1053822636604309,0.1142442747950553,-0.0729103379100561,-0.023556816676259,0.1528021322052925,0.057639081031084,0.0616831853985786,-0.1047252433111891,-0.0178664270788431,-0.110953296646336,-0.0846843714671675
147,0.042271,-0.070438,0.251873,-0.042518,-0.09513,-0.739382,0.665175,0.1619300990998745,0.1671893348023295,-0.1907213092982768,4.191177724136412,4.0370287804320455,7.893466600435972,-0.0854389145970344,-0.0482688322663307,0.0207576360553503,0.8671150205225098,0.1058902654123979,-0.2938238527962919,-0.3880288893612645,0.0627477765083313,0.0842971727252006,0.0967786014080047,-0.1877308953106403,-0.0960895534455776,0.158337043043971,0.0349535904824733,0.0458434969186782,-0.1126211750596296,-0.0133608393371105,-0.1104362870349083,-0.0626009335454087
148,0.040421,-0.072965,0.254282,-0.032164,-0.086241,-0.733654,0.673261,0.1586103070273995,0.0645966830730438,0.1932049428075551,4.200183452890813,4.021407725191116,7.896652829256653,-0.009777613915503,-0.0002363512903684,0.0011882818071171,0.8670344039906352,0.1047980680048957,-0.2939389816883779,-0.388418024451879,0.1527479737997055,0.0989168584346771,0.063736692070961,-0.0444879610240459,-0.0068342299342155,-0.2831676839359104,0.0130496174097061,0.0414127744734287,-0.1118140051288995,-0.0139175970107316,-0.1136759356764145,-0.078848979844572
149,0.039367,-0.074619,0.255056,-0.033305,-0.083225,-0.728462,0.679197,0.1405433199390769,-0.0007499415844678,-0.145315648907423,4.200293927527964,4.021213079401851,7.8966931612670415,-0.0683432668447494,0.0534825809299945,-0.0189756881445646,0.8669955414740647,0.1047557576544763,-0.2939505398051031,-0.3885076589358603,0.1316408216953277,0.0987148880958557,0.2267565131187439,-0.1405313372403383,-0.4745984566777944,0.6432065722368657,0.017768083140254,0.0283160991966724,-0.1126211750596296,-0.0336625166237354,-0.1104362870349083,-0.0626009335454087
150,0.036598,-0.076223,0.256567,-0.034293,-0.082887,-0.722082,0.685967,-0.3402791258201003,-0.2620294727087021,-0.4576917455404997,4.254350219625234,3.9999768146276473,7.878519791194796,-0.074437603354454,-0.288155734539032,0.0455518141388893,0.866071358232026,0.1022170858623491,-0.2964101017553591,-0.3893752850987421,0.1650144904851913,0.0618800148367881,0.1021132469177246,-0.0246264917343854,-0.167501761752367,0.1210794716648757,0.0021871789358556,0.005629273597151,-0.0676589658536482,-0.062330063432455,-0.0401849939999636,-0.0066381707892869
151,0.034633,-0.078453,0.258027,-0.033541,-0.083563,-0.716094,0.692171,0.0171492877215147,0.0113946697175502,-0.2645394097030162,4.290468411710858,3.9534032795011993,7.882440179508924,-0.1510159969329834,-0.0057292678393423,0.0524853654205799,0.8663295600120201,0.099253903157743,-0.2970791927942,-0.3890574926937614,0.10889583081007,-0.0052108741365373,0.0490765944123268,-0.1524251886516809,-0.4150888676106929,0.4441220698714256,0.0311616696417331,-0.0156881101429462,-0.1221033896188251,-0.0117068765684962,-0.0629364262772025,-0.0048065149365604
152,0.0332,-0.081129,0.258759,-0.035048,-0.084419,-0.710325,0.697914,0.2873237807020545,0.0680535455286502,-0.6407517264306545,4.30640101711899,3.8840252073705193,7.908201228231191,-0.2820088267326355,-0.223030537366867,-0.0236175842583179,0.8665628989448486,0.0951343256890778,-0.296215152217519,-0.3902241333036459,0.0761741027235984,-0.1088353246450424,-0.0024935896508395,-0.4223568127870559,-0.7517553558915853,0.1555324339520186,0.0329137258231639,-0.0261281840503215,-0.0818165609458927,-0.0455147214233875,-0.0687611184092704,-0.1314717502736952
153,0.030305,-0.08706,0.26219,-0.03304,-0.082208,-0.70248,0.706168,0.4291545101031661,-0.0005772153660655,-0.3858732945203781,4.37451184579283,3.7985295286536216,7.912345488429069,-0.3543850779533386,-0.2355745434761047,-0.1124048009514808,0.864779288062362,0.0880103342938728,-0.2980550801656893,-0.3944290617903983,0.3401695489883423,-0.129699632525444,0.034099243581295,-0.4315414052397012,-0.3768196349710226,-0.2525450935918837,0.0426148138940334,-0.0247942022979259,-0.0995344149361364,-0.0266933646053075,-0.0437505181615473,-0.0470236169815063
154,0.030113,-0.090783,0.265003,-0.027392,-0.07716,-0.702103,0.707352,-0.2496130587279796,-0.5164394103243947,0.0911135185986757,4.431085965929925,3.703570732803642,7.925870740434527,-0.2575880289077759,-0.0104424422606825,0.0975842475891113,0.8639467145429632,0.0812079572800974,-0.2988282520154377,-0.3971184234506073,0.6003177762031555,-0.0922054797410965,0.2145890593528747,-0.4454366596013307,0.1481657776415348,-0.1142079784601926,0.0431054905056953,-0.0306630823761224,-0.0732331127241719,0.0144108785316348,0.0403688124345382,-0.0229764663549023
155,0.030109,-0.095193,0.268062,-0.022795,-0.069563,-0.70423,0.706188,-0.4346890556156635,-0.3017921587765216,0.1145464166343212,4.476999283581972,3.621352760583162,7.938051592093705,-0.0444919243454933,-0.155241459608078,0.2777314484119415,0.8655988702286368,0.0771718947181265,-0.2988586642287232,-0.3942923997311855,0.4294197857379913,-0.1304362267255783,0.2976788878440857,-0.1730021127343177,0.1028454574465751,-0.0677493018850684,0.0485834777355194,-0.0587404184043407,-0.0994502620503306,-0.0050691119395196,0.0777601342950947,-0.037378916753421
156,0.030751,-0.100303,0.270608,-0.021654,-0.066223,-0.708214,0.702551,0.1208697744369506,-0.1311193657726049,-0.0442997449755668,4.584783658735454,3.5627585327953097,7.902967419230937,-0.0746645778417587,-0.2646755278110504,0.1840206235647201,0.8661302150783489,0.0730611514695948,-0.3028578128991008,-0.3908423553016176,0.4805572926998138,-0.2641816735267639,0.3477086424827575,-0.2849748794883489,0.1591916140466928,0.2911566368632018,0.0481563620269298,-0.0544592663645744,-0.1501704867937602,-0.0497418045997619,0.0563077471187571,-0.1090022813095711
157,0.031462,-0.105182,0.272977,-0.018648,-0.06488,-0.711992,0.698936,-0.0398231840834021,-0.0491717349261045,0.1469534792423248,4.689961650782824,3.514628708137572,7.862698537206649,-0.0229184757918119,-0.2589980959892273,0.1504574418067932,0.865812949213473,0.0689907261479209,-0.307171343802479,-0.3889136732141094,0.5772976875305176,-0.2416562736034393,0.3302992284297943,-0.0580950460940599,-0.0569166499644517,-0.2721129136972129,0.0441370382905006,-0.0588276721537113,-0.1305185412020888,-0.0692498534917831,0.070954966058582,-0.0940124001116491
158,0.030985,-0.115181,0.277342,-0.015179,-0.064298,-0.71698,0.693956,-0.2121414062067866,-0.004084346704185,-0.0374888959169387,4.806315409100056,3.494231816796958,7.801286329388618,0.0675085037946701,-0.3450711965560913,0.1620829254388809,0.8652298083417307,0.0662898168104127,-0.312811066248098,-0.3861766107263329,0.7134912014007568,-0.1789099127054214,0.3412798643112182,0.1723328351706266,-0.0674386285007,-0.4635913249731063,0.0412513464689254,-0.0557918325066566,-0.0830070493720937,-0.0620999559760093,0.0822351151515264,-0.0939012496210634
159,0.031109,-0.119068,0.279453,-0.011946,-0.062987,-0.718255,0.692821,-0.3620879297852516,0.0568555674269795,-0.210115161076188,4.9456373705506325,3.476387532548606,7.721773232212662,0.0316490232944488,-0.3910518586635589,0.1819059252738952,0.8640596689861603,0.0631525337989152,-0.3198607276120628,-0.3835384291920076,0.9620575904846193,-0.1236048936843872,0.3263356387615204,0.0624199235558509,-0.1460334417879581,-0.4574044530317187,0.052070565521717,-0.0205257777124643,-0.1783697224483825,-0.028424123302102,0.0366685468442272,-0.0895532744114752
160,0.031328,-0.12287,0.281976,-0.006562,-0.05958,-0.717867,0.693595,-0.1613414855569601,0.2849389313921332,-0.6194505797266959,5.084568286857008,3.425325453831255,7.654063970077037,-0.1744743883609771,-0.3916938304901123,0.1759033203125,0.8630888227827286,0.0583044132765206,-0.326116459248375,-0.3812168846704969,1.2293957471847534,-0.1108693927526474,0.2824059128761291,0.2332628124296665,-0.2439759296238422,0.0186817579858005,0.0445878058671951,-0.0082243913784623,-0.1490236274467315,-0.016926635056734,0.0760743685986613,-0.1298206037994939
161,0.030835,-0.126229,0.284688,-0.000182,-0.054785,-0.71533,0.696636,-0.4579004198551177,0.1623150067642331,-0.5869283663064241,5.250941921362281,3.3007480570480228,7.596253001621365,-0.3103770315647125,-0.4642123579978943,0.2407058328390121,0.8620929428594041,0.0489739176578948,-0.3321151131234986,-0.3796010558791568,1.399370193481445,-0.0471361652016639,0.2393942028284073,0.2150117009460926,-0.2507195586651563,-0.3713689683496952,0.0410379283130168,0.0074105006642639,-0.1117018043255433,-0.0153943449258804,0.0483382797766476,-0.065989374973881
162,0.030256,-0.12958,0.287201,0.004894,-0.049589,-0.712393,0.700009,-0.5008832370132208,-0.2009317376673221,0.0172141696512699,5.395529255995154,3.150139270168543,7.558788071101904,-0.269086629152298,-0.2422366738319397,0.2995892763137817,0.8619108154943648,0.0390641170101067,-0.3362782590082202,-0.3774928054172857,1.1247886419296265,0.0101926364004611,0.2367580682039261,0.3644382923036813,0.2046644944548606,-0.3603966156974434,0.0486967489123344,-0.0068932492285966,-0.053581157999346,-0.0110316853970289,0.0550160313743632,-0.0079865840153361
163,0.030484,-0.134199,0.287772,0.002685,-0.051288,-0.71078,0.701537,-0.1325385849207639,0.0182660167917609,0.2109241393715143,5.495400666067004,3.0350892879262563,7.533869318422675,-0.1242426708340644,-0.1808062046766281,0.3086406290531158,0.862953935453763,0.0327057506185187,-0.3388360952814809,-0.3734045131426141,0.4176203906536102,0.0611429549753665,0.2636867463588714,0.2233320777848362,0.7451765620231628,-0.5236614705324173,0.0590407960116863,0.007713851518929,-0.0555071393595542,-0.0066566155292093,0.0789926078326534,0.0322946722916909
164,0.030745,-0.135133,0.287979,-0.001627,-0.05513,-0.711966,0.700045,0.6342635334551334,0.2271209486737847,-0.0857505302608013,5.567167679160833,2.895665911927819,7.5360565993338815,-0.3692766726016998,-0.1747323423624038,0.181620106101036,0.86412015984917,0.0252342707369724,-0.3393100123767394,-0.3708479634243505,-0.2544096708297729,0.0785639211535453,0.2243673205375671,0.3374377649143338,0.5985404781669378,0.1722293747961521,0.0698134824633598,-0.0145271476358175,-0.0210543643020791,-0.013673011213541,0.0640905464820796,0.0200434108609799
165,0.030289,-0.13488,0.287969,-0.004743,-0.058253,-0.712724,0.699005,0.503639257723093,0.0567436314851045,-0.154258249297738,5.664422184732556,2.7676658472195266,7.511639366436004,-0.3316321671009063,-0.3275347054004669,0.1311213821172714,0.8632910372103614,0.0165854438365525,-0.3416692806315483,-0.3711004302058796,0.1640357822179794,0.0088578071445226,0.2370548844337463,0.0853267518907785,-0.3293541194409132,0.6094044020086526,0.0571370832622051,-0.0097880363464355,-0.0205868952040909,-0.0117313703522086,0.0378446231525856,0.0083656441775092
166,0.029799,-0.135243,0.288308,-0.007217,-0.059586,-0.712456,0.699145,0.3783879072010517,0.0980231518566608,-0.4024368913084268,5.780695863550901,2.6027859584033486,7.481941562786698,-0.4947953522205353,-0.3678257763385772,0.1539520919322967,0.8623155577028131,0.0056618725577501,-0.3442311488771558,-0.3713284796270726,0.1089746579527854,0.0159696191549301,0.2451760619878769,0.1471902106076479,0.4789999065071344,0.2175251450717449,0.0378270670771598,-0.0107654500752687,-0.0094822179841285,-0.011640416458249,0.0474998561911284,0.0577944237462477
167,0.029316,-0.135965,0.288801,-0.009652,-0.060679,-0.711574,0.699919,0.4026701155424118,0.0163647132150828,-0.1491097804933786,5.901262855648994,2.4252720673330126,7.447384628668427,-0.4880163967609405,-0.2758843004703522,0.1128373369574546,0.8607759073592571,-0.0064193704598288,-0.3467677159946024,-0.3725263241450733,-0.0091096349060535,0.03195396438241,0.2427167743444442,0.1541214711755514,0.0345914209097623,0.2759448930755257,0.0282530970871448,-0.0152749018743634,0.0095183926967409,-0.037598680704832,0.056638088751398,0.0851397596850059
168,0.029077,-0.13624,0.288481,-0.011068,-0.06184,-0.711204,0.700173,0.1293342359215021,0.041190380783379,0.0600935264348983,5.961663840597868,2.2609840069301423,7.450965994286537,-0.4595373868942261,-0.1018992587924003,0.0973977670073509,0.8602331622927704,-0.0165039689527503,-0.3461705924169065,-0.3740218543894338,0.0811070725321769,0.0666441991925239,0.2513084411621094,0.4001850207284093,-0.1154635314792394,-0.0528621138766408,0.0292570702731609,-0.0094230072572827,-0.0526661437799688,-0.0551506094634532,0.0256550264979479,0.1051622647552751
169,0.030223,-0.136568,0.289774,-0.012833,-0.059094,-0.712855,0.698699,0.1214133797943592,0.2115291195273399,0.7803525048226118,5.938909572476148,2.099324249204248,7.516154213511943,-0.410992830991745,0.3974691331386566,0.1605905145406723,0.8617429269666143,-0.0241268083645005,-0.3408822212464761,-0.3749883272374847,-0.070885919034481,0.0983762368559837,0.1701850295066833,0.4980553201109171,0.0039975452035665,0.057824412459135,0.0332477912306785,-0.0083328913897275,0.0283631803449476,-0.0769446864724159,0.0745249563327292,0.1163776871820911
170,0.030587,-0.135575,0.289926,-0.011928,-0.059928,-0.713056,0.698439,0.0917342808455228,0.263970231512934,0.6253858149945736,5.83765576813519,1.965779555980861,7.630718750324845,-0.2143127918243408,0.2350117862224578,0.1548609584569931,0.865398746295433,-0.0277671052685188,-0.3319195781502283,-0.3743571987294831,-0.2317626923322677,0.0676190182566642,0.1355144828557968,0.2891214777737855,0.1265028118878602,0.1222393092244863,0.0605172514915466,-0.0315648689866066,-0.0217337614009855,-0.1152965128421783,0.0180780005310371,0.0291839609592105
171,0.030729,-0.1356,0.290305,-0.011824,-0.061603,-0.712847,0.698509,0.2779693846404552,0.0900270385362207,0.4357587306737899,5.826645713821053,1.8958136009596287,7.6567925182580945,-0.0151921715587377,0.0165117811411619,0.1448526680469513,0.8670174298498863,-0.0301221472192167,-0.3297042301730217,-0.372382303471384,-0.1897270828485489,0.0406398624181747,0.2134990841150283,-0.1911564858451485,-0.0239496153861284,0.1518219620615243,0.0697969496250152,-0.0252940822392702,0.0678428345205728,-0.1328874230384826,0.071939903709013,0.0059604844443878
172,0.030581,-0.13573,0.290575,-0.012245,-0.063631,-0.712437,0.698738,0.8197551254063844,0.1451896844401955,0.0464104535192251,5.832383965212107,1.8829982507891951,7.655586065077781,0.000154017470777,-0.0001993089972529,-0.0020360939670354,0.8675151961265082,-0.0304137449279623,-0.3297707400667835,-0.371138370590969,-0.5273522734642029,-0.0886477157473564,0.3248568475246429,-0.5883303420588374,0.5021703542143107,0.0407698172837495,0.0664818510413169,-0.037671934813261,-0.0920978169282898,-0.0889548808336258,0.0456127820692025,0.0822899871439207
173,0.031879,-0.136022,0.288144,-0.012673,-0.064973,-0.712132,0.698917,0.4914274264037608,0.0916997940540313,-0.0341664734959602,5.819837787371873,1.8709470168590543,7.668078466904163,-0.0772556886076927,0.0298297367990016,-0.0395032949745655,0.8675842324830213,-0.0309481980424179,-0.3287537227186944,-0.371834334729873,-0.0718880668282508,-0.1968168467283249,0.4945206046104431,-1.016905298708379,-0.2679822436332702,0.2568938633859157,0.061390932649374,-0.0184653550386428,-0.0579367685261182,-0.0826251804828643,0.0250771626779111,-0.0586804812991991
174,0.030918,-0.135777,0.288982,-0.010808,-0.067039,-0.711064,0.699841,0.2838140190154314,-0.0978863737344741,0.1680868681639432,5.824392966458201,1.8706430654764168,7.664693500640988,-0.0215299949049949,-0.0363161601126194,-0.063620314002037,0.8668920392877182,-0.0316002951854764,-0.3289541266556169,-0.373214042230256,1.4598065614700315,-0.301319271326065,0.7473878860473633,-0.7381798350036144,-0.5930237605720758,1.0766086567819118,0.0432291701436042,-0.014799372293055,-0.1247885644490365,-0.0824417769908905,-0.0183474833884916,-0.0815666961043607
175,0.030309,-0.135555,0.288775,-0.011384,-0.066149,-0.709998,0.700998,0.0840729524374008,-0.0218878605507314,-0.010703180322051,5.834392966946959,1.8848757350988683,7.65359284543395,0.0154573507606983,-0.0404740050435066,-0.024231968447566,0.8662553610688473,-0.0314366106772624,-0.3298289061745161,-0.3739334232573368,1.2809457778930664,-0.3411288857460022,0.8441769480705261,-0.5207201563835143,0.1578553970068693,0.1743804153501987,0.0246485583484172,-0.0014687704388052,-0.1728236326285638,-0.0673238709568977,-0.0843888134535402,-0.0764298812051769
176,0.029804,-0.135216,0.289335,-0.0142,-0.060534,-0.710035,0.701416,0.0651660073935985,0.1097860703647136,-0.1764087063074111,5.849558971896768,1.8777007289029657,7.643774046730995,-0.0764672607183456,-0.021203476935625,0.0034904989879578,0.8658999980749369,-0.0322252828896814,-0.3305109714210558,-0.3740873239708135,1.4000349044799805,-0.2277054190635681,0.7887967824935913,0.2741080330371856,-0.0911596958279609,-0.1286418697431683,0.0255067329853773,0.0381585769355297,-0.2332380067819729,-0.0464560091495513,-0.1305998171442188,-0.0927960374586749
177,0.0294,-0.134493,0.290979,-0.009098,-0.059921,-0.708971,0.702628,-0.0155336692184209,0.1201569499924778,-0.02627776607275,5.848407463774085,1.8439862369582056,7.652857516896723,-0.0752397626638412,0.0376848578453063,0.0341567061841487,0.8660466879573103,-0.0339339025889982,-0.3296382267875897,-0.3743664114672084,2.3230786323547363,0.3663662075996399,0.6222376823425293,1.1496315151557326,-0.9119067548811436,-1.2607470805585383,0.0190637893974781,0.0276788473129272,-0.1723561612472869,-0.0590120553970336,-0.1106347322164569,-0.0881076513135805
178,0.028943,-0.135102,0.290262,-0.008533,-0.062313,-0.70855,0.702852,-0.0840524941712617,0.2110055340446531,0.0437654919683933,5.841060023620725,1.8129926944099368,7.66586312894225,-0.0618499293923378,0.0377066768705844,0.0593081526458263,0.8666014686341513,-0.035096695134991,-0.3285087240594924,-0.3739679984800788,1.7609885931015017,0.4326981902122497,0.2936253547668457,0.915702932293713,-0.3346738531589507,-1.1427438014686109,0.0200425926595926,0.0112132746726274,-0.0634673000172013,-0.0281503498554229,-0.0651318813617108,-0.0917709595941007
179,0.028515,-0.136023,0.288486,-0.014073,-0.071156,-0.70821,0.702266,0.0412345121860504,0.1483664147801697,0.2485369539290666,5.840420556673407,1.7994661272302268,7.669536849018931,0.0240612253546714,-0.0054539707489311,0.034039594233036,0.8669773777680954,-0.0355000423048511,-0.3281801418905554,-0.3733467042456576,0.2484004646539688,0.3057456612586975,0.0359669849276542,0.9037845309630036,0.6132856273561715,-0.6317997736901044,0.0210417322814464,-0.0073574800044298,-0.0705560618349118,-0.0155937252566218,-0.0678545203917892,-0.0859355588383506
180,0.028778,-0.135503,0.289042,-0.015221,-0.072265,-0.708528,0.701807,0.0965805518329143,0.069357613864541,0.1619827060699462,5.844031732907891,1.8103899645656347,7.664213023647665,0.0695105716586113,-0.0331551134586334,0.0377651490271091,0.8671886024299212,-0.0347380683563315,-0.3286748232778868,-0.3724917461944274,-1.5968348979949951,0.1649525016546249,-0.1386610716581344,0.0867690596535801,1.1428209583580493,-0.6476689584732055,0.034132145345211,-0.0461838580667972,-0.012379317390325,-0.0023613269440829,0.0198303343658801,-0.0215029711526818
181,0.028458,-0.135469,0.289497,-0.015151,-0.072895,-0.708187,0.702088,0.13883096306324,-0.029739304703474,-0.0558060583740472,5.865078028067946,1.829879531802982,7.643479447698593,0.0820542722940445,-0.0582357868552207,0.0392563715577125,0.8671091296465339,-0.0338528998593417,-0.330370969380637,-0.3712555340435576,-1.7744696140289309,-0.053827729076147,-0.1720437407493591,-0.0654191053718328,0.3265150966227054,0.6029764147877693,0.0547444708645343,-0.0689550265669822,-0.0405504937109537,0.0188275873661041,0.0406946879546157,0.0011609358214423
182,0.028057,-0.135383,0.289961,-0.015099,-0.072958,-0.707813,0.70246,0.3246276754409075,0.0790013482615351,-0.2893623007923364,5.872464046666026,1.8424949754871427,7.634772994151711,0.0198958553373813,0.0345060974359512,-0.0088321361690759,0.8671511042396243,-0.0331608567780991,-0.3311121709205365,-0.3705589352105982,-0.8144383430480957,-0.2076881825923919,-0.0140658896416425,-0.3008274053975939,-0.4105675907939672,0.936359643614292,0.071769431233406,-0.0759530961513519,-0.0210543643020791,0.0350725911557674,0.0640905464820796,0.0200434108609799
183,0.028005,-0.135226,0.290012,-0.015147,-0.072865,-0.707624,0.702659,0.3221960643798112,-0.0809374308906495,-0.3249871564030647,5.858584574395418,1.835737610181421,7.647053799054026,-0.0468226298689842,0.0101764146238565,-0.0164297837764024,0.8674054250196509,-0.0332356481429264,-0.3301577558945051,-0.3708086591214121,-0.0128100980073213,-0.341623306274414,-0.104202777147293,-0.7674392472356557,-0.0049129064828157,0.3025345015764236,0.0705519020557403,-0.0796644166111946,-0.0332778586597414,0.0302881710231304,0.0751722366937436,-0.0053521489959181
184,0.027376,-0.13475,0.291055,-0.013228,-0.0716,-0.706293,0.704165,-0.0120575175404548,-0.0533358688682317,0.0672609338462352,5.85660304518938,1.8310306015342472,7.649699929648637,0.0001338114961981,-0.0011624263133853,-0.0049557886086404,0.8672845292176051,-0.0335909181751203,-0.3299174043449825,-0.3712731201767291,0.0261471550911664,-0.0704965591430664,0.0110585046932101,0.2373255318239331,-0.6067506726294756,-0.6644394760102034,0.0442692451179027,-0.0525475181639194,-0.0740402826549019,0.0263068005442619,0.0436084610760444,-0.0067284229098499
185,0.028216,-0.135441,0.292253,-0.014237,-0.07123,-0.708239,0.702226,-0.2644108148872852,0.0844102215677499,0.1242775370538234,5.8645981355965136,1.8279583544820543,7.644308299738168,0.0187764018774032,0.0731204822659492,0.0673097595572471,0.8674617904647133,-0.0336416612614981,-0.3303286200317901,-0.370488016258656,1.3586698770523071,0.3070483207702636,0.2820151448249817,0.6245037714630365,-0.672939008808136,-0.9438327559739352,0.0060640014708042,-0.0363278128206729,-0.1024233869764488,0.0162715725600719,-0.0077856523324677,0.0133982726164336
186,0.028571,-0.135699,0.292572,-0.015159,-0.072598,-0.709586,0.700705,0.2244680960774421,0.0089618896126747,-0.1149561664789915,5.864585276114941,1.8181131061635911,7.646665091997384,0.0084890387952327,-0.0558175221085548,0.0062852301634848,0.8679244220315423,-0.0337679547808681,-0.3301337674522571,-0.3695653584614299,-0.95400208234787,-0.2960579395294189,0.1188131943345069,-0.7972060244679451,2.0247540152579546,0.1705818998500704,-0.0093506295233964,-0.0338335148990154,-0.0271801377229741,-7.88707984611e-05,0.0493796192228561,0.0057381777549948
187,0.027853,-0.135281,0.293117,-0.013951,-0.072969,-0.708472,0.701818,0.1285807872056961,0.0892484553791582,-0.0107920276492834,5.871438210749626,1.811149112369865,7.643058007416129,-0.0207738894969224,-0.0383852906525135,0.0233326200395822,0.8679455149820903,-0.0341638115199554,-0.330371510915496,-0.3692667997059471,-0.1080782935023307,-0.0983463525772094,0.0705920681357383,0.4947825820505618,-1.5029390493750572,0.3075479458242655,-0.0060762115754187,-0.0172452963888645,-0.1314297834286466,-0.0074012512341141,-0.0241852051071356,0.0490953178221825
188,0.027932,-0.134047,0.292907,-0.012864,-0.070988,-0.70763,0.702891,0.2197071652859449,0.0331599268019199,0.0148749130487442,5.882365262955426,1.8094776720263064,7.635048303961754,-0.005252999253571,-0.0032921202946454,-0.0186907034367322,0.8676303184364209,-0.0345901151151676,-0.3309447100735765,-0.3694548144428282,1.143574595451355,0.2792332768440246,-0.0591003410518169,0.516043396744132,-1.3501964653372764,-0.6586480331271887,0.0072806440293788,-0.0088494988158345,-0.0800102330431342,-0.0173129849135875,0.0201488896626047,-0.0249262418659403
189,0.027454,-0.133274,0.294216,-0.011599,-0.067337,-0.707283,0.703621,-0.0030196400821208,0.0366274567820131,-0.0038590135157108,5.884225796130299,1.8152873812183736,7.632233831062912,-0.0018011364154517,-0.0217897593975067,-0.0171167850494384,0.8673973781914837,-0.0344892070134074,-0.3311719412884856,-0.3698071327212167,0.3881160318851471,0.3477841019630432,-0.0323573462665081,0.299199219673872,0.1573012702554464,-0.4109276562780141,0.017267744988203,-0.0146603183820843,-0.0918940197181888,-0.0145496577024459,0.0542368545622564,-0.0548920762011315
190,0.028306,-0.13299,0.293762,-0.011702,-0.067793,-0.70748,0.703377,0.0706844785541296,-0.0161935944318771,0.0434516037136316,5.894468957725167,1.8242649067915973,7.622183561691641,0.0397697165608406,-0.0518406480550766,-0.010512369684875,0.8670829831585327,-0.034327670508798,-0.3319614420522981,-0.3698518738254597,0.5978761911392212,0.2417142689228058,-0.1262967586517334,-0.1907633948743343,-0.0754214439481496,-1.3377192610800266,-0.0029134058859199,-0.0240094400942325,-0.1248882893633097,0.0042167454957962,0.071408262784034,-0.0712443043939769
191,0.028581,-0.133107,0.293509,-0.011459,-0.069463,-0.706212,0.704492,0.2199333752572536,-0.2594821263134479,-0.2106651961743831,5.936905831438303,1.8423486988842488,7.584805724933743,0.0493373796343803,-0.124635599553585,-0.0200440641492605,0.8661666853363595,-0.0343526872121013,-0.3348169837635649,-0.3694221021185892,-0.8192352056503296,-0.4779897034168243,-0.1841432154178619,-1.2231862884491682,1.911591161936521,1.908637572827935,-0.0206896159797906,0.0033527524210512,-0.063978391344496,0.0473140180110931,0.1318768878753297,-0.0633410113229882
192,0.02964,-0.133362,0.293402,-0.010692,-0.07226,-0.707328,0.703101,-0.018429975181818,0.1303660631872713,-0.0165659348756074,5.931209665623307,1.8484414628013968,7.587779187786579,-0.0401193313300609,0.0148769132792949,-0.0331024639308452,0.8659733001384433,-0.0341673570276455,-0.3346094886137304,-0.3700800662998437,0.8019132018089294,-0.2152983397245407,0.0029635601677,0.221812613132596,-1.9162030396461485,-0.8496785545051098,-0.0219071470201015,-0.0003585705999284,-0.1480805653098039,0.0425296016037464,0.0872169221520889,-0.0134568458196998
193,0.030823,-0.133176,0.2929,-0.007923,-0.075208,-0.707576,0.702579,-0.1248585518121719,0.1606533571623265,0.1659738215327262,5.918377656579017,1.840300826443732,7.59976890078783,0.0062850071117281,0.0849345326423645,0.01228320132941,0.8662593558429821,-0.0342989724522941,-0.3336812891475407,-0.3702366226455303,-0.3223956227302551,-0.0041015609167516,0.019599262624979,0.3603124445453285,2.103665639409422,-1.2496236289978029,-0.0049409200437366,0.0186537448316812,-0.0794586087760515,0.032234501093626,0.1154136279229074,-0.0269593071796814
194,0.031058,-0.132206,0.292498,-0.012221,-0.072776,-0.708225,0.702119,0.0419984822958707,0.137257868527621,0.0023252280771732,5.9135781473428,1.8405023403652008,7.603455480346083,0.015555378049612,-0.0124505013227462,0.016353229060769,0.8665061680038096,-0.0340435387726985,-0.3334257143746904,-0.3699127945505945,-0.3384062945842743,0.1362150162458419,0.2394164353609085,-0.0906432707384228,-0.1216220541089773,-0.2315858191281557,-0.0103570092469453,0.0166485384106636,-0.0590555845221737,0.0351682379841804,0.0458140904946951,-0.0346472632998251
195,0.030393,-0.132427,0.292232,-0.01288,-0.071104,-0.707267,0.703244,0.3162047150105238,-0.0437128849983215,-0.077054598107934,5.917547635495662,1.850287382929027,7.597989616155623,0.0362145043909549,-0.0298920255154371,-0.013596779666841,0.8664758505622256,-0.0335506405384128,-0.3338932235331973,-0.3696068575626343,0.1479779779911041,0.0390277467668056,0.0168768446892499,0.0104003979831933,-0.9664034842222928,1.046506948506832,-0.0389956571161747,0.00822723377496,-0.0176418181955232,0.0298530459403991,0.0828868661916814,-0.0456264407017966
196,0.029986,-0.132623,0.291939,-0.014026,-0.069916,-0.706884,0.703726,0.3111544458836316,-0.127205553329736,-0.1527870077013969,5.920802837899327,1.8655457423374056,7.591721203410625,-0.0018241433426737,-0.0207053162157535,-0.0400565117597579,0.8660810051769471,-0.0330820868091424,-0.3344181925926621,-0.3700998592669056,0.149946853518486,0.2988631725311279,0.001341562019661,0.4328527800992131,-0.5372755698651075,-0.0841752437680959,-0.029629522934556,0.0155329145491123,-0.0493813682219479,0.0417353883385658,0.0937035442250315,0.0465999071101425
197,0.02998,-0.13259,0.291725,-0.014463,-0.069686,-0.706931,0.703693,0.0536427428603172,-0.1292323829822242,-0.0601198299199342,5.932310320341586,1.873557930009812,7.580756157281995,0.0060767363756895,-0.1110405847430229,-0.0230832900851964,0.8655255385371472,-0.0331941533547206,-0.3352419437434393,-0.3706435365557755,-0.5323906540870667,-0.2603495717048645,-0.0657598450779914,-0.7646656908690929,-0.4786778349459171,-0.339846871882677,-0.0131994783878326,0.0202018227428197,-0.0084631240482354,0.0570547580718994,0.1165186756885144,0.0440835906073916
198,0.029822,-0.132452,0.291689,-0.014478,-0.069407,-0.707105,0.703545,0.0125508540153503,-0.1524627441830933,0.0285404503077268,5.969661269092559,1.866412003777921,7.553148019388318,-5.97075559198e-05,0.0251028910279274,0.0207299478352069,0.8648933225772419,-0.0343231170345749,-0.3372218102714978,-0.370220312946712,-0.0444785431027412,-0.4150680601596832,-0.1705524325370788,-0.547737342646718,0.3913888430714607,2.3020509074643254,-0.0170907974243164,-0.011109035462141,-0.0021815284509109,0.068778783082962,0.1224809633600991,0.0544962361508049
199,0.029994,-0.132458,0.29196,-0.013416,-0.069337,-0.706772,0.703908,0.0456827237665653,0.0887539498604834,0.0771317549973726,5.962117429584264,1.8649147509574888,7.559473715278505,0.0098335873335599,0.0596274398267269,-0.0257511045783758,0.8650852441840157,-0.0341993298369819,-0.3367558689938436,-0.3702074284507055,-0.7356905341148376,-0.4671061635017395,-0.3496386408805847,-0.4298100514024496,1.304447106075287,-1.5672311965435743,-0.0058323927223682,0.0123872188851237,-0.0533972847658442,0.0692150294780731,0.0867709410834126,-0.0086642703602352
200,0.030806,-0.131649,0.293304,-0.008176,-0.069578,-0.707398,0.703335,-0.3563958556234836,0.209315242870152,0.1253431204587221,5.942517241579294,1.8698992613717915,7.573661230584978,0.0242301039397716,-0.0117388814687728,0.0104393912479281,0.8654760452633866,-0.0334854453456388,-0.3357520848832567,-0.3702707570364481,1.028371810913086,0.1067861840128898,0.4998080134391784,1.1027712720423937,-0.9761322665542363,0.4019990844130516,-0.0040036807768046,0.0301655270159244,-0.1569955835734494,0.0613373853266239,0.0187151122661307,0.0223374172494048
201,0.031753,-0.131508,0.292852,-0.012523,-0.068445,-0.709873,0.700885,-0.0546925441741943,0.1794388677835464,0.1176198327302932,5.945625728988647,1.8741878984764213,7.570161698031425,0.0510425083339214,0.0412096716463565,0.0453833304345607,0.86564648168123,-0.0331075734039629,-0.3360551444742152,-0.3696311226493272,-0.3296546041965484,0.0925011411309242,0.2813149392604828,-0.0750432582855224,0.9172925395727156,-0.5934323413729667,0.000608894508332,-0.0056278542615473,-0.0011188148544111,0.0687932670116424,0.020736927816784,0.024033217999374
202,0.031134,-0.131577,0.292628,-0.012962,-0.069275,-0.708372,0.702312,0.2776028894156217,0.0852799901396036,-0.1328875444889068,5.944478312519192,1.8945751452058552,7.565985873651504,0.0668582916259765,-0.0380462370812892,0.0125221814960241,0.8658964492714991,-0.0317486619183709,-0.3365027341180645,-0.3687562997313342,-0.4955735504627228,-0.1316370964050293,0.111037902534008,0.1704351848557591,-0.8025368641018867,0.2710585823386907,-0.0062357382848858,-0.0044759977608919,0.0,0.0959530174732208,0.0,0.0
203,0.030249,-0.131635,0.292187,-0.014672,-0.068341,-0.706891,0.70386,0.3620458442091941,-0.0428315721191465,-0.2078618291914463,5.941887126982212,1.900283147589117,7.56659026928544,-0.0028293258510529,0.0302682034671306,0.0121818613260984,0.8661202256011571,-0.0312180370579012,-0.3365066116423446,-0.368272266181723,-0.7253830432891846,0.0502398163080215,-0.2842060923576355,0.6150730952948331,-1.3277625152111052,-0.5755547393769025,-0.0067051853984594,-0.0244792904704809,-0.0425325800394173,0.0749126747250557,-0.0163358410303364,0.0350123954013455
204,0.030046,-0.131554,0.292156,-0.015347,-0.06638,-0.707009,0.703915,0.2407984686315059,-0.0818016465045511,-0.0533458057403564,5.933398115578293,1.897953097206354,7.573833080020546,-0.0218148734420537,-0.0046279523521661,-0.0140028549358248,0.8662042098435199,-0.0312358019910989,-0.3359558281271834,-0.36857602353358,0.5291325449943542,0.2348383218050003,-0.2545270323753357,0.1290609719380736,-0.8674930281370877,0.2860898549929261,-0.0054933759383857,-0.0214236248284578,-0.0138097783100616,0.0714366659522056,0.0580645459245191,0.0103154219718358
205,0.030901,-0.131394,0.29347,-0.014128,-0.064427,-0.706906,0.704225,-0.0458843838185071,-0.2749059054166078,0.1289338384270668,5.96255523647964,1.899671153170616,7.550468571045994,0.0490096248686313,-0.0630346834659576,0.0196067802608013,0.8656090806664444,-0.0318015432954932,-0.3376713094343037,-0.3683581394348198,0.3050672113895416,-0.1915910243988037,-0.2269005924463272,-0.8764645623609423,1.908371615368128,1.6646224802374838,0.0056085414253175,-0.0502919815480709,0.0129589895749581,0.0630988627672195,0.1159379531911108,0.0226848059149691
206,0.032199,-0.131492,0.294136,-0.015627,-0.059122,-0.710052,0.701489,-0.0858434692412614,-0.0309716229774057,-0.101081370383501,6.000419395449757,1.919697457633168,7.515325361472367,0.0445606410503387,-0.1892992407083511,-0.0305252745747566,0.864647041230795,-0.0317172886703019,-0.3403219872316492,-0.368185412950547,0.263498455286026,-0.1581758707761764,-0.0217090956866741,-0.2162257529109716,-0.7636953845322132,-0.1589034447550773,0.0122421598061919,-0.0445754565298557,-0.0802938266243319,0.0649495497345924,0.0781497181345708,-0.0139261655231239
207,0.030959,-0.130596,0.295059,-0.011091,-0.058169,-0.70709,0.70464,-0.1697936720818281,0.2215301429294049,-0.0360287602365016,6.042620706841349,1.9221781685329973,7.48079882249236,0.0047318553552031,-0.1025065407156944,0.034676406532526,0.8637899977232939,-0.0325180775591846,-0.342823553079587,-0.3678061234005072,2.3452348709106445,0.2998307943344116,0.3969357013702392,0.6666241265729069,-0.6884983969897032,-0.8960083440035581,0.0156723000109195,-0.0278844200074672,-0.045996872316231,0.0917923897504806,0.0719963009382132,-0.0222848445286625
208,0.030246,-0.130339,0.294206,-0.010719,-0.057836,-0.706295,0.705469,0.2531505852043628,0.1168691604934632,-0.1715156735688447,6.053924775665998,1.9189505847886204,7.472483998611569,-0.0166652761399745,-0.0354650393128395,-0.059956420212984,0.8635233195254715,-0.0329828955833379,-0.3433969599048749,-0.367856339740007,0.1883445829153061,-0.1733981221914291,0.1159883141517639,0.1118938562989234,3.667098028191924,0.7180091536343097,0.0179035868495702,-0.0455046892166137,0.0065215712303819,0.0825679302215576,0.1187243051071651,0.0161647530715272
209,0.030537,-0.130621,0.293734,-0.011347,-0.059435,-0.707077,0.704543,-0.007465513575077,0.1020928855136036,-0.0089408468246459,6.046091013300418,1.9316317871853708,7.475557999229431,-0.0227259267121553,-0.0264320280402898,-0.0814005509018898,0.8629627452313263,-0.0327728571019672,-0.3431888228023736,-0.3693813995034564,-0.5248968005180359,-0.0214404966682195,0.105780154466629,0.1214791385069489,-0.3949970966964959,-1.3125509175539016,0.0186965446919202,-0.0327844098210334,-0.0715109285740647,0.0940264388918876,0.0077681589166168,0.0739243418247671
210,0.030808,-0.131061,0.293643,-0.013713,-0.060115,-0.707295,0.704224,0.1164963816583156,0.0847825620114803,-0.255983178281784,6.082540629297495,1.9540297892153264,7.440084534788132,-0.1297140270471573,-0.2680405080318451,-0.2185232490301132,0.8607147596883435,-0.0337376307019607,-0.345721045280098,-0.3721678821932802,-0.5290537476539612,0.4086187481880188,-0.2646377086639404,0.8856663982093333,-1.89029702949524,-0.8592927705466746,-0.003116151317954,-0.0117575889453291,-0.0019259825018525,0.0928343832492828,0.0239765764582902,0.0402812574486713
211,0.030281,-0.130631,0.294356,-0.011798,-0.05908,-0.706546,0.705098,0.115988432136178,-0.0118085112154483,-0.183341135919094,6.154425715813041,1.953356419998408,7.380909876763821,-0.3098208606243133,-0.3834954500198364,-0.3315117061138153,0.85622006583696,-0.0381970264454313,-0.3495987797410496,-0.3784295923969135,0.7760528326034546,0.0851966813206672,-0.3040122091770172,-0.1778206189319491,-2.432518239068985,-0.0461246223151683,-0.0115003082901239,-0.0396009981632232,0.0261454746127245,0.0687273889780044,0.0928679701837245,0.027939735335065
212,0.029217,-0.130236,0.295088,-0.010015,-0.056429,-0.705213,0.706675,-0.0389279888093471,-0.3339446621015667,0.0716693979382514,6.232428408426046,1.9380597744062544,7.319231126964092,-0.2994705140590668,-0.2041483670473098,-0.1854160130023956,0.8512166862022871,-0.0439607492012593,-0.3533985152205595,-0.3854958824248115,-0.0104609243571758,-0.531825602054596,-0.3102437555789947,-1.004869116216898,2.901106057155132,0.6802548847794533,0.0089840171858668,-0.0354297086596488,0.0321154227176681,0.058684229850769,0.1163275370305869,0.0461375548619776
213,0.028123,-0.129486,0.295236,-0.009148,-0.055147,-0.703831,0.708164,0.0645937604635953,-0.0675223612613976,0.3768307408869266,6.197440681675076,1.8730496882267296,7.3657181528508655,-0.0996065512299537,0.4425559639930725,0.1064520701766014,0.8518065088513188,-0.0468523482923248,-0.3496537543840842,-0.3872633806478071,1.8827242851257324,-0.1239675134420394,-0.1200543045997619,-0.0417190808326005,-1.827452743047476,0.7267284666627645,0.0265288781374692,-0.0538183376193046,-0.0157357619535585,0.0629024654626846,0.0820411269493866,0.0505966759955743
214,0.027594,-0.129496,0.29457,-0.011593,-0.054338,-0.703379,0.70864,0.8208943585693835,0.712506756825745,-1.2402899834632872,6.1213932147830725,1.883256755594909,7.426457575973868,0.1434427350759506,-0.0582952871918678,-0.1089523956179618,0.854005517991642,-0.0439330052533328,-0.3455805506150698,-0.386417591483202,3.031257152557373,0.0531866028904914,-0.4171978235244751,0.0213724583745002,-0.5793927101045847,-1.554057242193818,0.0179525259882211,-0.0443315878510475,-0.0700524185951333,0.1055649891495704,0.0100375023628876,0.0453208499179221
215,0.026572,-0.130602,0.294049,-0.016708,-0.054508,-0.701173,0.710708,0.6359422803223133,0.3077482907019555,-1.9643243887364863,6.157455292767286,1.97422516663447,7.372826523551344,-0.2005156874656677,-0.3165412545204162,-0.7093730568885803,0.8495184081859517,-0.0431333374790716,-0.3496140570892665,-0.3927188647333126,4.763444423675537,0.0917159393429756,-0.2773728668689728,-0.2650347920045256,-3.667153557771444,1.004303883549571,-0.0172519814223051,-0.0268345419317483,-0.0542886030158027,0.1591552495956421,-0.0315000695815891,-0.0020609288557345
216,0.025848,-0.131395,0.292199,-0.023375,-0.056587,-0.699547,0.711959,0.2243073525577783,-0.0464743125356733,-2.057239988321066,6.327874403271078,1.944477824755013,7.2351499912202355,-1.0756018161773682,-0.8907878994941711,-0.7737913727760315,0.8372298602510581,-0.0566365757951275,-0.3576343057908977,-0.4098001980411746,3.7290213108062735,0.0165645703673362,-0.2998283207416534,-0.1582178005784749,0.7290864279657602,-1.70345928363204,-0.0544540211558342,-0.0570247396826744,-0.0046672594462084,0.1569592654705047,-0.0124415872378856,-0.0429087244420079
