time_imu,phone_acc_x,phone_acc_y,phone_acc_z,phone_gravity_x,phone_gravity_y,phone_gravity_z,phone_gyro_x,phone_gyro_y,phone_gyro_z,phone_ori_w,phone_ori_x,phone_ori_y,phone_ori_z,watch_gyro_x,watch_gyro_y,watch_gyro_z,watch_acc_x,watch_acc_y,watch_acc_z,headphone_gyro_x,headphone_gyro_y,headphone_gyro_z,headphone_acc_x,headphone_acc_y,headphone_acc_z,frame_imu
1733313811059255300,3.357184230019152,13.917703509324788,-0.144088116406463,0.0635316202579531,9.796863350000978,-0.4333632869046181,-0.3170236051082611,-0.170567899942398,-1.392876386642456,-0.6593670045870123,-0.6877559676016675,0.2215561048312503,0.2077009590224757,0.0038586864247918,0.0031961603090167,-0.0504885129630565,-0.0091858133673667,0.0118439644575119,0.009591519832611,-0.0528256334364414,-0.0091843549162149,-0.0257195476680994,0.0050767632201313,0.0158029351634555,0.0098479517322033,0
1733313811099255300,6.980055286210775,8.96948547463119,0.4620645172646269,-0.7813179157886654,9.771578102096914,-0.2760646652639843,-0.3794077634811401,-0.3784092366695404,-2.834197759628296,-0.6537002396664563,-0.6900750785841727,0.194606698164011,0.2420759383645577,-0.0209281519055366,0.0099031710997223,-0.0633513182401657,-0.0055954307317733,0.0055204182863235,0.0124831795692443,-0.0489656142890453,-0.0066691478714346,-0.0187847799688577,0.0029565470758825,0.0183371047000167,-0.0081575144272297,1
1733313811139255600,4.395588828352094,-0.922340470612049,0.5970365033447742,-1.9702629850052296,9.605064182338118,-0.1767047849108464,-0.097635418176651,0.054075039923191,-2.9925649166107178,-0.6401222240054851,-0.6967817162267536,0.15331234875307,0.2850162322138699,-0.0128563772886991,0.016933811828494,-0.0607174485921859,-0.0044278278946876,7.912516593933105e-05,0.0052143931388854,-0.0399187244474887,-0.0046811141073703,-0.0125911860257387,0.001039471826516,0.0147469849532935,-0.0028731442835181,2
1733313811179255600,2.2438564926490185,-9.741475224778055,-0.2553869659543037,-2.9405691757544874,9.354213106247782,-0.1487847680564038,-0.2630777955055237,0.4466635286808014,-2.10433316230774,-0.627432474820856,-0.7033813008534581,0.1133166245962351,0.3142333015742333,-0.0091133043169975,0.0177611466497182,-0.0533852316439151,-0.0014359056949615,-0.0032725781202316,0.0045114755630493,-0.0325919948518276,-0.0057363808155059,-0.0277840789824724,0.0014170829672366,0.0218643381112488,0.0064328095264732,3
1733313811219255600,0.9183727360248564,-15.208492676925658,0.5627309136390686,-3.494683359956741,9.16223507488668,-0.104989648134727,-0.203786164522171,0.5105018615722656,-0.9559619426727296,-0.6230383284190255,-0.7059339104437852,0.0837275139924834,0.3262978455708384,0.0049769477918744,0.0044515212066471,-0.046534851193428,0.0039368122816085,-0.0002857446670532,-0.0010529160499572,-0.0247803851962089,-0.0055295014753937,-0.0242751940786838,0.0040851095691323,0.0192616904653375,0.0102111590214073,4
1733313811259255300,-0.0152203654855489,-17.000061621165276,0.606850625872612,-3.6170834127008913,9.113712159258126,-0.1654201697053387,0.2996799945831299,-0.0443899855017662,0.2725291848182678,-0.6202715871020008,-0.7089561572587417,0.0762577753713104,0.3268473700685598,-0.0103394240140914,-0.0027365637943148,-0.0413745120167732,0.0023023560643196,-0.0048253387212753,0.0053419470787048,-0.0145997321233153,-0.0028330341447144,-0.0293149418115615,-0.0014994223602116,0.0196997211229987,0.0030756080530583,5
1733313811299255300,-0.9162909613147378,-13.95009420531988,0.1243745676875114,-3.335960824726522,9.217056798398492,-0.2960093375913799,0.4567619562149048,-0.0869333893060684,1.2023682594299316,-0.6193514441333676,-0.7118779890615572,0.0912250209645157,0.3182947376535578,-0.0030649995896965,0.0069647994823753,-0.0279418602585792,0.0023555010557174,-0.0024782568216323,0.0061501264572143,-0.0106767965480685,0.0020880426745861,-0.0288075768113136,-0.0070342235267162,0.0150392915639095,0.0137987351845949,6
1733313811339255300,-1.3932356888577342,-9.885422507941724,-0.1396188620379194,-2.685436184561252,9.419899922645092,-0.4735958920391276,0.5976834893226624,-0.0838640034198761,2.452110767364502,-0.6227887725985646,-0.7139335800766698,0.1201894877116483,0.2966267498688678,-0.0112403715029358,0.0110931256785988,-0.0216234438121318,0.0033081248402595,-0.0006288290023803,0.0074198246002197,-0.0071768625639379,0.0009667363483458,-0.0349871422290802,-0.0089448597282171,0.0115917860251152,0.0032953882835805,7
1733313811379255300,0.7979346310034394,-0.7539338689744473,0.0437573086619377,-1.577546546591818,9.65198433894515,-0.7217654374279081,0.7090853452682495,-0.1253180801868438,3.0613391399383545,-0.6287669974552226,-0.7132479318520575,0.167562475903527,0.2604847952681647,-0.0046080350875854,0.0089152986183762,-0.0137348938733339,0.0014810264110565,0.0001268833875656,0.0041400790214538,-0.002626288216561,0.0010866877855733,-0.0200900173485279,-0.0073242024518549,0.0046847968153655,-0.0046844314891844,8
1733313811419255600,3.724283265964688,6.510000318181515,-1.3049287521123885,-0.4895671124245971,9.75426047207117,-0.8860648960076272,0.0696063786745071,0.2957568168640136,2.328139305114746,-0.6368502108439424,-0.7085458854921257,0.207700419162988,0.2219122792545887,-0.004735866561532,0.0051898024976253,-0.0091956686228513,0.0013715624809265,-0.0010294616222381,0.0039654970169067,0.0033152736723423,-0.001469804556109,-0.0238788882374763,-0.00207340111956,0.0003143540456425,-0.0128329588923603,9
1733313811459255600,3.431959485018253,8.61615952797234,-0.3653144175510853,0.1895697281103581,9.763227622380851,-0.9021163785550744,0.0908510237932205,0.3331919908523559,1.2456490993499756,-0.6448899783929826,-0.7029223617480693,0.2278053721349807,0.1952477862764048,-0.0097071891650557,0.0036047422327101,0.0012049736687913,0.0007259473204612,-0.0021606534719467,0.0031715631484985,0.008445207029581,-0.0057837823405861,-0.0260375275760889,0.0058324062265455,0.0107113636285066,-0.0035156069055199,10
1733313811499255300,2.654446879796684,6.466969570228457,-0.647476066249609,0.5868531456457451,9.745366971519587,-0.924017829239741,0.0471978969871997,0.1288983821868896,0.7340536713600159,-0.6488142361596836,-0.700025740650272,0.2389053380832623,0.1786848592792219,-0.0096201039850711,0.0031426837667822,0.0045951777137815,-0.0028170049190521,2.6807188987731934e-05,0.008280336856842,0.012949782423675,-0.0056379688903689,-0.0233002115666866,0.0104225929826498,0.0187686462513869,0.0036154140181839,11
1733313811539255300,1.6000439173430203,5.008983176779747,-0.4318552934944629,0.7772485474579036,9.7286753644377,-0.9587268851798028,0.0648128017783165,0.0353067927062511,0.2140925526618957,-0.649524044173505,-0.6991592495292737,0.2450669496513202,0.1709885545430269,-0.0077668102458119,0.012908867560327,-0.0048529850319027,-0.0001585036516189,0.0026851892471313,0.0106206536293029,0.0142587414011359,-0.0042184209451079,-0.0287239901810884,0.0039165676571428,0.0117781800092663,-0.0047077392995357,12
1733313811579255300,0.9978548535406588,2.3874288050204515,-0.4681657932817936,0.7722083613336086,9.733067461916804,-0.9173282684732228,-0.2388112843036651,0.0671701207756996,-0.1681232452392578,-0.6511394475958653,-0.6980872919924921,0.2438131607148885,0.1710168601452487,-0.0065833013504743,0.0308114886283874,-0.0117624904960393,-0.0071653127670288,0.0024872720241546,0.0063840746879577,0.0122106755152344,-0.0035210289061069,-0.0301841258615255,-0.0001273960806429,0.018931129636988,-0.0113154670014977,13
1733313811619255300,-0.1002098482459783,0.8303799797952175,-0.0786614487826824,0.7215050329260527,9.745706578737495,-0.8191639545802026,-0.2230321913957595,-0.0093030650168657,-0.0606108382344245,-0.6543336452390972,-0.6956121188299971,0.2406024098398459,0.1734411036430303,-0.0191475618630647,0.0228972677141428,-0.019321072846651,-0.0013047084212303,0.0025048702955245,0.0079590678215026,0.010162609629333,-0.0028236366342753,-0.0318599501192569,-0.00417136028409,0.0281004423221107,-0.0195864517405629,14
1733313811659255600,0.0208890587717294,0.1677998679161071,0.4551952525496482,0.71517846025303,9.750928697299956,-0.7604554527629166,-0.0670064762234687,0.0746437832713127,-0.0093933977186679,-0.6564437423808192,-0.6938196109015398,0.239555388161645,0.1740952269057351,-0.0073279216885566,0.01268638856709,-0.0256534721702337,0.0036879777908325,0.0011197328567504,0.0029227137565612,0.0107403695583343,0.0031548144761472,-0.0155722476631402,-0.0073627112433314,0.016228747943649,-0.0167862265627831,15
1733313811699255600,0.1569461732074618,0.2904015807121992,0.2138041517872363,0.7319010469950735,9.750131409442425,-0.7547445277702063,0.0112881762906908,0.0758475437760353,0.039957970380783,-0.657113624472519,-0.6938613457629891,0.2388256533618039,0.1723961481013612,0.0016237617237493,0.0190486796200275,-0.0175276361405849,-0.0033218711614608,0.0020002424716949,0.0050215721130371,0.0113181294873356,0.0091332662850618,0.0007177928805351,-0.0105540622025728,0.0043594053524779,-0.013985197667405,16
1733313811739255600,-0.7294228203132748,3.147279789084196,0.0802957719862461,0.7518683147467672,9.746094701272249,-0.7865855539932847,0.2234656065702438,0.0143984546884894,0.1356670707464218,-0.6562762548459891,-0.6948573735549068,0.2393280848233257,0.1708706366859702,-0.0089556453749537,0.0114353410899639,-0.0057657840661704,1.3552606105804443e-05,-0.0005905330181121,0.0044515132904052,0.0064379847608506,0.0081934910267591,-0.0210837045609951,-0.0100128054618835,0.0054181799906771,-0.0252824714250862,17
1733313811779255300,0.0720041097853332,9.344964216387272,-1.6600258000969883,0.7813789252609014,9.735477445667982,-0.8833641126163303,0.2156820595264434,-0.1646647006273269,-0.1157619729638099,-0.652825368046804,-0.6973895805016559,0.2422536003258174,0.1696470104209333,-0.006062920205295,0.0139383934438228,-0.0038913846947252,0.0008458346128463,-0.0024927258491516,0.0047460198402404,0.0045338096097111,0.0077281980775296,-0.0219400291293859,-0.0106923952698707,-0.0001341797397239,-0.041537294524908,18
1733313811819255300,4.95252362293303,15.714697985744476,-1.465086434712261,0.5324426698159426,9.745092246231437,-0.9591919454082846,0.0317112356424331,-0.0639152899384498,-1.5610495805740356,-0.647516332444234,-0.7024767306403348,0.2354392114460627,0.1783741828890495,0.0018301567761227,0.0078105125576257,-0.0010951985605061,0.0072783604264259,0.0020556151866912,0.004500925540924,0.0026296344585716,0.0072629051283001,-0.0232867675632238,-0.0113719850778579,-0.0071428711917018,-0.061872372675687,19
1733313811859255300,8.11115541163683,8.0354323543936,-1.123515369385481,-0.4977435507480054,9.75707728305757,-0.8497556383293121,-0.5879862308502197,-0.3048541843891144,-3.365761995315552,-0.6404278110198067,-0.70962843167835,0.1993814645742312,0.215700621169768,0.0064424853771924,0.0153031572699546,0.0145443473011255,-0.0015055462718009,-0.0008597820997238,0.0061436891555786,-0.0034424103796482,0.0085387239232659,-0.0292424610972404,-0.0093134678900241,-0.0066262862719595,-0.044899391369149,20
1733313811899255600,6.262583892714977,-3.850000772693753,-0.333039493422769,-1.900946726064384,9.607905543243884,-0.4949055873757228,-1.1493408679962158,-0.1841560453176498,-3.4964439868927,-0.634356718367691,-0.709446564099755,0.1480497759766814,0.2689951381740539,-0.0124132269993424,0.0189279858022928,0.0070673231966793,-0.0031459033489227,-0.0020292550325393,0.0084770321846008,-0.0095144547522068,0.0098145427182316,-0.0351928939342498,-0.0072549511678516,-0.0061104320045793,-0.0279264831278473,21
1733313811939255600,0.1629661641493439,-14.11887607001066,0.4396972391664981,-2.961039716853201,9.348877590438724,-0.0334311426754458,-1.0959173440933228,0.1760150641202926,-1.9499454498291016,-0.6355098570739112,-0.7010157407556219,0.1013974610274794,0.3072828328307027,0.0083186822012066,0.0137855811044573,0.0007608250016346,0.0007428675889968,0.0085673183202743,0.0029101967811584,-0.0142166912555694,0.0036429376341402,-0.0481739560604095,-0.0009433049708604,-0.0087397484617074,-0.0403767263129353,22
1733313811979255600,-1.6504662368521092,-17.69752716846466,1.937805215123296,-3.40025180285126,9.197961637306213,0.0785613128764554,0.4835571050643921,0.0484914183616638,-0.512840986251831,-0.6333616844590357,-0.6996461804287583,0.0805587357811435,0.3207155547565103,0.0012304128613322,0.0127432197332382,-0.0057676481083035,-0.0012851059436798,0.0023702681064605,0.0056324005126953,-0.0184589549899101,-0.0009714537300169,-0.0432376687020063,0.0142520293593406,-0.0109603927863994,-0.0214360981952399,23
1733313812019255300,-0.463722550137341,-16.579466557353733,0.2730746166025288,-3.3034035399928685,9.230314339378475,-0.2432971170468255,1.0435696840286257,-0.1774237155914306,0.9649617671966552,-0.6223894280738728,-0.7100712569261185,0.0905732331309568,0.3165858801937398,0.0131307486444711,0.0152945276349782,-0.0021514748223125,-0.0012524724006652,0.0055792182683944,0.002911627292633,-0.0227012187242507,-0.0055858460254967,-0.0382990432560443,0.0294473655521869,-0.0131778450735844,-0.0024950316861271,24
1733313812059255300,2.5543004521757364,-10.328770670831204,-0.0366962477019056,-2.835319579775631,9.370640509435534,-0.5678399272158742,0.8879655003547668,-0.1693422496318817,1.3518725633621216,-0.6163519169397532,-0.7178051423930242,0.1170792747054982,0.3019247046006025,-0.0010772163514047,-0.0011842071544378,-0.0101429549977183,0.0044667869806289,0.0008649379014968,0.0039336681365966,-0.0306493379175663,-0.0118804601952433,-0.0208744457244873,0.0488048940896987,-0.0140838220365578,0.0065985945474356,25
1733313812099255300,1.342385937716812,-4.219185967263579,-1.1793757152300328,-2.253978073690832,9.503038809102772,-0.8844261888898909,0.6403424739837646,0.252362847328186,1.8802236318588257,-0.6134337547794008,-0.7241946906467652,0.1436497013594583,0.2803672514396523,0.0213220994919538,0.0032618339173495,-0.0050209644250571,-0.0011243671178817,0.0035866796970367,0.0032021403312683,-0.0422228947281837,-0.0266442485153675,-0.0373451035320758,0.0774851888418197,-0.0052396222531097,0.0303990837864577,26
1733313812139255600,1.596140334033221,1.0724258181393145,-0.9123651661731302,-1.4854087995119392,9.64312415614128,-0.986985376740992,-0.1689482927322387,0.3261407613754272,1.8822304010391235,-0.621935705693189,-0.7222340434541454,0.1694114399857827,0.2507466912881682,0.0098923444747924,0.0085545470938086,-0.0129686361178755,7.589161396026611e-05,0.0014936327934265,0.0068159103393554,-0.0671462565660476,-0.0466500297188758,-0.0566243890196084,0.1219300627708435,0.0032375845485832,0.0507140689972788,27
1733313812179255600,0.7739169188171625,4.735376663523912,-0.1381436383862048,-0.7851400313600897,9.732336225032808,-0.9141085757743568,-0.1198617741465568,0.1870186924934387,1.80485200881958,-0.6342962113199314,-0.7141489891286564,0.191305486249087,0.2259687408443544,0.007435311563313,0.0120228352025151,-0.003005017992109,0.0008317232131958,-0.0019327700138092,0.0127196907997131,-0.094219222664833,-0.0854275077581405,-0.0251093068152666,0.2377517521381378,-0.0286083553116302,0.0351836877144873,28
1733313812219255600,1.735639113355428,5.895665474033355,-0.5315628913067281,-0.1458890100822784,9.760765616181493,-0.936232437038049,0.1479025185108184,-0.0357356220483779,1.257249355316162,-0.6410149992909658,-0.7087006086983477,0.2132557576643613,0.2033840624787781,0.0029702559113502,0.0113816522061824,-0.0064732525497674,0.0053148418664932,-0.001604601740837,0.0036892294883728,-0.0916874557733535,-0.1069301292300224,-0.0189724114954471,0.3428241908550262,-0.0223607204931788,-0.0614473521966487,29
1733313812259255300,0.4088349217824638,5.125785263386368,0.3073309420727193,0.2423877471169456,9.75582523716986,-0.9672329938489944,0.026436198502779,-0.050375148653984,0.9564644694328308,-0.6433831247382222,-0.7048280552667776,0.2291998512738863,0.1916850207103858,0.0004533024039119,-0.0040762401185929,-0.0085220225155353,0.0008247643709182,0.0008768886327743,0.0068496465682983,-0.0877924337983131,-0.1275464296340942,-0.0068196168869733,0.4196639657020569,-0.0436705071613192,-0.1428477974891662,30
1733313812299255300,0.5952221839318051,4.43380896115303,-0.5984181669615208,0.5363373756995424,9.742707396921515,-0.981006302331388,0.0158201903104782,-0.0883414447307586,0.510486900806427,-0.6455211895001017,-0.7015096617963287,0.2406275073774392,0.1824416208904076,0.0086707519367337,0.0026814779266715,-0.001206052605994,0.0004148781299591,0.004631221294403,0.0052402019500732,-0.0786174014210701,-0.1242346316576004,-0.0081669398427009,0.4183900952339172,-0.0472268844686448,-0.2061269682228565,31
1733313812339255300,0.1433610807735472,2.9647353565007446,-0.0985283248998224,0.6842844325564801,9.73680489487946,-0.9469891741782426,-0.1598939150571823,-0.0330467037856578,0.3357270359992981,-0.6478134245866546,-0.6981213295053184,0.2467987465527996,0.1790387120625138,-0.0170665681362152,0.0040950835682451,-0.0149175375699996,0.0008837878704071,0.0012997537851333,0.0074996948242187,-0.058772750198841,-0.1004697605967521,-0.0220271228909492,0.3558623194694519,-0.0394755762221291,-0.1993267866887152,32
1733313812379255300,0.2891091297488659,1.4947645107477905,0.3268411137066781,0.7998036397457122,9.730600779542328,-0.9198547182109208,0.013055220246315,-0.0600910782814025,0.2672823369503021,-0.6497015818788638,-0.6955478547257707,0.2512224550000027,0.1760353199868956,0.0035572166088968,-0.009798415005207,-0.0067161992192268,0.0036199837923049,-0.0010192245244979,0.0048591494560241,-0.04356025531888,-0.0758394747972488,-0.0415659360975027,0.2601146101951599,-0.0287651441753841,-0.1531685543648898,33
1733313812419255600,0.3773327721249312,1.7975737376123666,0.0243242939174175,0.8996743922304361,9.72152899981439,-0.923496947170794,-0.0388749726116657,-0.0421605929732322,0.280717521905899,-0.6503278393737981,-0.6941659574132504,0.2553798446319638,0.173171836115031,-0.0239351280033588,0.0016902491915971,0.005373153835535,0.0008761137723922,-0.0102355182170867,0.0134724974632263,-0.0200869180262088,-0.0461738258600235,-0.0457610496997833,0.150842860341072,-0.0225781443698331,-0.129926137400046,34
1733313812459255600,0.769870858296752,4.695305349898338,-0.2489759298682212,0.9977982279825957,9.713449153733253,-0.90757267119959,0.0022834194824099,-0.1895632743835449,0.1990432739257812,-0.6513923138940622,-0.6917724416560966,0.2602387703320633,0.1715072416416245,-0.0035214654635638,0.0222336072474718,0.0011838015634566,-0.0035587400197982,0.0033078491687774,0.0078807473182678,0.0125289298593997,-0.0175193604081869,-0.0395078345239162,0.0693606063723564,0.0138894091427326,-0.0438171856230124,35
1733313812499255300,1.1674242153473198,11.78868423295021,-0.6673030487477779,1.0172847995452583,9.707955232492088,-0.9439941570807248,0.0323057658970356,-0.3496879637241363,-0.2841239273548126,-0.6493198842665381,-0.6912856342523296,0.2650556162040958,0.1739350352065113,-0.0139613226056098,0.0137103730812668,-0.0117414509877562,0.0012961030006408,0.000558465719223,0.0087613463401794,0.022893127053976,-0.0048736277967691,-0.0353442851036787,0.0294488482177257,0.0026415274847298,0.0431625759054906,36
1733313812539255300,6.605099107024073,11.774606607759,-0.3095008334577083,0.5258805713539942,9.74896587279439,-0.9227643951125444,-0.1714439243078231,-0.2262528836727142,-2.251178503036499,-0.6443017524328523,-0.6955285473839563,0.2515709281902615,0.1944925809100176,0.0096252290531992,0.0067560076713562,-0.0046126348897814,0.0005756765604019,0.0013271570205688,-0.0027861595153808,0.0250814314931631,-0.0050946855917572,-0.0418546899110078,0.0029294248670339,0.0063159051485359,0.0838633100084029,37
1733313812579255300,7.698420998197793,4.010522174039483,-0.5558418117124587,-0.6647057257309555,9.749404848733544,-0.8232181253418326,-0.3492563962936401,-0.1621817648410797,-3.6662518978118896,-0.6339192495124499,-0.7055071760990784,0.2103142113491967,0.2370107555826313,0.0222667232155799,-0.0250142253935337,-0.0129123097285628,0.0076430886983871,0.0036785304546356,-0.0095911622047424,0.0184228904545307,-0.0040906798094511,-0.038044191712141,-0.0097392117604613,0.0182634229758754,0.0843293200849555,38
1733313812619255300,2.5645856993466616,-5.163296955657005,-0.3272727100569754,-2.074672476898133,9.563690553942322,-0.6339995487567037,-0.6498231291770935,0.2800734639167785,-3.289430856704712,-0.622006465354923,-0.7128089337586542,0.1556547667966409,0.2842236083499552,0.015350492671132,-0.0375343337655067,-0.0039328634738922,0.005019411444664,-0.0050298124551773,0.0009562373161315,0.0117643512785434,-0.0030866735614836,-0.0342342780351638,-0.0224078502506017,0.0302121829122304,0.0847965174715966,39
1733313812659255600,-0.5647253023266792,-12.0359276399374,0.5228770421564579,-3.033310880076885,9.313869989943504,-0.4703545720303431,-0.3614554107189178,0.636989414691925,-1.8513989448547363,-0.6163610814566375,-0.715607127915685,0.1090314044536576,0.31002840199346,0.0332714356482028,-0.0298251714557409,0.0102531304582953,0.0024044886231422,0.0005474537611007,0.0004633069038391,-0.000958845950663,0.0022427211515605,-0.0376683441370725,-0.0519147552549839,0.0432679177097976,0.1031471255405806,40
1733313812699255600,-1.0713672489970922,-15.43238092728853,1.4985107115387917,-3.493178216090798,9.147152656567096,-0.5456179393399506,0.2996231317520141,0.4658266603946686,-0.764051079750061,-0.6093621775630997,-0.7216584981468047,0.0838318862659221,0.3175830414191529,0.0156413093209266,-0.0437893532216548,-0.0042359307408332,0.0058195814490318,0.0024127513170242,0.0117886662483215,-0.0293032117187976,0.0073430459015071,-0.0233294376611709,-0.0813392847776413,0.0519502597287297,0.1188038548830896,41
1733313812739255600,-0.7794184388428926,-16.521594214099643,0.4756500115573406,-3.490640222045779,9.13832520698905,-0.6905293913606554,0.1943151503801345,0.0370876714587211,0.7424289584159851,-0.6054130826092491,-0.7269207006225883,0.0824226726717387,0.3134769440972493,0.0208419319242239,-0.0333355404436588,-0.0038743400946259,0.0004977062344551,0.0019856989383697,0.0094642639160156,-0.0506487414240837,0.01078637316823,-0.0264917010843753,-0.1219048649072647,0.0463992745380848,0.062053976320289,42
1733313812779255300,1.315982061046362,-12.176439687955378,0.8958054418426007,-3.08290317850262,9.27631387400925,-0.7849239043913782,0.5436955094337463,-0.0814262181520462,1.3081953525543213,-0.6082963340456738,-0.727952696859483,0.1005228883105196,0.2999261202355925,-0.0046043070033192,-0.0284748971462249,-0.0031154060270637,0.0019706115126609,0.0014214664697647,0.0191378593444824,-0.0570328794419765,0.0208331085741519,-0.0312006094276905,-0.1716834604740142,0.0444550086025148,0.025518399072811,43
1733313812819255300,0.2558192198917269,-5.637276403653622,-0.5377390226583928,-2.5104084112182257,9.419665529367329,-1.066825367783755,0.7043299078941345,0.1587639898061752,1.939505696296692,-0.6061549236319529,-0.7336210782887562,0.1272519860837233,0.2796125069754684,-0.0016039896290749,-0.0215192530304193,-0.0003742142580449,0.0049730017781257,0.002072736620903,0.0159204602241516,-0.0590151585638523,0.010495152324438,-0.0229296246886253,-0.1593433171510696,0.042867447150126,0.0520773201745003,44
1733313813004626700,1.903286859449744,3.1795863139271736,-0.224649297863245,-0.2128308132430538,9.754339967048168,-0.9889111571718008,-0.1927570253610611,0.0851645022630691,-0.4569888710975647,-0.6417563984960728,-0.7146105977536588,0.1993793635205333,0.194237721505012,-0.0189920347183942,-0.0586324259638786,0.04732047021389,0.0100032091140747,-0.0108231306076049,0.0036836266517639,0.0332357175648212,-0.0008442433318123,-0.0222573331839405,-0.0009675998007878,0.0366831827243557,0.0344319240656914,45
1733313813044387600,-0.1554635699668899,0.8421142567306756,-0.0520949288964271,-0.3756002857765183,9.75821359361112,-0.8981042203042655,-0.2490318119525909,0.0187994334846735,-0.342250645160675,-0.6436599866673864,-0.7134730684797184,0.1916944200499812,0.1997781268614261,0.0053681661374866,-0.0893114060163497,0.0582860372960567,0.0118811428546905,-0.0163757354021072,0.0080305933952331,-0.038865502923727,-0.0600821450352668,-0.0769055632923729,0.0894121751189231,0.0680586874946486,0.1734456552507355,46
1733313813084387600,-0.3306798881519586,-0.3603109832406044,0.0945978535830974,-0.4885860654979944,9.76039561382532,-0.8162997973207384,-0.1674897074699401,0.066054493188858,-0.222482219338417,-0.6456078732241651,-0.7119862417650902,0.1862667402941643,0.2038890952092029,0.0047039738856256,-0.0434184782207012,0.0825865790247917,-0.0033013001084327,-0.0115495175123214,0.0105533599853515,-0.0338257849216461,-0.0326894111931324,-0.0636105946451425,0.0541905164718627,0.0417717243352904,0.1149268673192709,47
1733313813124387600,-0.513869669434242,-0.9908435134738685,0.0157364983141422,-0.5267104463068768,9.76185165785253,-0.7741001664295792,-0.074910432100296,0.036617424339056,0.0252481717616319,-0.6469895836134962,-0.7111698205111975,0.1835908812953651,0.2047839243915446,0.014166984707117,-0.0810109227895736,0.0903791934251785,0.0018262267112731,0.003960371017456,0.0170273780822753,-0.037784069776535,-0.001987999305129,-0.0450093545496463,0.0421755313873291,0.0090134736694395,0.053949032330513,48
1733313813164387600,-0.1171110794905573,-0.8993915567010641,0.0714357353128492,-0.4907165747206657,9.765717685630918,-0.7485452347386627,-0.0444308258593082,0.0219809580594301,0.1321242898702621,-0.6483886517422763,-0.7100669034281059,0.1843100045573515,0.2035358879660959,0.0115850493311882,-0.0621478520333766,0.0407726243138313,0.0010465085506439,-0.0163215696811676,-0.0163995623588562,-0.0299684181809425,0.013792959973216,-0.0467699344813823,0.0175099298357963,-0.0052418461762368,0.0098876626880839,49
1733313813204387300,0.2897030039887875,-0.3891255743145942,-0.0181201785802841,-0.4231796734772622,9.7699069540143,-0.73500580807738,-0.0647795796394348,0.1029220446944236,0.1613222807645797,-0.6498426723246857,-0.7092187523930114,0.185697674775419,0.2005734219406712,-0.030535239726305,0.0135494647547602,0.0147582665085792,-0.0127782449126243,-0.0040857791900634,0.0095994472503662,-0.02215276658535,0.0295739211142063,-0.0485159013658762,-0.0071556717157363,-0.0194913938682526,-0.0341583997873589,50
1733313813244387300,0.5815675333930179,0.1037538044631481,0.0063186816275119,-0.4023017206214368,9.773076231700182,-0.7039296287469565,-0.1021922752261161,0.1534939110279083,-0.0596614405512809,-0.6517218309818029,-0.7084859691233519,0.1842228427815075,0.1984142730069087,0.0162413194775581,0.0011380694340914,0.0393605455756187,-0.001653604209423,0.0057033598423004,0.0194787979125976,-0.0184506177902221,0.0251625590026378,-0.0414437710225582,-0.0040833074599504,-0.021608057228662,-0.0085518840396776,51
1733313813284387600,0.2993525470720604,0.3556587735205888,-0.225971486377716,-0.4156210017260164,9.776453014656902,-0.6470142939567566,-0.2059299051761627,0.1088185831904411,-0.0007103819516487,-0.6541189666389218,-0.7071447119879346,0.1814797644459557,0.1978380488407001,-0.0050759520381689,0.0194490067660808,0.0234502926468849,-0.0140640586614608,-0.00376757979393,-0.0040656328201293,-0.0142609607428312,0.0181880425661802,-0.0176467158496379,-0.0036577559076249,-0.0242072434090077,0.0134045482352375,52
1733313813324387600,0.6167671858616173,0.6478232722520828,-0.0907142170827835,-0.4397456448854878,9.780270527118445,-0.5685885170934721,-0.2006963640451431,0.2070929557085037,-0.1357628107070922,-0.6571918441476597,-0.7051782064187956,0.1780832466527441,0.1977594386134867,-0.0176836233586072,0.0198736209422349,-0.000874622259289,-0.0104631260037422,0.0010765790939331,0.0016685724258422,-0.0139581263065338,0.0211477521806955,-0.0161930099099874,-0.0005777454935014,-0.0269435365051031,0.0204900495167821,53
1733313813364387600,0.0260615295061841,0.3039414457648992,-0.2204617465129122,-0.4553717781603336,9.782231013536451,-0.5205438134359196,-0.007411437574774,0.8366608023643494,0.0767660364508628,-0.6607415254961625,-0.70546011961271,0.1699010546934137,0.1920422966830941,-0.0483240894973278,0.0282654017210006,-0.0143789127469062,-0.0073676109313964,-0.006702572107315,-0.0032837390899658,-0.0087404027581214,0.0215784050524234,-0.033025486767292,-0.0084029585123062,-0.0269485597400926,0.0262521567074581,54
1733313813404387600,-0.2828296110879629,-0.0535609097957611,-0.2869640074789524,-0.3345753246879205,9.785542330041528,-0.5492113607220351,-0.0471487678587436,1.1753665208816528,0.3532605171203613,-0.664651097985191,-0.7088513976191295,0.1597863635224537,0.1738880352220724,0.0207812115550041,0.0763372182846069,-0.0160648263990879,-0.0157316550612449,0.0009467601776123,-0.0040948390960693,-0.0106351897120475,0.0099631268531084,-0.0674000500559806,-0.0019729663617908,-0.006939078548178,0.060847888466157,55
1733313813444387300,0.123168004909344,0.0248696528404951,-0.1146177283048629,-0.1596797994224354,9.792703892233968,-0.4978486916229128,-0.2028249502182006,1.1726974248886108,0.4016184508800506,-0.6717903170368009,-0.7093313129199904,0.1491050230552907,0.1526912917549111,-0.0328314155340194,0.0084587261080741,-0.0215386897325515,-0.000209055840969,-0.0112511664628982,0.0177105069160461,-0.0185725670307874,0.0010832678526639,-0.0437894573658704,0.0075763561762869,-0.012699085113313,0.0444757956622168,56
1733313813484387300,0.5679881035149097,0.1296276659101247,-0.1414297839174047,0.0185912586992431,9.798529237386584,-0.3986124741820618,-0.3139787018299103,1.2106783390045166,0.400901049375534,-0.6800665550836106,-0.7080342737536879,0.137880557848347,0.1310954413609407,0.0105227148160338,-0.0111139100044965,-0.0040111602284014,0.0001111105084419,0.0006207823753356,-0.0071454644203186,-0.0140481200069189,0.0022289962507784,-0.0351046311289072,0.0044955261982977,-0.0061766062757,0.0206843665124848,57
1733313813524387600,-0.0830063461191952,-0.0987280852556228,-0.0367231539751403,0.219026891404204,9.800630593580006,-0.2646471443938091,-0.3378171324729919,1.252874732017517,0.5252475738525391,-0.6891934934546281,-0.7054099942580162,0.1260555013308262,0.1073267578701227,-0.0151384398341178,0.0108799124136567,-0.0264078788459301,-0.0114775896072387,-0.0068991780281066,0.0151588916778564,-0.0105144288390874,-0.00153838400729,-0.0252846633821725,0.0060410783626139,0.0088779376562684,0.010251235303469,58
1733313813564387600,0.3872917099509388,0.119608376199007,-0.1425017787967808,0.4316747858284041,9.79642788119316,-0.1186154927041381,-0.3717288076877594,1.025891661643982,0.49628546833992,-0.6977992566038426,-0.701870745724901,0.1158670076497376,0.0838368357268266,5.7823024690151215e-05,0.0157742165029048,-0.0243001207709312,-0.0014869049191474,0.0003866553306579,0.010858416557312,-0.006980737671256,-0.0053057647310197,-0.0154594349384307,0.00758663052693,0.0239367924371734,-0.0001848550476133,59
1733313813604387600,-0.065526255540736,0.2275514490455389,-0.5016168119847774,0.5991339505480602,9.787992645803094,0.0814345393583644,-0.5131579041481018,0.7976469397544861,0.411589652299881,-0.7069529171705521,-0.6957914641968905,0.108269257522428,0.0661030491727176,-1.4082295820116997e-05,0.0252341367304325,-0.0266161374747753,-0.0037356317043304,0.0023569017648696,0.0026935935020446,-0.0060248598456382,-0.0065603163093328,-0.0188444012016057,0.0052255010232329,0.0185609080851078,0.0155567943656817,60
1733313813644387600,-0.6134203596517444,-0.1579126801520586,-0.6799059252113103,0.8190223541524261,9.767489956000446,0.3094030356390401,-0.5687354803085327,1.0651241540908811,0.7472424507141113,-0.7166660307654359,-0.6882051131165517,0.1029492991137332,0.0465293649198165,-0.0023747084196656,-0.0150457462295889,-0.0341291800141334,0.0034294351935386,8.22991132736206e-05,0.0103358626365661,-0.0076549109071493,-0.0088387839496135,-0.0200362413346767,0.0022641504183411,0.0176961810145527,0.0145365114072337,61
1733313813684387300,-0.111449400467053,-0.1267377896875142,-0.5884405244350434,1.125692932620272,9.723446231612565,0.5981671148099005,-0.6608341336250305,1.0864695310592651,0.8225929141044617,-0.7280587398060069,-0.6781412221657673,0.0981144645032203,0.0207017722406071,0.0018258956260979,-0.0126462923362851,-0.0286715663969516,-0.0016229823231697,-0.0031085163354873,0.0007131695747375,-0.0026468583382666,-0.0087917242199182,-0.0206038120895624,-0.0009992800187319,0.0172850429303944,0.0140504449233412,62
1733313813724387300,-0.4215136399611831,-0.3428594977021217,-0.5392273615200073,1.3753037263259291,9.66573054022491,0.9233470173060894,-0.7761042714118958,0.9879149794578552,0.6304382681846619,-0.7396430654959031,-0.6665862216603493,0.0926564253916029,-0.0023827277583721,0.0042464425787329,0.0206567496061325,-0.0213001351803541,-0.0047603622078895,-0.0053366869688034,0.0047588944435119,-0.0011568650370463,-0.0055476548150181,-0.0216050980865955,-0.0044902032241225,0.0313356705168262,0.0249053086757659,63
1733313813764387600,-0.1791789016731083,-0.5262883119046687,-0.6599146920621395,1.6010354125984012,9.582954641860724,1.331937170547247,-1.0425419807434082,1.1078392267227173,0.8743485808372498,-0.7532129367828004,-0.6514802963892253,0.0875415717704316,-0.0240876723188875,-0.0131834130734205,0.0003992018755525,-0.0175987426191568,-0.0010740906000137,-0.0040946304798126,0.0099563598632812,-0.0014082527486607,0.0009024450555443,-0.0220347216755151,-0.0118761006742715,0.0295312149107456,0.0320256986076012,64
1733313813804387600,-0.2726175022184848,-0.8042430834978819,0.5864693704925478,1.8913969535611568,9.44282194854915,1.8509777032807468,-0.9817360043525696,2.0931596755981445,1.179723620414734,-0.7686947222175634,-0.632226060745838,0.0769195114164311,-0.0590086187482735,-0.0262502133846282,-0.0053169000893831,0.0024763001129031,0.0007756799459457,0.0002038776874542,0.005381166934967,-0.0152087155729532,-0.0015341457910835,-0.0415337873935699,-0.0209604203701019,0.0342039559621363,0.0595582139817997,65
1733313813844387600,-0.502517414086312,-0.4897352355331182,0.2154500923633575,2.171724884026497,9.280944456419348,2.306093168592453,-0.5515992045402527,1.7585808038711548,1.1504288911819458,-0.7792085957960907,-0.6153348287841213,0.0615225349372171,-0.1020391867949764,-0.0008809412829577,-0.0019677090458571,-0.0040453816764056,0.0013687089085578,0.0047656148672103,0.0017048716545104,-0.0438453257083892,-0.0017500331159681,-0.0461900887668132,-0.0335492454469203,0.0074342416539788,0.0578829377133399,66
1733313813884387600,0.1424246036410331,-0.7389081492781638,1.2267802212879062,2.397972995388508,9.166647046110034,2.528375445063412,0.0719531923532486,0.9768978357315063,0.74159836769104,-0.7816813952327449,-0.6068973628790855,0.0525768310261167,-0.1337363905455396,-0.0080259358510375,0.0042849136516451,0.0050447857938706,-0.0019444897770881,-0.0082922726869583,0.006191074848175,-0.0610220208764076,0.0013919635675847,-0.0321516265422105,-0.0562505088746547,0.0019398454887792,0.0230160243304446,67
1733313813924387300,0.3721332307204604,-0.7108867544084787,1.039354446403682,2.5380185949385163,9.14371274524629,2.474135905353725,0.629094123840332,0.7550877928733826,0.5450375080108643,-0.7761804698306245,-0.6097174765646682,0.0458123661228918,-0.1539143475294844,-0.006961204111576,0.0064999712631106,0.0107716470956802,-0.0009175986051559,-0.0016634315252304,0.0045772194862365,-0.0741418451070785,0.0010622459230944,-0.0412958869844675,-0.0652325898408889,0.0035029300870373,0.0280541646281257,68
1733313813964387300,-0.5161521178156138,-0.2102501856327056,0.9374182127565144,2.679762230578065,9.152892661523818,2.283381716699153,0.8737587332725525,1.3078373670578003,0.7142240405082703,-0.7653678583509431,-0.6182235335734804,0.037142896344867,-0.1750206222026246,-0.0198152177035808,-0.0027777892537415,0.0101382145658135,0.0022286251187324,-0.0002816468477249,0.0131282210350036,-0.0861595347523689,0.0005335587775334,-0.0360591553747653,-0.0729206874966621,-0.0088351944930851,-0.0113101697718724,69
1733313814004387300,0.4179419189542532,-0.4077420119792223,-0.1548395563170313,2.8030077942356466,9.138199534782768,2.192455245105177,0.1898223161697387,1.1219027042388916,0.5429249405860901,-0.754840131316071,-0.6227404328775611,0.0202545187114045,-0.2049404422090902,-0.0092275543138384,0.0100662102922797,0.0083730705082416,-0.0001140683889389,-0.001574158668518,0.0040123462677001,-0.0970429703593254,0.0024241846986114,-0.0272013106584548,-0.0800563767552375,-0.0180011553104966,-0.0115573129333555,70
1733313814044387600,0.0685708474010229,0.1855745940595865,-0.7902814859017729,2.8412817030504343,9.04242562315762,2.516350953009725,-1.1040629148483276,1.3094143867492676,0.329939603805542,-0.7620616854111333,-0.6094718296238462,0.0156808558619738,-0.218082726968007,-0.0304425619542598,0.0172115247696638,-0.0023126625455915,0.0046375021338462,-0.0028965324163436,0.0095642805099487,-0.1213664785027504,-0.0019239364191889,-0.0249748667806386,-0.0702356249094009,-0.0120126189528033,0.0239717541527003,71
1733313814084387600,0.4721382040441036,-0.1012847840011119,-0.4337041362315416,2.8098636514797803,8.84311301112473,3.174017866145074,-1.3885631561279297,1.917487382888794,0.4711634516716003,-0.7751770087055431,-0.5815238601636272,-0.0003620388350156,-0.2468407972584817,-0.0143368281424045,0.008929306641221,0.0104376869276165,0.0067608430981636,-0.0039760768413543,0.0051204562187194,-0.1242013797163963,-0.0039046215824782,-0.0132201315790414,-0.0616533160209655,-0.0125365697616711,0.0047436143305152,72
1733313814124387600,0.5337397969543933,0.4454986189216375,-0.1898024408876895,2.725815833483636,8.62747820984423,3.7824513772949575,-1.0719871520996094,1.3028810024261477,0.1832275390625,-0.7872936323969228,-0.5540421133463977,-0.0136374504682445,-0.2702224455741065,-0.0270736627280712,0.0247563663870096,0.0265601966530084,0.003995195031166,-0.0131291151046752,0.0033642053604125,-0.1270362883806228,-0.0058853067457675,-0.001428571498394,-0.0530710071325302,-0.01315517658405,-0.0145206927835941,73
1733313814164387600,0.0358101490497589,-0.0695066669464111,0.24420389316082,2.556062785673141,8.448015376663207,4.274103260104358,-1.0496855974197388,1.4688786268234253,0.2197942733764648,-0.7972336211489381,-0.5304041819686391,-0.0274369160946096,-0.2869445013272713,-0.010515458881855,0.0282839369028806,0.0256838183850049,0.003362737596035,-0.0028583705425262,0.0046632885932922,-0.1256920546293258,0.0022205282002687,-0.012131751820445,-0.0616104155778884,-0.0140380603658035,0.0005386369213461,74
1733313814204387300,0.6298394334025681,0.1492161634773016,0.2355845333755016,2.3186199110798538,8.22570124374926,4.809596914988756,-1.191113829612732,1.924636483192444,0.1074250340461731,-0.8062581139495394,-0.5026817657235286,-0.0457148519284894,-0.3084947568575691,-0.0281551722437143,0.0147980088368058,0.0182801634073257,-0.0049018263816833,-0.0001915842294692,0.0069420933723449,-0.1321693956851959,0.0052307667210698,-0.0411240375488996,-0.0735920071601867,0.0158222403688356,-0.0124292734622955,75
1733313814244387300,-0.4033032988794148,-0.2603460496664047,-0.5474380674391984,1.980034729696065,7.972517925319075,5.3561921018630265,-1.1628330945968628,1.6511155366897583,0.2489453703165054,-0.8146304713932396,-0.4715321215768301,-0.0675845025020378,-0.3308577818696457,-0.047006357461214,-0.0081577477976679,0.0211083088070154,-8.639693260192871e-05,-0.0067533999681472,0.0079030990600585,-0.1386467367410659,0.0082410052418708,-0.0700257223844528,-0.0855735912919044,0.0455270948134362,-0.025397476106882,76
1733313814284387600,-0.0464018318213522,0.0328922157764434,-0.7233043374329805,1.788782090000063,7.700678421735763,5.802603159454464,-1.1453324556350708,0.8731088638305664,0.1545840054750442,-0.8219748594153669,-0.4452456308017347,-0.0768498299015414,-0.3467100437229523,-0.0449778288602829,0.0022524422965943,0.0086240749806165,-0.0002627968788146,-0.0018960088491439,0.011548638343811,-0.1430331021547317,0.0239737033843994,-0.0001870470046997,-0.0951902866363525,0.0162331227246671,-0.0324956176742911,77
1733313814324387600,-0.0661753305666148,-0.3681535134345293,0.0995253731131553,1.5998109853699802,7.399175601294636,6.234035259100795,-1.298948884010315,1.0835447311401367,0.1724950522184372,-0.8297081836871946,-0.4186051608256689,-0.08320076453984,-0.3597662680140417,-0.0200426504015922,0.0052566481754183,0.0079549551010131,-0.0009583458304405,0.0072996765375137,0.0099749565124511,-0.1593263000249862,0.0243689715862274,-0.0658224254757165,-0.0843882784247398,0.0560393922058865,0.0139496148973703,78
1733313814364387600,0.3947906143389642,-0.1188356382608413,0.30582360624969,1.3514802215375006,7.044812128281593,6.686891255047917,-1.346136450767517,0.9992074966430664,-0.0016719369450584,-0.8382046217828885,-0.3884964195248803,-0.0901884975151751,-0.371953820973089,-0.0130606424063444,0.0087358551099896,0.0081046251580119,-0.0041390508413314,0.0037195831537246,0.0075160264968872,-0.1845447719097137,0.0505611076951026,-0.0273918647944927,-0.1068913266062736,-0.0143917691743001,0.0056290919281542,79
1733313814404387600,0.3206234813008457,-0.1463601895242929,0.4944295308291911,1.1015323778972028,6.693903179636597,7.081572125402093,-1.2492493391036987,0.7962685227394104,-0.1184226050972938,-0.8469970231497483,-0.3604416518684872,-0.0949847710487372,-0.3790192955464483,-0.0098826913163065,0.0275007523596286,-0.0190435070544481,-0.0054749101400375,0.0078217089176177,0.010847270488739,-0.2097632437944412,0.0767532438039779,0.0112304190665483,-0.1293943673372268,-0.0851218221695162,-0.0026382395491003,80
1733313814444387300,0.2920743362300098,-0.2869242599904537,1.213723463577032,0.8260177659977227,6.347845762676,7.42919489198327,-1.0365790128707886,0.8966077566146851,-0.016309455037117,-0.8538811239432539,-0.3330193131223895,-0.1015608959532881,-0.386872805908171,-0.0437021739780902,0.0445509478449821,-0.0580354481935501,-0.0126869827508926,-0.0003948062658309,0.0172248482704162,-0.2274238765239715,0.0465280227363109,-0.0806067376315593,-0.1206453293561935,-0.0644371085971593,-0.0393677684661,81
1733313814484387300,0.3536687687471508,-0.0574462267965078,0.9829583131819964,0.5531350004391744,6.1342287309587,7.631229622456431,-0.5836746692657471,0.616845965385437,-0.0588092617690563,-0.8568682113855781,-0.3139083948235538,-0.1112523292739317,-0.3935244231550786,-0.0040202755481004,0.0512615293264389,-0.0558209605515003,-0.0100068971514701,0.0101525783538818,-0.0085570216178894,-0.222084105014801,0.0183384865522384,-0.0152191964417696,-0.0971645191311836,-0.0763649536096491,-0.0321994112066924,82
1733313814524387600,-0.0600391293665394,-0.2350181316643953,0.5483382311493158,0.3896906608514487,5.943992574828863,7.790217238363623,-0.5935477018356323,0.5345145463943481,0.1592467129230499,-0.8590173510813874,-0.2990030642926326,-0.1157870152951176,-0.3990987482030542,-0.044357843697071,0.0774772688746452,-0.1135077625513076,-0.0066340714693069,-0.0011588633060455,0.0116070508956909,-0.2028765678405761,-0.0059391725808382,-0.0331260245323181,-0.0562311336398124,-0.0298717354441061,-0.0210283211119472,83
1733313814564387600,0.4043266505777835,-0.0474105704724788,0.8332757012367248,0.3221639156758785,5.807710127204656,7.895385001277923,-0.1956638693809509,0.145818755030632,0.1245813593268394,-0.8592732773034335,-0.2892863293844481,-0.1173065615608629,-0.4052185325564085,7.222872227430344e-06,0.0968215093016624,-0.1196072623133659,-0.0047775879502296,0.0050311535596847,-0.0035473704338073,-0.1641406863927841,-0.0138868931680917,-0.0180050277680158,-0.0195440649986267,-0.0144798127839341,-0.0127737029857933,84
1733313814604387600,0.2308031260515563,-0.9007710283607244,2.1137574098348617,0.2064379704007878,5.800804001078009,7.904331108799576,-0.0209344755858182,1.053818702697754,0.2628191113471985,-0.8573680983135764,-0.2855866743941929,-0.1242237342638964,-0.4097910885327139,-0.0741721987724304,0.0237038843333721,-0.0834182351827621,0.0218739807605743,-0.0114722847938537,0.0193590521812438,-0.1255626082420349,-0.0142449364066123,-0.0241764098793268,0.0229301415383815,0.0080568305317312,0.0126074795734137,85
1733313814753978000,0.7260920684553682,0.3737012106895446,-1.1934148350417613,-0.7581146617904305,5.769072061252594,7.893886871674656,-0.6379087567329407,1.532158136367798,0.1379128098487854,-0.8343913331942039,-0.2524981651883186,-0.1837619142844905,-0.45416669318034,0.0276218075305223,-0.0396248586475849,0.0028024706989526,0.0111886113882064,0.0005529969930648,-0.0030062794685363,0.0788112208247184,-0.0289507042616605,-0.0664123724591918,0.0199232604354619,0.1101741198342293,-0.0377788781397277,86
1733313814793736700,0.3327887700647115,0.0503816952377557,0.9153612792491912,-1.3343132520288228,5.575094380506873,7.956652247667312,-0.4481891691684723,1.8312580585479736,-0.1094432175159454,-0.8310075278878779,-0.2259772153661965,-0.2079854003909536,-0.4637918436082461,-0.0281101651489734,0.0031549879349768,0.0382377579808235,6.468594074249268e-05,-0.0183183848857879,0.0196955204010009,0.0628751665353775,0.0175011120736598,0.0555632443278096,-0.0318172201514244,-0.0020144981814111,-0.0258648744229227,87
1733313814833736700,-0.2353321660496294,-0.3775467802017927,-0.766097769498825,-1.877102032357454,5.438889089772105,7.941370507383346,-0.5066230297088623,1.4613919258117676,0.0491609908640384,-0.8254002688831965,-0.2029310029837809,-0.2322106828678743,-0.4728759696334716,-0.0054437350481748,0.040633600205183,0.0583107359707355,0.0021632611751556,-0.021397590637207,0.010184109210968,0.0322072058916091,0.0178313218057155,0.0165934074044227,-0.0225200895220041,-0.0145012939633801,0.0037907705850899,88
1733313814873736700,-0.5876920441552996,-0.1542804611295461,-0.2551145787537098,-2.0929159895971416,5.294182512673736,7.985093913775682,-0.237220212817192,0.155465081334114,0.1595650911331176,-0.8228057533860587,-0.1884076420932281,-0.2395330493020119,-0.4797053605670847,0.0397378578782081,0.0516937598586082,0.0658144578337669,-0.009763017296791,0.0035307854413986,-0.0081272721290588,0.0038172844797372,0.0297273211181163,-0.0098152915716171,-0.0286141671240329,-0.0295822509782388,0.0221523567058146,89
1733313814913736700,0.3551870643556117,-0.3568623040914535,0.2941647326380014,-2.0986149318911136,5.301786557936668,7.97855019122064,0.0135950818657875,0.2233375012874603,0.1097462177276611,-0.8207769561196243,-0.1877023577379559,-0.240779939620833,-0.4828231240936912,0.0020152465440332,0.0081213572993874,0.033256784081459,-0.0158669054508209,-0.0008615851402282,0.0007404088973999,-0.0110849197953939,0.0237587876617908,-0.0243272165268659,-0.0325861126184463,-0.0186413529101759,-0.0108303138330578,90
1733313814953736700,0.6484051637932657,0.4111123651951551,-0.0811655405580997,-2.1938624815545973,5.26733542228043,7.975746239715814,-0.1731725037097931,0.2812557220458984,-0.1122602969408035,-0.8199622228782968,-0.1831620054612468,-0.244544023338746,-0.4840578220883471,0.0005044350400567,-0.0402258820831775,0.0017452625324949,-0.0096896290779113,-0.0006533861160278,-0.0023624897003173,-0.0126814255490899,0.0310728419572114,0.006339139893651,-0.0279377587139606,-0.0128866253083571,-0.036243425900489,91
1733313814993736700,0.1071924006097018,0.1463847394436597,0.1745084256440401,-2.312251983483136,5.207199225747585,7.981788442489504,-0.1340840756893158,0.3566892147064209,-0.1707609593868255,-0.8205243698100338,-0.177353342689872,-0.248168975448046,-0.4834228227434961,-0.0007437884341925,-0.0283600613474845,0.0104537326842546,0.0056769996881484,0.0094792544841766,0.0062217116355896,-0.0142779313027858,0.0383868962526321,0.0370312152773141,-0.0232894048094749,-0.0071390215670689,-0.0616506196837872,92
1733313815033530400,0.0677513477116823,0.1895078418552875,0.1166495263934135,-2.458062430170178,5.119783977144956,7.994756645134091,-0.189687117934227,0.3576212227344513,-0.2350111007690429,-0.8216923289742649,-0.1697507748504871,-0.2521220752420183,-0.4821213300573163,0.0062725758180022,-0.011278280057013,0.0337782278656959,0.0104099661111831,-0.0059684216976165,0.012960135936737,-0.0256877429783344,0.0154499234631657,-0.0620006615307414,0.0030557364225387,-0.0007718531638209,0.019344822721125,93
1733313815073530400,-0.4967912915244698,-0.429051926511526,0.0402940164655446,-2.611630651377141,5.057791923612356,7.985518861189484,-0.1335618793964386,0.3042312860488891,-0.0349539779126644,-0.8217248182202193,-0.1629037457051466,-0.257515453109758,-0.4815771841353796,-0.0853931605815887,0.0044595105573534,0.0251964591443538,-0.0045565217733383,-0.0051255524158477,0.0072574019432067,-0.0129663487896323,0.0114807225763797,-0.0468476758927106,0.0032141064293682,0.0014105243850499,-0.0107032533872872,94
1733313815113530400,0.2187868355706334,-0.231868727722764,-0.6964204221606254,-2.6409704353690144,5.017727624249458,8.001129102775455,-0.1199137866497039,0.0519794411957263,0.0658079534769058,-0.8212330960661017,-0.1597337847274116,-0.2579555664463958,-0.4832392503153828,-0.0141685176640748,0.0688478723168373,-0.0065434933640062,-0.0092023164033889,0.0157782286405563,0.0062099695205688,-0.0073063019663095,0.0089009348303079,-0.0403583138734102,0.0062740473076701,0.0064221785346046,-0.0050139557044953,95
1733313815153530600,0.4804778701052069,-0.286394098636508,-0.8819692972570657,-2.668928117352724,4.936981185886264,8.04197899955809,-0.5270506739616394,0.2845573425292969,0.0078461058437824,-0.8207702083275136,-0.1543294238293219,-0.2572073177771694,-0.486171962377165,0.022436898201704,0.076858289539814,0.0062631820328533,-0.0030024200677871,0.0150145590305328,-0.0026367902755737,-0.0129509698599576,0.0092038642615079,-0.048305473485589,0.0032400693744421,0.0114069446772336,0.0148969787500798,96
1733313815193530600,1.0357724962636827,-0.0312783508390188,-1.470980315056443,-2.794163393522799,4.680069494582712,8.152299322929977,-0.9928887486457824,0.5415667295455933,-0.4363847970962524,-0.8236809454479717,-0.1388741820390264,-0.255073287493973,-0.4870330320564888,0.0396680831909179,-0.004161620978266,-0.0016040620394051,-0.0036132931709289,0.0040545761585235,0.000132143497467,-0.0185262523591518,0.0094748539850115,-0.0275537773579359,-0.0057574398815631,0.0186779220608994,0.0126160282060503,97
1733313815233530600,0.2227677219003438,0.2446530982330441,-0.7525929757595062,-3.1454896907970307,4.189258738772571,8.29013835234642,-1.4404326677322388,0.8987794518470764,-0.6034132242202759,-0.8286603628917403,-0.1073888851171872,-0.256492114079868,-0.4857998807930401,0.0440210215747356,-0.0229542162269353,-0.0298462193459272,-0.0112492889165878,0.0017513483762741,-0.0042857527732849,-0.0273500457406044,0.018569853156805,-0.024858546924591,-0.0137266898527741,0.0278482850587926,0.0237239168714731,98
1733313815273530400,-2.5787372665569186,-0.9650289809986948,4.023906556269527,-3.339130686934292,3.875779649333656,8.366535947850346,0.1279110461473465,-0.0585620254278183,0.2240701168775558,-0.8298113742066004,-0.0873377551361085,-0.256510245618437,-0.487839776384563,0.0049623004160821,-0.0485941208899021,-0.0177800357341766,0.0129889696836471,-0.0068273991346359,0.0096559524536132,-0.0476164743304252,0.0161704868078231,-0.0311076704472303,-0.0127811841666698,0.0379607694786973,0.0414643754191696,99
1733313815313530400,0.7477198167651892,0.003849368904531,0.2755857043743133,-3.341837315544486,3.944937356711924,8.333065639925003,0.119595780968666,0.0127892782911658,-0.0688337758183479,-0.8286285386591571,-0.0902843419287551,-0.2588061925057866,-0.488101309274514,-0.0842906162142753,-0.0397243537008762,0.0108338985592126,0.0096613615751266,-0.0171738117933273,0.0145245790481567,-0.0589224994182586,0.0140372244641184,-0.0184819976300001,-0.0138138802722096,0.0378398830453865,0.0152269413568079,100
1733313815353530400,-0.2955292989894748,0.1230968028366565,0.2404179448813199,-3.321360929226876,3.981013755482435,8.324090306308864,0.1355539262294769,-0.1551295518875122,0.0281179752200841,-0.8292459236936801,-0.0929430258830439,-0.2587491270555629,-0.4865816692854044,-0.0039630178362131,-0.0033472266513854,0.0403909236192703,-0.0003301501274108,-0.0049804896116256,0.0184369683265686,-0.0772922709584236,0.0147251849994063,-0.0026209961533546,-0.0232104882597923,0.0285900068041868,0.0184508718393743,101
1733313815393530600,-0.1454655787721276,-0.0490697358563542,-0.2770662983208894,-3.212851454669237,4.012820221848786,8.351361759594083,-0.0278799626976251,-0.3198358118534088,0.2122865915298462,-0.8291291852825369,-0.0968504325361365,-0.2545958521912133,-0.4882065821105592,-0.0373228378593921,0.0457548052072525,0.0309313777834177,-0.0065258741378784,-0.0057615041732788,0.0149617195129394,-0.0895881578326225,0.0244204923510551,-0.0056809682458639,-0.0246697030961513,0.0164355499615892,0.0266910961139947,102
1733313815433530600,-0.3075345018208026,-0.074939505650103,-0.1900660602599382,-3.06185542203784,4.0397374548688525,8.394995149615406,-0.0407733507454395,-0.3694994747638702,0.2830948233604431,-0.8282531254050598,-0.1010689731144195,-0.2485144213572625,-0.4919577629395924,-0.0061505381017923,0.0235533639788627,0.0043783299624919,-0.0085916668176651,0.0166688561439514,0.0070526599884033,-0.0932260826230049,0.0388811975717544,0.0049205052673816,-0.0188707634806633,0.0022813341365195,0.000446063267067,103
1733313815473530600,-0.0156616795122623,0.1772042405992746,-0.0457680639624595,-2.9003265972152352,4.037338869294524,8.45330646880865,-0.1544614881277084,-0.2404779493808746,0.2809750437736511,-0.8272337310868509,-0.104015135127503,-0.2412098238989886,-0.4966720141862394,-0.0148428287357091,0.0373654216527938,-0.0090101128444075,-0.0240792632102966,0.0145215094089508,0.0112030506134033,-0.0911550000309944,0.0407375954091548,-0.024700141492486,-0.0128742139786481,-0.007601360115502,-0.0204587045304477,104
1733313815513530400,-0.1034361168161034,0.1332908645927906,-0.0880050311893224,-2.789657314275205,4.02917835919261,8.494346335205435,-0.0745910480618476,-0.2497889548540115,0.2398986667394638,-0.8261321056026559,-0.105575670367231,-0.236141136587861,-0.5005966749161334,0.0653883591294288,0.0054838685318827,-0.0306583512574434,0.0015763342380523,0.0311843007802963,-0.0213215351104736,-0.0855549946427345,0.0361925102770328,-0.0393342315226793,-0.0113699687644839,-0.0095073946662247,-0.024114815885201,105
1733313815553530400,-0.3560112402200698,-0.0300286430388689,-0.7048924824297428,-2.592448104262352,3.999315720370412,8.570593124061823,-0.3526367247104645,-0.5005755424499512,0.4043601751327514,-0.8249317414771785,-0.1080837831976213,-0.2265816538008469,-0.5064249644687698,0.0287272855639457,-0.0243008714169263,-0.0392704792320728,0.0049077123403549,0.003115490078926,-0.0079819560050964,-0.0704228207468986,0.0316069275140762,-0.0404687885105609,-0.019749354571104,-0.0199644547400996,-0.0716863490730524,106
1733313815593530400,0.0022056933507323,-0.0054199792221188,-0.1827086832344532,-2.39311547235474,3.930414325840771,8.659978211432694,-0.1804059296846389,-0.4360696375370025,0.1770821511745453,-0.8246831428627519,-0.1092637243297899,-0.2156975256763812,-0.5113058772901408,0.0732319056987762,0.0244120731949806,-0.0329603850841522,-0.0053506940603256,-0.00581955909729,0.0062979459762573,-0.0516271814703941,0.0304095055907964,-0.0385690923690795,-0.0246463045477867,-0.0314913177362643,-0.072013389070332,107
1733313815633530400,-0.1168764670170843,-0.4230073856502771,-0.2481622753977775,-2.139658451549709,3.860632056823373,8.757154975593089,-0.2331365942955017,-0.539445161819458,0.3558768630027771,-0.8249113205641158,-0.112106397601849,-0.2023400633878004,-0.515763481495672,0.0435560308396816,0.0601306557655334,-0.0176719110459089,-0.0113155990839004,-0.0092514008283615,0.0050244927406311,-0.0366130247712135,0.0246359761804342,-0.0355675724655389,-0.0181745812296867,-0.019362616389431,-0.0448211385011672,108
1733313815673530600,-0.8738090794160962,1.646153049828112,-0.533311342409253,-1.891942458614707,3.8483901226267214,8.819344013002514,-0.2791515290737152,-0.2329785078763961,1.227325677871704,-0.8192352732381794,-0.115659543851914,-0.1922536526804427,-0.5277450446515387,0.020729012787342,0.0789832845330238,-0.0546497702598571,-0.0068785399198532,0.008738949894905,0.0012015104293823,-0.0318601615726947,0.0252427440136671,-0.0093541038006544,-0.0067963367328047,-0.0120224462270736,-0.0273533594150096,109
1733313815713530600,0.0009783435128629,1.2311945305988192,-0.90984339261055,-1.592972663782537,3.696820674021542,8.942389962434769,-0.9295809864997864,-0.4737230837345123,0.8114389777183533,-0.810837209628159,-0.1134580321229684,-0.1766133532558801,-0.5463313453360693,0.0249772872775793,0.0160205066204071,-0.058655098080635,0.0126367509365081,-7.836520671844482e-05,0.00142502784729,-0.0360665991902351,0.0228531695902347,-0.0260328514009714,0.0020476337522268,-0.0150169336016289,-0.0098649759322404,110
1733313815753530600,-0.5318373243339359,0.5804077323660254,-0.6204354991108179,-1.3155885316841305,3.3713717453256247,9.114464438930153,-1.1349852085113523,-0.3802525103092193,1.05977201461792,-0.8047612317813253,-0.1042410891036548,-0.1562863794840756,-0.5630876797678512,0.0269863773137331,0.0148784359917044,-0.0394607633352279,0.0048257261514663,-0.0139223039150238,0.0095071792602539,-0.0373367667198181,0.0075884088873863,-0.0510860441148281,0.0055971462279558,-0.0069807257328182,-0.0185279556635767,111
1733313815793530400,-0.185652408536151,0.0582324087381362,-0.1231289515405893,-1.052299560433626,3.0534815614461897,9.2595521243006,-0.8295231461524963,-0.0464685186743736,1.3950265645980835,-0.7932873076367661,-0.0947317521010734,-0.1375504836288647,-0.58549223334765,0.0366888046264648,-0.0102938162162899,-0.0113630825653672,0.0112546384334564,-0.0200605243444442,0.0092980861663818,-0.0358500033617019,0.0036408230662345,-0.0390618443220853,-0.0015646051615476,0.0101823347857221,-0.0668164780143648,112
1733313815833530400,-0.3050380818951875,-0.931456674003601,-0.282630362188816,-0.9347093191239982,2.8581901677533983,9.334208429095147,-0.5635823607444763,0.1334284096956253,1.451612114906311,-0.7769916432121107,-0.0862314327920958,-0.1290424132936133,-0.610078759349452,-0.0161270052194595,-0.0565743371844291,-0.0131472004577517,0.0079452395439147,-0.0132960230112075,0.0137878656387329,-0.0307370815426111,0.0016615579370409,-0.0378980612397193,-0.0004953070310875,0.0255746775710023,-0.0731731535647064,113
1733313815873530400,-0.573054373928532,-0.8020596019789576,-1.4002046510875223,-0.7606654422517866,2.711135858485102,9.393695221808551,-0.5662076473236084,-0.0369141474366188,1.7520592212677002,-0.7583836118668066,-0.0819107345540369,-0.1197725015835607,-0.635452200830881,-0.0326532498002052,-0.0378968939185142,0.0008294680155813,0.0173823535442352,-0.0135133117437362,0.0124886631965637,-0.0248278304934501,0.000885096611455,-0.053803486379981,0.0019186736317351,0.024249255919829,-0.0810681445982307,114
1733313815913530600,-0.4118062657434493,-1.2032044076502322,-0.5539636698156595,-0.6670807112339884,2.525701257418096,9.452312830471993,-0.7628917694091797,0.8080554604530334,2.139627456665039,-0.7330150595601487,-0.0730344313522627,-0.1128367479331106,-0.6668003403937682,-0.0515912547707557,0.005888030398637,-0.0007490541320294,0.0047622025012969,-0.0169413983821868,0.0139257907867431,-0.018918577581644,0.0001086352858692,-0.0697077424764633,0.0043326541781425,0.0229221903008408,-0.0889628433708101,115
1733313815953530600,0.1281120737154036,-1.0061648551158606,-2.641219441694021,-0.8231785970490425,2.1886012000255284,9.52380102662444,-1.4245920181274414,0.7620722651481628,1.9711589813232424,-0.7035635582474872,-0.0498310116350449,-0.1092618668024957,-0.7004119927806006,-0.0145714525133371,0.0258370768278837,0.020958038046956,-0.0061967819929122,1.1578202247619627e-05,0.002662181854248,-0.0012227948755025,-0.0042745070531964,-0.044823476588726,0.0110153891146183,0.0460578224229626,-0.1026322530873119,116
1733313815993530600,0.5438458151008934,-1.214204817353189,0.0736444974035024,-0.7614188179023563,1.6726944352731108,9.632897945681211,-1.504377007484436,-0.4938990473747253,1.0761970281600952,-0.6819092932279386,-0.0302644100417753,-0.0891233162195503,-0.7253556611218066,-0.0212027244269847,0.0100395251065492,0.0082919113337993,-0.0031282752752304,0.0130333006381988,0.0033550858497619,0.0076822005212306,0.002054750919342,-0.027460253855586,0.0180415362119674,0.0485212168618105,-0.0643602439686655,117
1733313816033530400,-0.1217178426336497,-1.7980353637747466,0.5521902304023504,-0.457529321520403,1.2045726272635162,9.721628368535637,-0.7698445916175842,-0.779924750328064,0.912523627281189,-0.671271387509844,-0.0241091205071659,-0.061267061263476,-0.7382817032906372,-0.0207784827798604,0.0155623350292444,-0.0015077221905812,-0.0066211819648742,0.014072448015213,-0.0011643171310424,0.0199652984738349,0.0024918576236814,-0.0197989254474639,0.0300815310329198,0.0714604678953066,-0.0451956709019839,118
1733313816073530400,-0.4587692751115187,-1.5540408755809068,-0.170670454916358,-0.0354837278236984,1.104529586951807,9.744185068258645,-0.0896625965833664,-1.0700514316558838,1.1037453413009644,-0.6563758234596871,-0.0357167058596829,-0.0436938260393539,-0.7523203431517514,0.0349321849644184,-0.0128985466435551,-0.0069062826223671,-0.0057535916566848,0.0256277918815612,-0.0056676268577575,0.0285679027438163,0.0132529865950346,-0.0228606511056423,0.0327292755246162,0.0586296278947964,-0.0201846368294209,119
1733313816113530400,0.027195136645995,-0.6339422656115145,-0.4722019169300794,0.2616054386103525,0.9324692851122468,9.758711606261134,-0.8768802285194397,-0.2651722133159637,1.2806967496871948,-0.6403627696204166,-0.0407676533013027,-0.027967614919839,-0.7664798516028856,0.0448127761483192,-0.0246132593601942,-0.0439368709921836,-0.0172856897115707,0.0250507742166519,-0.0078189969062805,0.0371705070137977,0.0240141153335571,-0.0259025030195713,0.0353770181536674,0.0457826770097017,0.0048170448929071,120
1733313816153530600,-0.5455028250603005,-0.8203623705845325,-1.4411866498172283,0.5110861761955544,0.3931470483830198,9.785428348273038,-1.6598726511001587,-1.0721675157546997,1.8904941082000728,-0.6161059425432507,-0.032892520933186,0.0002800048110778,-0.7869761637950609,0.0381615310907363,-0.028638893738389,-0.0592760145664215,-0.0058880448341369,0.0090183913707733,0.0015071630477905,0.0288422368466854,0.0201029404997825,-0.0532230561435222,0.0272543765604496,0.0284118006930686,0.0398358243692666,121
1733313816193530600,0.4893821112465113,0.1398406515624374,2.5314836402118206,0.7672744120627641,-0.2390503645888529,9.773664845243095,-1.1484169960021973,-0.2468671798706054,1.3096240758895874,-0.5898700130734595,-0.0244002501452195,0.0329604396572274,-0.8064562387170076,0.0310735292732715,-0.0208274163305759,-0.0469074957072734,-0.0011382699012756,-0.0017855018377304,0.0160802006721496,0.018835861235857,0.0084997080266475,-0.0584182866990566,0.0213706046342849,0.0234901629145257,0.0400091351095587,122
1733313816233530600,0.5006080733336508,0.2596297546232119,1.5802356395453214,0.9945708634339272,-0.4994988334501162,9.74329074976742,-0.0489774458110332,-0.7626492977142334,0.5158160328865051,-0.5750124877433205,-0.0268296902989587,0.0501058074131827,-0.8161680519051504,0.0284929275512695,0.0119160953909158,-0.0255293697118759,0.0035573244094848,-0.0023848116397857,0.0111110806465148,0.025921918451786,-0.0021711019799113,-0.0414595531135797,0.0171879939734935,0.0173919556372798,0.0077329323396086,123
1733313816273530400,-0.1953954385891556,-0.281867195796594,1.3737953675895929,1.2017083238735795,-0.4380393158916383,9.722880414423344,0.2509730160236358,-0.3400062620639801,0.4963582158088684,-0.5673739079664741,-0.0377840944736753,0.0533237630966466,-0.8208629014116389,0.0010714221280068,0.0128558184951543,-0.0224869064986705,0.0066933780908584,-0.0056062936782836,0.0108638405799865,0.0306025519967079,-0.0034254565834999,-0.0307499430507421,0.0067478325217962,0.0171444836822338,0.0108278296150267,124
1733313816313530400,0.3896571969732642,0.078889010460861,0.2725409298509359,1.3015471468500792,-0.4809652517633512,9.707987965717912,-0.2907648980617523,-0.4347963333129883,0.5063995122909546,-0.5581700005822413,-0.0413799753209342,0.057602578557023,-0.826689786533702,0.0249762218445539,0.0050732092931866,-0.0054157115519046,0.003487005829811,0.0038986206054687,0.0053208470344543,0.0313225500285625,-0.0024913791567087,-0.032555531167984,-0.0054078949615359,0.0308494396361522,0.0057706192906945,125
1733313816353530400,0.1933268156215548,0.5891892969757319,0.665652358931303,1.5108958535984158,-0.5845505312591791,9.671911859208343,-0.0535405836999416,-0.5956668853759766,0.243661418557167,-0.5516643960314094,-0.0478204576954668,0.0676973970249771,-0.8299377560979272,-0.0046996483579277,-0.010682052001357,-0.0156393200159072,0.0092050284147262,0.0006223917007446,0.0063719153404235,0.0329456254839897,0.0033453777432441,-0.02887012065351,-0.0303046815097332,0.0132336669140495,-0.0131632868252694,126
1733313816393530600,-0.019133885667473,0.2525191554330289,0.5807990697711706,1.6857975163437424,-0.5808240580819547,9.643190207114817,0.0841754749417305,-0.2969174385070801,0.2859283089637756,-0.5469787186267485,-0.0557919558838126,0.0722592230719029,-0.8321539470451393,0.0117701394483447,-0.0156328156590461,0.0143249034881591,0.008682832121849,-0.0082159489393234,0.0099087953567504,0.031349740922451,0.0085651520639657,-0.0211526781439781,-0.0352300629019737,0.0044378363169729,0.0021057401075959,127
1733313816433530600,-0.3027095658823847,-0.2282368009611964,0.5766349358290433,1.76766170669049,-0.5736711541200057,9.628948915794492,0.1505142003297805,-0.222537100315094,0.4654181003570556,-0.5406927996586524,-0.0600579850418207,0.0738462703885769,-0.8358175467902222,0.0034064818173646,-0.0002950309426523,0.0420329645276069,0.0032030940055847,-0.0130672305822372,0.0077611207962036,0.0323274433612823,0.0050942376255989,-0.0101461309611797,-0.0276738107204437,0.009666585549619,0.0054975745029747,128
1733313816473530600,0.6559555791728198,-0.2601946584969759,0.7148813770025968,1.8227913271076976,-0.4567191011160612,9.624927405193448,0.6061722040176392,-0.0538947209715843,0.3697615265846252,-0.531439175637272,-0.0664568134747145,0.0696331510582892,-0.8416098713082344,-0.0068426933139562,0.0059185498394072,0.0412994623184204,0.003735065460205,-0.0045786350965499,0.0033615827560424,0.0367415025830268,0.0084892129525542,-0.0165162505149841,-0.0242002364248037,0.0100800069224089,0.0117381493929773,129
1733313816513530400,-0.1354755151554942,-0.3269165170304477,-0.1237999826699495,1.845384413318336,-0.2452976432142779,9.628331660678985,0.5434090495109558,-0.1502874046564102,0.4158481359481811,-0.5248814629561992,-0.0736870653468116,0.0605138255790439,-0.845817854704445,-0.0003515048883855,-0.0158795826137065,0.0591867826879024,0.003871738910675,-0.0029954314231872,0.0024827122688293,0.0411555618047714,0.0118841882795095,-0.0228740951091051,-0.0207266621291637,0.0105084980001673,0.0179686412803828,130
1733313816553530400,0.0291432385064661,-0.0631666776693891,-0.1307914489924907,1.8980393141850829,-0.1392930093507282,9.620209144499896,0.1578534096479416,-0.0291030444204807,0.4158793985843658,-0.5165596187542237,-0.079409398144207,0.0565683038340434,-0.8506823075332891,0.0057154423557221,-0.0341861508786678,0.0805778205394744,-0.0009297132492065,-0.0106703788042068,-0.0066350102424621,0.0327550359070301,0.0135125592350959,-0.0271317525535821,-0.0131485201418399,0.0054777555576525,0.0471062537636607,131
1733313816593530400,-0.0986116192691028,0.0483150632978416,-0.1143792433738708,1.8565541882388288,-0.1738610311185941,9.627739540004727,-0.1218309253454208,0.1429878026247024,0.4624374210834503,-0.5094650003149401,-0.077136550620069,0.0563192819740127,-0.855174586879573,-0.0058208387345075,-0.0571210272610187,0.1060674116015434,0.0080266147851943,-0.020108163356781,-0.0048853754997253,0.0232259817421436,0.0076639507897198,-0.0243026666074991,-0.0101665314286947,-0.0119719216162338,0.0395312153995037,132
1733313816633530400,-0.2168957611270248,0.0418199839238077,0.6196493171691894,1.7993134208865462,-0.2367978364217094,9.637260232543944,0.1289496719837188,0.2406471073627472,0.5670162439346313,-0.5005107451294731,-0.0735551361171925,0.0567989795015243,-0.8607278820631215,-0.001811183290556,-0.0519913025200367,0.1352786123752594,0.0078471899032592,-0.0183463841676712,0.006346583366394,0.019502954557538,0.0061908615753054,-0.0120095867455005,-0.0059403269551694,-0.0089971983880735,0.0357207172006368,133
1733313816673530600,0.0338619375914335,0.0903984839308075,0.2647399007111787,1.662579576233029,-0.1141908537954557,9.66401438395679,0.584498941898346,0.3679084181785583,0.3759869933128357,-0.4924528870564241,-0.07107160898355,0.0471298006206527,-0.8661511749811889,0.0028951547574251,-0.0287268329411745,0.1295696049928665,-0.0016427189111709,-0.0018817037343978,0.0118244886398315,0.0163378063589334,0.0037844767794013,-0.0076712652802467,0.0034043206833302,-0.0129154860766604,0.0604901976022869,134
1733313816713530600,-0.7662376163609326,-0.4630440663538873,-0.7348392924040555,1.565601549515128,0.0436099223807686,9.680773211055994,0.3722137212753296,-0.0575968474149704,0.6565186977386475,-0.4848239343508231,-0.0710550740407843,0.0370012815465021,-0.8709350575135828,-0.0087063731625676,-0.017886808142066,0.0920576453208923,-0.0136065334081649,0.011624127626419,0.0115788578987121,0.0087619079276919,0.0049793538637459,-0.0164162972718477,0.0018055172404274,-0.006710676619783,0.063635729086399,135
1733313816753530600,1.1013291104100644,0.6601562457330524,0.1168102699130773,1.4924891131617128,0.1632994329580105,9.691036830917,0.4123230278491974,0.2685135304927826,0.2923000156879425,-0.4745925021328174,-0.071095152425309,0.0289847189975243,-0.876850732065129,0.0140242390334606,-0.0049317008815705,0.056565836071968,-0.0138313621282577,0.020582303404808,0.0090159177780151,-0.0098527437075972,0.0004373956471681,-0.0208814599871635,-0.0088934022933244,0.0014857450457289,0.0537260372295975,136
1733313816793530400,0.249634686037898,0.6621118367802351,-0.4831663785368204,1.5226729467622937,0.3058938219416886,9.68288567316532,0.3550811111927032,-0.3104873299598694,-0.1623949408531189,-0.4732826990565144,-0.0759714439439864,0.02320668384634,-0.87732162347327,-0.0008556412067264,0.0160995479673147,0.0251483898609876,-0.0144921243190765,0.013018250465393,0.0107129216194152,-0.0284673944115638,-0.0041045625694096,-0.025347207224369,-0.0195923205465078,0.0096823859069496,0.0438170029599219,137
1733313816833530400,-0.0017694938905537,0.1465632743483409,0.6662059011608362,1.613516123986989,0.4657537637040019,9.661781510338187,0.4055950343608856,0.1692194044589996,0.0068537797778844,-0.4751008264391921,-0.083944884222143,0.0184252648956083,-0.8757242337174111,0.0092547833919525,0.0118749225512146,0.021538408473134,-0.0060178488492965,0.0010147839784622,0.0036203861236572,-0.0570474155247211,0.0017500482499599,-0.0003618190497159,-0.0370561927556991,0.0059185581277124,0.0236283475425094,138
1733313816873530400,-0.164570822867006,0.1217213497649878,-0.9693430448055268,1.5071194037996232,0.4919424632538109,9.677653033208848,-0.250161737203598,0.1394806951284408,0.2550200521945953,-0.4715896050984924,-0.079826710248247,0.0143077488004299,-0.8780809885735457,-0.0034988287370651,0.0127065740525722,0.0237807221710681,-0.0036063343286514,-0.0108028203248977,0.0081132650375366,-0.0767712295055389,0.0180949941277503,0.0229196878165006,-0.0351445488631725,-0.0081741915673948,0.0001695844132453,139
1733313816913530600,0.0382775620765984,0.1179469823254272,0.3856909236907959,1.5354611166648566,0.392616485170275,9.67773720436096,-0.0505823828279972,-0.0674561411142349,0.1111882179975509,-0.469195516235922,-0.0787525312746183,0.0192553331533014,-0.8793649474786143,-0.006682370789349,0.0217068865895271,0.0317070223391056,-0.0046349912881851,-0.008294254541397,0.0049784183502197,-0.0780970528721809,0.0108893029391765,-0.0142898066371679,-0.0064638499170541,-0.0078021433846093,-0.0364488853447139,140
1733313816953530600,0.0904046396769583,-0.5078730228353291,0.8675333601474762,1.4535561559163033,0.4297621936727315,9.688801034688948,0.2211705595254898,0.5861664414405823,0.2736956179141998,-0.4655307279062242,-0.0759955328363623,0.0152745183889456,-0.8816305393378552,-0.0110539495944976,0.0030101118609309,0.0405882000923156,0.0061740577220916,-0.0062260776758193,0.0060494542121887,-0.0806463882327079,0.0004322938621044,-0.0236216986060142,0.0091051617637276,-0.022231714685494,-0.0459003851052373,141
1733313816993530600,-0.4382702020380645,-0.7321727035433053,-0.0928144772976636,1.190648073742166,0.5087637611299752,9.720797178408503,0.3181777894496918,0.4963536560535431,0.5096539855003357,-0.4586318948810562,-0.0659809766311078,0.0048763745564798,-0.8861599276891374,-0.0217779669910669,0.034190084785223,0.0533190406858921,-0.009058266878128,-0.0121049284934997,0.0141637325286865,-0.0990691930055618,-0.0296750329434871,-0.0629834026575088,0.021735843271017,-0.013142874224903,-0.0298144888315349,142
1733313817033530400,0.2893146622583269,0.3660462389569729,-0.2450058571934699,1.084059265048802,0.627248101735115,9.72634370661974,0.3014496564865112,0.1430733799934387,0.0216175951063632,-0.4531001442128798,-0.0638974497217097,-0.003406372205023,-0.8891601977073413,-0.0046439878642559,0.0353031754493713,0.0513329915702343,-0.0042337626218795,-0.0018234699964523,0.0040996074676513,-0.0996071249246597,-0.0391221977770328,-0.0190478148192167,0.0157232750207185,-0.0296673354458063,-0.1060447649445384,143
1733313817073530400,-0.0241468915238976,0.127964920329675,-0.3349912485450506,1.030759052015841,0.6941440747264772,9.727593998941778,0.0048545487225055,0.2385478168725967,-0.119212120771408,-0.4544455623388287,-0.0630323579329506,-0.0075933069723096,-0.8885091989810447,-0.0309328511357307,0.0237340871244668,0.0426918268203735,0.0003761351108551,-0.007449135184288,0.0002739429473876,-0.1062744110822677,-0.042324461042881,-0.0169926358550786,0.0254781357944011,-0.0284039096475578,-0.1655666289713233,144
1733313817113530400,-0.1461597715813666,-0.0330964331116527,-0.3574129237115382,0.9200854582268744,0.6647167585816234,9.74073814267516,-0.097095251083374,0.2661645710468292,0.0673086196184158,-0.4543903102593812,-0.0572924633445338,-0.0088399757892305,-0.8889145101383517,-0.0135546587407588,0.0285594668239355,0.0504583418369293,-0.0044485032558441,-0.0083595067262649,0.0048785805702209,-0.1129416972398758,-0.0455267243087291,-0.0149053081870079,0.0352329984307289,-0.0270972474957816,-0.2251682071708142,145
1733313817153530600,0.1298379476599395,0.1257685793291777,-0.3076566668957471,0.8468466190148144,0.6444160941570997,9.74874141638875,0.0175207704305648,0.1147445812821388,-0.0375079177320003,-0.4539487331211492,-0.0534733062383151,-0.0096494618142743,-0.8893694245019467,-0.0029012153390794,0.0529069378972053,0.0478710792958736,-0.0071333348751068,-0.0037456154823303,0.0084248185157775,-0.1025373488664627,-0.05306838452816,-0.0068207859307527,0.1067970469594001,-0.0414577082163654,-0.1642380837813019,146
1733313817193530600,-0.0166728293161839,-0.062891267394647,-0.0234364051669836,0.7735398291330784,0.6734127637997269,9.752873401626944,0.0903236046433448,0.2982819378376007,-0.0541727915406227,-0.4553064765948389,-0.0508256970478157,-0.0125937269480791,-0.8887937053529685,-0.0082139549776911,0.0475302264094352,0.0335324853658676,0.0008203387260437,0.0046958029270172,-0.0015712976455688,-0.0945365205407142,-0.0516234710812568,-0.0102484222918748,0.1837225258350372,-0.0721005558971315,-0.1525646701876074,147
1733313817233530600,0.0797430334743112,0.031360914555937,-0.617751374593377,0.6404627534214407,0.6684941582284868,9.762853528371451,-0.1574991345405578,0.2891354858875274,0.0806189402937889,-0.454061314227157,-0.0446290106616329,-0.0155323750818177,-0.8897164470766027,-0.0089071756228804,0.0249607916921377,0.0301378220319747,-0.0082724541425704,-0.0003537386655807,0.0011139512062072,-0.0736817717552185,-0.0515595115721225,-0.0501402876973152,0.2164586931467056,-0.0705788079562596,-0.1561314958237111,148
1733313817273530400,-0.0705766342654824,0.2917230751069262,-0.4721387885659933,0.6079252328341826,0.5820108932463451,9.77046926407218,-0.1768112033605575,-0.1130726709961891,-0.0870024859905242,-0.4542938670599886,-0.0411370782005928,-0.0123463445491435,-0.8898159725640149,0.0036903747823089,0.0240767803043127,0.0159862507134675,-0.0110006779432296,0.0016585886478424,0.0020483136177062,-0.0447896346449852,-0.0551873296499252,-0.0542354480564594,0.2469491809606552,-0.0559076555849984,-0.1122058448575437,149
1733313817313530400,-0.0179554164726287,-0.0234684077404439,0.2716033567398786,0.6509224803764373,0.5789231563640758,9.767882754710316,0.1000346690416336,-0.0629445016384124,-0.1934540271759033,-0.4569813557669163,-0.0430566321739307,-0.0110774223571289,-0.8883645262058134,0.0051338081248104,0.0382249318063259,0.0081868497654795,-0.0026946514844894,0.0014436841011047,0.0049138665199279,-0.0140615906566381,-0.0688154771924018,-0.0739677380084991,0.2664454281330108,-0.0373447382058948,-0.0424292749285697,150
1733313817353530400,-0.0855281196817755,-0.2462211512673646,-0.0705523766070604,0.6321542862161994,0.5930811533151195,9.76826620106995,-0.1042784750461578,0.0690991580486297,-0.0455568842589855,-0.4594860739353614,-0.042569047661358,-0.0120381551252407,-0.8870826322643622,0.0158511660993099,0.0390296317636966,0.0072764484211802,-0.0033319443464279,-0.0072302371263504,-0.00684654712677,0.0166664496064186,-0.0824436247348785,-0.0926326909899711,0.2859416604042053,-0.0187888716220855,0.0272731337856501,151
1733313817393530600,-0.1086112544316798,-0.0313419175945222,0.1978986535817384,0.6085504885930567,0.5251460465343669,9.773651985761523,-0.1600767374038696,0.07001743465662,0.0180734917521476,-0.4593361710357255,-0.0398969602828134,-0.0095218491577554,-0.8873149720952213,0.0025944840162992,0.0047753611579537,0.0137157719582319,0.0034469664096832,-0.0099499523639678,0.0023870468139648,0.032065026462078,-0.0834275186061859,-0.0970101754218339,0.2542482912540436,-0.0193835861122235,0.0651446358120068,152
1733313817433530600,0.0121971817394718,0.0600509294021874,0.2171528046280145,0.5896452605823055,0.5064770749649032,9.775796012052894,0.0291714929044246,0.052569780498743,-0.0642341822385788,-0.4596443808947408,-0.0386030721455059,-0.0091065190308895,-0.887216994162967,0.0081607569009065,0.0100567834451794,0.0148705197498202,-0.0057967156171798,-0.0004699230194091,0.0077036023139953,0.0359983593225479,-0.0780214518308639,-0.0814063635766506,0.2136842161417007,0.0114243342034518,0.1242591976795345,153
1733313817473530600,-0.1741246870234608,0.0327139000674709,-0.1711164451181888,0.58966831266433,0.5043354232937097,9.775905317646265,-0.0651821345090866,-0.0408650264143943,-0.0875706747174263,-0.4611124344838009,-0.0385685912812356,-0.0089451440203048,-0.886457941143218,-0.0079545630142092,0.0209703110158443,0.000320138526149,-0.0044288635253906,0.0126097351312637,0.0150115489959716,0.0350182577967643,-0.0538990050554275,-0.039385084927082,0.178971529006958,0.0312528510715812,0.1522524259006604,154
1733313817513530400,-0.1471834520732984,-0.0614193682111799,0.0248088625639677,0.5996875658428296,0.4783097322858869,9.77660382130444,-0.0275076888501644,-0.0141247427091002,-0.0648416653275489,-0.4628666759938143,-0.038423389119367,-0.0074552571587645,-0.8855634033794613,0.0116180730983614,0.0321769453585147,-0.0388840548694133,-0.0020569562911987,0.0126200169324874,0.0091654658317565,0.027194432914257,-0.0382632240653038,-0.0580763413935899,0.133269190788269,0.0339725948916748,0.177565858719591,155
1733313817553530400,-0.1471427547367289,-0.1130607081212103,-0.0037099604338407,0.600395056525059,0.4847605158604681,9.776242586776611,0.0383827202022075,-0.0147882718592882,-0.0403664484620094,-0.4638348312697711,-0.0386166751256338,-0.0076879023361171,-0.8850462932596841,0.0137177091091871,0.0376856960356235,-0.0290755666792392,-0.0011750906705856,-0.002759039402008,0.0011376142501831,0.0174068100750446,-0.0275197811424732,-0.0434691393703222,0.0760677605867385,0.0379397814895957,0.1400837213370017,156
1733313817593530400,-0.046501931194961,0.0154632343307137,-0.2193131975322961,0.613329101171717,0.4901621922409162,9.775169989109038,-0.0246366113424301,-0.048315841704607,-0.0375664755702018,-0.4644176128957198,-0.0393353735673804,-0.0075994154456548,-0.884709650614229,0.0280484445393085,0.0160394143313169,-0.013740886002779,0.004187062382698,-0.0021093934774398,-0.0044077038764953,0.0132822524756193,-0.0204238537698984,-0.0196177236616611,0.038423091173172,0.0421297074601054,0.0893608479787595,157
1733313817633530400,0.0087868983719497,0.0731853554591536,-0.2233785472750663,0.6376475498702376,0.4701487837925553,9.774597157657146,-0.0718077346682548,-0.067842960357666,-0.0694115534424781,-0.4654306421405967,-0.0399670412605718,-0.0060724615951325,-0.8841607332704738,0.0134687032550573,0.0002825554693117,-0.0284675005823373,0.0041751712560653,-0.0040051639080047,0.0065643787384033,0.0048114974051713,-0.0145215429365634,-0.0022539164066314,0.0395157448947429,0.0419769280511885,0.0784590032794512,158
1733313817673530600,-0.029858181842789,0.0166127331594005,0.0950999578863382,0.65489445274733,0.4533989802500233,9.774248198089005,-0.0045327879488468,-0.0219981726258993,-0.0676323100924491,-0.4666733054853585,-0.0403549120297662,-0.0048493241592909,-0.8834952876741667,0.0153555534780025,0.0060089910402894,-0.0222863033413887,0.0058705657720565,-0.000187799334526,0.0091791749000549,-0.010008331388235,-0.0090628145262599,-0.0176905549913644,0.0497543178498744,0.0430429498475044,0.0685609653278254,159
1733313817713530600,0.0134734487529844,-0.057988005523011,-0.0248205530017614,0.6498700487140566,0.4656008381646126,9.77400971315801,0.0198742449283599,-0.0063151493668556,-0.024476571008563,-0.4674154557257329,-0.0404239047793394,-0.0054855625886022,-0.8830959883381243,0.0030940929427742,0.0149476779624819,-0.0260952245444059,0.0085694789886474,-3.889203071594238e-06,0.0174316763877868,-0.0248281583189964,-0.0036040861159563,-0.0330886151313781,0.0599928945302963,0.0441171184176579,0.058661393006239,160
1733313817753530600,0.0076553370587527,0.0957250675147399,-0.0618237112283706,0.6722979344256221,0.4579340298637747,9.77285528242588,-0.0413985066115856,-0.0742349922657013,-0.1098968759179115,-0.4687234438798717,-0.0412604599563075,-0.0045427623653542,-0.8823691049748145,-0.0014223617035895,0.0414342023432254,-0.0140611976385116,-8.481740951538086e-05,-0.0061179548501968,0.0090013146400451,-0.0330638512969017,0.0103355702012777,-0.0197743755280971,0.0578995011746883,0.0339639731938019,-0.0106300054879859,161
1733313817793530400,-0.0713220458053052,-0.1363594949157908,0.0896621507465839,0.6863325972579419,0.454189765301533,9.772054487437009,0.0086323581635952,-0.0089219212532043,-0.0612801723182201,-0.4702312761827459,-0.0418110490775197,-0.0039661920484623,-0.8815433232161681,-0.0049342717975378,0.0353438146412372,-0.0094703072682023,-0.0007222741842269,-0.007869079709053,-0.0016754269599914,-0.0441838726401329,0.0211250726133584,-0.0205073659777641,0.0710405558347702,0.0289693067116662,0.0015819354292005,162
1733313817833530400,-0.0420960974514484,-0.0259647180682048,-0.0813315447747707,0.7013992334865033,0.4578188059862703,9.770814716508983,0.0071650315076112,-0.0826596394181251,-0.116055704653263,-0.4715455859633785,-0.0425835748047501,-0.0037036181482297,-0.8808052179625475,0.0192770585417747,0.0002294519799761,-0.0176744405180215,0.0045622736215591,0.0058342516422271,-0.006381869316101,-0.0537567213177681,0.0268869213759899,-0.0150648826628923,0.0847697630524635,0.0067742433752864,-0.0244616200288757,163
1733313817873530400,-0.1158727698672562,-0.0174422062534838,0.0938905820965766,0.7231021659243851,0.480869865097478,9.768125331294536,0.0868831872940063,-0.0297044478356838,-0.1339117735624313,-0.4739908159835049,-0.0441299511757737,-0.0040940320482729,-0.8794136912258633,0.0250390730798244,0.014801736921072,-0.0059484769590198,0.004336878657341,-0.0051112174987792,0.0031441450119018,-0.0543983727693557,0.0327987037599086,-0.0227028301954269,0.0866286158561706,-0.0290865764157846,-0.0816814724572934,164
1733313817913530600,-0.1335378981564194,-0.1103209444263949,0.3292997589051723,0.7244567223384976,0.5287076845386997,9.765552265936137,0.1533622145652771,0.0393153354525566,-0.0793640241026878,-0.4758137743634413,-0.0453651486553651,-0.0061151053156368,-0.8783541449241642,0.0209745559841394,0.0485559739172458,-0.0130137763917446,-0.009003072977066,-0.0041941106319427,0.0112783312797546,-0.0445154085755348,0.0328463912010192,-0.0351280120044946,0.0978406369686126,-0.0333230449417605,-0.0823104728095233,165
1733313817953530600,-0.0525978369172662,-0.0656287295345217,0.286767023602128,0.6825721487458795,0.610608882427588,9.76379227052629,0.2322929799556732,0.1680432111024856,-0.0525862015783786,-0.4766952174976359,-0.0454896785724649,-0.0107625976868267,-0.8778249444822331,0.0236126836389303,0.0422136560082435,-0.0282055120915174,0.0067145228385925,0.0037593692541122,0.0120052099227905,-0.0427860096096992,0.024232979863882,-0.0295680397897958,0.1193001866340637,-0.0251660419711843,-0.0456919391194824,166
1733313817993530600,-0.0206176214192062,-0.0189489575546234,0.1353986505270004,0.6122847066853195,0.7030920088790357,9.762231012558937,0.2527830004692077,0.2021110504865646,-0.0304204169660806,-0.4771518720020144,-0.0446004392095259,-0.0165994445799361,-0.8775314379126425,0.0150106735527515,0.0492547862231731,-0.0242754854261875,0.0039023011922836,-0.0028878152370452,0.0124251842498779,-0.0485198050737381,0.0316249951720237,-0.027089082455635,0.1012250483036041,-0.0270872192921116,-0.0095693659737968,167
1733313818033530400,0.0916558453144505,0.0269741508390754,-0.0039385084927082,0.5223072429118678,0.8214710624787956,9.75821534717679,0.3531461656093597,0.2375059425830841,-0.0790725499391555,-0.4776419953759304,-0.0434712841787271,-0.0240776422238143,-0.8771480333972529,0.0061327600851655,0.0408371165394783,-0.0032329179812222,0.0069819688796997,-0.0066322088241577,0.0032643675804138,-0.0542535968124866,0.0390170067548751,-0.0244452899485826,0.0831499099731445,-0.0289377059970051,0.0265695018612081,168
1733313818073530400,-0.3052468658076599,-0.1161345626085996,-0.0464198058694601,0.4596728363551199,0.9864267930101602,9.746078334659336,0.5232506394386292,0.1480416357517242,0.0496918708086013,-0.4779870211715952,-0.0447227437921064,-0.032987269766985,-0.8766072037206375,0.0145187880843877,0.0255551543086767,-0.003429525764659,0.0004311501979827,-0.0020263940095901,0.002363383769989,-0.0675867348909378,0.042185366153717,-0.036509237229824,0.0804250240325927,-0.0246243728425353,0.0513615274548064,169
1733313818113530400,0.8160064403973519,-0.3997020595170557,0.2240332117915153,0.2727567462923936,1.2535342265702782,9.722378310120105,0.8052763938903809,0.6965126991271973,0.2102693766355514,-0.4724692692886129,-0.0426024226752227,-0.0498166011518239,-0.8789062891951537,0.0386568792164325,0.0165857877582311,-0.0014604510506615,0.0045801997184753,0.0041582435369491,-0.0035159587860107,-0.0782673507928848,0.0346198976039886,-0.0381470675647258,0.0795302167534828,-0.0359954059561714,0.002618174008606,170
1733313818153530600,-0.1408299183281138,-0.0500425264112651,-0.8899865994960069,0.1882650204536504,1.477585266279429,9.692867553475498,0.2835707664489746,-0.1570891737937927,-0.0810451209545135,-0.6046198895332333,-0.0534703435513766,-0.0542421366948058,-0.7928641587168589,-0.0005134250968694,-0.001502881059423,-0.0014272946864366,0.0001297295093536,-0.0080843418836593,0.0049599409103393,-0.0793405622243881,0.0228422321379184,-0.0551572390764951,0.0804912745952606,-0.0438519281428307,-0.0245718024050816,171
1733313818193530600,0.0096450130386278,-0.216116739578545,-0.0966670610725879,0.2350124143096618,1.533226927872002,9.683200145941973,0.0771852433681488,-0.0774166658520698,-0.0060508484020829,-0.7036041499721839,-0.0638659882582231,-0.0470671453647167,-0.7061495297443201,0.0311012268066406,0.0155890202149748,-0.001119166961871,-9.073317050933838e-05,0.0033947825431823,0.0026478171348571,-0.068979226052761,0.0104490788653492,-0.0609141951680183,0.0744820237159729,-0.0591567570414394,-0.0478902894139755,172
1733313818233530600,0.006632003626693,-0.1522578692607581,0.0406558355152606,0.2561316285754554,1.5651359778299927,9.677558340662715,0.0999705269932746,-0.0524063073098659,-0.0103675816208124,-0.7735554635383208,-0.070400696134385,-0.0403187147306685,-0.6285142470754795,-0.001075085485354,0.0013598040677607,-0.0242740865796804,0.0027381181716918,0.0050725936889648,0.0115699172019958,-0.0481189787387847,0.014988163486123,-0.0282277310967445,0.0492669008672237,-0.0607230565100908,-0.0753240571214351,173
1733313818273530400,-0.0206792154133319,-0.032624504750967,-0.0354284562557935,0.2789537012363783,1.6145932516992092,9.668798111101983,0.1485712379217147,-0.0635499134659767,-0.0487357154488563,-0.8230707696748821,-0.0762815503846938,-0.0347794802464368,-0.5617171382219494,0.0030363022815436,0.004810675047338,-0.020359706133604,-0.0001124888658523,-0.0026566088199615,0.0137643814086914,-0.0476794689893722,0.0078755486756563,-0.0469680874019861,0.0415288209915161,-0.0456080876277759,-0.0297013290469534,174
1733313818313530400,-0.0949287843042053,0.0027522213175892,-0.1582896967709064,0.2940963983758352,1.6691488716207443,9.659080434685944,0.1142601743340492,-0.027267288416624,-0.063879370689392,-0.8593935199291278,-0.0813045178835285,-0.0302246882364855,-0.503903668866317,-0.0125788757577538,0.0279562082141637,-0.0132011296227574,-0.0051959753036499,-0.0074845403432846,0.0142492651939392,-0.04723996296525,0.0007629329338669,-0.0656827247440814,0.0337907448410987,-0.0304660115428268,0.0159283310918137,175
1733313818353530400,-0.021312417016644,-0.0246099789910018,-0.3719382926702499,0.2960470940521918,1.693069114781916,9.65485667951107,0.0030684049706906,-0.0443258993327617,-0.0400957427918911,-0.8859916938524595,-0.0840032358710429,-0.0261297458497802,-0.455279352034857,0.0147518143057823,0.0316995456814765,-0.0301940273493528,0.0016317963600158,0.0082248002290725,-0.0001935958862304,-0.0476409457623958,-0.0058418698608875,-0.0500952795118093,0.0075192097574472,-0.0279211128329858,0.011939389319811,176
1733313818393530600,-0.0387014865770936,0.0239244809448719,-0.1390823074758052,0.3167281543627381,1.6834404318235814,9.65588426899314,-0.0364253595471382,-0.0814665853977203,-0.0603590123355388,-0.9055441669162566,-0.0850815018294949,-0.0211675554185827,-0.4150937292217364,0.0081833936274051,-0.0239350590854883,-0.0474387258291244,0.0155976265668869,0.0026602298021316,-0.0049265623092651,-0.0429097488522529,-0.0005996343679726,-0.029015666604042,-0.0015535159036517,-0.0240151183703914,0.0476770759215578,177
1733313818433530600,-0.1056417736342176,-0.1502814546212554,0.1903729342520236,0.3488028797438368,1.6854134854622185,9.654434070184829,0.0636068508028984,-0.0872141942381858,-0.0586702413856983,-0.920305188214606,-0.0865338283649803,-0.0165147483749546,-0.3811527386410551,0.0082531683146953,-0.0113771362230181,-0.0362145006656646,-0.00062857568264,-0.0095334649085998,0.0068845748901367,-0.0514779463410377,-0.0040348470211029,-0.0406248558551073,-0.0070751043967902,-0.0050998804222792,0.099287162176799,178
1733313818473530600,-0.1355394472371786,-0.2113051015131175,0.0386515099555253,0.3686748338948935,1.7311742429010568,9.645594930168986,0.1441351771354675,-0.0617971159517765,-0.013966922648251,-0.9314500673255766,-0.0895745044320445,-0.0137090629504359,-0.3524048803110655,0.014239422045648,0.0120996935293078,-0.0423962995409965,0.0026022344827651,-0.0021308958530426,0.0112277865409851,-0.0605722665786743,-0.0078626442700624,-0.0522562569379806,-0.027918042615056,-0.0088378979068249,0.0938909291564486,179
1733313818513530400,-0.0924854645390063,-0.0299956175521016,-0.1070242044359445,0.386373718323186,1.7779124670699238,9.636395724669098,0.0888891890645027,-0.0372751355171203,-0.0094564203172922,-0.9401254299001878,-0.0924820227749687,-0.0112967615115707,-0.3278469575327394,0.0144080007448792,0.0103002488613128,-0.0569986104965209,0.0032259225845336,0.0059062242507934,0.0089751482009887,-0.0621251054108142,-0.0081350784748792,-0.0509977813094854,-0.0377319566905498,-0.0022272110627964,0.1554762833179906,180
1733313818553530400,-0.0911855243889614,0.0067081193365156,-0.1491787540763616,0.3977929379601031,1.7982203649528323,9.632162032622098,0.0165790785104036,-0.0299798231571912,-0.0285020470619201,-0.9473070351021108,-0.0938967598179089,-0.0089331400944682,-0.3061258035824399,0.0082387877628207,-0.0010924878297373,-0.0566342920064926,0.0041345059871673,-0.0028799474239349,0.0021479129791259,-0.0856060162186622,-0.0132573917508125,-0.0610562339872121,-0.0458385795354843,0.0086784330287948,0.2115275303584523,181
1733313818593530400,-0.1487233384590595,-0.0200498314686119,-0.1044593223839998,0.4031073013832792,1.7937042027026413,9.632783379390837,-0.0322912596166133,-0.0100713372230529,-0.0125274835154414,-0.9532963656167628,-0.0939131429831513,-0.0067125403820928,-0.2869863760549779,0.0109229879453778,-0.0194296296685934,-0.0429958440363407,0.0108602643013,-0.0092785060405731,0.0046733021736145,-0.1003590449690818,-0.0152981244027614,-0.0562426962256431,-0.0680584907531738,0.008469539518468,0.1901338100002147,182
1733313818633530400,-0.1231068127740174,0.0592370557360351,-0.0360603244185447,0.403078805941157,1.78250257133916,9.63486369279623,-0.0136957373470067,-0.0054504866711795,-0.0002907910966314,-0.9581154978707576,-0.0934567213603408,-0.0049509073918177,-0.2706583362465925,0.0131991915404796,-0.0018330598250031,-0.0350308641791343,0.006232738494873,-0.0091096311807632,0.0107982754707336,-0.115112081170082,-0.0173388570547103,-0.0513449873119592,-0.0902784019708633,0.0081414766078814,0.1687252391327172,183
1733313818673530600,-0.1314525067171081,0.0207908590942621,-0.0231686941415071,0.4112748257478699,1.783988279852271,9.634242346027492,0.0178008992224931,-0.0477395467460155,-0.0260835886001586,-0.9621665951254224,-0.0937049207832455,-0.0031206887909908,-0.2558222411314738,0.0076478319242596,0.0134681854397058,-0.0351975113153457,0.0021982938051223,-0.0053277313709259,0.0118923187255859,-0.1220406368374824,-0.0209859609603881,-0.0252039993613958,-0.0784083753824234,-0.0116532475885003,0.1179574397873599,184
1733313818713530600,-0.0989214889358729,0.0027018063046038,0.0077718030452728,0.4195948007278144,1.7923508883975443,9.632330959448218,0.017947107553482,-0.0109947212040424,-0.0200192052870988,-0.9655674951189,-0.0942628967118773,-0.0015147059960501,-0.2424700745288745,0.0107983518391847,-0.0082903197035193,-0.0347798578441143,0.0052111595869064,0.0008677095174789,0.0014814138412475,-0.104897066950798,-0.0133517626672983,-0.0212403564274311,-0.0874800831079483,-0.0302811199625954,0.0273609855990391,185
1733313818753530600,-0.0446508234355598,0.0241029062516987,-0.1231049861431121,0.415452805552259,1.7992312955610452,9.63122796664238,0.0126017620787024,-0.0007236872334033,-0.0176449343562126,-0.9677586365417628,-0.0945684134171048,-0.0009246763464577,-0.2334506944284844,-0.0035912401508539,-0.013304466381669,-0.0408737696707248,-0.002868428826332,-0.0050598978996276,0.0026773810386657,-0.0615215077996254,-0.012543081305921,-0.0318546894222497,-0.0977279245853424,-0.0285771290563046,-0.0326640650097979,186
1733313818793530400,-0.0696768358815461,0.0578042464539408,-0.1105868653535842,0.4217741175282746,1.805483195562661,9.629783028531074,0.0240837149322032,-0.0267672482877969,-0.0282678958028554,-0.9703081005689904,-0.0949607915069376,0.0003920155145477,-0.2224509546912929,0.0007933881133794,0.0053282338194549,-0.031354434788227,-0.0058321505784988,-0.0099276304244995,0.0056635737419128,-0.0197577811777591,-0.0028961785137653,0.0029348844081163,-0.0876625031232833,-0.059191280365549,-0.0128017052375711,187
1733313818833530400,-0.1614972971731796,0.053699879875034,-0.1971715083509683,0.428600346819125,1.8145254569351672,9.627781625580788,0.0044361292384564,-0.0251698642969131,-0.0159512422978878,-0.9724922643121144,-0.0954837350982457,0.001610377493403,-0.2124598149982739,-0.0015999947208911,0.0022642135154455,-0.0333333648741245,0.0030075907707214,-0.0108380168676376,0.0094043612480163,0.0056343395262956,-0.0018721317173913,-0.0483674328058958,-0.0868581756949424,-0.0277322026647627,-0.0083156230318127,188
1733313818873530400,-0.1523009412175044,0.0284592017650604,-0.1076274310261011,0.4488826718693599,1.8083423843860624,9.628020695033667,-0.0229669623076915,-0.0794767141342163,-0.0157762896269559,-0.9744045910177296,-0.0953667953548924,0.0035670783925389,-0.203539072630258,-0.0073745269328355,0.0134382518008351,-0.0199571028351783,-0.0063651204109191,-0.009554773569107,0.0084030032157897,0.0137762371450662,-0.0113512929528951,-0.0514613071680068,-0.0895243510603904,-0.0225908577209338,-0.0184859043368487,189
1733313818913530600,-0.086809209000878,0.046917818519473,0.0548193854242563,0.4736224147198721,1.808887597178668,9.62673299331069,0.0207730233669281,-0.0493027046322822,-0.0277070794254541,-0.9760200832816884,-0.095613479812213,0.0055918118453341,-0.1954776854279366,-0.0015563189517706,0.0102847497910261,-0.0364941321313381,-0.0026581436395645,0.0045187622308731,0.0064723491668701,0.0170151833444833,-0.0264060478657484,-0.0358995808988809,-0.0727923586964607,0.0057005131965503,0.0069319318547612,190
1733313818953530600,-0.129988900437951,-0.017005933728069,-0.0348451034098863,0.4856774480422958,1.8174457282960408,9.624520577958226,0.0023277415893971,-0.0372571349143981,-0.0283450614660978,-0.9774718539499974,-0.0961189811870828,0.0068677652528995,-0.1877840435013715,-0.012714697048068,0.0120709845796227,-0.0424027554690837,0.0042575001716613,-0.002323493361473,0.0091686844825744,0.0209560841321945,-0.0336103104054927,-0.0262830267697572,-0.0596544705331325,-0.0044168300615623,0.0192838246653322,191
1733313818993530600,-0.1029447531025856,-0.0296947349093854,0.0659065966278314,0.4949952384205535,1.8151706229709088,9.62447498525083,-0.0025805779732763,-0.0038831804413348,-0.0019115292234346,-0.9787295688060568,-0.0960422396737864,0.0080141742045507,-0.1811080719094917,-0.023841118440032,0.0044540776871144,-0.0111584179103374,-5.4523348808288574e-05,-0.0144456326961517,0.0077489614486694,0.0288192145526409,-0.0364981442689895,-0.0182259770423173,-0.0556872189044952,-0.0036698110865429,0.0167674031313043,192
1733313819033530400,-0.1422363145273179,0.0082370824694633,-0.0745569360733032,0.4964285591593012,1.8189876970410344,9.623680620002746,0.0207271799445152,-0.0183309558779001,0.0169528014957904,-0.9797369082691366,-0.0962018398274762,0.0086054637048456,-0.1754615223829593,-0.0262161251157522,0.0197276789695024,-0.0039983103051781,-0.0037800073623657,-0.0139943957328796,0.0011076927185058,0.0328737273812294,-0.0295215621590614,-0.0493739794999361,-0.0581524036824703,0.0035674832232296,0.0463043262636288,193
1733313819073530400,-0.0858906693838536,-0.03489420324862,-0.1104185230493545,0.5113104134054854,1.8262059578567744,9.621534255623818,0.0150072807446122,-0.0455001927912235,0.0109638702124357,-0.9806186045166632,-0.096653798221458,0.0098147852803095,-0.1701434869643411,-0.023179855197668,-0.0033629923127591,-0.0060864952392876,-0.0035245418548583,-0.0048238337039947,0.0028538107872009,0.0189291201531887,-0.0226210858672857,-0.0332201325565576,-0.0711764395236969,0.0113345004955306,0.0851493951630312,194
1733313819113530400,0.0106675244867801,0.0402427246697247,-0.0994639983147382,0.5302724131047726,1.8296287719123063,9.619857262322306,0.0053583434782922,-0.0492353402078151,0.0073057664558291,-0.9814200284767008,-0.0969415224708615,0.0112303172402576,-0.1651997016843568,-0.0063750427216291,0.0014011363964527,-0.0007130349986255,-0.0067854970693588,-0.0008540600538253,-0.0030788779258728,0.0109502226114273,-0.016030628234148,-0.0269885446906089,-0.0764394178986549,0.0130219421258196,0.0835551391083747,195
1733313819153530600,-0.0286447509324178,0.0289136675342917,-0.0713297907203435,0.5507303869828581,1.8267422566905616,9.619256373819708,-0.0275952704250812,-0.0544536970555782,-0.0214480068534612,-0.982107373762942,-0.0969173289239611,0.0127062142799873,-0.1609677870295759,-0.0131570491939783,-0.0068393228575587,-0.0093519296497106,-7.88271427154541e-05,-0.0035503357648849,0.0022323131561279,0.0029713241383433,-0.0094401724636554,-0.0206593416690826,-0.0817023888230323,0.0147180054539814,0.0819598510072566,196
1733313819193530600,-0.0598926701005548,-0.0337318814709782,-0.0250572843670845,0.5644706699784845,1.813222265382111,9.621017538273334,-0.0360776633024215,-0.025881327688694,0.0184762086719274,-0.9829369831405148,-0.0962752009110172,0.0139891634746539,-0.156110065376624,-0.0200506411492824,-0.015803150832653,0.0065977415069937,-0.0009867250919342,-0.0037456154823303,0.0096778869628906,0.0037807335611432,-0.0074056852608919,-0.0238297883987426,-0.0981193408370018,0.0167302585918456,0.0563724418188445,197
1733313819233530600,-0.0050910395286977,0.0349915261432528,-0.0914694924294948,0.5746117229057476,1.8030071608379483,9.622336804178357,-0.0165978986769914,-0.0280458405613899,0.0042726136744022,-0.9836633093161372,-0.0957699679696556,0.015015262218756,-0.1516872376543872,-0.0385247245430946,0.0062389285303652,0.0196347814053297,-0.0061830729246139,-0.0096868872642517,0.0152409076690673,0.0045901429839432,-0.0053711985237896,-0.0268844997942447,-0.1145362928509712,0.0187457631327211,0.03078179949373,198
1733313819273530400,-0.0002658113293349,0.0706564215034246,-0.2085907279878854,0.5840021035961807,1.7962221768729387,9.62304056853354,-0.0382094904780387,-0.0390391908586025,-0.0287051554769277,-0.9843956777768286,-0.0954225767758572,0.0160001057037598,-0.1469818403707505,-0.0435527712106704,0.0037678875960409,0.003134700236842,-0.0023832619190216,-0.0020961612462997,0.0114344358444213,0.0074867093935608,0.0026216800324618,-0.0367027139753103,-0.1476213037967682,0.0215768218401819,0.0111071945456787,199
1733313819313530400,0.00973868267145,0.0903985021971166,-0.1106388878017664,0.6027280295172706,1.7710932885743678,9.62654302369654,-0.0922643542289733,-0.0523501485586166,-0.0518106929957866,-0.9852540521718556,-0.0941898896213611,0.0176398050761357,-0.1417443909708847,-0.036731082946062,-0.010139831341803,-0.0004927249392494,-0.0042026787996292,-0.0022477507591247,0.000503659248352,0.0159559324383735,0.0092400982975959,-0.0445768083512783,-0.1709420830011367,0.0304572437144815,0.0064624374797567,200
1733313819353530400,0.0173277130283415,0.0724454968772828,-0.0536105941563844,0.6144422500453889,1.7317352377846835,9.6329610740453,-0.1136118322610855,-0.0468322746455669,-0.0987994670867919,-0.9862030382979337,-0.0921584172471831,0.0190394080816173,-0.136190636895975,-0.020210163667798,-0.0034518358297646,-0.002806146396324,-0.0149763822555542,-0.0068417787551879,-0.0012682676315307,0.0228589121252298,0.0197384245693683,-0.0151934774786233,-0.1607735455036163,0.0245337354170158,0.0366321329571306,201
1733313819393530600,-0.0064963762819767,-0.0151756495609879,-0.1030570543706417,0.624350042206049,1.694109563745558,9.639012629169224,-0.0991547852754592,-0.0634559094905853,-0.1265762448310852,-0.987214231144452,-0.0901754212146487,0.0203843339905646,-0.12985009461197,-0.0277138873934745,-0.0007181006367318,-0.0146524859592318,-0.0059296339750289,0.0021870881319046,0.0058714151382446,0.0307705234736204,0.0212269928306341,-0.0147878192871809,-0.1389689892530441,0.0272837647775188,0.0222559266781434,202
1733313819433530600,-0.0149932787314057,-0.0753689831085503,0.0351847106277942,0.6422741136923432,1.666615261489898,9.642627312535048,-0.049797736108303,-0.0556810609996318,-0.0948480814695358,-0.988052796584578,-0.0887631531393877,0.0219984527745717,-0.1240518706730975,-0.0258840285241603,-0.0004909330164082,-0.0205989927053451,-0.0005149245262145,0.0043500959873199,0.0059203505516052,0.0309969987720251,0.0250406917184591,-0.0366401701331138,-0.1355189234018325,0.0042284313499927,-0.0198392939904704,203
1733313819473530600,-0.0278269682761281,-0.1279138477295637,0.0425081853836774,0.6533120789267123,1.6657393554382025,9.642036945426463,0.0163191147148609,-0.0272294003516435,-0.0726184844970703,-0.9883599025279372,-0.088730884864587,0.0227980452744242,-0.1214568184122232,-0.0138025991618633,0.0126366931945085,-0.0306570194661617,-0.0086825639009475,-0.0065754950046539,0.0039049983024597,0.0272058378905057,0.0242647025734186,-0.0378857862800359,-0.1307184547185897,0.0017625892257317,-0.0390912165470421,204
1733313819513530400,0.0053083355411887,-0.0573199700683355,-0.0492944845229387,0.6599804507747292,1.6678694993346928,9.641214523127674,-0.0209008809179067,-0.0249596983194351,-0.0587917901575565,-0.9884969475463338,-0.0888523531637866,0.0232403073520376,-0.1201618881606509,-0.0030002847779542,0.0034102783538401,-0.024208040907979,-0.0008110553026199,-0.0022399574518203,-0.0046877861022949,-0.0002893973141908,0.0158481150865554,-0.0358276847064495,-0.101944051682949,3.74824661761e-05,0.0036508506577461,205
1733313819553530400,0.009602817864716,-0.0018013503335416,-0.0901888049691915,0.6615218349978328,1.6548479590676723,9.643352704200147,-0.0473525002598762,-0.0141223212704062,-0.0472817197442054,-0.9886767604923052,-0.0881705897751775,0.0234902423710992,-0.1191323476344296,-0.0041787335649132,-0.0178451556712389,-0.0235507730394601,0.0011868476867675,-0.0037154853343963,-0.0034622550010681,-0.0230828169733285,0.0067364601418375,-0.0407803386777639,-0.0876936912536621,-0.0121954647064208,0.0034256635997444,206
1733313819593530400,0.0649756724532693,0.083292907975614,-0.1194569850295782,0.6675003248855471,1.640532141206413,9.645386840376258,-0.0381522662937641,-0.0357848480343818,-0.0752932876348495,-0.988866772660904,-0.0874470153045317,0.0239826457268324,-0.1179846411389548,-0.001337140565738,-0.0061061545275151,-0.0313862599432468,-0.0035255551338195,-0.0055136531591415,0.0031155347824096,-0.0458762347698211,-0.0023751938715577,-0.0456330394059419,-0.0734433308243751,-0.0244657116821035,0.0031946313228458,207
1733313819633530400,0.06832447142452,0.0157822371520102,-0.0438520012080669,0.684202964818105,1.6258919136963783,9.646695000365376,-0.0477234758436679,-0.0696395710110664,-0.0987874194979667,-0.9891237747314346,-0.0867533475571574,0.0250856093867282,-0.1160977779700972,-0.0014319492038339,0.0074703739956021,-0.0316725485026836,-0.010723203420639,-0.004817247390747,0.0078318119049072,-0.051112063229084,-0.0066657532006502,-0.0792880562484264,-0.0826312601566314,-0.0230181432222947,-0.0383824837557971,208
1733313819673530600,0.0052994215823709,-0.0683877459190785,0.0077945993989706,0.6994936921261251,1.6132463671348989,9.647721420803666,-0.0365098975598812,-0.0364868603646755,-0.0873531475663185,-0.989383981185734,-0.0861464184989698,0.0261131308054135,-0.1140887623506126,0.0074765905737876,0.0085437875241041,-0.0437005162239074,-0.009961187839508,0.0038634240627288,0.0013538002967834,-0.042826447635889,-0.0144994975998997,-0.0626835429280996,-0.0856439471244812,-0.0119748442256823,-0.0298885769810527,209
1733313819713530600,0.0461933036372065,-0.0269330151110887,-0.0572246930003166,0.7103744209721684,1.5999235058337449,9.649144731605052,-0.0408491380512714,-0.0489893816411495,-0.0831833556294441,-0.9896117458510096,-0.0854841768962528,0.0268883322666561,-0.112418557229014,-0.0062320306897163,-0.0146781243383884,-0.0624948404729366,-0.005324438214302,0.0036595463752746,0.0049855709075927,-0.034540832042694,-0.0223332419991493,-0.0459603716641664,-0.0886566266417503,-0.0009855404386296,-0.0214165897771716,210
1733313819753530600,-0.0095943422973155,-0.0041638416811823,-0.1477986978948116,0.7220189737975597,1.5871800518557428,9.650385087054968,-0.047869112342596,-0.0506123304367065,-0.0986143052577972,-0.9898682676246212,-0.0848447735679776,0.0277246520649868,-0.1104248192768731,0.0077413087710738,0.0018610642291605,-0.0656764507293701,-0.0004509091377258,0.0057425796985626,0.0096179842948913,-0.034418947994709,-0.0222227051854133,-0.0265559984922409,-0.0947203785181045,0.0169228220218792,-0.0195513804271817,211
1733313819793530400,-0.0018589257396757,0.050707566191256,-0.2157557973116636,0.7413679635204374,1.559692471601814,9.653399466440082,-0.1182352304458618,-0.085914596915245,-0.1198355183005333,-0.9901936079564873,-0.083483802144727,0.0290528546707261,-0.1081802009064297,-0.0169784184545278,-0.0126152401790022,-0.0762019976973533,0.0020072758197784,0.0023110955953598,0.0145875215530395,-0.0347782112658023,-0.0266056545078754,-0.0316781638115644,-0.0930563136935234,0.0273206627218052,-0.0325410642512142,212
1733313819833530400,0.0248969792388379,0.1010031905807554,-0.1953717654526233,0.7722225359894335,1.5050572105728088,9.65965092805028,-0.1769929379224777,-0.1161517947912216,-0.1627685576677322,-0.9906902767626348,-0.0807639871115311,0.0311775153329855,-0.1050608298830425,-0.0073031540960073,0.0034710518084466,-0.060528565198183,-0.0036376416683197,0.0009682178497314,0.0086588859558105,-0.0351374745368957,-0.0309886056929826,-0.0366425082206726,-0.0913922488689422,0.03767302031219,-0.0455601933654397,213
1733313819873530400,0.006396349973604,0.1091618009865283,-0.0940378816127777,0.8149644570637494,1.4389888475120067,9.666205756521224,-0.1742024719715118,-0.1692804992198944,-0.1936190128326416,-0.9913112367368788,-0.077469699248268,0.0340459096317212,-0.100704267863193,-0.0189542174339294,0.0039069047197699,-0.076085552573204,-0.0010081827640533,0.0016110986471176,0.0093991756439208,-0.0391607768833637,-0.0375659354031086,-0.023527006059885,-0.0741705074906349,0.0466068163415417,-0.0343666722431778,214
1733313819913530600,0.0412616193886846,0.0706004535324871,-0.0676005410641431,0.8597063197836279,1.4000377700880169,9.668049338561296,-0.0794809833168983,-0.1143055483698844,-0.1958558410406112,-0.9917819093202774,-0.0755569004647836,0.0368484437363198,-0.0964465743656507,-0.0163134261965751,0.0071804085746407,-0.0707897916436195,0.0013809949159622,0.0053127259016036,0.0093709230422973,-0.039180502295494,-0.0388439334928989,-0.027911504754424,-0.068009965121746,0.0889027472140267,-0.0831334065649658,215
1733313819953530600,-0.0544278288234025,0.0525470565780997,0.0040045594662427,0.9070627489160746,1.3672145278945564,9.668419925439355,-0.1126957088708877,-0.175872653722763,-0.1903756856918335,-0.9921738468338506,-0.0739588903761172,0.0397221428319327,-0.092430520236198,-0.041358858346939,0.0026807852555066,-0.0800804272294044,-0.0009552836418151,-0.0002806335687637,0.0106860995292663,-0.0312254447489976,-0.0309727676212787,-0.0198439336329698,-0.0580592267215251,0.1014346408005803,-0.0732636813923716,216
1733313819993530600,-0.0807745684791356,-0.1440307236634194,0.0898234787881374,0.9554063624549656,1.3430768425904214,9.66714683676362,-0.0332461930811405,-0.1153888702392578,-0.1692314893007278,-0.9925869771731776,-0.0727506036495944,0.0426618394319568,-0.0875124136401394,-0.0295525342226028,0.015470297075808,-0.0707025080919265,-0.0105495452880859,0.0007436871528625,0.0103413462638854,-0.0231709778308868,-0.026875365525484,-0.0326695129364728,-0.0548104010522365,0.1221170710843056,-0.0851997645102441,217
1733313820033530400,-0.0586866553116589,-0.1401464295759797,0.0770399850606918,0.9835966841507704,1.3394918237105011,9.664816932511329,-0.0202215835452079,-0.0607881098985672,-0.1223591640591621,-0.992791826916474,-0.072562966027467,0.0443406962556939,-0.0844561932829012,-0.0134992636740207,0.0191932879388332,-0.0772438272833824,-0.0046895146369934,0.0113487243652343,-0.0020311474800109,-0.0067195631563663,-0.0208007022738456,-0.0199000477343797,-0.0585175417363643,0.1384545309662818,-0.0979544705346226,218
1733313820073530400,-0.0917527663502842,-0.1652377623431384,-0.0058329439371824,0.9840417975697666,1.3328599844805895,9.665688454648851,-0.0372501015663147,0.0186283700168132,-0.0458206944167614,-0.9929641078766872,-0.0721453187838969,0.0445207807210712,-0.0826752538049041,-0.0247263517230749,0.0087831523269414,-0.0884002074599266,0.0001842230558395,0.0095916092395782,0.0006186962127685,0.008478881791234,-0.0120137585327029,0.0084989482760429,-0.056352823972702,0.1621876540575176,-0.0915127470493316,219
1733313820113530400,-0.0505257798835635,0.0322860665768384,-0.054506666213274,0.9731913177315146,1.3198393209964037,9.668573070174457,-0.0301270969212055,0.0208259653300046,-0.0394058600068092,-0.993116263530056,-0.0713878791631327,0.044087751936579,-0.0817321280889059,-0.0204501152038574,0.0072960434481501,-0.0806821063160896,0.0011275857686996,0.0027394145727157,0.0016220211982727,0.0014294162392616,0.0007078871130943,-0.0039320787519216,-0.0386631339788436,0.1255983373288065,-0.0576009789668023,220
1733313820153530600,-0.1372046039704233,0.0306086348839104,-0.1098462761193513,0.9663464933380485,1.3129872631445527,9.670192780330776,-0.0242478977888822,0.0111588118597865,-0.0521918796002864,-0.9932941995600724,-0.0709327864134906,0.0438854828354688,-0.0800584013445377,-0.0177046619355678,-0.0035055249463766,-0.066454030573368,0.0098470449447631,-0.0007591247558593,0.0037501454353332,-0.0056200493127107,0.013429531827569,-0.0163426475137472,-0.0209734439849853,0.0890092763284221,-0.0236914759065955,221
1733313820193530600,-0.1263851768575608,-0.0041217561051249,-0.0899567497789859,0.9603155426107346,1.3007314465530215,9.672449034824966,-0.0400852672755718,0.0148720955476164,-0.043599646538496,-0.993443805118365,-0.0702282812860271,0.0437071978257941,-0.0789115152919868,-0.0007515116594731,0.0016185035929083,-0.0389575585722923,0.0029510408639907,-0.0032625794410705,0.0027580857276916,0.0047799721360206,0.012574971653521,-0.0430085361212492,-0.025430541485548,0.0680426588084548,-0.0633307547904551,222
1733313820233530600,-0.0704677670635283,-0.1350656191803514,0.055181788995862,0.9609612201031296,1.2923628466583787,9.6735070194453,-0.0153486840426921,-0.0186111647635698,-0.048833854496479,-0.993575026433836,-0.0697438215094663,0.0438657878631113,-0.0775901621462123,-0.0044788718223571,0.0161543563008308,-0.0328280963003635,-0.0011020898818969,-0.0020481795072555,0.0079843997955322,0.0353531837463378,0.0109061272814869,-0.0396866982221603,-0.030968751758337,0.0542891875376924,-0.0826474496789276,223
1733313820273530400,-0.0613841507673263,-0.0859000217340886,0.0419675026357173,0.9485854303937404,1.288836572228372,9.675198625794051,-0.0243758112192153,0.0696093291044235,-0.0126201454550027,-0.9936815295743968,-0.0694761539591046,0.0433037325644637,-0.0767785174097383,0.0059114508330821,0.0198957789689302,-0.0355800725519657,0.0055932700634002,0.0071296840906143,0.0038533806800842,0.0659263953566551,0.0092372829094529,-0.0363514163196086,-0.036506962031126,0.0405524482060223,-0.10196684798114,224
1733313820313530400,0.007619388962537,-0.0642068069726228,-0.0449906498491764,0.9252214328758418,1.2672931412011383,9.680305593544244,-0.0847459062933921,0.0359167270362377,-0.0165195781737566,-0.993823617013913,-0.0682697502963179,0.0422020149590138,-0.0766343309427015,0.0086875297129154,0.0089910393580794,-0.026567468419671,0.0101722031831741,-0.0008281469345092,0.0091670155525207,0.0777727365493774,0.0151350302621722,-0.0263783038377761,-0.0484774000942707,0.0256198136206716,-0.0770160927284508,225
1733313820353530400,0.0120574444752186,-0.0065023676313459,0.0558411296874284,0.905520341779664,1.2363738329328595,9.686165425488351,-0.06740552932024,0.0646967068314552,-0.0369492173194885,-0.994023236500056,-0.0665782147467638,0.0413564393346099,-0.075992250413199,0.0022559962235391,0.0295954905450344,0.0065961433574557,0.0058214962482452,-0.0110958516597747,0.0011151432991027,0.0640486925840377,0.0122832497581839,-0.0360661696374416,-0.0356817916035652,-0.0078605407746508,-0.0470519662931561,226
1733313820393530600,0.0949826151169836,0.0001525602132081,-0.1545259603232145,0.8796070981703699,1.2175982591837644,9.690930447933075,-0.0474381782114505,0.0524706616997718,-0.0378329828381538,-0.9941852396618446,-0.0654902717161924,0.0401383524290969,-0.0754696050721822,0.0032259193249046,0.0135153774172067,0.0198435727506876,0.0002904832363128,-0.0091145634651184,0.0028464198112487,0.0533418655395507,0.0209396407008171,0.007191372808814,-0.0252680033445358,-0.0195806795869022,-0.0278267490804195,227
1733313820433530600,0.0275836610395461,0.0616170096751302,-0.230001764807105,0.8665009483598172,1.1941417610768228,9.69502911542356,-0.0841033980250358,0.0057479739189147,-0.0500849485397338,-0.9943622998731688,-0.064198415403507,0.0396188746021794,-0.0745149169108047,0.0363380648195743,0.0178830679506063,0.0184500068426132,-0.0005189031362533,0.0066678822040557,-0.0045344233512878,0.0426350384950637,0.0295960307121276,0.0504611902147531,-0.0148542132228612,-0.0312765972733497,-0.0086170947629958,228
1733313820473530600,-0.0327152517743408,0.0695624887868762,0.0146709149092435,0.867693080753833,1.16509737983495,9.698455582740902,-0.0526031516492366,-0.0136490119621157,-0.0419373027980327,-0.9945206207534668,-0.0626784063518923,0.0398471565501422,-0.0735694406465271,0.0199825298041105,-0.0111827254295349,0.0211468562483787,0.0063452124595642,0.0016931742429733,-6.836652755737305e-05,0.0155794080346822,0.0402279384434223,-0.008384966507554,-0.0083519527688622,-0.037328188929893,0.0410151703469455,229
1733313820513530400,-0.0708972445219755,0.0455691073242574,-0.1199924070805311,0.8686152371000498,1.1620062819518149,9.698743752032518,0.0103052034974098,-0.0135566405951976,-0.0366513207554817,-0.9945869178479728,-0.0624916025828551,0.0399559748696527,-0.0727675879807023,0.0202909223735332,-0.0185604281723499,0.0224528703838586,-0.001210018992424,-0.0019265860319137,0.0048630237579345,-0.0156698580831289,0.0243059583008289,-0.0678705901771783,-0.0025504883378744,-0.0171946612332016,0.0208612939819693,230
1733313820553530400,-0.0179429223172366,0.0833006528906524,-0.1618266387253999,0.8791073319546878,1.1583921831078827,9.698231126335262,-0.0456667579710483,-0.0389936231076717,-0.0631705299019813,-0.994645452854234,-0.0623071502693651,0.0405666853375334,-0.0717820106090117,0.0286274161189794,0.0252075586467981,0.0100742317736148,-0.0136098116636276,0.0019775778055191,0.0151013731956481,-0.0177280008792877,0.0104526281356811,-0.0419184027969837,-0.0236181188374757,-0.0275817978760227,-0.0710031891144812,231
1733313820593530400,-0.0837665899019688,-0.0639386575557291,0.0083709379822015,0.8900140720248222,1.1314533227778971,9.70041606915891,-0.0914433747529983,-0.0326314382255077,-0.0591495372354984,-0.99480158475865,-0.0609117946984648,0.041305874658731,-0.0703794347614849,0.0272718667984008,0.0171774365007877,-0.0085776159539818,0.0034468322992324,0.0137217491865158,0.0085324048995971,-0.0083858091384172,0.0149841103702783,-0.0275537773579359,-0.017639085650444,-0.0160350428692996,-0.057703124167025,232
1733313820633530400,-0.1129454111784696,-0.1384021431919187,0.1241185470998287,0.8965975420683622,1.1061084536410868,9.702732529407738,-0.037232182919979,-0.0203345622867345,-0.0305355284363031,-0.9949306002707786,-0.0595977082561657,0.0417902317688356,-0.0693881298953797,-0.0107410289347171,0.0138808153569698,0.0080566871911287,-0.0002486705780029,-0.0078845918178558,0.0151243805885314,-0.0053648073226213,0.0117133008316159,-0.0569289249241352,-0.0043684290722012,-0.0159040369007736,-0.0803447987597435,233
1733313820673530600,-0.0545179913248866,-0.1495651230454444,0.090848145660758,0.900868278190121,1.1035049200791864,9.702633745208384,0.0105867013335227,-0.0073580844327807,-0.0160488579422235,-0.9949586738790516,-0.0594617159266755,0.0420436413024241,-0.0689487995081909,-0.0038434418383985,0.0434266179800033,0.0182287637144327,-0.0076384097337722,-0.0070296376943588,0.0228793621063232,-0.0011040633544325,0.0059901014901697,-0.0513718753188848,-0.0095867002382874,-0.0126108040416613,-0.0916183263156562,234
