time_imu,phone_acc_x,phone_acc_y,phone_acc_z,phone_gravity_x,phone_gravity_y,phone_gravity_z,phone_gyro_x,phone_gyro_y,phone_gyro_z,phone_ori_w,phone_ori_x,phone_ori_y,phone_ori_z,watch_gyro_x,watch_gyro_y,watch_gyro_z,watch_acc_x,watch_acc_y,watch_acc_z,headphone_gyro_x,headphone_gyro_y,headphone_gyro_z,headphone_acc_x,headphone_acc_y,headphone_acc_z,frame_imu
1733284806921557800,0.0325750761186704,15.5432577154994,-0.9394587786734104,-0.4229794016648083,9.779914553287623,-0.5871438722206279,-1.5754601955413818,-0.2166375070810318,0.0069819404743611,-0.4185702494542863,-0.4191003650431671,-0.5952233957675692,-0.5430127880861843,1.5379465818405151,1.4104156494140625,-0.537699282169342,-1.3394315242767334,0.8916879892349243,-1.118587613105774,-0.0246024392545223,-0.1242094486951828,1.2301035204917192,0.0991097912192344,-0.0379454874278861,0.0817665021259337,0
1733284806961285400,1.685936048031598,12.14894611635208,-0.7527408597975969,-0.390223781347461,9.797952898803352,0.1350367766783572,-1.8965930938720703,0.4753698408603668,-0.1622132211923599,-0.4298522265145627,-0.4013605103286419,-0.5762159153735757,-0.5675491525565096,1.9767136573791504,0.8203755021095276,-1.2231286764144895,-0.7828244566917419,0.6164724826812744,-0.3640823364257812,0.0808171182870864,-0.1889993250370025,1.008650242190808,-0.1539485156536102,-0.301548632344231,0.3286643105458468,1
1733284807001285400,-1.1253172311756758,-1.0342693982243538,-3.2271570433974266,-0.4220855580976232,9.765624746650456,0.7904583037734031,-1.421723484992981,-0.2957345843315124,0.2366570830345153,-0.4415699071422252,-0.3835170318262426,-0.5591176346154872,-0.5876379139754249,1.4256988763809204,0.0026952070184051,-1.2560406923294067,0.1721647381782531,0.2613076567649841,0.2949180006980896,0.0388487055897712,-0.0583093464374542,0.1461795722603797,-0.0383643954992294,-0.0837226776950061,-0.023136938163219,2
1733284807041285400,0.2910267086069099,-10.412247410941124,-4.670391857916116,-0.2980596942499279,9.709549808207154,1.3439479263365268,-1.5397124290466309,-0.4364567995071411,0.1741849780082702,-0.4552034387368539,-0.380307722744056,-0.5355779687509433,-0.6010924941951041,0.8371307849884033,-0.0676478296518325,-0.9594834446907043,0.8674479722976685,-0.2384134829044342,0.8299074172973633,-0.0031196996569633,0.0723806321620941,-0.7154600536733865,0.0772197246551513,0.1339919985994696,-0.3749102576857432,3
1733284807081285400,0.8679189253989607,-14.986764819467068,-3.6937329371392726,-0.224926215108484,9.597566520059107,2.001630913823843,-1.6937607526779177,0.2066875249147415,0.1604196578264236,-0.4666871551855373,-0.3675075034042767,-0.5127216213513511,-0.6198854384257411,1.1563915014266968,-0.2024759948253631,-0.9357269406318665,1.2621002197265625,-0.1879259645938873,0.958425998687744,-0.0571780651807785,-0.0002135187387466,-0.9811159001857042,0.0328461527824401,0.3223642605535686,-0.565594778637588,4
1733284807121285400,1.40896999521479,-15.44185719616413,-0.6519618333615362,-0.2397017046370543,9.49780149297118,2.429955987365544,-0.4240168035030365,0.2673938870429992,-0.0248364061117172,-0.4711987284954134,-0.3533168204973229,-0.5012723304694049,-0.6339282093767162,-0.1844186633825302,0.2258026450872421,-0.1135808899998664,1.327029824256897,-0.3319294452667236,0.9932234883308412,-0.1102891862392425,-0.1024605631828308,-0.6454997977405786,-0.1008060127496719,0.2877724012523889,-0.8086116539709269,5
1733284807161285400,1.1784638610821216,-12.64981590936184,-0.1167033024072647,-0.2786928035441786,9.499793543571233,2.4179801567591723,0.3928838074207306,-0.0421224273741245,-0.161977931857109,-0.4711950540681509,-0.3517258441600179,-0.5029972696486413,-0.6334491784023525,-0.7057244181632996,0.4701956212520599,1.0619889497756958,1.0014081001281738,-0.3790808916091919,0.7243692874908447,-0.0990655720233917,-0.081525407731533,-0.0858715262919664,-0.1836424618959427,-0.134556354483962,-0.4767547579288482,6
1733284807201285400,-0.0939173239730298,-7.904021312198043,1.6173896044194698,-0.3573898716295138,9.57711935983598,2.078808553789556,1.419750094413757,0.093239925801754,-0.1485818326473236,-0.4677424180949954,-0.358188579159151,-0.5154718247592737,-0.6222594443676069,-1.2000865936279297,-0.0509511902928352,1.7671868801116943,0.7453085780143738,-0.1549708843231201,0.5479404330253601,-0.076140709221363,0.0670812502503395,-0.0301443783730268,0.0066490024328231,-0.3226937847688794,0.3124045920751989,7
1733284807241285400,-0.8022840583845973,-0.3578548222601413,0.0732649965666234,-0.320746267430298,9.696437813177704,1.430593067349493,1.8905682563781736,-0.0246333181858062,0.3306522667407989,-0.4534093721130909,-0.3739396734624393,-0.5359376591858147,-0.6061021734444201,-1.7885173559188845,-0.2986434996128082,1.707186937332153,0.0814985036849975,0.0762729346752166,0.0922935009002685,-0.0583290830254554,0.2135712206363678,0.1195060848683118,0.3226158618927002,-0.413969800452888,0.5481587098639458,8
1733284807281285400,-1.326098965913057,7.014376073485613,0.2445493455976247,-0.1779084433458745,9.782594586151838,0.6630025020096451,1.8538830280303955,0.587246835231781,0.3341262638568878,-0.4316968231015933,-0.3933510141901006,-0.5580961041168108,-0.589441746902192,-1.3343857526779177,-0.6810430884361267,1.405233383178711,-0.7099816203117371,0.4174750447273254,-0.2247856855392456,-0.0516274273395538,0.1829688549041748,-0.1684364122539758,0.3287723958492279,0.1066891272626817,-0.0866307471614331,9
1733284807321285400,1.878119538836926,8.716071270054579,0.1514917071938514,-0.1405278849079273,9.80562241051793,0.0201426129021565,1.6064294576644895,0.2427789568901062,-0.1299953907728195,-0.41053792515779,-0.4014075993959998,-0.5812443132345227,-0.5766156557579653,-1.1433188915252686,-0.7463416457176208,0.9964234232902528,-0.6311351656913757,0.2332132458686828,-0.4261496067047119,-0.0496468320488929,0.1187277063727378,-0.106452542027831,0.1486494839191436,0.0088341715797781,-0.0497684221776202,10
1733284807361285400,0.0044268217326141,7.098545472034812,0.2204839948773383,-0.2386097629481926,9.782820211601257,-0.6402171811625361,1.6296873092651367,-0.4291809201240539,-0.260168194770813,-0.4013248261354843,-0.413904987792673,-0.6011028649910122,-0.5534405179710591,-1.2813457250595093,-0.5119179487228394,0.5131064057350159,-0.6558566093444824,0.279691994190216,-0.4712157249450683,-0.0476662330329418,0.0544865578413009,-0.0443038366287946,-0.0314734429121017,-0.0889912657476961,-0.0128564676321111,11
1733284807401285400,-0.0168382490109652,4.210694617772102,-1.7088333778858185,-0.3544128285801038,9.73717606627941,-1.1100392172187563,0.7082017064094543,-0.3782752752304077,-0.2475392669439315,-0.3995414060295291,-0.4256380694334115,-0.6127221918993379,-0.5327010853416814,-0.7680844664573669,-0.1852002292871475,0.2035750895738601,-0.4020977020263672,0.1700279116630554,-0.3878329396247864,-0.0446799807250499,0.0207307301461696,-0.1404571029603481,-0.0605268403887748,-0.0066539049312472,-0.0284629828910343,12
1733284807441285400,-0.8604035082675516,1.6001929704248905,-1.65663338117972,-0.4055308752683922,9.729320092082023,-1.160295313315466,-0.3228377103805542,0.2211343795061111,0.0281676445156335,-0.4002480532599715,-0.4255327788287514,-0.6148824699504594,-0.5297575230785412,0.1692584604024887,-0.0786182358860969,-0.0311693083494901,-0.1630191802978515,0.1605133414268493,-0.2545777857303619,-0.0172571614384651,-0.0250878371298313,-0.2113514248728752,-0.0512029901146888,0.0812448894046247,-0.1131867547868285,13
1733284807481285400,0.2249692870652302,-0.2871656675308943,-0.1414705177865922,-0.3662268562208861,9.746954532971978,-1.0164249678455293,-0.307977557182312,0.1726991981267929,0.0646849125623703,-0.3999302152214115,-0.4210910521247455,-0.6119686065042393,-0.5368728734232775,0.3370828926563263,0.0862896516919136,-0.0788909494876861,0.008201777935028,0.0212684273719787,0.035090833902359,0.007426468655467,-0.0345620214939117,-0.0744984838843345,-0.0144646167755126,0.0193922443427145,-0.071116458496917,14
1733284807521285400,0.1684502215836197,-1.092014900228381,0.4746973139423877,-0.34337668997664,9.752740130636097,-0.9677538759179412,0.0533344224095344,-0.0146475210785865,0.0353331826627254,-0.3994025441846436,-0.4197348902945196,-0.6108717851709082,-0.5395701246958626,-0.0277230460196733,0.0978754684329032,0.0131648015230894,0.0948246717453002,-0.0460069179534912,0.1161386370658874,0.0212074238806962,-0.0367569550871849,-0.018194997382164,0.0141822379082441,0.0333164325378835,-0.0904499492565635,15
1733284807561285400,0.166211831539683,-0.9831424375772476,0.4350245711803436,-0.3335065994778647,9.7471176145792,-1.0260923753790556,0.1853731125593185,-0.0236878916621208,0.027990223839879,-0.398314810893058,-0.4217412004046074,-0.6119236152755954,-0.537614379915068,-0.1498899757862091,-0.0207385327666997,0.1281885206699371,0.0935147404670715,-0.0700219869613647,0.0578802525997161,0.0218300633132457,-0.035995103418827,-0.0055956280499696,0.0230364892631769,0.0276949393942952,-0.1027699719244148,16
1733284807601285400,-0.0898325754100456,0.1931675334066152,0.4256104077555239,-0.3171818164143711,9.739476159915329,-1.1010747703228143,0.2117839008569717,0.0574220083653926,0.0584584102034568,-0.395874699558073,-0.4233664564991417,-0.6139218463338488,-0.5358581219684581,-0.1075712740421295,-0.0068136090412735,0.135175734758377,-0.0158661603927612,-0.0032373666763305,-0.0261966288089752,-0.0062536913901567,0.0067638792097568,-0.0610579875528812,-0.0135529842227697,0.0368323317043483,-0.2471134969972074,17
1733284807641285400,-0.2214103159420192,4.89726350800395,-0.1326734633468091,-0.2882552711321972,9.731008191299438,-1.1809950600601733,0.1241635829210281,-0.1517647802829742,0.074533462524414,-0.3935950857616894,-0.4261968713748424,-0.6152805995237383,-0.5337310226906232,0.2201394736766815,0.7172537446022034,-0.3036257326602936,-0.3787190914154053,0.1646825075149536,-0.3774906992912292,-0.0179230719804763,-0.0861538499593734,0.2054132669955491,-0.0845295637845993,0.0167186412192881,0.0433938091117888,18
1733284807681285400,-0.2079991370365954,15.543659866559503,-4.225335722064972,-0.2750311392314732,9.757214061179756,-0.9441939174365253,-1.7566639184951782,-0.4020681083202362,0.1472945213317871,-0.4022488627978345,-0.4261466402678877,-0.6054250838234427,-0.5385678172664237,1.5970677137374878,1.3698368072509766,-1.1933071613311768,-1.375435471534729,0.6088626384735107,-1.2145168781280518,-0.0822090506553649,-0.0063782930374145,0.8086714213341474,-0.1018940731883049,-0.2715723770797252,0.353026269592531,19
1733284807721285400,-1.4375751813217996,14.674244345927235,-3.355117068356275,-0.1292801037146244,9.80527111286223,0.1016962782782968,-3.1365959644317627,0.4766738414764404,0.4557577967643738,-0.4194263675741924,-0.4075761372119525,-0.5733207000619502,-0.5738176168012085,2.579472541809082,0.5622483491897583,-1.738593816757202,-1.136554718017578,0.91550475358963,-0.6570075750350952,-0.0787834674119949,0.0227782428264617,0.6948112333983183,-0.0350415706634521,-0.2200986488215625,0.7483053615681826,20
1733284807875034400,1.5644129242524505,-17.078137379014493,-0.2739858679622411,-0.5299682059938088,9.48851811631918,2.4202377264276147,-0.61385178565979,-0.4903121888637543,-0.0757375881075859,-0.4730005238430954,-0.3396638149571181,-0.5111073361401954,-0.6321932749485782,0.0396802276372909,-0.2030157744884491,-0.3226805925369262,1.4628669023513794,-0.212409570813179,0.8961348533630371,0.0335006266832351,-0.0581456609070301,-1.0027926022037863,-0.0286058150231838,0.4660017471157014,-0.995525606875494,21
1733284807914762000,-0.0577761528706178,-14.679718977946042,0.5959861175090074,-0.4689484315594658,9.47158276360929,2.497921270088851,0.1837219595909118,-0.293151319026947,0.1009900644421577,-0.4776919050331197,-0.3436297584671472,-0.5045394471568827,-0.6317982888100727,-0.598235547542572,0.1490369737148285,0.5875763893127441,1.1718626022338867,-0.3294744193553924,0.8951892852783203,0.0623872578144073,-0.2610503137111664,-0.5300474817750975,-0.1642982512712478,0.4506097148576751,-0.8227028692960738,22
1733284807954762000,-0.1930036846144124,-9.803407072556018,2.439929392108321,-0.4652520977921783,9.53450829859972,2.2465708661742507,1.3266582489013672,0.216049462556839,-0.0838793814182281,-0.473804328793193,-0.3506881313914973,-0.5123227477708175,-0.6245420365566366,-1.3651492595672607,0.1908481270074844,1.713769793510437,0.8815124034881592,-0.2637566924095154,0.860388457775116,0.0012512877583503,0.069161832332611,-0.3293313230872154,0.1031856387853622,0.0772583039864897,0.1017286187784746,23
1733284807994762000,-1.8717083566203712,-2.6331273206532,1.865516808503866,-0.4394443238513544,9.67582055708468,1.5348480993330478,2.16998028755188,0.7067792415618896,0.4184673130512237,-0.4533288041766737,-0.3630943625488196,-0.5384301351187861,-0.6105312727932443,-1.7848283052444458,-0.2656231820583343,2.4320998191833496,0.4572364091873169,0.0428553819656372,0.3321555852890014,0.0377113297581672,-0.0770086199045181,-0.3310486483991146,0.4901533126831054,-0.0224006323784589,0.4547310325713828,24
1733284808034762000,-0.4762076089074835,5.316057659873366,-0.1443892182448878,-0.2695862082311883,9.786715465474128,0.5638237869096919,2.518598794937134,-0.1259946972131729,0.7629806995391846,-0.4256759967173359,-0.3863893766680262,-0.5674118763640423,-0.5895310761080481,-1.82178282737732,-0.3128823339939117,1.6088948249816897,-0.4511312246322632,0.1815976500511169,-0.2861691117286682,-0.0135175622999668,0.1096128523349762,-0.0091471830517053,0.5626163482666016,-0.2015324800394475,0.2081291748907417,25
1733284808074762000,-0.0213355969628319,7.30951695767939,-1.754548834878206,0.1221912688316777,9.804835059532522,-0.1437541352117434,1.210707426071167,0.2327805161476135,0.9386507272720336,-0.4002339316368272,-0.4134045238228256,-0.5800225175717998,-0.5766137036504818,-0.8956570625305176,-0.8689920902252197,1.491225004196167,-0.7081237435340881,0.3896306157112121,-0.5747545957565308,0.0389918871223926,0.1035688519477844,0.1707230618864297,0.3774839043617248,-0.2187102632030844,0.1827973844312131,26
1733284808114761700,1.6457698957294224,7.575595413517951,-1.6222762074172496,0.3542863161236047,9.785509012293817,-0.5372944206960499,0.8685096502304077,-0.1480071693658828,0.2218023985624313,-0.38377885880501,-0.4269492834990869,-0.5874595305682803,-0.5703678010094222,-0.9000329375267029,-0.5208951830863953,0.8487914800643921,-0.586510956287384,0.1439446806907653,-0.296153724193573,0.0915013402700424,0.0975248515605926,0.3529962763130664,0.1923514753580093,-0.2364329668983817,0.1576547598682343,27
1733284808154762000,1.3799533056974411,5.497763888067007,-0.5882195751607417,0.3431236650636419,9.759585466486216,-0.8961850888099521,0.929188311100006,-0.2645432353019714,-0.1047211363911628,-0.3786818255576167,-0.4362398675837893,-0.5961438593000357,-0.557590678711773,-0.7051257491111755,-0.083500288426876,0.4646093547344208,-0.4325620532035827,0.3282181620597839,-0.2774640321731567,0.1091327369213104,0.0377090908586978,0.0773141258269548,0.0401127636432647,-0.0182863289274275,0.0857382553011179,28
1733284808194762000,0.8816375810846686,3.0590994013279675,-2.8614509231150147,0.3145656060339882,9.740451142427323,-1.093172034374252,-0.0189588069915771,-0.2305948734283447,-0.0291378423571586,-0.3782615829565058,-0.4426559578433099,-0.5998266140158635,-0.5488003573825739,-0.2423986047506332,-0.0835320353507995,0.0460808724164962,-0.2149963974952697,0.1520619392395019,-0.2914233803749084,0.0505184680223465,0.027507159858942,-0.0121568862617015,0.0038453750312328,-0.1240212242051959,0.2773491338502615,29
1733284808234762000,0.294627619175706,0.6602928777247667,-1.1681235957883298,0.2790829719055444,9.752986798873543,-0.9857601457949728,-0.3792340755462646,0.0324691198766231,-0.1125535741448402,-0.3824947882332554,-0.4403411695334929,-0.5969584852406845,-0.5508519247641063,0.1604561805725097,0.1519198417663574,-0.1393828690052032,-0.0822858214378357,0.1226063966751098,-0.0424968004226684,-0.0614290460944175,0.0252820346504449,-0.0256412217348814,0.0892129987478256,-0.134255179580301,0.1854831894490867,30
1733284808274762000,-0.1041972191154025,-0.6669499975264072,-0.0948386035364121,0.250393304119166,9.766861010447144,-0.8462318481173365,-0.2957523763179779,-0.0078419456258416,-0.0493566803634166,-0.3862744159381019,-0.4365389616668915,-0.5937840964439857,-0.5546586491052339,0.0820101052522659,0.2718795239925384,-0.1312755346298217,0.0248203873634338,-0.0008274316787719,0.0636001527309417,-0.1244513988494873,0.0095725581049919,-0.0499672692179679,0.143153578042984,-0.0181841837272048,-0.0754923902925103,31
1733284808314762000,0.0744823182008229,-1.213095102545619,0.8841980792224406,0.2315265632215887,9.77326386322677,-0.7746631340745836,-0.0767174661159515,0.0786884054541587,-0.0666438415646553,-0.3881736546436415,-0.4343003722834238,-0.5923512607453486,-0.5566187337482056,-0.0825109258294105,0.2216068804264068,-0.0266807489097118,0.097680389881134,-0.0754011869430542,0.0996951460838317,-0.1221576780080795,0.0070060277357697,-0.0194049576938152,0.1653719395399093,-0.0459308533087372,-0.2663052503317594,32
1733284808354761700,0.275153760964144,-0.3442214337050914,1.2795745306253432,0.2105698825737461,9.772886262086033,-0.7853216715373098,0.1248415634036064,0.0910537391901016,-0.0375776439905166,-0.3874817192245426,-0.4327545666164157,-0.5939391767894783,-0.5566126120001806,-0.0567626878619194,0.1851227432489395,0.0906966105103492,0.0517021417617797,-0.0595139265060424,-0.0252661108970642,-0.057671807706356,0.0207175556570291,0.0736503426223993,0.0925826132297515,-0.0901702463991939,-0.1767781972069293,33
1733284808394762000,0.2281776181198656,4.412874894195795,0.4761949320890009,0.2186404128372669,9.768279060551524,-0.8386173545256257,0.0648266598582267,-0.010650654323399,0.0803319737315177,-0.385400520710968,-0.4333370555410296,-0.5957991108479921,-0.555615640851626,0.3666863143444061,0.2395499348640442,-0.0286375731229782,-0.2087134718894958,0.1150163412094116,-0.3427930474281311,0.0068140625953674,0.0344290807843208,0.1668611257612705,0.0197932869195938,-0.1343614164337515,-0.0871546249050647,34
1733284808434762000,1.7845690023496743,14.291679445302483,-1.150150789789483,0.1553327283951453,9.77244144092798,-0.8035171073108911,-0.3815164268016815,-0.4611838757991791,-0.4617082178592682,-0.3897809973449098,-0.4326485870831321,-0.5947967483799286,-0.5541685368806447,0.8782351016998291,1.071799397468567,-1.196475863456726,-1.1322054862976074,0.4169288873672485,-0.8366899490356445,0.0618666000664234,0.239750474691391,0.4577127883285283,-0.0426466688513755,-0.1688276035286486,0.2942966884545981,35
1733284808590140400,0.5655863761354237,-13.742141190713642,-1.3115700898230076,-0.2534423894914798,9.532685759347675,2.2878058167517183,-1.666529417037964,0.4883661866188049,-0.3827360868453979,-0.4693049762735177,-0.3567063263554423,-0.5060780230710356,-0.6296018671730937,1.233321189880371,-0.6050444841384888,-1.4002256393432615,1.0939306020736694,-0.1323712766170501,0.9005771279335022,0.12692591547966,0.157686710357666,-0.8682138166923076,0.1299022287130355,0.3622517785774544,-0.5635955676443875,36
1733284808629869000,0.4405963434306904,-16.356762548339365,-1.500975348086655,-0.3380944752573966,9.44006358975172,2.63462983417064,-0.4848629236221313,-0.1113184168934822,-0.0846610888838768,-0.476270023954304,-0.344031760101212,-0.497306153029272,-0.638353830377661,0.0430962666869163,-0.3203477263450622,-0.4851154386997223,1.4756217002868652,-0.2467353790998459,1.023314356803894,0.1038708984851837,0.0616889297962188,-0.8087905907344073,-0.1090971827507019,0.3704545203858986,-1.202503200578317,37
1733284808669869000,0.4002385775465518,-16.472452289789913,-0.7325202018067241,-0.3131493094952777,9.46477308359444,2.547624335412681,0.7744317650794983,-0.3797778487205505,-0.0005709575489163,-0.4778764665166734,-0.3500458066765896,-0.4975693384382493,-0.6336613718432595,-0.9624632596969604,0.5975698232650757,0.7324275374412537,1.2482515573501587,-0.2592920958995819,0.8730868697166443,0.0999284237623214,-0.0313135907053947,-0.3388233740538358,-0.3420091569423675,0.2213555170148611,-1.1152595091503112,38
1733284808709868800,0.6042924658223986,-13.458548705494405,-0.9190800075113772,-0.2952907775258645,9.556150221565366,2.1824702960550786,1.1314960718154907,0.0416241362690925,-0.0293345935642719,-0.4737406281514835,-0.3622847250534142,-0.5074197063208202,-0.6219685113156878,-1.4089577198028564,0.958265781402588,1.3610883951187134,1.0708147287368774,-0.2308567464351654,0.7806462645530701,0.1134504228830337,0.0165002532303333,-0.4190355594098567,-0.456404447555542,0.2131925226949155,-0.3641361675519496,39
1733284808749868800,-0.0184580322325229,-6.86534812605679,0.4645160386025905,-0.3180771212862804,9.658782913044094,1.6664727842792868,1.486759901046753,0.7339717149734497,0.1005947962403297,-0.4594680593870186,-0.3698572596049134,-0.5274837855772819,-0.6114373210112531,-1.1677722930908203,-0.0520752556622028,2.16257643699646,0.652409553527832,0.027010291814804,0.1572204232215881,0.0799887180328369,-0.0401726700365543,0.0530436079233884,-0.198187381029129,-0.3455363156959414,0.8250373766582458,40
1733284808789868800,-1.0003932129118591,5.815992217859625,-0.0180319157749414,-0.2426462519226595,9.738238142552971,1.1305874266635625,1.1292905807495115,0.4734333455562591,0.546059250831604,-0.4381153337842546,-0.3766706075956776,-0.5481563063547414,-0.6047304004782437,-0.7113447785377502,-0.2062670141458511,1.221476674079895,-0.6941993832588196,0.1314219534397125,-0.3543329834938049,0.0271274112164974,0.0318384207785129,0.0464899484962224,-0.0089516043663024,-0.0813762606993317,0.6049095748074352,41
1733284808829868800,-0.1034641373341903,10.218611675500869,1.560803209322691,-0.0514107825571671,9.782249718236924,0.6894472952123731,1.1946280002593994,0.4996541440486908,0.4212727844715118,-0.418427176959895,-0.387030461365751,-0.5612979547841257,-0.6000589655537164,-0.1721902191638946,-0.5395123362541199,1.6121023893356323,-0.6086722016334534,0.3748184144496918,-0.4637491703033447,0.0115168085321784,0.0223516151309013,0.2400935352325439,-0.0024321214295923,-0.1541100729987025,0.2524521546114236,42
1733284808869869000,-0.2107105331534519,8.945774928697944,0.9821879133313892,0.0591274989809142,9.803667184796929,0.2345154063066467,1.1461771726608276,0.2207170575857162,0.3267318308353424,-0.4001426382602345,-0.3941711275732731,-0.5767773955045858,-0.5931634153704693,-0.6054023504257202,-0.4334804713726043,0.8181182742118835,-0.6863000392913818,0.2576540410518646,-0.5716928243637085,0.0029618190601468,0.0365565046668052,0.1326712713897228,-0.0138180404901504,0.0205398069426417,0.2181746950216591,43
1733284808909869000,1.370843678177148,5.211733946567773,-0.4516635712921619,0.225490443128813,9.800807703712582,-0.2523811169355176,1.1765284538269043,-0.7339833378791809,0.3887870609760284,-0.3890924044327259,-0.4128077503770903,-0.5851987845093616,-0.579430049220684,-0.9554900527000428,-0.310762882232666,0.3913473188877105,-0.3671390414237976,0.1340970396995544,-0.3799299001693725,-0.0156727582216262,0.0469534881412982,0.130839379787445,-0.0044170580804347,-0.090635379692912,0.1125390953999012,44
1733284808949868800,0.6930833866924047,1.8731249454200267,-2.0767992597937583,0.2966196515094488,9.787985047018529,-0.5270447197625413,0.170510247349739,-0.2523157596588135,0.0424542166292667,-0.3876085530851076,-0.4270067967694861,-0.5869727406788243,-0.568232285559262,-0.3655910789966583,-0.2026322782039642,0.1973906308412552,-0.1367020010948181,0.0801628828048706,-0.1521307229995727,-0.0413880608975887,0.029470844194293,0.0283808758318424,0.0013578948564827,-0.0344195714741945,0.0724606213811785,45
1733284808989868800,0.3516640778612345,0.4214262539386749,-0.9392273810703308,0.2729230610363185,9.78939608286023,-0.5134548780882731,-0.0900443345308303,0.1423142552375793,-0.1184508055448532,-0.3885929315989979,-0.4260274323684964,-0.5870941496518511,-0.5681696109367353,0.0231097750365734,-0.0979593396186828,0.0189184937626123,-0.0216330289840698,0.071153700351715,0.0721752047538757,-0.0671033635735511,0.0119882021099329,-0.0740408032447099,0.0071328477934002,0.021777532044053,0.0324214564595371,46
1733284809029868800,0.4600455421250313,-0.5523369453966617,-0.6174561910390853,0.2230499546415172,9.79186042714715,-0.490012408506684,-0.0401400737464427,-0.0391262434422969,-0.1790709495544433,-0.3896557407767214,-0.4231415673007224,-0.5881623016209372,-0.5684934286533316,-0.0831857696175575,-0.131873145699501,-0.1025695875287056,0.0431097745895385,-0.0351861119270324,0.0854732394218444,-0.0712372809648513,-0.0190331619232893,-0.0438794737368822,0.0086259115487337,0.0174076463967561,-0.0303168123304843,47
1733284809069868800,0.1728734265870414,-0.2724298706918954,0.5742904185295105,0.0577181756056845,9.793421685114502,-0.5059067277310416,0.1863194853067398,-0.088541068136692,-0.430900901556015,-0.3956231770832089,-0.4200779151843136,-0.5910402772699604,-0.5636383909115575,-0.2079239785671234,-0.0675762370228767,-0.0676271840929985,0.0202136039733886,-0.0426353812217712,0.0872021913528442,-0.0636446699500083,-0.0226028598845005,0.0009632920742034,-0.0080214608460664,-0.0092711016923189,-0.0287030204582959,48
1733284809109869000,-0.1108691528936847,0.0796323396414518,1.1221885777611285,-0.0800684934358578,9.785226103699207,-0.6428998443752527,0.4125983715057373,0.0186454486101865,-0.3011861145496368,-0.3972438649501972,-0.4193242554958681,-0.5974495286169691,-0.5562540200142297,-0.262503057718277,-0.0413060747087001,-0.0555400252342224,-0.0080984234809875,0.0293489694595336,0.0316534042358398,-0.0793033987283706,-0.0136316223070025,-0.0081102412194013,-0.0209842734038829,-0.0444081737861037,0.0192056357294321,49
1733284809149869000,-0.3240110779125243,0.0553027850270271,0.1381716954369098,-0.1460007359615992,9.779029587146638,-0.7208610359340906,0.0092051457613706,0.3469851315021515,-0.0950138866901397,-0.3950884100017022,-0.4163277486436821,-0.6028473180349835,-0.5542124516571171,-0.0576726906001567,-0.1062907725572586,0.0411220677196979,-0.0114446282386779,-0.0070340633392333,-0.0773788690567016,-0.1227041333913803,-0.029605895280838,-0.0954319663196802,-0.0411811023950576,-0.0060422027736902,-0.0101806177526712,50
1733284809189868800,-0.9399063763104378,-0.6863450183480978,-0.1508288593709468,-0.100673638965981,9.781468212470411,-0.6950728800091892,-0.0964471846818924,0.1949316561222076,0.3039937019348144,-0.3915264752062868,-0.4141474781736572,-0.6032584209315196,-0.5579140964333378,0.190978929400444,-0.1065571382641792,0.1034343764185905,0.0131575465202331,0.0019857287406921,-0.0279939770698547,-0.1379730403423309,-0.0381562933325767,-0.0990735376924276,-0.060881532728672,-0.011491992612183,-0.025581819697842,51
1733284809229868800,-0.3170665925368666,-0.3597778992772102,-0.2777986311834305,0.045324959837459,9.782456638985872,-0.6869144157338887,0.0704782530665397,0.0116553166881203,0.339486300945282,-0.3865375398934944,-0.4174187946590801,-0.6006533421387037,-0.5617523647129116,0.0975155681371688,0.0084535470232367,0.0820906013250351,-0.0278518795967102,-0.0049951672554016,0.0713239312171936,-0.1532419472932815,-0.0467066913843154,-0.1025830071181058,-0.0805819630622863,-0.0172115393027663,-0.0410415468972176,52
1733284809269868800,0.0350394021392799,0.1112619881361722,0.2467524816650897,0.1101092835702467,9.77753788728416,-0.7469905526425689,0.2525071501731872,0.2231109738349914,0.0983733311295509,-0.3816189636259673,-0.4186933098941295,-0.6023137309744157,-0.562388619959046,-0.1135785654187202,0.1288599669933319,0.0638393610715866,-0.0231345891952514,0.0298112034797668,0.1144610941410064,-0.1317964643239975,-0.0374714657664299,-0.0480085363656282,-0.0947101935744285,-0.0369853303089737,-0.0220416628729552,53
1733284809309868800,0.7481938640177249,0.2257557978004217,0.0963561684925109,0.1250911915242671,9.763750184950233,-0.9076916944693774,0.5447931289672852,-0.1399358063936233,-0.0273716691881418,-0.3774701813807107,-0.4219945257175834,-0.6067948720378233,-0.5578860195278362,-0.3018920123577118,0.1548458039760589,0.0333616845309734,0.0074613690376281,-0.0084794163703918,0.034969687461853,-0.1118059381842613,-0.038740124553442,-0.0676104779362678,-0.1074629798531532,-0.021296470528841,-0.0463937215801328,54
1733284809349869000,0.4828169805772602,0.0716816728979349,-0.1638368095040321,0.1091492702985182,9.742450207290052,-1.1149660791616889,0.4516838490962982,-0.0117982188239693,-0.043817114084959,-0.3741664026769686,-0.4263148204951498,-0.6124566291747666,-0.5505925355801518,-0.3368244171142578,0.0711446776986122,-0.0317864269018173,0.0236641764640808,0.0405618548393249,-0.0160420536994934,-0.1066340282559394,-0.0551623478531837,-0.0754354724735021,-0.1455339640378952,0.0438671987771987,-0.0914500936092808,55
1733284809389869000,0.7878139998096972,-0.3302893544644117,-0.756899733042717,0.077091349921748,9.728279058596492,-1.2349264106035232,0.1457690596580505,0.1073959469795227,-0.0572113990783691,-0.3728703794135666,-0.4280901515769245,-0.6162000846062261,-0.5458974548607611,-0.2955456972122192,0.073837399482727,-0.0037823575548827,0.0416388511657714,-0.01602703332901,-0.0170516371726989,-0.1023925319314003,-0.0836621895432472,-0.0525964486777782,-0.1691993027925491,0.0517559062004089,-0.061259282278642,56
1733284809429869000,0.1976283304740674,0.0154372231066226,0.1005319928724318,0.0959606755020562,9.73180606367886,-1.205455620643124,-0.3090382814407348,0.9585829377174376,-0.0118540301918983,-0.3670135918127806,-0.4214066340279861,-0.6195785512789657,-0.5512167195444513,-0.2712528705596924,-0.0536019392311573,0.0257923137396574,0.1222586631774902,0.0531239509582519,-0.0788036584854126,-0.109561450779438,-0.0789805874228477,0.0077373162537813,-0.1686204224824905,0.011592822638154,-0.0170331870611757,57
1733284809469868800,0.41262788432464,-0.0616717355370521,0.1292972649119794,0.1501591160163748,9.74816390876174,-1.058846278663352,-0.2841199338436126,0.2972651124000549,0.1130949631333351,-0.3602005100070254,-0.4110447972449172,-0.6205064966468117,-0.5623784621245539,-1.0912500619888306,-0.0960917696356773,0.0782850757241249,-0.0080636143684387,-0.0368188023567199,-0.082202136516571,-0.1075557917356491,-0.0643407255411148,-0.0057405894786119,-0.166361466050148,0.0546694555595517,-0.0502619778482243,58
1733284809509868800,-0.0326154263953678,-0.0246878665328025,0.3551590073049068,0.2108336846090853,9.746643567326664,-1.062495960277319,0.0317613221704959,0.3834885358810425,0.1069511920213699,-0.3558304366735432,-0.4102478400681066,-0.6211834896702922,-0.5649890037401434,-1.0171236991882324,-0.1486401557922363,0.1615197211503982,0.0156037211418151,0.0511237382888793,-0.0208249688148498,-0.1191722899675369,-0.0332466661930084,0.0464215594351291,-0.1496353894472122,-0.0319017434343695,-0.0472441278643906,59
1733284809549868800,0.2001952766189351,-0.1474766263335943,0.0018492811284959,0.2044245664854533,9.75106956707537,-1.0223781040962785,-0.1106801852583885,0.7028982043266296,-0.2859934270381927,-0.3498556688502537,-0.401637291120942,-0.6251513928898238,-0.5705035771654222,-1.4371851682662964,-0.0283309388905763,0.1700099408626556,-0.0057547688484191,-0.1323229074478149,0.046237289905548,-0.1253033727407455,-0.0031611751765012,-0.0299316124051809,-0.1442056596279144,0.0044362288817763,-0.1093348011995665,60
1733284809589868800,0.0871643882472533,-0.0976630863726139,0.2797591906666755,0.0932983883570879,9.75273019376397,-1.0227097472034394,0.1871368587017059,0.2991096079349518,-0.2244510799646377,-0.3471046663009556,-0.3914644391565807,-0.6315847366983657,-0.5721666666989801,-1.4838905334472656,-0.0006960090249776,0.1140362843871116,-0.0145160555839538,-0.0141854286193847,0.0076467990875244,-0.1107456088066101,-0.0051791174337267,-0.0593482610255479,-0.1338880360126495,0.0092553196012973,-0.0998059710196685,61
1733284809629869000,0.5139728010151535,0.0968476783365011,-0.3424117539346218,0.0465695028387242,9.74107658084929,-1.1312189295001327,0.2328981757164001,-0.1056783720850944,-0.1015356555581092,-0.3458643773922855,-0.391397900586875,-0.6359904072999092,-0.5680684790600057,-1.8825324773788448,-0.0274794213473796,0.0134035535156726,-0.0135057568550109,-0.0606879591941833,-0.0008046627044677,-0.0977738201618194,-0.0139042446389794,-0.0491787491887807,-0.1034902781248092,0.0041784547284245,-0.0462586330915335,62
1733284809669869000,0.6822679781675338,0.2141758346438407,-0.8906279661394655,-0.0223664743805304,9.740616562122106,-1.135914759166166,-0.1290463656187057,-0.1864110380411148,-0.1949628591537475,-0.3492058405953922,-0.3908346709934124,-0.6365247808336985,-0.5658090612973296,-1.269188404083252,-0.1811003983020782,-0.0516530089080333,0.0146117806434631,0.0974084734916687,-0.0833334922790527,-0.0930849388241767,-0.0254374593496322,-0.0405348394840955,-0.0765837356448173,0.0051586979374289,-0.0272950442233588,63
1733284809709868800,0.283689113994129,0.297597045174241,-0.4062019429303705,-0.0819777154575102,9.744733349791169,-1.0972079388268292,-0.0938296467065811,-0.2611604928970337,-0.1146631464362144,-0.3540851140663385,-0.3908615409561907,-0.6349561336773042,-0.5645191241321323,-0.6709890961647034,-0.1400212496519088,-0.045300904661417,-0.0083225965499877,0.020595908164978,-0.0418991297483444,-0.0986336171627044,-0.0300816744565963,-0.0296902048647403,-0.0628569349646568,0.0213625215023756,-0.0090027513460256,64
1733284809749868800,0.3081692560603842,-0.066530281484127,-0.0330289208333939,-0.143418162989337,9.747035196992757,-1.0700992748878897,0.0180546455085277,-0.4042681455612182,-0.0806158259510994,-0.3604889000758026,-0.3929631834465404,-0.6325660572790971,-0.5616830283234853,-0.5057833790779114,-0.2047717571258545,-0.0895858108997345,0.0012347698211669,0.0182073712348938,-0.0287091732025146,-0.0971328020095825,-0.0519768968224525,-0.0407096115291118,-0.0418803617358207,0.0698534345574676,0.0129124904019758,65
1733284809789868800,0.3783541875945403,0.1186047521144151,-0.0097639997757971,-0.1700588623566553,9.742963417509198,-1.10279216869995,0.0969098210334777,-0.4262834191322326,-0.0526778437197208,-0.3652508940802472,-0.3979712107585373,-0.6307500848337111,-0.5571042261726741,-0.2102348059415817,-0.0891114622354507,-0.0506839528679847,-0.0051148533821105,0.0170220732688903,0.0303449034690856,-0.106010727584362,-0.0394754745066165,0.0062526306539773,-0.040224265307188,0.0383702087961137,-0.0292336339033907,66
1733284809829868800,-0.426648774359934,-0.1087269167006015,-0.4460533301949501,-0.2085627988013438,9.744640410810709,-1.081148492168635,-0.1822110116481781,0.0368032753467559,0.0116715086624026,-0.3690396350365853,-0.3988632074812476,-0.6293102370989679,-0.55559568581869,-0.304229736328125,-0.1215865835547447,-0.0864141210913658,-0.0048377513885498,0.0023376941680908,0.0199667811393737,-0.1177350729703903,-0.0166187528520822,0.0218757317215204,-0.0507481098175048,0.0204443837441503,-0.0175647617707843,67
1733284809869869000,-0.7370244544234127,-0.2049725374907255,0.7720739212989807,-0.135961188913742,9.750056006118657,-1.04321660172455,0.0700260698795318,0.555227518081665,0.2811672687530517,-0.3643657096526513,-0.3966931165271367,-0.6291453068446754,-0.5604001564309752,-0.1854253262281417,-0.1205608919262886,-0.1739136129617691,-0.0131446719169616,0.042793869972229,0.020901396870613,-0.11646119505167,-0.0105435755103826,-0.0039648119777441,-0.0778799131512641,0.0430216878637671,-0.0468279026131611,68
1733284809909869000,0.3127281614737585,0.0079208561271429,0.5500723614655435,0.0082444477877666,9.739922734639048,-1.1420387219391763,0.3383856415748596,0.4174378514289856,0.2656017541885376,-0.35251680914763,-0.3968015184721657,-0.6330689718623596,-0.5634751717576687,-0.3237839937210083,-0.1190847009420394,-0.102930910885334,-0.0031812787055969,-0.0410768985748291,-0.0151193141937255,-0.1151873096823692,-0.004468398168683,-0.0296878667771816,-0.1050117164850235,0.0654044923245906,-0.076091662226757,69
1733284809949868800,0.2184373097469098,-0.1559790817409753,0.1503835998214781,0.1019367816364392,9.724704707241058,-1.2609944794483483,0.3067048490047455,0.7143378257751465,0.1449303925037384,-0.3415137668597254,-0.3953706639801006,-0.6387290995973782,-0.5648676815112167,-0.560145378112793,-0.0655615031719207,0.0169253181666135,0.0312947034835815,-0.0393139123916626,0.0491775125265121,-0.1184517294168472,-0.0170392226427793,-0.0287654912352561,-0.1369627863168716,0.0495240554951131,-0.026469744980894,70
1733284809989868800,-0.5443401014238596,-0.4850988079041242,-0.3729131290517747,0.1901480029223486,9.715044313970209,-1.323678022376448,0.0366583615541458,0.083561860024929,0.0502642579376697,-0.3311105708641692,-0.3919382288166475,-0.6433297938391331,-0.5682225641035459,-0.6605167388916016,-0.0016329090576618,-0.0017985021695494,0.0177364945411682,-0.0821458101272583,0.0330468416213989,-0.125492975115776,-0.0344391763210296,-0.0499146622478961,-0.1633857935667038,0.0448307831123471,0.0394167221743613,71
1733284810029868800,0.5645607594147324,-0.1931476596623659,0.2206419619180262,0.155644881350547,9.711146137487887,-1.3563912283241748,0.0760672017931938,0.0806141346693039,-0.1310645788908004,-0.3317736767451045,-0.3917104354941463,-0.6447632453911377,-0.5663651841650548,-0.3803434073925018,0.0439591296017169,0.0042207073420286,0.0005165934562683,0.0247955918312072,-0.0135720372200012,-0.142392560839653,-0.0619939640164375,-0.0776321057349443,-0.1993459910154342,0.076065148679167,0.0480141075898893,72
1733284810069868800,0.7191499942325055,-0.1331768828243017,-0.3339583983659744,0.1171745731808245,9.713874101147056,-1.3406352946572004,-0.0599841102957725,0.6974838376045227,-0.110673151910305,-0.3294525218179551,-0.3858799510682937,-0.64764962746224,-0.5684256025385479,-0.4831480681896209,0.0205536186695098,0.0678300410509109,0.0509425997734069,-0.0001329779624938,-0.0096896141767501,-0.145732432603836,-0.1019017994403839,-0.073046531510353,-0.2506453394889831,0.0620630729421973,0.0309461962752044,73
1733284810109869000,-1.0199909166987984,-0.2430798575669527,-0.3959446066796779,0.1924948948420584,9.7125963362962,-1.3411980431064965,0.0643460378050804,1.546396017074585,0.310886025428772,-0.3147606292886979,-0.3742443880989857,-0.6544640619411102,-0.5766660372818491,-0.5518645644187927,0.0150620741769671,0.1128996461629867,0.0261428952217102,-0.0113614797592163,0.0401373580098152,-0.1380739659070968,-0.1096682250499725,-0.0242138192802667,-0.2809533774852752,0.0298711143895983,0.0207375580044463,74
1733284810149869000,-1.316909258893877,-0.0216121123492717,-0.5921884787917137,0.5778492435222491,9.696730658644436,-1.3453199453420936,0.1807391494512558,2.9259393215179443,0.9656522274017334,-0.2747259976393505,-0.3555811986844701,-0.6649467932396055,-0.5966015182651041,-1.043331265449524,-0.1779967546463012,0.1504454910755157,0.0270882248878479,-0.1148390769958496,-0.073146641254425,-0.1004049330949783,-0.1325305253267288,-0.0546001897156238,-0.2773303389549255,0.0956982160404324,0.0166819259380921,75
1733284810189868800,-0.0144694740530103,0.3251344559192657,1.3153671440184116,1.114305934752524,9.647314009046552,-1.363101247356832,0.4645794332027435,2.606029987335205,0.9660406112670898,-0.2232769649847968,-0.3365306680059095,-0.6754597921750193,-0.6169672581033839,-0.822108805179596,-0.1632707566022873,0.0741240307688713,0.0095502138137817,0.0461910963058471,0.0192073583602905,-0.0700720250606536,-0.1272788345813751,-0.0363438175350427,-0.2559126317501068,0.0849323457457125,0.0216311823759228,76
1733284810229868800,-0.2491882574446499,-0.0450607924759388,0.5505718354202807,1.6209161711104214,9.568595277118682,-1.4088922538034616,0.4161404073238373,2.459680318832397,1.0956122875213623,-0.1741752445028154,-0.3202027435495448,-0.685057455559957,-0.6307371832082819,-1.000196099281311,-0.0937784984707832,0.0084747746586799,-0.0262448191642761,0.0267258882522583,0.0864820480346679,-0.0397391095757484,-0.1220271587371826,-0.0167623342305421,-0.2344949394464492,0.0738967185989022,0.0265030992612242,77
1733284810269868800,0.3116438368357718,0.0019119711011648,-0.1878955843530595,2.1910447937853634,9.464012036094068,-1.3424486276894807,0.083579383790493,1.925626277923584,1.019330978393555,-0.12454858334619,-0.3062287774123716,-0.6889628196168768,-0.6450129916050282,-1.0095126628875732,-0.0629807934165,-0.0870349034667015,-0.0470699667930603,0.0063138604164123,-0.0678677558898925,-0.0182938557118177,-0.117386519908905,0.0164098675310611,-0.2120863795280456,0.0360416197180748,0.0099791038312017,78
1733284810457332200,0.4731888821408152,0.2567839732706546,-0.7070037754952907,3.1347233821108937,9.268996244472264,-0.6554468989983201,-0.1192035898566246,0.4245747029781341,-0.0202596224844455,-0.0357075604372029,-0.2698305058792398,-0.6786825394177077,-0.6821338042529502,-0.1192755997180938,0.0160943157970905,-0.034147523343563,0.0091155767440795,-0.0263606309890747,-0.0161202102899551,0.0073445802554488,-0.101433053612709,-0.0418893593655899,-0.1756808310747146,0.0744612434467533,-0.1170623358448501,79
1733284810497332200,0.167884039068222,-0.030776246535778,-0.1382312436044216,3.151526632873714,9.270449365890023,-0.5450139455648139,-0.1778877973556518,0.3792162835597992,0.0799303203821182,-0.0314158408070392,-0.2650320802106249,-0.6764214470058657,-0.686458390558659,-0.2381237000226974,-0.008632868528366,-0.0367267243564128,0.0053625106811523,-0.0205752253532409,0.0267920419573783,-0.006687874905765,-0.0865735039114952,-0.02310731934309,-0.164513811469078,0.0404613358564674,-0.0859472218766808,80
1733284810537332000,0.0620028671875596,-0.2387245849668979,-0.2568505722334608,3.198151313665509,9.261571647429466,-0.4067917255170643,-0.2633216381072998,0.5972773432731628,0.1268510073423385,-0.0251986208200475,-0.2602109718323924,-0.673075669228151,-0.6918267792093435,-0.0217226780951023,-0.0049656420014798,-0.1695423722267151,-0.0101082324981689,0.0863702297210693,-0.0444599390029907,-0.005699030123651,-0.0830101817846298,-0.0215700267732143,-0.1593596935272216,0.0516299417331814,-0.080839523474127,81
1733284810577332000,-0.0397395974531769,0.2410346154749393,0.534885459858179,3.260539380778372,9.244342864730951,-0.2852897175911814,-0.0285154152661561,0.4008776247501373,0.1022542342543602,-0.0160765422917491,-0.254142078870361,-0.6707887383617517,-0.6965599734409903,-0.0432439483702182,0.0601583942770957,-0.1810734421014785,0.0163795351982116,0.0106546282768249,0.0390414074063301,-0.0047101858071982,-0.0794468596577644,-0.0195429048597812,-0.1542055755853653,0.0627829116493463,-0.075757397904247,82
1733284810617332000,0.0935734789714217,0.014125555986166,-0.0493020833075046,3.281951586641371,9.237518571668865,-0.2596993857933208,0.0259128548204898,0.2387168258428573,0.0334577932953834,-0.0119486662461394,-0.2513677779182522,-0.670861553557076,-0.6975789062513165,-0.0693615674972534,0.1364941149950027,-0.1281216889619827,0.0052074790000915,-0.0076995491981506,0.052290566265583,0.0016282205469906,-0.0675573796033859,-0.018021394380927,-0.1581303179264068,0.0537878504194319,-0.0818542534746229,83
1733284810657332000,-0.2411813304692506,0.0337953020960092,-0.383514164173603,3.3184789440497755,9.225781372123956,-0.2075550465309061,-0.0037054503336548,0.5820927023887634,0.1657894402742386,-0.0053028743736048,-0.2469410309495026,-0.6705240407023803,-0.6995639270773598,0.0346524454653263,0.1015113219618797,-0.1995760351419448,0.0110024213790893,0.0282621383666992,-0.0034987926483154,0.005100673995912,-0.0549898222088813,-0.029601357537508,-0.1559964716434478,0.0558317773371934,-0.0467167429894208,84
1733284810697332200,-0.2292494851350784,-0.0222708685189485,-0.2614893744826316,3.418026528994739,9.191015179169176,-0.1127537610638886,0.0164819657802581,0.8760185837745667,0.3399338722229004,0.0082120151927464,-0.2400824671696086,-0.6694096286455018,-0.702982007497011,0.2195708900690078,0.17637400329113,-0.1840205043554306,0.0056660771369934,0.0107787251472473,0.0572129413485527,-0.0095230778679251,-0.0471018515527248,-0.0450198759436607,-0.1659431755542755,0.0615215134114026,-0.043461102194339,85
1733284810737332200,0.1142161617666482,0.0232119487613439,-0.0631190117359161,3.5574417216867205,9.138649616637826,-0.0088568086740939,0.1150650009512901,0.9473990201950072,0.3850257098674774,0.0264180364042014,-0.2318045122539432,-0.6683698375008308,-0.7062935221823672,0.1098217666149139,0.217504933476448,-0.1128612384200096,0.0138534307479858,-0.0516011118888855,0.0368819236755371,-0.033650416880846,-0.0296500138938426,-0.0116921913594007,-0.2094895094633102,0.0142906834200024,-0.0309625628881156,86
1733284810777332000,0.1307072778403759,-0.225238495928049,-0.0198532859832048,3.693431323844194,9.084233551317451,0.0752193044055951,0.2413426041603088,1.129483699798584,0.3807395696640014,0.0467128276468751,-0.221781270981656,-0.6685640960832472,-0.7082747273658353,-0.0117049310356378,0.2866534292697906,-0.0584531277418136,0.0037270784378051,-0.0297581553459167,0.0578384287655353,-0.0577777549624443,-0.0121981725096702,0.0223603003680706,-0.2530358433723449,-0.0330317703776061,-0.0185826815254986,87
1733284810817332000,-0.2193538218036294,-0.2920353193938731,0.4128407964229583,3.833701087538898,9.025335956668853,0.1282491714979987,0.5015881657600403,1.0418788194656372,0.4326924085617065,0.0691592105824125,-0.2105110980161683,-0.670183698377378,-0.7083473664375379,-0.0408143475651741,0.336633026599884,0.1080930456519126,0.0100737810134887,-0.0414185523986816,-0.0398460626602172,-0.090850219130516,0.0405991487205028,0.0104617727816104,-0.3216165900230407,-0.0021978023052215,-0.0148953713148832,88
1733284810857332000,-0.2125704452738165,-0.3897147723793983,-0.1659551168322563,3.9832884224161504,8.961106353342533,0.048788964419905,0.5966701507568359,0.709267258644104,0.4196163415908813,0.0887838408381082,-0.2035192891057156,-0.6753460995426824,-0.703281605044205,-0.1024159267544746,0.2911891043186188,0.2440444231033325,0.0231197476387023,-0.0109531283378601,-0.0047484673559665,-0.1115267798304557,0.0526438504457473,-0.0034469255834817,-0.357193112373352,0.0096744217962026,0.0135841425858438,89
1733284810897332000,-0.3830494692713022,-0.3962549878031015,-0.249927531504631,4.15107396954596,8.884746751761435,-0.0153791876178293,0.4856400489807129,0.9493361711502076,0.5169789791107178,0.1086209694827171,-0.1974221980265995,-0.6795650050250636,-0.6981528145871225,-0.0532355979084968,0.2730638086795807,0.3748511075973511,0.0533578395843505,-0.0121466517448425,-0.0331780910491943,-0.1322033405303955,0.0646885558962822,-0.0151192431986331,-0.3927696049213409,0.0207477506048977,0.0416208811551332,90
1733284810937332200,-0.4494651844650507,-0.3577548690170049,0.6018903731167317,4.365929895408451,8.781153690817952,-0.0192019002692308,0.7239804863929749,1.4171700477600098,0.7935428619384766,0.1347011910106788,-0.1884795424297264,-0.6822422491190807,-0.6934525795471614,-0.1227347776293754,0.2108505964279174,0.3847388923168182,0.0536883473396301,-0.0154590010643005,0.0027376413345336,-0.1475939750671386,0.0768561586737632,-0.0242588274657726,-0.3946102559566498,0.0201071146138012,0.0537421115815639,91
1733284810977332200,-0.680518211890757,-0.467730324473977,0.2544587451934814,4.711755257178843,8.600534088817238,-0.023717788524786,0.9270697236061096,1.5982064008712769,1.1064918041229248,0.1734324212662196,-0.1772654358314949,-0.6854095388296493,-0.6846253899599936,-0.1209262236952781,0.1926992237567901,0.3517613410949707,0.0420356392860412,0.0113551020622253,0.0336308479309082,-0.1559816896915435,0.0603861063718795,-0.0550333204358816,-0.4008989334106445,0.0448925963021814,0.0158165778130292,92
1733284811017332000,-0.0935948140203952,-0.3665659519821405,-0.0665069006085395,5.0865521541506045,8.384297814512252,-0.0303085742251016,0.9342052340507508,1.771103858947754,1.1217710971832275,0.2133120012212634,-0.1672269302569839,-0.6881718252276717,-0.673017575423363,-0.1627296060323715,0.1880387514829635,0.3008771240711212,0.0346489548683166,0.0083218812942504,0.0270922183990478,-0.1572086811065673,0.0403647571802139,-0.0457516973495483,-0.3958675265312195,0.0335189693726599,0.0211076699584722,93
1733284811057332000,-0.2323755082011222,-0.9161866241574288,-1.2429431283205747,5.476425331962108,8.134106663635373,0.1244023964093532,0.4213449358940124,2.0125083923339844,1.1849486827850342,0.2575250326894376,-0.1548689003342457,-0.68532683212843,-0.6633428091596797,-0.1366370171308517,0.1367544680833816,0.3025325536727905,0.0405555963516235,-0.0220323204994201,0.0186294317245483,-0.1548015177249908,0.0265459083020687,-0.0536947653084993,-0.3969752192497253,0.0494968752272427,-0.0242664262503385,94
1733284811097332000,-0.5455015464186668,-0.1305325057953596,-0.6833616186231374,5.859282493531704,7.850337068283557,0.4598029655408114,0.3057035803794861,2.179266929626465,1.319798707962036,0.3028771311184842,-0.1433920803423333,-0.6752742287174125,-0.6570456115185467,-0.1285351514816284,0.1082700490951538,0.2488221824169159,0.0095937252044677,0.0133213996887207,0.0134634934365749,-0.1523943543434143,0.012727060355246,-0.0593646276384592,-0.3980829119682312,0.0645421764068305,-0.0703568540349602,95
1733284811137332000,-0.269314369019866,-0.8648521582394838,0.3245300602853298,6.209627963075041,7.529711029699444,0.9562179710987956,0.298992395401001,2.4981818199157715,1.464711308479309,0.3523819731267762,-0.12941246580934,-0.6591652805833103,-0.6515983920502983,-0.1942132264375686,0.0616892836987972,0.1148795783519744,-0.0013827681541442,0.0315091609954834,-0.0154420137405395,-0.1507946699857711,-0.0019790707156062,-0.0730763421267271,-0.4090745747089386,0.0607493599951267,-0.0167599961429834,96
1733284811177332200,0.0895458308905363,-0.5405506460130214,1.643565225291997,6.567233194488287,7.145704698094725,1.4073960238963366,0.9393839836120604,2.4859325885772705,1.7362096309661863,0.4072142436471074,-0.1136382489664144,-0.6444603346096595,-0.637129439682873,-0.1043120995163917,0.1040160208940506,0.1513954401016235,-0.0234967470169067,-0.0013474225997924,0.0039989985525608,-0.1394015401601791,-0.0295203514397144,-0.1057154599249362,-0.415625125169754,0.1217351590946316,-0.0525754058897495,97
1733284811217332200,-0.4207254121929407,-0.6530179182857274,1.265274202594161,6.933702700358629,6.722319126781821,1.7042843362793323,1.236918330192566,1.836171269416809,1.869632601737976,0.4609830994347148,-0.0993552545649916,-0.6350072585779886,-0.611873286324473,-0.1013187021017074,0.0639881789684295,0.1723380088806152,0.0020753741264343,0.0120560526847839,-0.0454243384301662,-0.104085698723793,-0.0646955668926239,-0.0528074610799551,-0.4142584800720215,0.1285607673309743,-0.0521168484672904,98
1733284811257332000,-0.8063730812638997,-0.5650660785883664,-0.4096013761103153,7.33117057108283,6.269101896306872,1.767114009679854,0.8594815731048584,0.9625898003578186,1.8913803100585933,0.5011222359646934,-0.0973521878780291,-0.6327912860340956,-0.5822150038438266,-0.1970204710960388,0.0164363197982311,0.2604099214076996,0.0024420619010925,-0.012333869934082,-0.0087126456201076,-0.0913139805197715,-0.0391991361975669,-0.0254950912624597,-0.3949137330055237,0.0596719400219619,-0.0236953483641147,99
1733284811297332000,-1.002429321849346,-0.4967845695227384,-0.0402490082800388,7.736121491038799,5.72482316968143,1.8839337780736385,0.6436284184455872,1.0623184442520142,2.114692449569702,0.537855673621779,-0.1031282424673076,-0.6271448604516813,-0.5538638426234535,-0.2767203450202942,-0.0577162057161331,0.3492320477962494,0.0089491009712219,-0.062599241733551,-0.0233588255941867,-0.0823894813656807,-0.0298334620893001,-0.0391167893797159,-0.3617202341556549,0.1348169051162898,-0.0757201346337795,100
1733284811337332000,-0.8938871140658855,-0.370492770037055,-1.4071962635405362,8.101032077029346,5.066568519786,2.207607513790577,-0.1231909543275833,1.3511508703231812,2.021486282348633,0.5767542829310324,-0.1135165849317256,-0.612010887122716,-0.5290662307197547,-0.2082512825727462,-0.1310800164937973,0.4710690379142761,0.0408633351325988,-0.0331628322601318,-0.0268019437789917,-0.0947896838188171,0.0019701831042766,-0.0264946236938238,-0.3107105493545532,0.0554848635956645,-0.0239013923302292,101
1733284811377332000,0.2174333751350641,-0.1109562831878662,-1.1745929379329083,8.32881850387454,4.3958284823268645,2.734564957128465,-0.5000996589660645,1.4904322624206543,1.8593567609786987,0.6121979733428294,-0.1270588134934099,-0.5868833347895847,-0.5144293806397717,-0.1957080662250518,-0.1243577599525451,0.4845539033412933,-0.0242819786071777,-0.0146436095237731,0.0208915397524833,-0.1263711154460907,0.0355844050645828,-0.0360725993782281,-0.2609018981456756,0.0719908849775791,-0.0608437602803111,102
1733284811417332200,1.6708716037601232,0.9425713577359914,-1.4459496264353393,8.437297583293914,3.733902742703259,3.322704745051265,-0.5543585419654846,1.3932913541793823,1.6743671894073486,0.6464724643943233,-0.1384140516250923,-0.5580598191256925,-0.5014819658480564,-0.2711266279220581,-0.0739776790142059,0.4632992744445801,-0.0435413122177124,0.0039911866188049,0.0410912036895751,-0.1366611719131469,0.0424078963696956,-0.0695668727010488,-0.2349678874015808,0.1063613566130399,-0.1601075598478317,103
1733284811457332200,1.7348703209400176,0.5650570184990763,-1.0755214460670948,8.447519702100752,3.1431124402716755,3.864017899869382,-0.7610262036323547,1.2984806299209597,1.289072036743164,0.673396538223705,-0.15012666613812,-0.5295771002624483,-0.493504931440641,-0.4936861991882324,-0.077493317425251,0.3830581605434418,-0.0332324504852294,-0.0216656923294067,0.005660057067871,-0.1323149055242538,0.044546291232109,-0.0769376937299966,-0.2050069868564605,0.089021368625015,-0.1375216340303421,104
1733284811497332200,1.373695998868346,-0.2594555305674672,0.3693763332277536,8.350054184126854,2.6074191711619497,4.43264430128783,-0.5973406434059143,1.701133370399475,1.2292964458465576,0.6984426301362683,-0.1582943864216718,-0.4989398006757286,-0.4880366863597215,-0.5035377740859985,-0.1219741329550743,0.3760818839073181,-0.0141518712043762,7.712841033935547e-05,-0.0292197316884994,-0.1377109885215759,0.0391830541193485,-0.0931412250339984,-0.1705946028232574,0.1073106201618909,-0.0948100350290536,105
1733284811537332000,0.6537889026582241,0.1039661320395767,0.2179454163104295,8.138766472139954,2.090918386039138,5.05558301539123,-0.7460660338401794,1.5998023748397827,1.145720362663269,0.7244912618762666,-0.1623366973013693,-0.4646329708133097,-0.4825716197577272,-0.4093606770038605,-0.0867790132761001,0.2679692506790161,-0.0622695684432983,0.0469840764999389,-0.0025531202554702,-0.1620447933673858,0.0158153288066387,-0.093382632574439,-0.1368462741374969,0.1138042199648916,-0.0661649553030729,106
1733284811577332000,1.194924655082822,-0.1151236320003867,0.2082733326017856,7.892417383643984,1.6483106662534175,5.582402657693624,-0.9634456634521484,1.3335119485855105,0.5209073424339294,0.7423089781319268,-0.1683682797501345,-0.4324682780725397,-0.4833227080616599,-0.3228345811367035,-0.050962321460247,0.1676849424839019,-0.0318763852119445,0.046787679195404,-0.0032605081796646,-0.1841426640748977,-0.0014873631298542,-0.1431026490330696,-0.1209116429090499,0.1768916675187647,-0.1155409806296229,107
1733284811617332000,-0.122816232329607,0.0025780337944626,0.6819383078217506,7.599908016997575,1.2524325489386916,6.069860011422634,-0.883084237575531,1.2651029825210571,0.6814852356910706,0.756035230928221,-0.1738338138798388,-0.400381148359849,-0.487737199261207,-0.2370922565460205,-0.0292331650853157,0.0670237019658088,-0.0378750562667846,0.0083786845207214,-0.0126809924840927,-0.1624952256679535,-0.0253678951412439,-0.0998252328425645,-0.1191269531846046,0.1740657964430749,-0.1656859445020556,108
1733284811657332000,0.7071212643951177,0.9994192533131688,0.6147019238948822,7.40847359099388,0.862072391327843,6.367238445410132,-0.621870756149292,0.6488142013549805,0.6725615859031677,0.7668369390660075,-0.1819306650888711,-0.3771768987810482,-0.4864153026643521,-0.2591871619224548,-0.0078262500464916,-0.0916154757142067,-0.0312212705612182,0.0599969029426574,-0.0238122791051864,-0.1461298465728759,0.0141115803271532,-0.1044184058517217,-0.1372959315776825,0.1755589576102793,-0.1844242549806833,109
1733284811697332200,-0.8482020522117614,0.0861880448952317,0.8257154951155186,7.24640671377182,0.4893182156974449,6.589426321595907,-0.3097904920578003,0.7585949301719666,1.1202448606491089,0.7788536638391917,-0.1884148774641165,-0.3585144255456676,-0.4789093296091867,-0.2175960540771484,0.0189230740070343,-0.0509276315569877,-0.0141797065734863,-0.0229327678680419,-0.0235033184289932,-0.1297644674777984,0.0535910576581954,-0.1086877537339925,-0.1554649025201797,0.1766835777260363,-0.2034238467440009,110
1733284811737332200,-0.2462935589164495,0.1802321918520145,0.938075799882412,7.065578437456488,0.0642755522267427,6.800283240950107,-0.1195837706327438,0.7666847705841064,1.3629724979400637,0.7951416573101318,-0.1939556024219049,-0.3400930420566891,-0.4631065645505867,-0.2158077359199524,0.0334211587905883,0.044652484357357,-0.0008459091186523,-0.0273168087005615,-0.0437100082635879,-0.1139005422592163,0.0663320943713188,-0.0916588775217533,-0.1309289932250976,0.1252351300396025,-0.1293354049652814,111
1733284811777332000,-1.0846458327651023,-0.2725195582693442,0.8910404924631118,6.860956613099575,-0.3299214710000902,6.99920071618557,0.1009784564375877,0.5594803094863892,1.5070840120315552,0.8125089882626643,-0.1970072171161999,-0.3229988165806519,-0.4434964280281233,-0.2524749338626861,0.070072703063488,0.1214223653078079,-0.02676922082901,-0.033273696899414,7.843971252441406e-05,-0.1176672726869583,0.0831314846873283,-0.0867465555608272,-0.1101395934820175,0.0867578076072037,-0.119140174165368,112
1733284811817332000,-0.4504892668157815,-0.3343240898732095,0.7040279745548963,6.673019381561875,-0.6929379868723452,7.1526944108515975,0.2972021698951721,0.5513588786125183,1.68625807762146,0.8306413686371303,-0.1984086091105255,-0.3097548980654894,-0.4179962808050226,-0.2062975913286209,0.0086294757202267,0.1189504861831665,0.0026800632476806,0.001336395740509,-0.046365737915039,-0.1315620243549347,0.0690056532621383,-0.160998371207714,-0.0946480184793472,0.1351134038448333,-0.0511816134437918,113
1733284811857332000,0.6047445935040712,0.7252904697488993,-0.7082289333760738,6.4897238383501765,-1.0678109447550028,7.274177348750829,-0.0591775625944137,0.3570586442947387,1.4278486967086792,0.8468129303021781,-0.2019358943622519,-0.2972239450478758,-0.3921579047169364,-0.1866959333419799,-0.0187191646546125,0.085755780339241,1.519918441772461e-05,0.0193506479263305,-0.0153203159570693,-0.1585940420627594,0.0432114228606224,-0.1605576417028903,-0.092617928981781,0.127611065390706,-0.0576829581618308,114
1733284811897332000,1.6364859345555305,0.3189854317702353,-0.4279968645006418,6.2500143339991565,-1.4113399392165242,7.424003753080964,-0.2166867554187774,0.8088670969009399,0.8430977463722229,0.85830190144245,-0.2069095572198531,-0.2804810085261989,-0.3766121511363847,-0.1476369351148605,-0.0593271516263484,0.0478861629962921,0.0104458928108215,0.0041196942329406,-0.0109346210956573,-0.1782101988792419,0.0332809090614318,-0.1251093117028474,-0.1032289713621139,0.1198300561256706,-0.0692766575828194,115
1733284811937332200,1.2564257102280854,0.4864912851758301,-0.7798229279905557,5.957004032093286,-1.6758108137279748,7.607637149944901,-0.3751102387905121,0.7790857553482056,0.5946954488754272,0.8667466293291787,-0.2098526974239233,-0.2609220255664307,-0.3696374107219559,-0.1524082571268081,-0.1043009087443351,0.0129729202017188,0.0169790983200073,0.0142080187797546,0.0033628940582275,-0.1729543507099151,0.0233435444533824,-0.1092670149266719,-0.1032245457172393,0.1233387948989868,-0.0857923235759139,116
1733284811977332200,0.6433405738800764,-0.2394755494646727,0.2899298715472221,5.651165228274464,-1.921441232560575,7.780923924839496,-0.3588832914829254,0.9495765566825868,0.5342664122581482,0.8734144957733587,-0.2129815665587456,-0.2406701977161571,-0.3658739289842729,-0.1356409937143325,-0.1470669656991958,0.0293994322419166,0.0225326418876647,0.0041646361351013,0.004960298538208,-0.1548419594764709,0.0206332951784133,-0.0947013139575719,-0.112640157341957,0.1248699499890208,-0.0924921134755015,117
1733284812017332000,-0.2095458367556333,-0.1038512734882533,1.1084586700290442,5.287946833154559,-2.1224567029885946,7.981427207961678,-0.0864929854869842,0.8746871948242188,0.6927254796028137,0.8815102503781078,-0.2123151309249979,-0.2190496250094268,-0.3603876868886462,-0.0969138368964195,-0.1781141012907028,0.0557359643280506,0.0232969522476196,0.0222110748291015,0.0009515136480331,-0.1446608901023864,0.0023552179336547,-0.0688870737433433,-0.1132242307066917,0.1189684708602726,-0.0956830184713005,118
1733284812057332000,-0.0078138886213302,0.4348315328262746,0.6047890171676874,5.012144855681061,-2.2572677628859874,8.121178208479284,0.0720574036240577,0.4212565422058105,0.609725296497345,0.8891269376195865,-0.2102052419403299,-0.2043254778602835,-0.3514516152041287,-0.0084910281002521,-0.2023750096559524,0.1036335080862045,0.0077529549598693,-0.0094704627990722,0.0068919509649276,-0.145018920302391,0.0077080531045794,-0.0781546683043241,-0.1100278496742248,0.1160800559423863,-0.0850467659056186,119
1733284812097332000,0.3089990214154124,0.3687853815972804,0.7314519880533218,4.8225233243182295,-2.311380607476085,8.220168744063377,0.3198479413986206,0.5479257702827454,0.6112958788871765,0.8955720874134216,-0.2063595467768599,-0.1957134769764715,-0.3421442233019827,0.0527190640568733,-0.1986634731292724,0.1585849076509475,5.120038986206055e-05,-0.0229043364524841,0.0120210647583007,-0.1379559934139251,0.0101450961083173,-0.0687619860589504,-0.1062420606613159,0.1138707093298435,-0.1096235732793808,120
1733284812137332000,0.0772813926011323,0.6432289301991463,-0.308512991464138,4.599791842775047,-2.3203671931385994,8.344351004049182,0.2510208189487457,0.3623611330986023,0.5975239872932434,0.9030823896408496,-0.1994528216327505,-0.18648072068577,-0.3314901939166849,-0.1586794704198837,-0.1933418363332748,0.15518718957901,-0.0162184834480285,-0.0364189147949218,0.0129003226757049,-0.1187128126621246,0.0228321999311447,-0.0503033693045377,-0.0872748494148254,0.0651635231755673,-0.089253569945693,121
1733284812177332200,0.9430164711549878,-0.1222970307610929,0.0276964006990194,4.388571350805461,-2.345825605652481,8.450321315518021,0.2551881372928619,0.7948362231254578,0.4450293481349945,0.9087954575562884,-0.1946385594092092,-0.1768314365289149,-0.3239402630566674,-0.0847144275903701,-0.1415631175041198,0.1189278438687324,-0.0246474146842956,0.0147379636764526,0.0100280046463012,-0.1117318794131279,0.0491069145500659,-0.0873825153768062,-0.0787635296583175,0.0745548171814531,-0.1398877786397933,122
1733284812217332200,0.1572863649472594,0.3444111110582947,-0.4749643673807382,4.075512532605231,-2.3154377739124,8.613903273478149,0.2482515126466751,0.6286073327064514,0.503902792930603,0.9159212354803852,-0.1851910034061817,-0.1628417866359154,-0.3166625904567915,0.4055149555206299,-0.165929913520813,0.0636814385652542,0.0001516938209533,0.0452805161476135,-0.036217451095581,-0.0902578979730606,0.030755503103137,-0.0833756178230047,-0.0772639811038971,0.0647246203016489,-0.1494388663172721,123
1733284812257332000,0.9547697450518609,-0.2650663561865687,-0.561756515648961,3.850542916746437,-2.3642158333458005,8.703688173821568,-0.06187554448843,0.617875874042511,0.2732651531696319,0.9201249548926668,-0.1823549151378432,-0.1515984347557363,-0.3116644589435168,0.6129592061042786,-0.1775019019842147,0.0430093817412853,0.0012739300727844,0.0175678730010986,0.0222264528274536,-0.0814796760678291,0.0247372929006814,-0.0985503906011581,-0.0721564814448356,0.0619108049899339,-0.1373112061500549,124
1733284812297332000,0.1774059006512165,0.0159182846218347,0.1814303338617086,3.647929801863432,-2.371962209688872,8.788446185913681,0.1080112680792808,0.0914397537708282,0.2040670216083526,0.9234024063097612,-0.1783852252510662,-0.1417485946936806,-0.3088914486030653,0.3685779571533203,-0.1435462236404419,0.0448079481720924,-0.0026468634605407,-0.036999762058258,0.0520153045654296,-0.0704386979341507,0.003666004166007,-0.123043611344695,-0.0556487776339054,0.085446505812928,-0.0914987185239791,125
1733284812337332000,-0.373314549459517,-0.0296438815049827,-0.1311123515099287,3.674470018264651,-2.4247119492322207,8.762957524392009,-0.095733642578125,-0.1822222769260406,0.2792464792728424,0.9243638380988036,-0.1808268383062104,-0.1432311144751006,-0.3038717220164284,0.0728664100170135,-0.1481217890977859,0.0273503940552473,0.0008432865142822,-0.0264972448348999,0.0527445971965789,-0.0781017616391182,-0.0082931946963071,-0.1658434731513261,-0.0488996878266334,0.1118771243598312,-0.0643289720475673,126
1733284812377332000,0.7827069589942693,0.1684879963107407,0.6685755529016256,3.677989716823399,-2.4410344307407734,8.75694747032225,0.1870198249816894,0.0569920390844345,0.1902086287736892,0.9256925202407874,-0.1810223631114011,-0.1440515314703368,-0.2992882566911403,-0.0743805617094039,-0.1350210607051849,0.0042570596560835,-0.001855194568634,-0.016406774520874,0.006147414445877,-0.0725800916552543,-0.0348594859242439,-0.0971791022479534,-0.0674665719270706,0.0906581760466098,-0.1498164674580097,127
1733284812417332200,0.4992834006011485,-0.0882039147622883,0.0447270304769277,3.624878596621752,-2.3974263212911784,8.791074196329712,0.172281339764595,0.0489876344799995,0.1150884106755256,0.9277232188106148,-0.177263923376592,-0.1426795811830918,-0.2958876765296456,0.1128186210989952,-0.1339957416057586,-0.030355580151081,-0.0058345794677734,0.038053810596466,-0.0043431967496871,-0.0392739661037921,-0.0243161115795373,-0.0706488227188587,-0.0314207263290882,0.0885403801750391,-0.0002606967628002,128
1733284812457332200,0.9620607788428664,0.1052441891513764,-0.447312390345335,3.640342999996245,-2.364323093112558,8.793649015253783,0.0001531012821942,-0.123476542532444,-0.1214199513196945,0.927974171979472,-0.1757555211466835,-0.1440787105021392,-0.2953222740194271,0.263400673866272,-0.0570205338299274,-0.0304814130067825,-0.0003600120544433,0.01483815908432,0.041140004992485,-0.018972722813487,0.0033787302672863,-0.056142158460617,0.0294332392513752,0.1258870911423117,-0.1806289543509483,129
1733284812497332200,0.3720248019099235,-0.041697745783627,-0.5126175139486789,3.69871657077074,-2.3845263615772128,8.763784622865915,-0.2054760456085205,0.0014415534678846,-0.2646515071392059,0.925693659844218,-0.1785882880892428,-0.1458683451773625,-0.2998665642472509,0.7099254131317139,-0.0662843883037567,0.0133170671761035,0.0299823880195617,0.0187702775001525,-0.0166467279195785,-3.90745699405e-05,0.018521923571825,-0.0599964958012104,0.0191454607993364,0.1348780607189983,-0.2235714394986629,130
1733284812537332000,-0.5241878324940801,-0.1801547609679401,-0.3188777336120605,3.685431849522888,-2.425484979431331,8.758138725933431,-0.1586994975805282,0.1093913242220878,0.0473300628364086,0.9244159756484874,-0.1809866616598764,-0.1438854134489807,-0.3033083203945538,0.3204895257949829,-0.0441119261085987,0.0199286974966526,-0.0096788704395294,-0.061453640460968,0.0515598058700561,-0.0032401210628449,0.0198394637554883,-0.1085135662108659,0.0222557093948125,0.1638379054825753,-0.1281897420614957,131
1733284812577332000,0.1590764632344246,0.1857560881063342,-0.4514683409810066,3.637378889493644,-2.5235440793842074,8.750518898579477,-0.3177228271961212,0.0709207579493522,0.0768512934446334,0.9244025872351336,-0.1850408617963327,-0.1400270445813389,-0.3027080283604265,0.3941943645477295,-0.0318654328584671,-0.0077251009643077,-0.0089439451694488,0.0286914110183715,0.005527839064598,-0.0491784252226352,-0.0080269668251276,-0.1231838965982198,-0.0106407608836889,0.1686729974888265,-0.1010509752452373,132
1733284812617332000,0.4864800331294536,0.0139341250672936,-0.2938531824707985,3.637382688885927,-2.619274444128573,8.722340851843356,-0.3530614972114563,-0.0263720974326133,-0.0604867748916149,0.9234327614298656,-0.1900762967701855,-0.1384029583158991,-0.3032944156315029,0.5251913070678711,-0.0425838604569435,0.0290771890431642,0.0103098154067993,0.0050581693649291,-0.0038703829050064,-0.0951167345046997,-0.0358933955430984,-0.1378472127228975,-0.0435372292995452,0.1734947185568511,-0.0739373428702354,133
1733284812657332000,0.4194561229094862,0.0483960743784904,-0.0293880070477724,3.657719958993792,-2.7113468708872794,8.685624109342694,-0.2649074196815491,-0.0562820620834827,-0.16375732421875,0.9214749855280732,-0.1956626240341617,-0.1373773799610239,-0.3061493840023307,0.9175891280174256,-0.1060683950781822,-0.0009902328019961,0.0128819942474365,0.0630649328231811,-0.0175369977951049,-0.1064816713333129,-0.0437678769230842,-0.0749760382682085,-0.0288482792675495,0.1748234098773449,-0.0184077633500099,134
1733284812697332200,-0.0179836927190423,-0.0202373168647289,-0.397552041876316,3.743361475922167,-2.760627911406756,8.633456115210056,-0.2162958234548568,-0.3512543141841888,-0.2365535497665405,0.9188131952554166,-0.2004399900684404,-0.1401429636295099,-0.3097840551116611,1.1827973127365112,-0.1061768904328346,0.0555046647787094,0.0266510844230651,0.0401666760444641,0.0412360429763793,-0.0848795399069786,-0.0392012931406497,0.0199544082701206,-0.0057237409055233,0.1558376274436712,-0.0670031596928835,135
1733284812737332200,-0.0024669746354222,-0.1333852648779749,-0.3754004158228635,3.918183789820969,-2.796219741530716,8.543967567464708,-0.2269406020641327,-0.3530764281749725,-0.2614043354988098,0.9150507068200194,-0.2063780776209625,-0.1476041458010707,-0.3135337608951073,1.4663424491882324,-0.1608120650053024,0.1750487089157104,0.0244765281677246,-0.0366371273994445,0.0318049155175685,-0.0589510910212993,-0.0300862621515989,-0.0191752405911684,0.0034713950008153,0.2180834365416318,-0.0930792657136917,136
1733284812777332000,0.0785123957008123,0.128804659089446,-0.4938970313876867,3.99971085716784,-2.8552017995923755,8.486490361008048,-0.3008313775062561,-0.022277358919382,-0.0293774660676717,0.912540782793853,-0.2115576570456283,-0.1501757884106781,-0.3161642690743385,1.1265140771865845,-0.1905184090137481,0.2129378467798233,0.0093132853507995,-0.0411387681961059,0.0531660914421081,-0.0381830036640167,-0.0271416939795017,-0.0100906013816595,-0.0052423570305109,0.1827344021975994,-0.0754477474331855,137
1733284812817332000,0.1472059926986694,-0.1370420338198542,-0.4600993912041187,3.9792002763196814,-2.9995117785885927,8.446258303862809,-0.4916732907295227,0.0302279274910688,-0.0489692948758602,0.91082091638289,-0.2189736985270477,-0.1463256568678933,-0.317875105260433,1.0400630235671997,-0.1946970671415329,0.2633936107158661,0.012017548084259,-0.0025537610054016,0.0288366042077541,-0.0382750630378723,-0.0306522902101278,-0.0582230563879013,-0.0158205591142177,0.2157757441211491,-0.0375543623685836,138
1733284812857332000,0.3916422333106398,0.0921811478301882,0.1732809296756982,4.0409228652611375,-3.135660370700061,8.367135667309164,-0.29149329662323,-0.195433422923088,-0.1810129880905151,0.90722462665466,-0.2280799403651138,-0.1461997059795712,-0.3217896165490267,0.5388088226318359,-0.1617489755153656,0.2760960161685943,-0.0094618499279022,-0.0360633730888366,0.0668965056538581,-0.0401071943342685,-0.0381328910589218,-0.0395627795815467,-0.0114872381091117,0.2080932267945259,-0.0623579642355442,139
1733284812897332000,-0.3291328779056668,-0.3225947083085775,-0.1162742633402347,4.111672225745022,-3.208703102818131,8.304743216282128,-0.3080870509147644,-0.1074837371706962,-0.0751316472887992,0.904451289569592,-0.2339374907760333,-0.1478146945911867,-0.3246411896348831,0.0857699587941169,-0.1593344360589981,0.289171427488327,0.0004369020462036,0.0029101371765136,0.0338685512542724,-0.0419393256306648,-0.0456134900450706,-0.0208592481553554,-0.0071539161726832,0.2004003342043608,-0.0872059897661209,140
1733284812937332200,-0.1044213284611702,-0.1282537472084164,-0.0079775547504425,4.134760548126697,-3.316104323872924,8.250914595460891,-0.3466759920120239,-0.0457138419151306,0.0034655015915632,0.9026181039619028,-0.2402928315659248,-0.1469005975462242,-0.3255152668835988,-0.0524249300360679,-0.1831009685993194,0.3111461102962494,0.0063597857952117,0.0044352412223815,0.0120840072631835,-0.027820935472846,-0.0358494892716407,0.0099181674242019,-0.0067738480865955,0.2004645585469901,-0.1475280642598867,141
1733284812977332200,0.1096031150132417,-0.0047460254833102,-0.3131219465643167,4.21178124396503,-3.4268931415393946,8.166253029480576,-0.3896066546440124,-0.3585897386074066,-0.0555399172008037,0.9000596934866233,-0.2480020776845354,-0.1487680943906729,-0.3259687105986542,-0.0948267132043838,-0.2132569551467895,0.3075998425483703,0.0067087113857269,0.0021417140960693,0.0318833068013191,0.0050251390784978,-0.0305668581277132,0.0011368950754404,0.0015757093206048,0.2060669816639274,-0.100025723850727,142
1733284813017332000,0.3076210110604763,-0.002256546755135,-0.1674076537281274,4.341768683098256,-3.5477456725806,8.045677269554139,-0.4370538592338562,-0.3768889605998993,-0.1112707927823066,0.8962559729318871,-0.2576428034927229,-0.1529862562692051,-0.3270176714819225,-0.0588838942348957,-0.1593485474586486,0.3634783625602722,0.0013247728347778,0.0012226700782775,0.0089304372668266,0.0329837128520011,-0.0460326969623565,-0.051211131799221,0.0181025676429271,0.2413409049451351,-0.0390191742241382,143
1733284813057332000,0.2040115835040807,0.1472039468720555,-0.0847182646036148,4.476054111686349,-3.665932491543889,7.918097183823585,-0.4286792576313019,-0.3792446553707123,-0.1139575317502021,0.8920692224892246,-0.2674635166793919,-0.1573297774666367,-0.3285165503070318,-0.0783076584339141,-0.1051300093531608,0.3590321242809295,-0.0261789560317993,0.0006973147392272,0.0212977528572082,0.0537908375263214,-0.0663203746080398,-0.0503080454796552,0.0217146500945091,0.2289231027249246,0.0010831190615892,144
1733284813097332000,0.2703723536401987,0.1788426554560661,0.0613233604907989,4.592699838687479,-3.786455352239311,7.793602789148688,-0.4495271742343902,-0.1966078877449035,-0.0998822823166847,0.8879436707377731,-0.2771484900572268,-0.1607033101854219,-0.3300289858256504,0.2090921550989151,-0.0113393319770693,0.4008643925189972,-0.0180431008338928,0.008559226989746,0.0103027261793613,0.0713743492960929,-0.0787937864661216,-0.0761211166501045,0.0288014356046915,0.2477037910405546,0.0229658650457859,145
1733284813137332000,0.0707847240582108,0.2140788040101528,0.3430862921953201,4.609131333528459,-3.907134864801168,7.724026564097404,-0.4250319898128509,0.2661027610301971,-0.0002549336059018,0.8850306652637966,-0.2846628899141639,-0.158591564910275,-0.3324701013345251,0.0347717553377151,-0.0156787391752004,0.303111732006073,-0.0417746007442474,-0.0025705099105834,0.0265156626701354,0.111620545387268,-0.0762463584542274,-0.0375590385437011,0.0516348257660865,0.2149305985338986,0.0183791217774152,146
1733284813177332200,-0.3278346547886729,-0.2456520461425185,1.285845281457901,4.4232662320896985,-4.016924734558165,7.776208002233504,-0.1139408573508262,0.5315428376197815,0.1506486386060714,0.8856577251722779,-0.2865575696211655,-0.1463163853220568,-0.3347933575072138,-0.1210258305072784,-0.0874778777360916,0.1086998507380485,-0.058936595916748,0.0245629549026489,0.0016188621520996,0.1413153558969497,-0.0747643858194351,-0.0094470427811145,0.0627175122499466,0.2089367649465799,-0.0891349120020866,147
1733284813217332200,0.3192375068351626,0.1705737165436148,0.4974170222073793,4.318929367041587,-4.0307749807342885,7.827520840841531,0.0768754333257675,0.0861856117844581,0.0293293800204992,0.8872060532186369,-0.2847452588644853,-0.140810622233036,-0.3346010846776407,-0.0761555582284927,-0.1560537964105606,0.0178228691220283,-0.0185524821281433,-0.0005227923393249,0.0054230168461799,0.1293274015188217,-0.0472316183149814,-0.0486918424546718,0.055066991597414,0.2072319337900728,-0.0514741666495799,148
1733284813257332000,0.4888429628685116,0.1047410619348287,-0.079120882987976,4.3137759298011655,-3.993373470839858,7.849502371025085,0.1072163134813308,0.0265046954154968,-0.0795796066522598,0.8875741904567329,-0.2826674359656768,-0.1410172898460341,-0.3352988274742559,-0.1129188984632492,-0.2129761576652526,0.0390616469085216,0.0283818244934082,-0.0254265666007995,0.0020121969282627,0.117339439690113,-0.0196988489478826,-0.0879126767307519,0.0474164746701717,0.2053779764864593,-0.0138999305367469,149
1733284813297332000,-0.2536854227334261,0.2740095410987734,-0.6393997272998094,4.302729635129869,-3.975445307700336,7.864651424840092,-0.0542894899845123,0.0493576750159263,0.041009534150362,0.8877408175481732,-0.2815253753926051,-0.1405625850037457,-0.336008815587923,-0.1656473726034164,-0.1996823400259018,0.1441457122564315,0.0486786067485809,-0.0072153210639953,0.0246574915945529,0.0933729261159896,-0.0077988402917981,-0.0998451065868139,0.0334994420409202,0.2186812563043087,-0.0447644398778677,150
1733284813337332000,-0.0148518244341015,0.0690609690055251,-0.540793807119131,4.255431877382099,-4.046129201732576,7.854331690877675,-0.2614339888095855,0.1592114865779876,0.1424934118986129,0.8877556846285918,-0.2841480347844761,-0.1371146555389478,-0.3351856097475836,-0.1652220636606216,-0.1997953057289123,0.235380083322525,0.0260074436664581,5.054473876953125e-05,-0.0004886388778686,0.0633245632052421,0.0175593569874763,-0.0692547380119562,-0.0059717744588851,0.1598326153639704,-0.0448258146762847,151
1733284813377332000,0.1025371221497654,0.1684828817442059,-0.2143862625241279,4.2008907243773335,-4.161861613281071,7.82315913850069,-0.3249583840370178,-0.0373283475637435,0.1398776173591613,0.8873239327293835,-0.2890462643197141,-0.1325977364153488,-0.3339558078293058,-0.2040160596370697,-0.1248592361807823,0.2374210059642791,0.0049916505813598,0.0142068862915039,0.0542384982109069,0.0417460426688194,0.0292766764760017,-0.0566360794574022,-0.0185497589409351,0.1153006690677255,0.0092173256784677,152
1733284813417332200,0.8570625272765755,0.0893541077107191,-0.1294832890033722,4.343293116186559,-4.2446404342547055,7.699948938417434,-0.3378362655639648,-0.5033401250839233,-0.3339409232139587,0.8834385855498711,-0.2972724803027212,-0.1379888421120457,-0.3348498773656222,-0.1909822821617126,-0.0723015964031219,0.1926732510328292,-0.0100107192993164,0.0069506168365478,0.0036410689353942,0.02136174403131,0.0551660507917404,-0.0787841983795166,-0.0312004722654819,0.1089096528563648,-0.0596872837215661,153
1733284813457332200,-0.4738198735207319,-0.4607192766681313,1.1119324836194515,4.416022544571757,-4.2835409505352375,7.636779657799005,-0.0775876194238662,0.3630731403827667,0.1007981672883033,0.8804310425022867,-0.3017609904082878,-0.1399031472871569,-0.3379476419120752,-0.1894027590751648,-0.0593775361776351,0.1683896631002426,-0.0095436871051788,-0.0043880939483642,0.008181869983673,0.0172037221491336,0.0596822798252105,-0.0982370868682861,-0.0362715497612953,0.1262696607191115,-0.1174047286748886,154
1733284813497332200,-0.5520394237548113,-0.2038955559089779,0.4704454286515712,4.189579641290009,-4.312616238372027,7.747202272501587,0.1638202667236328,0.5289509296417236,0.4133269488811493,0.8846143148029416,-0.2973676625875702,-0.1287442234109678,-0.3353429014494108,-0.1569124609231948,-0.0692862048745155,0.1561906635761261,-0.00361168384552,-0.0001850724220275,0.0055066342465579,0.0330957695841789,0.0589476563036441,-0.1130149692833423,-0.0196469612419605,0.1249764791034162,-0.1540899069935083,155
1733284813537332000,0.130658470262587,0.1870996116697788,-0.2244248414576053,4.007569169452786,-4.334006524664163,7.831102206459641,0.0550771132111549,0.2225607633590698,0.2649177312850952,0.88861224305136,-0.2935892992101435,-0.1205413935882115,-0.3311244768679098,-0.1330372244119644,-0.1083152517676353,0.1314594894647598,0.0055320560932159,0.0025905966758728,0.0036051273345947,0.0609633848071098,0.0493712313473224,-0.1612275037884712,-0.0128362560644745,0.157536101924628,-0.2032937906235456,156
1733284813577332000,0.5763488123640418,0.0400292280495166,-0.233453951087594,3.90739205443263,-4.364855251914262,7.864522245502472,-0.0248290877789258,0.1998048424720764,0.1892634034156799,0.8906044854421,-0.2925830921937901,-0.1158278721083741,-0.3283331394526458,-0.0845988467335701,-0.0977521985769271,0.1046921908855438,0.0146078765392303,0.009933590888977,0.029316546395421,0.0509244427084922,0.0453493446111679,-0.1578045436024665,-0.01152612734586,0.1511435513433069,-0.1878922233521938,157
1733284813617332000,0.4847600774690508,-0.0425216293871402,-0.2778238386899233,3.826897837264836,-4.4106937507644295,7.878516284063458,-0.1241841912269592,0.1662966907024383,0.1199824064970016,0.891502141550893,-0.2930967682286212,-0.1113631206513482,-0.3269808217332045,-0.0977050587534904,-0.0737327709794044,0.1201467812061309,0.0189149975776672,0.0122607350349426,0.0095299463719129,0.0408855006098747,0.041327454149723,-0.1543196240961551,-0.0102159976959228,0.1447463976521044,-0.1725526154011487,158
1733284813657332000,0.4421498930156231,-0.1890434392139315,0.0284404970645904,3.763714235860109,-4.468875890620053,7.876165921545028,-0.1339442729949951,0.1304835677146911,0.0559831485152244,0.891584836264855,-0.2948345561744567,-0.1072375070114336,-0.3265719054357153,0.0392463989555835,-0.0821038410067558,0.1492635160684585,0.0347732901573181,0.0150412321090698,-0.0133686065673828,0.0308465622365474,0.0373055674135685,-0.1507750833570957,-0.0089058689773082,0.13834369100295,-0.1572790584236383,159
1733284813697332200,0.0488806430250406,-0.1768593726843595,0.2258312011241912,3.72333371015489,-4.501560308864712,7.876745767259598,-0.0237260498106479,0.0692642778158187,0.043603703379631,0.8916155222703434,-0.2957267838740116,-0.1046106660979269,-0.3265334842769311,0.1007419824600219,-0.1116355210542678,0.2125022709369659,0.0233688354492187,0.0450624823570251,-0.0258798561990261,0.0151228886097669,0.0427173823118209,-0.1385246735930442,-0.0182052999734878,0.1332103467024862,-0.1902817488372326,160
1733284813737332200,0.0184644619733095,-0.1023161728754639,0.0155237323462963,3.7003292666643857,-4.510712168091535,7.882348994094133,-0.0070229894481599,0.0292285736650228,0.0553726926445961,0.8920278332909884,-0.2956306757042936,-0.1035110667925927,-0.3258442008702883,0.257270336151123,-0.144282191991806,0.282367467880249,0.0367077887058258,0.048235535621643,-0.0370217561721801,0.0172337125986814,0.0308762639760971,-0.1623182216346264,-0.0288917459547519,0.1958220665033906,-0.2011298905879259,161
1733284813777332000,0.2172279156908392,-0.0775888511151075,-0.0084404960870742,3.6868168741405007,-4.512843919423222,7.887458299931883,0.0236558895558118,0.0046222964301705,0.0152010582387447,0.8923633334425185,-0.2953813136545062,-0.1029631595778466,-0.3253245937469361,0.4625619947910309,-0.1192491799592971,0.4396771788597107,0.0472848415374755,-0.0551244616508483,-0.0203617811203002,0.0268573518842458,0.0231220424175262,-0.1309586222529411,-0.0231514275074005,0.1918603232655674,-0.1519873817563057,162
1733284813817332000,0.1517640943944454,-0.0145870360180735,-0.1052460888475179,3.688984281307458,-4.505067147941887,7.890890612468123,0.0308004543185234,-0.0061556496657431,0.0046780998818576,0.892563112339121,-0.2949643904053297,-0.1033080983827184,-0.325045542565096,0.3257157206535339,-0.1673106700181961,0.4572005867958069,0.0162181556224823,0.0113314986228942,0.0698596239089965,0.0364809930324554,0.0153678227216005,-0.0995820717364549,-0.017411109060049,0.1879023794200271,-0.1028688383221626,163
1733284813857332000,0.1160614973723888,0.0007549100205302,-0.2849550057440996,3.683087916745245,-4.505445041343569,7.893428606513142,-0.0281928461045026,0.0287152510136365,0.0097616212442517,0.8926694700831705,-0.2948405826311031,-0.1030347855032978,-0.3249525893767372,0.9504213929176332,-0.0515687763690948,0.4927183389663696,0.0037334561347961,0.030423879623413,0.0220345221459865,0.0411473289132118,0.0187160074710845,-0.0542290183156728,-0.0144833866506814,0.1463886119011789,-0.0470329693317413,164
1733284813897332000,0.1488254105940461,0.0517266801059246,-0.1564145505487919,3.665885729792714,-4.519456323300302,7.893426268425584,-0.0445633009076118,0.0807270556688308,0.0086833070963621,0.8925369853242704,-0.2952729085676768,-0.1017898401148665,-0.3253158594914636,1.2438982725143433,0.0259435903280973,0.4732492566108703,-0.0223666429519653,0.0321733355522155,0.0720556452870369,0.0437781810760498,0.0160303823649883,-0.0901566562652587,-0.016716968268156,0.1733087675306946,-0.0550052633851766,165
1733284813937332200,-0.0042974049329757,0.0365144979268312,-0.037223522979021,3.6355534276321526,-4.534920142152905,7.898584674102067,-0.0349479541182518,0.0590212233364582,0.037123467773199,0.8926331398383419,-0.295462550368664,-0.0999306424798834,-0.3254565730378623,0.5341946482658386,0.1124501973390579,0.2787947654724121,-0.0281998068094253,-0.0891948342323303,0.1205252408981323,0.0466193929314613,0.012540940195322,-0.0649526569038629,-0.0112348664551973,0.1554547656059265,-0.0335913039565086,166
1733284813977332200,0.0394029128447175,0.035750235556066,-0.0229535900861024,3.617291210232675,-4.552710942648351,7.89673466232121,-0.0360222980380058,0.0232259444892406,0.0536434017121791,0.8927949531229005,-0.2959759459609697,-0.0988778464859517,-0.324867219822348,-0.0941055342555046,-0.006466866005212,0.1986425966024398,-0.0236542969942092,0.0412319898605346,-0.0429510474205017,0.0387591868638992,0.0135547267273068,-0.0568050062835216,-0.0129078812897205,0.14001761556454,-0.0328442849814891,167
1733284814017332000,0.1855541357934474,0.0529714194700121,-0.0582744943141937,3.59533919840455,-4.570829659923911,7.896292179250716,-0.0276405066251754,0.0634619146585464,0.0574856027960777,0.8930264623344373,-0.2964176246836007,-0.0976612826827584,-0.3241952320014403,-0.0764612928032875,-0.0123108532279729,0.1212788224220275,-0.0103638619184494,0.0208001136779785,0.0121879652142524,0.0110851060599088,0.0176831856369972,-0.063643327870965,-0.0202288273721933,0.141351932908222,-0.0358142407029867,168
1733284814057332000,0.0761298844784498,0.0734831693619489,-0.1902285573452711,3.5536294699221846,-4.592838370375335,7.902401017519831,-0.0619571767747402,0.1126125454902648,0.0671132430434227,0.8933913164688733,-0.296650853032249,-0.0953307548793282,-0.3236700842984154,-0.1854844540357589,-0.0161201320588588,0.0251146033406257,-0.0157253444194793,-0.011042296886444,0.0156317353248596,-0.0168644934892654,0.0220474265515804,-0.0574701921939849,-0.0222148112952709,0.1311204617511481,-0.0107096100628376,169
1733284814097332000,-0.036445816604793,-0.0025499767437577,0.00318915143013,3.5092353246614336,-4.624693644319475,7.9036612467139955,-0.0589265301823616,0.0719410181045532,0.0935329496860504,0.8936689250481434,-0.2973655075389348,-0.0927316954928797,-0.3230024009056343,-0.3608568012714386,-0.0577346310019493,-0.1020021364092826,-0.01022869348526,0.0005642175674438,-0.0091888457536697,-0.0161982178688049,0.025796789675951,-0.0607107815504074,-0.0257706958800554,0.1142544479504227,-0.0305576353490352,170
1733284814137332000,0.1939864485740661,0.0087196052893996,-0.0656231035113334,3.47303266916275,-4.654517996957898,7.902144996932148,-0.0531081557273864,0.0823426619172096,0.0790775865316391,0.8939948030823767,-0.2981207291485895,-0.0907015680588745,-0.3219791216302762,-0.6647860407829285,-0.1323669105768203,-0.2018890529870987,-0.0043352097272872,0.0023092627525329,0.0011108517646789,-0.0155319422483444,0.0295461528003215,-0.0639385114252567,-0.029326582327485,0.0973722867324948,-0.0504109213322401,171
1733284814177332200,0.233444598737359,0.0083934420749545,-0.0780751733273267,3.428037635399401,-4.680378414401412,7.906516051623225,-0.0399045869708061,0.0583481080830097,0.0919107869267463,0.8944982637498186,-0.2984635341296019,-0.0883141113315478,-0.3209251855550452,0.080577328801155,-0.1115398630499839,-0.0366872437298297,0.0316634178161621,0.0008820295333862,-0.0247676894068717,-0.0135809322819113,0.018453374505043,-0.0966547861129045,-0.0632041171193122,0.1548483241453766,-0.1015823056429624,172
1733284814217332200,0.3364054992571473,-0.0418652113050222,-0.1692985820412635,3.4015418426617976,-4.711073996916413,7.899726829874515,-0.0774047449231147,0.0371637269854545,0.0483507364988327,0.8945782635236552,-0.2995231041557111,-0.0866714818863143,-0.3201621143789806,0.0982716381549835,-0.1661388725042343,0.1029747873544693,0.0314810276031494,-0.0382844805717468,-0.0336019396781921,-0.0200480446219444,-0.0013728775084018,-0.1092763672769069,-0.0802921131253242,0.1763798455391079,-0.0550759905338287,173
1733284814257332000,0.3345926046162844,0.0603524696320295,-0.156535546579957,3.3898873529642817,-4.739520339199901,7.887711982432007,-0.0845875144004821,0.046993188560009,0.0242335144430398,0.8943629536232444,-0.3008280205096343,-0.085680350884219,-0.3198067256786429,-0.1471775472164154,-0.3630851209163666,0.1893038153648376,0.0463327467441558,-0.0023831725120544,-0.1025322750210762,-0.0349545031785965,-0.0201061721891164,-0.145815415123105,-0.1307510435581207,0.2016279032379388,-0.0679734660297632,174
1733284814297332000,0.1949582162156701,0.0299491480618715,-0.2516238140285015,3.36402284386754,-4.776603284664452,7.876407913607358,-0.1462280601263046,0.1298547834157943,-0.0002680417092051,0.8938856949230252,-0.3023815600095573,-0.0835485177013706,-0.3202397674303132,0.0379377231001853,-0.3498762547969818,0.1113683357834816,-0.0003987252712249,0.0250497460365295,0.0255206748843193,-0.043246429413557,-0.0414230972528457,-0.1064455277651548,-0.1659528017044067,0.1946947429738938,-0.0841617997646331,175
1733284814337332000,0.0710246702939271,-0.0609790770977735,0.4644061484873295,3.294774243335425,-4.815111879017949,7.882229751628637,-0.0358026623725891,0.1968372762203216,0.0498531237244606,0.8937746511751631,-0.3030879944985905,-0.0790935218930874,-0.3210122058723553,0.4887288808822632,-0.2772053778171539,0.3326910436153412,-0.0351013541221618,-0.0662249326705932,-0.0428321957588195,-0.0263175535947084,-0.0345633998513221,-0.0279623581588268,-0.1331392526626587,0.1694062071342021,-0.1555699164181947,176
1733284814377332000,0.2124687384650111,-0.0528197360396385,0.2270703875303268,3.258824393554032,-4.815041151869297,7.897204033398628,0.0324623696506023,0.0285465382039546,-0.0289302021265029,0.8940447881690571,-0.3023300620965402,-0.0771439439709923,-0.3214488902387313,0.3439210951328277,-0.0822589397430419,0.0731830596923828,-0.0806118547916412,0.0744789242744445,0.0734921097755432,-0.0099188461899757,-0.0184247754514217,-0.0557552049696445,-0.0925090610980987,0.1712074844025075,-0.165379362770915,177
1733284814417332200,0.2524599725916981,0.0423830976992845,-0.0719721802771091,3.275845086459815,-4.787091945452988,7.907147335264086,0.0702587142586708,-0.0547395683825016,-0.0592927373945713,0.8940953729266675,-0.3011919443022283,-0.0783014035104554,-0.3220959081337339,0.5906941294670105,0.2132900506258011,0.0534262061119079,-0.0319994091987609,0.0157768130302429,0.1541712284088134,0.0064798630774021,-0.0022861491888761,-0.0834393307089805,-0.0518788769841194,0.1730196483910083,-0.1752589517503976,178
1733284814457332200,0.1433753284946084,0.1172849016875028,-0.3336544469833374,3.29574601097703,-4.775204231521487,7.906065385246275,-0.0303923487663269,0.0049591856077313,-0.0285528749227523,0.8938382087186001,-0.3010195857340434,-0.0793098328525783,-0.3227235824864378,0.2418999075889587,0.3907488882541656,-0.0748339593410492,-0.025811031460762,-0.0327125191688537,0.0985912233591079,0.0037176986224949,0.0005703312344849,-0.053452773246169,-0.0210333578288555,0.1576939228348433,-0.1251221711844205,179
1733284814497332200,0.0142906834200024,-0.0497819757789373,-0.0013677812218666,3.283572465841472,-4.786205810268223,7.904477823793887,-0.0264852680265903,0.0467634908854961,0.0210602488368749,0.8937068239690373,-0.3013886720337267,-0.0784134156810024,-0.3229616811937063,0.0351853445172309,0.2383968830108642,-0.1926269829273224,0.0427448153495788,-0.0212164521217346,-0.0974833369255065,-0.020037630572915,0.0097249634563922,-0.077084408724308,0.0007664263248443,0.1256642421718686,-0.0443932684779167,180
1733284814537332000,0.2335971589505672,-0.0769970227017998,-0.1606120022386312,3.288423120743036,-4.792210311380028,7.89882140546739,-0.0352324619889259,-0.0494808852672576,-0.0568590201437473,0.8934993525361609,-0.3018440527495072,-0.0785007023470161,-0.3230893178494735,-0.3498683273792267,-0.4864523112773895,-0.4379276931285858,0.0852460861206054,0.1300227046012878,-0.123712420463562,-0.0549458116292953,0.0110399518162012,-0.0717816261410713,-0.0046603959053754,0.1388344701945781,-0.0893032543063163,181
1733284814577332000,0.259646084703505,-0.066545186792314,0.0269850375592708,3.284370922742784,-4.79293570304513,7.900067021614313,-0.0094987265765666,0.0139690618962049,-0.0581268593668937,0.8931905609731903,-0.301878240846637,-0.0779628235782905,-0.3240401185244029,0.2608712017536163,-0.264960378408432,0.1375354081392288,0.097264677286148,-0.0899993777275085,-0.014184296131134,-0.0363327041268348,-0.0224789548665285,-0.1402145263761282,-0.0056125810369849,0.2007963477846235,-0.1306307054728269,182
1733284814617332000,-0.0007122399225831,-0.1535536081597208,0.2836976991593837,3.299622852410376,-4.782093406513333,7.9002815411478275,0.0433770678937435,0.0801127925515174,-0.0671987608075141,0.892465911786078,-0.3017851290753913,-0.0782525542567323,-0.3260472491890872,0.1376837491989135,-0.0300437249243259,0.3543000817298889,-0.0359691232442855,-0.0489863157272338,0.2105477452278137,-0.0282733738422393,0.0022798739373683,-0.0660410366624593,0.0297778397798538,0.1189518119864165,-0.1262783554822206,183
1733284814657332000,0.147730893355608,0.116091015727818,-0.3217418908715247,3.318324922531843,-4.759196222789585,7.906273475039005,-0.0106015596538782,-0.0709061548113823,-0.1062104105949401,0.892167238543747,-0.3010337870903484,-0.079189050202296,-0.3273307302205685,0.4517024159431457,0.1799700707197189,0.1369501799345016,-0.1221988201141357,0.2080135941505432,0.0064273923635482,-0.0298069380223751,0.0177535749971866,-0.0676888038694858,0.0250239763408899,0.1795277151107788,-0.1399187582999467,184
1733284814697332200,0.1868658029139041,-0.0113172205671668,0.020748188996315,3.3381472288548943,-4.744764377333223,7.906603145384788,0.0205088518559932,0.0093771032989025,-0.0971101149916648,0.8916438568349715,-0.3008003847024295,-0.0799659374279108,-0.3287795279423114,0.2702292799949646,0.3678329586982727,0.026805380359292,-0.0315105617046356,-0.071671187877655,0.0839235037565231,-0.0148522574454545,0.0100954212248325,-0.0946469534218311,0.0152397053316235,0.193896651398763,-0.1275257251948118,185
1733284814737332200,0.0172261523500084,0.0110337274506688,-0.119257663065195,3.3627880413755773,-4.724169333072006,7.908493489176035,0.0278431959450244,-0.0222728326916694,-0.1004117801785469,0.8910213232172352,-0.3003702238207016,-0.0809739535690535,-0.3306085131913471,-0.0563102178275585,0.308376669883728,-0.04142627120018,-0.0297065079212188,-0.0089064836502075,0.0262579172849655,0.0045411381870508,0.0104040754958987,-0.0590028085887432,0.002126426436007,0.1961982063394039,-0.1209235504508018,186
1733284814777332000,-0.028234160837531,-0.0834486830592155,-0.1706821453541517,3.373083517679572,-4.705852755136788,7.915026690337061,0.0124136609956622,0.0449806414544582,-0.043800376355648,0.8907251245364073,-0.2996992897922315,-0.0814019876633524,-0.3319080316058926,-0.0744609907269477,0.3315438330173492,-0.1616256535053253,0.0355202555656433,0.0074604153633117,-0.0452894419431686,0.0162493474781513,0.0132634537294507,-0.0591693973273038,-0.0190545208752155,0.1969556005779653,-0.0706634357661008,187
1733284814817332000,0.0143944360554218,-0.0606707418009638,-0.3379600352227687,3.378488591593504,-4.701246430385113,7.91545865201354,-0.0185771528631448,-0.0295210275799036,-0.0603209845721721,0.8904502784332686,-0.2996355440998959,-0.0815013534121426,-0.3326777389995085,-1.5448026657104492,-0.5220289826393127,-0.4117613434791565,0.1259038150310516,-0.0165681838989257,-0.1671128273010254,-0.0035703107714653,0.0088436715304851,-0.0496399369597434,-0.0053017940372228,0.1879172847282141,-0.0203612355053424,188
1733284814857332000,0.1784489799633622,-0.0305254866451025,0.0913350523948669,3.3600314361438155,-4.695030040088295,7.926995945072173,0.0085153467953205,0.0737278684973716,-0.0602806285023689,0.8903038621737906,-0.2989847482456605,-0.0802733202863771,-0.3339510907674144,0.4839093387126922,-0.1427569538354873,0.0394669771194458,0.0153414011001586,0.0768983960151672,0.0215608477592468,0.0034023616462945,0.0025392780080437,-0.0899544116914272,-0.0222389101982116,0.2573394882615655,-0.210288764077425,189
1733284814897332000,-0.123882984778285,0.1437213654533028,0.0456774630695581,3.363387468573451,-4.677142501220107,7.9361419590801,0.0611751154065132,-0.0829532220959663,-0.0750355571508407,0.8900608166387746,-0.2981868071838449,-0.0803367918315103,-0.3352945081209795,-0.3713038265705108,-0.3007913529872894,0.3242520987987518,0.0807636827230453,-0.3294713497161865,0.11508309841156,0.0461205542087554,0.0005132385995239,-0.0844394476622343,-0.0126673812046647,0.2038129921920597,-0.1452571967184543,190
1733284814937332200,-0.2217664359033107,-0.0553387331232428,-0.2656657833844423,3.3842075537621974,-4.653008469177783,7.9414757213234894,0.0233793519437313,0.0262948330491781,0.0044484240934252,0.8900054114535806,-0.2973709591441609,-0.0816573455653915,-0.3358467856711821,0.4095858633518219,-0.0580852106213569,0.0678456276655197,-0.0715989470481872,0.2885355949401855,-0.0011846870183944,0.0263364315032959,0.0262538455426692,-0.0514402643799781,0.0181939378380775,0.1449034148447215,-0.0335948110878467,191
1733284814977332200,0.201090435360372,0.0242056359738111,-0.2237836209446191,3.374799381686747,-4.663120990130305,7.939547383609414,-0.0481588095426559,0.0361686386168003,0.0035550449974834,0.8899490832865257,-0.2977181502606957,-0.0809916231803172,-0.3358493970818554,0.3801397979259491,0.2926845252513885,-0.0472352281212806,-0.0635166615247726,0.0111246705055236,0.1438988000154495,0.0218015164136886,0.0211766436696052,-0.0553869561791419,0.0027165310457348,0.1649398753751069,-0.0898059431314468,192
1733284815017332000,0.1362219496086239,0.0581231031447649,0.0623807605892419,3.358863269147277,-4.671151151850819,7.941585026916861,-0.0142846098169684,0.0609592050313949,-0.0024181192275136,0.8898443172120727,-0.2978392412159635,-0.0798977383111656,-0.3362814625175114,-0.2207303196191787,0.3684066534042358,-0.09927399456501,-0.0393000245094299,-0.0098645687103271,0.0707331299781799,0.0172666031867265,0.0160994417965412,-0.0593248801499605,-0.0127608757466077,0.1849749476660042,-0.1460223358720541,193
1733284815057332000,0.0162000241726636,-0.1398673203736543,0.2002601220160722,3.3489997545197605,-4.66484649874866,7.949452107030153,0.0563992485404014,-2.99792154692e-05,-0.0054232398979365,0.8900201467236672,-0.297275429525798,-0.0794862227680973,-0.3364123407155312,-0.0633923634886741,0.3009815514087677,-0.135425329208374,0.0282840281724929,-0.019942820072174,-0.0212866216897964,0.0300548430532217,-0.0021402556449174,-0.0899158332467079,-0.0291215311735868,0.2104495075970888,-0.0947258638769388,194
1733284815097332000,0.3089560590565204,-0.1184103985860943,-0.0307809227108955,3.365844214075804,-4.63527699765414,7.959628633129596,0.1022649109363555,-0.0652657076716423,-0.0401456542313098,0.8902961806694021,-0.296022531756403,-0.080886063822635,-0.3364532714611692,0.2771463096141815,-0.3405438363552093,-0.1170050501823425,0.1210043132305145,0.0325500965118408,-0.2885612845420837,0.020383832976222,0.0022953697480261,-0.0701917266011238,-0.0326892957091331,0.2022205353688448,-0.0819032071828842,195
1733284815137332000,0.0064069444328546,-0.0235740600720047,-0.496927192863822,3.3971003530830144,-4.611600353990495,7.960102680382132,-0.0140250958502292,-0.0366890579462051,-0.0868160501122474,0.88999021331903,-0.2955021209275723,-0.0826209015843317,-0.33729745917605,0.1854536682367324,-0.3011652827262878,0.0839612707495689,0.060146227478981,-0.0577663779258728,0.0488297939300537,0.0107128210365772,0.0067309951409697,-0.0504454081237316,-0.0362570621073246,0.1940047148831188,-0.0691004242330789,196
1733284815177332200,0.077535659623146,0.1768447596371173,0.0276093069374561,3.390315807509422,-4.604022904473543,7.967378224343061,0.0094743706285953,0.0830410793423652,-0.0120491357520222,0.8897494255652426,-0.2950362768450255,-0.0820386852956055,-0.3384808333161809,-0.1041935831308364,-0.3588064014911651,0.1760263592004776,0.01869797706604,-0.2135253548622131,0.1621813178062439,-0.0070062354207038,0.034048669040203,-0.0395364760965108,-0.0148907955735921,0.1494050371129065,-0.0879214445590972,197
1733284815217332200,0.0541530304700136,0.1216612170755863,0.1342974112868309,3.366562591478228,-4.599416871982813,7.980100343272089,0.0206195972859859,0.0710218325257301,0.0125395748764276,0.889939586058861,-0.2942786780344043,-0.0807970279751893,-0.3389387461977801,0.0932963192462921,-0.0416266657412052,-0.034608781337738,-0.0419761687517166,0.1484431028366089,0.0263867229223251,-0.0199905298650264,0.0481252558529377,-0.0643307256132364,-0.0031200544908642,0.1420302705612033,-0.0883592514544725,198
1733284815257332000,0.0846317553639411,-0.0896618584856391,-0.0892968245655298,3.3561350132271643,-4.5978854246318335,7.985373315238952,-0.0036229740362614,0.001845687860623,-0.0086178509518504,0.8900613207053135,-0.2939621861320294,-0.0802838029472175,-0.3390155678047357,0.109656386077404,0.3155892789363861,-0.111029714345932,-0.0221826285123825,0.0418106913566589,0.1463742852210998,-0.0103508224710822,0.048942644149065,-0.1028548097968101,-0.0188965462148189,0.1352783120829612,-0.1767395456969737,199
1733284815297332000,0.1423451086640358,-0.0748810534611344,-0.0190337862938642,3.362766121804714,-4.593961529186368,7.984841984841227,0.0076155257411301,-0.0005106793250888,-0.0147575996816158,0.8899391306752059,-0.2939225236109111,-0.0805971419487357,-0.3392962440852584,0.2734695672988891,0.4450404047966003,-0.1044132933020591,0.0023289173841476,-0.0121251344680786,0.0096185207366943,0.0122646940872073,0.0342911109328269,-0.1234738194555044,-0.013634786941111,0.1585307389851659,-0.1587216584473848,200
1733284815337332000,0.1538476226702332,-0.1344905957713723,0.040058454144001,3.362486135819554,-4.589718192528188,7.987399852630496,0.0319927521049976,0.0034719440154731,-0.0082635311409831,0.8899796566997753,-0.2936893934132328,-0.0806379458390993,-0.3393821842533499,0.1745224595069885,0.256868302822113,-0.1709948629140854,0.0678780823945999,-0.0427932143211364,-0.0841309279203414,0.0121938893571496,0.0103228837251663,-0.1208645137399435,0.0039756381884217,0.1660964980643242,-0.0723369219362735,201
1733284815377332000,0.1636839570298791,-0.0502115993678569,-0.3517348780751228,3.391705508302152,-4.570447967129946,7.986095784294605,0.0281093902885913,-0.1380934417247772,-0.0906318873167038,0.8898610432484595,-0.2933145099626456,-0.0823955945642274,-0.3395952790987356,0.0504034459590911,-0.3400558829307556,-0.3649914264678955,0.0637515932321548,0.0842046737670898,-0.1337600946426391,-0.0189869031310081,0.0228661000728607,-0.050106969949603,0.0173645447939634,0.0611778145402669,0.0027677111476659,202
1733284815417332200,-0.1394265908688306,-0.1500736570894718,0.1610521472215652,3.394343747851252,-4.559021733230352,7.991503780817985,0.0159803517162799,0.0754780918359756,0.0007138939108699,0.8896284634932818,-0.2928382209333693,-0.0824165036692163,-0.3406088920050565,1.9442672729492188,0.0428061410784721,-0.137437492609024,0.0545291453599929,-0.0105603337287902,0.0736659318208694,-0.0134338065981864,0.0242818500846624,-0.1103793600827455,-0.0207744818180799,0.212730019749701,-0.203444012749195,203
1733284815457332200,0.0478325952768325,0.0374155384197831,-0.0164881934642791,3.414033367705345,-4.551533423301577,7.987384070539474,0.0209153164178133,-0.0779834985733032,-0.0656729415059089,0.8892384495884452,-0.2929448614108214,-0.0833070076554325,-0.3413183859475222,0.9894422888755798,-0.1113779917359352,0.2184023708105087,-0.0042533874511718,-0.1479479074478149,0.0936431288719177,0.0151809453964233,0.0142151312902569,-0.0902338131546974,-0.0014560148119926,0.1882363606147468,-0.0890519098937511,204
1733284815497332200,-0.1023614733219146,-0.0891638458356261,-0.1038245316118001,3.437334748315811,-4.531944048951566,7.98852914892137,0.0509734116494655,0.0020918915979564,0.005537605844438,0.8892206675672315,-0.2924149829792178,-0.0848047000691022,-0.3414503978317132,0.3126148283481598,-0.3318692445755005,0.1293246895074844,-0.0431501567363739,-0.0547430515289306,-0.1086926460266113,0.0024435026571154,0.0279644802212715,-0.0234849204838275,0.0181155689060688,0.1522727015037089,-0.0559130258798599,205
1733284815537332000,-0.0232774152129888,0.1107400100886821,-0.1225906068801879,3.424240873464942,-4.5301372917905445,7.995174578285217,0.0006967789959162,0.0042365356348454,0.0372103527188301,0.8895224413162566,-0.2919854264838941,-0.0842855174454999,-0.3411603184115763,0.259062111377716,-0.2127709239721298,0.0434504710137844,-0.0023941695690155,-0.0571206808090209,0.039757877588272,-0.0043155904859304,0.0074358470737934,-0.0223942026376724,0.0079091042280197,0.1835726065874099,-0.1053442885249853,206
1733284815577332000,0.3252688959538936,-0.0119815296947956,0.0762882899105548,3.4253976422846315,-4.522935982109606,7.998755359381437,0.0527098104357719,-0.0452400706708431,-0.0077251512557268,0.8897798629487619,-0.2915767971317242,-0.0846165284842799,-0.3407561582546543,0.0539624951779842,0.09243755787611,0.0711249113082885,-0.015894591808319,-0.0259991288185119,0.2037795484066009,-0.0135868610814213,0.0271621420979499,0.0188595987707376,0.0095241917297244,0.1055637764945626,-0.0250847568958997,207
1733284815617332000,0.2176055168315768,-0.1307213063657283,-0.253595990884304,3.458990407545864,-4.50804470244795,7.992702635213732,-0.0179823487997055,-0.0194935575127601,-0.0452329404652118,0.8894727488017613,-0.2915646549232685,-0.0864616494960386,-0.3411049666607587,-0.0636189952492713,0.289670467376709,-0.1241216212511062,-0.0241213887929916,0.0890803337097168,0.0479739308357238,-0.012450648471713,0.0229402817785739,-0.0964028571784496,0.0099725779145956,0.1897856358833611,-0.0738572633713483,208
1733284815657332000,0.0402665439367294,0.0690159608200192,-0.0375906027257442,3.465143669478595,-4.508763664372265,7.989631557205319,-0.0133209154009819,0.0113856606185436,-0.0308849029242992,0.889089383347733,-0.2918214514406349,-0.0865008506056209,-0.3418739893267786,-0.1453988254070282,0.3703996241092682,-0.2119387537240982,0.0309803783893585,-0.0187781453132629,0.0237502753734588,0.0053021050989627,0.021169101819396,-0.1129401504814624,0.0002510724589228,0.192380401616916,-0.126730775424838,209
1733284815697332200,-0.1288505440577864,-0.0420338458701968,-0.1264911214500665,3.470707148824632,-4.509492855429649,7.986804809346794,-0.006369549781084,0.023506237193942,0.0234338119626045,0.8890154801978181,-0.2919887899294991,-0.0867688495602989,-0.3418554620744909,-0.3182515501976013,-0.0881396234035492,-0.2332652807235717,0.0605527013540267,-0.0115689039230346,-0.1176522672176361,0.009373459033668,0.0192077532410621,-0.0706990916013717,-0.0002526536118239,0.1754487752340734,-0.1124596734881401,210
1733284815737332200,0.2909074844077229,-0.0733814625531435,0.013549217402935,3.4560178214758634,-4.509868410743772,7.992960409367084,0.008680073544383,0.018861686810851,-0.0079162651672959,0.8892685182821898,-0.2916498962427345,-0.0860975225810835,-0.3416564263503164,0.9778868556022644,0.0786338075995445,-0.2338117659091949,0.0286013185977935,0.0846748948097229,0.1112974882125854,-0.0166366174817085,0.0320600047707557,-0.0498065256983041,0.0132798561826348,0.171681750850752,-0.0520943443745374,211
1733284815777332000,0.1883452278167009,-0.0396063264623284,0.0634662177383899,3.4658050559967752,-4.499051540914178,7.994818019932508,0.0410586856305599,0.0240592435002326,-0.0292255375534296,0.8891266559487151,-0.2913298790022574,-0.0866291657983711,-0.3421639440118331,3.9087576866149902,0.2472488582134246,-0.2146008461713791,0.0579306036233902,0.0204478502273559,0.1738721132278442,-0.0363206267356872,0.0391881056129932,-0.0098304891407489,0.0453655049204826,0.0904174991585314,0.0393429993510246,212
1733284815817332000,0.2227051780581474,-0.0412701680213212,-0.4906874216914176,3.471847258770466,-4.486314808937907,7.999352740752696,-0.0282482393085956,0.0169753674417734,-0.0673506036400795,0.8888976532995397,-0.2908597431891637,-0.0868742224716888,-0.3430954364565773,5.632203578948975,0.1903822869062423,0.0003661816008388,0.0077490955591201,0.1825434565544128,0.1630465388298034,-0.0651652365922927,0.0497034527361393,-0.0655664048880338,0.0653362795710563,0.1204177928857505,0.0242670107722282,213
1733284815857332000,0.1172144667997956,0.12453560346812,-0.1479255391448736,3.460769984439015,-4.489165229932963,8.00255241357684,-0.0450782291591167,0.104216530919075,-0.0521404519677162,0.8883940109070946,-0.2909084274533555,-0.0857650858061896,-0.3446341437764341,6.223103046417236,0.1747278422117233,0.0053302468731999,0.0050350725650787,0.0389567017555236,-0.0781195163726806,-0.0454472117125988,0.0347620770335197,-0.1350432612180709,0.0228530839085578,0.1845427667938172,-0.1455588100135326,214
1733284815897332000,-0.2258922836616635,0.0823281545966863,0.2688093421071768,3.430980118592083,-4.498134426069259,8.010339998713135,-0.0119375251233577,0.1244490966200828,0.0004271721700206,0.8880892716832298,-0.2908369938421353,-0.083667036062912,-0.3459927821118837,4.721957206726074,0.1582418233156204,0.2656493782997131,0.0507131814956665,-0.2110859453678131,0.2769952416419983,-0.0103976614773273,0.0053701400756835,-0.1403717627644538,-5.62574714422e-05,0.2044164379779249,-0.170034495100379,215
1733284815937332200,-0.0068804071635007,0.0656207654237747,0.3119979109704494,3.407544590207934,-4.487561301867664,8.02625769881308,0.0900433361530304,-0.0414272248744964,0.015960469841957,0.8886047975432638,-0.2896970620679991,-0.0827668086723448,-0.3458420873227206,2.300194263458252,0.5563942790031433,0.3074419796466827,0.005641758441925,-0.0748829245567321,0.1761491894721985,0.0118977893143892,-0.00811383780092,-0.0900309840589761,0.0012646343093365,0.1674911672931164,-0.1460661750137805,216
1733284815977332200,0.2017965378031134,-0.2644306886315345,-0.1348445237755775,3.4480142555013296,-4.449752380216122,8.030023773348331,0.1161731407046318,-0.1538055688142776,-0.0023406608961522,0.8890771540622168,-0.2884735492941408,-0.085823820416352,-0.3449044184951128,-0.4045784473419189,-0.0076634245924651,0.247165247797966,0.0478004962205886,-0.0672257244586944,-0.1734174489974975,-0.0096235759556293,0.010321014560759,-0.0590150835484266,0.0109893232583999,0.1435283270992338,-0.1185848783701658,217
1733284816017332000,0.3351233504921198,-0.0643161125659942,-0.4108867397457361,3.494103221981227,-4.429750333411992,8.021155991759896,-0.0230159852653741,-0.0789600908756256,-0.0607828684151172,0.8888610429923479,-0.2884381931250383,-0.0885340270340262,-0.3448060366976956,-0.5174639821052551,0.0543826892971992,0.4053175151348114,0.0214869230985641,-0.0961288809776306,-0.1348469853401184,0.010176908224821,-0.0363263972103595,-0.1530219855010509,-0.006265478208661,0.2827626102663576,-0.2588128487497568,218
1733284816057332000,-0.2459384618684649,0.2449704936191439,0.0709966132432222,3.5150711912080643,-4.435720932254195,8.008685217243432,-0.0158511213958263,-0.0215649660676717,0.0302965845912694,0.8884675338057351,-0.2892640242227578,-0.0894259655987096,-0.3448983435409563,-1.6667277812957764,-0.0766786038875579,0.1733633279800415,0.002656728029251,-0.0635746717453002,0.0585327744483947,0.0122072268277406,-0.0301963649690151,-0.0723965431690216,0.004380146972835,0.1830097120076418,-0.1791886924147605,219
1733284816097332000,0.2903022119909524,0.0458855528622865,0.2515010644316673,3.511091473922133,-4.4305669104918834,8.013283066427707,0.0879187285900116,-0.0427413620054721,0.0243879295885562,0.8890121460027053,-0.2887809247881601,-0.0896763478345711,-0.3438332308715485,-1.421466827392578,0.3168013095855713,-0.2962653636932373,-0.0236032307147979,0.0886101424694061,0.168503999710083,0.0296102222055196,-0.0111542791128158,-0.0638332974851131,0.0173317566514015,0.1966493841730058,-0.1288683719754219,220
1733284816137332000,0.3665785192027688,-0.0428711734771728,-0.0149123224496841,3.533725622795522,-4.397175805282592,8.021721224427223,0.1002116501331329,-0.1151850670576095,-0.034586738795042,0.8894977252988449,-0.2874104518092782,-0.0916583976407358,-0.3432023041455027,-1.523526668548584,0.2954787611961365,-0.5006285309791565,-0.0497110337018966,0.0881056785583496,0.0012568235397338,0.0237699765712022,0.0051258690655231,-0.0574982492446899,0.0346788167953491,0.1777881779670715,-0.1064636479437351,221
1733284816177332200,0.0422147553950548,-0.1242944881886243,-0.184669169652462,3.583654021307826,-4.363337248566746,8.018048088872431,0.0681368932127952,-0.1171382218599319,-0.0479121915996074,0.8893571305746318,-0.2867263675278066,-0.0947697302628266,-0.3432937649325989,-1.3236221075057983,0.1413183808326721,-0.3052040636539459,0.031586080789566,-0.1025640368461608,-0.0874131917953491,0.018570989370346,0.000652830582112,-0.0965782137453556,0.0207854267209768,0.2298072651483118,-0.1497176832586526,222
1733284816217332200,0.0990124551549553,-0.0583721094697713,-0.3248433640182018,3.617237434218824,-4.343068367519974,8.013971633213758,0.0174746941775083,-0.0046935761347413,-0.0344704911112785,0.889138808033191,-0.2864274872006712,-0.0967495009529767,-0.3435565950267716,-0.8306487798690796,-0.0893493369221687,-0.1013702303171157,0.0529110431671142,-0.0120660066604614,-0.0220837593078613,0.0151694556698203,-0.0168514996767044,-0.0921738413065671,0.0116504793986678,0.25266857384108,-0.0958288566827774,223
1733284816257332000,0.1873600161716342,0.0314838102832436,-0.1896259152770042,3.604606500704586,-4.339101509715617,8.021807733666897,0.0034697214141488,0.0787681639194488,-0.0076858615502715,0.889166278696724,-0.2859701501587676,-0.0960349684700714,-0.344066431865177,0.1128353998064994,0.0163944009691476,-0.0006183224031701,0.032632827758789,-0.0350178480148315,0.0794571638107299,0.0125977359712123,-0.001734722405672,-0.0444312624007463,0.0297316573560237,0.1928947808798402,-0.0595043283700943,224
1733284816297332000,0.3390589363753795,-0.0440524922162294,-0.0329635274469852,3.5886291793718934,-4.326562638399005,8.03573162960112,0.0401385836303234,0.0261707324534654,-0.0715513750910759,0.8891448283130299,-0.2850271098552145,-0.095138020144676,-0.345152026256606,0.1671260595321655,0.0758669450879097,-0.0443575456738472,0.03343166410923,0.0639574527740478,0.0475420355796813,0.0066686039790511,0.01191989146173,-0.0471633177131414,0.0467329211533069,0.1831363340619951,-0.0211585233628749,225
1733284816337332000,0.5913116959571838,-0.1197957154646515,-0.0927723917216062,3.612756781673432,-4.2874803358107805,8.045861393949389,0.0839974880218505,-0.0189362931996583,-0.2460210621356964,0.8885500030150019,-0.2837024000254217,-0.0963752244894448,-0.3474243854230235,1.0460107326507568,-0.1391894370317459,0.0412190742790699,0.0425600111484527,0.0196547508239746,-0.0471329689025878,-0.0057544019073247,0.0059019429609179,-0.0743605367183685,0.0305821690708398,0.2233391651127487,-0.063467971304059,226
1733284816377332000,0.9895920521080492,0.1166293603882193,0.3612286826074123,3.7003497249305246,-4.185425444220006,8.059777106577158,0.2543958127498626,-0.1725907027721405,-0.4969553351402282,0.8866396976298765,-0.2808737868379519,-0.1008743681540078,-0.3532764978278903,2.558167695999145,0.008659622631967,-0.0063402573578059,-0.0416667163372039,0.0858488380908966,-0.0037915706634521,-0.0181774068623781,-0.0001160060055553,-0.1015437271982431,0.0144314188510179,0.2635493026871234,-0.105785018029809,227
1733284816417332200,1.0411997820094228,-0.1139043193385005,0.1486485927224159,3.910907076816261,-3.974344652982056,8.067203457185625,0.4043141305446625,-0.5080767869949341,-0.78802090883255,0.8832796447893524,-0.2756356034091513,-0.1127479132412927,-0.3621187836290793,1.209026575088501,-0.1101729124784469,0.1010993123054504,0.0033143311738967,-0.0191052258014678,0.0688744783401489,-0.018113749101758,0.026824003085494,-0.0012432780593633,0.0075507164001464,0.1725557572063058,-0.1270066697567701,228
1733284816457332200,1.131739884634316,-0.1482353357464075,0.1640489909499883,4.280352968148887,-3.6785967428058384,8.019781196275353,0.4784777164459228,-0.7575079202651978,-1.2118686437606812,0.8766016329633358,-0.2708832023415272,-0.1331436957566135,-0.3747861969713817,0.3856895864009857,-0.0962152406573295,-0.0115444073453545,-0.0086612850427627,-0.0285818874835968,0.0695914030075073,0.0058780461549758,0.0325748994946479,-0.0672048197448253,0.023889061063528,0.2165855991993099,-0.1861702218651771,229
1733284816497332200,0.8590157071709632,-0.4486395472958683,0.6811340057015418,4.756285011518001,-3.18830270434618,7.96133602156937,0.957353949546814,-0.9744758605957032,-1.7997655868530271,0.8664569313722059,-0.2609237867300559,-0.1612563726904265,-0.393913305676371,-0.0994113460183143,-0.0424372218549251,0.0099257985129952,-0.0011312812566757,-0.0106127560138702,0.0382068753242492,0.0118034482002258,0.0251892022788524,-0.0928583164393901,0.0652748420834541,0.2621932119030505,-0.1624152522683143,230
1733284816537332000,0.5886223107427359,-0.8334361524954438,0.2052723972201347,5.292135517016053,-2.426119624073058,7.891617757698893,1.2360175848007202,-0.703309178352356,-2.1951732635498047,0.851953797245966,-0.2424243357894726,-0.1971545068916334,-0.420161116668522,-0.1966995596885681,-0.0733885392546653,0.0974449962377548,0.0177258551120758,-0.0166592895984649,-0.001886248588562,0.0177858099341392,0.0393198765814304,-0.0669961454302072,0.1026439517736435,0.2450058571934699,-0.2056008985221386,231
1733284816577332000,1.5604524961888788,-1.4520055654734372,1.2300970907509323,5.268409188991785,-1.3951492673940955,8.152779215401411,2.4037892818450928,2.4305903911590576,-2.2776925563812256,0.8425463928378107,-0.1985281823415311,-0.211921003370596,-0.4536425766512599,-0.2004444897174835,-0.2108501493930816,0.1639556437730789,0.0189610719680786,-0.0005580782890319,-0.0487993359565734,-0.0045733321458101,0.0497026070952415,-0.0858972452551126,0.1418865770101547,0.2567283706258982,-0.1803770254164934,232
1733284816617332000,0.6933987362518906,-0.4396445591311901,-5.750320014509558,4.462963159444928,-0.3815666833676397,8.72391847642362,-0.7882301807403564,-1.6393598318099976,-1.3784679174423218,0.8397273903542171,-0.135194541834343,-0.1921624120753865,-0.4895446101913265,-0.1236913874745369,-0.3381047248840332,0.181763544678688,0.018824964761734,-0.0013146996498107,-0.0029193758964538,-0.0299752056598663,0.055704016238451,-0.1123398465007543,0.1935968548059463,0.273866260170564,-0.1875198829084634,233
1733284816657332000,-1.0006249027758836,-0.504323367529735,0.7040723982185125,4.9146957043200725,-0.3345448564844205,8.479636257329583,0.2601869404315948,-1.4074902534484863,-0.070727914571762,0.8293358817311081,-0.1480798767507777,-0.2138485813013907,-0.4945130477676084,-0.0676318481564521,-0.2970448434352875,0.1357840597629547,-0.0139792263507843,0.019584447145462,0.05085289478302,-0.0421137697994709,0.0557940416038036,-0.1082926169365644,0.2473834306001663,0.3212617792043835,-0.1729910068184137,234
