time_imu,phone_acc_x,phone_acc_y,phone_acc_z,phone_gravity_x,phone_gravity_y,phone_gravity_z,phone_gyro_x,phone_gyro_y,phone_gyro_z,phone_ori_w,phone_ori_x,phone_ori_y,phone_ori_z,watch_gyro_x,watch_gyro_y,watch_gyro_z,watch_acc_x,watch_acc_y,watch_acc_z,headphone_gyro_x,headphone_gyro_y,headphone_gyro_z,headphone_acc_x,headphone_acc_y,headphone_acc_z,frame_imu
1724682205483097000,0.5109172859020531,21.93595150468349,-4.11284214630723,0.0822463306652847,9.70970704459548,-1.373021898999065,-1.1179742813110352,0.5061471462249756,0.445905864238739,0.3716887362217538,0.4331968474738482,0.618340624986856,0.540224709764419,0.6993140578269958,0.279876172542572,-0.0537029467523098,16.5677083150208,-11.266322739100456,7.664908604696392,0.2220720499753952,-0.1932892501354217,15.566284370821714,0.4359942674636841,-3.101946901668608,3.0053818396657705,0
1724682205522845000,1.049828494144976,21.15185046098232,-1.900404435881227,0.1709153147892095,9.749659700277448,-1.041769983112812,-0.3554110825061798,-0.6786706447601318,0.1000254824757576,0.3757774121196613,0.428779221137815,0.6076708527769531,0.5528794888178279,-0.0310749113559722,1.065187692642212,-0.124689906835556,18.95755294901133,-11.283783576989173,5.173717227384448,0.1795029044151306,0.0498695448040962,18.191628197991847,0.4016958475112915,-3.485401736870408,3.685908234862983,1
1724682205562592800,-0.0438892827448435,11.863949609553814,-2.468276950192452,0.1966693309824913,9.765119135215878,-0.8798641416713595,-0.8093814253807068,-0.0066535463556647,0.1860304176807403,0.3850100222877424,0.4333722774630725,0.5975358205610727,0.5539916538403669,0.2895030975341797,0.8330764770507812,-0.0767418220639228,11.892457911157608,-10.127045152437686,3.2348969899997115,0.3123732507228851,0.4017066657543182,14.10990716613531,0.4126275777816772,-2.5223402565523982,2.7889421517431736,2
1724682205642087200,-0.2392637333448976,-10.119641598182916,-2.075100639182329,0.2373185358275659,9.79792016557753,-0.3388526366809383,-0.9717159271240234,-0.3483165204524994,0.2861297726631164,0.39196429706105,0.420010633806278,0.5838387991775372,0.5736612905329579,0.7004608511924744,1.3701870441436768,-0.4665865302085876,-4.349302293473482,4.9702106707930565,-0.6837666922926903,0.2084508538246154,0.3341168165206909,-13.629250140070914,0.5960686206817627,4.119678129807115,-1.5829375919803976,3
1724682205681835300,0.1473082474967464,-12.70201605219841,1.2349953841865062,0.3568207665046676,9.796054371705653,0.2835270005012862,-1.700927972793579,0.2415620237588882,0.2212117314338684,0.4021500666312619,0.4114302199747035,0.5623782714903915,0.5939117819555173,0.9859564900398254,0.4245394170284271,-0.377802312374115,-11.723944926536085,6.251430630537867,-5.38561518022418,0.0720041096210479,0.1091534867882728,-4.156231206178665,-0.0189944989979267,0.4301709571367129,-0.8488676034484058,4
1724682205721581800,-0.1965779263719916,-12.971027054357528,3.0397832909613847,0.3976907196946442,9.785990658330917,0.4966024909541011,0.5149828195571899,-0.3586693406105041,-0.0408386662602424,0.4054250654276624,0.4082608744975452,0.5549805197804961,0.6007913376495366,-0.4703643918037414,0.0476388558745384,-0.0047639673575758,-9.843205998981,7.159053424489498,-9.054730393457412,0.0055240262299776,0.1964543312788009,-8.924492486694454,0.2391101568937301,2.711043796287477,-1.9687604714877904,5
1724682205761329700,-0.2814644236819818,-12.386519193196296,-0.1892237459505908,0.3941416123783215,9.796593300887942,0.204486836333014,0.710200309753418,-0.4818682074546814,0.0388380624353885,0.4048982055917344,0.4193954522503811,0.5600727874677587,0.5886284533771879,-0.841908872127533,-0.210380271077156,0.2302431464195251,-9.853837283110618,6.360684785982966,-5.108738266995549,0.0246985107660293,-0.1000914499163627,-9.636398062756657,-0.0578023083508014,2.889021067085862,-3.0580662588879464,6
1724682205801077500,0.0985468104045838,-10.570137294739483,0.3343511970758437,0.421892775471881,9.797259071320294,-0.0781718021022155,0.8246002793312073,-0.2657781839370727,0.020838875323534,0.4021684190389865,0.4300849084522835,0.5648120255745379,0.5781651481039158,-0.5455041527748108,-0.3562080562114715,0.3822989463806152,-8.427990825766324,4.888884971237182,-5.252987163454294,-0.0502976551651954,-0.0219535399228334,-9.056901307755709,-0.2419154196977615,2.563771460354328,-3.2239564937904475,7
1724682205840825300,-0.1736023436497897,-9.713519296360015,-0.895786810207367,0.3946171209355816,9.789386730509996,-0.4273088457038625,0.845008373260498,-0.2552502155303955,-0.1078992784023284,0.398189766155394,0.4393850777182094,0.5733475739288839,0.5653833551933478,-0.718919038772583,-0.3186498582363128,0.2769688963890075,-7.138998478454351,5.293973253837228,-4.650628296042979,-0.0617797784507274,-0.0222927965223789,-9.304712870019674,-0.4428350031375885,2.8038296320125458,-3.306941066469252,8
1724682205880572200,0.0336102643853053,-9.603203649163246,-0.8829355850059538,0.337790304679051,9.777831901794672,-0.6710515145611018,0.3816971480846405,0.1117089763283729,-0.203214019536972,0.3954297907728238,0.4437961110634786,0.5807401454601415,0.5562564895905031,-0.32279172539711,-0.2192410379648208,0.1347203701734542,-6.763028153789043,4.581254607826471,-3.9726974702969193,-0.0217189900577068,0.0300780739635229,-9.229193226394056,-0.4095567762851715,2.5038661499679087,-2.4937153428316114,9
1724682205920319700,0.3840053817566484,-8.4295111672014,0.5427437721431255,0.241629238633532,9.767420982417464,-0.8423187663268298,0.5733553171157837,-0.0349472537636756,-0.2253844141960144,0.3932256505451352,0.4432767806205063,0.5886017332657728,0.5499339755560851,-0.4555535018444061,-0.2239008843898773,0.0264823026955127,-6.90001787289977,5.052440625712276,-3.764070209690928,-0.0577209219336509,0.0165992621332407,-9.19791253746748,-0.2545618414878845,2.3989041387587786,-1.7623453339733182,10
1724682205960067600,0.1091296522825956,-2.7070582337826488,-0.5006032510280609,0.2089999846422113,9.751547705981135,-1.016871907895431,0.2445950508117675,0.0837884321808815,-0.0336100608110427,0.3906170569372476,0.446285066944762,0.5938650325513972,0.5436656129414721,-0.3693461716175079,-0.1651621460914611,-0.0299681909382343,-4.475439194658399,2.722492534279823,-0.6647121554717421,0.4519110321998596,-2.995485544204712,-6.765766054320335,-0.3381218016147613,2.8172049541533,-2.1621000004604456,11
1724682205999817000,-2.0056686449073253,10.22978422690034,2.069223709972948,0.135497982715629,9.743395379185676,-1.1037620366454124,0.8228902816772461,0.1578421741724014,-0.086428664624691,0.3878265688527221,0.4426267011362735,0.6002980971684412,0.5415850991248979,-1.2752689123153689,-0.9880492091178894,0.7360511422157288,1.6244558895438908,-1.7528718415766953,0.6517220332562923,0.4477182924747467,-1.7232078313827517,2.331548950757832,0.0912027731537818,0.6729440503094345,-0.0435215362778399,12
1724682206039564500,1.4817141827777027,14.606183786135912,-3.0502129150390624,0.1370653416302055,9.700649877914788,-1.4314336098268627,0.3880017697811126,0.1326048076152801,-0.0729646310210228,0.3799004148408279,0.4487235013118902,0.6096146522060494,0.5316887707303507,-0.2784357070922851,-0.5192033648490906,0.330815702676773,12.606809126806258,-9.967835418212411,4.480954158687592,0.1470813900232315,-0.7239196300506592,13.1987240493536,0.3337899148464203,-1.4866257740862667,3.949295551921427,13
1724682206079312600,0.192258053878881,16.061912171524764,0.5996667057178914,0.0874146366812754,9.681592126223444,-1.5586945466056463,0.7566148638725281,-0.11725714802742,0.0100929858162999,0.3781419842275536,0.4494529014335468,0.6143804964340929,0.5268181948838404,-0.4164947867393493,-0.5119147896766663,0.4669917225837707,14.064240808981657,-10.118021303504705,5.761784242331982,0.1109810024499893,0.4817361235618591,16.432895355427263,0.0327721945941448,-2.732740956571698,3.39863823017478,14
1724682206119060500,0.3485418176548555,7.814198417931794,-2.283661410423368,0.1475067840098403,9.619629298785329,-1.9003556283034384,0.585248589515686,0.0265500005334615,0.1441177427768707,0.3696492624458404,0.4593849815797737,0.6211735764651319,0.5162056161567355,-0.3257294595241546,-0.1506686955690384,0.5012170672416687,10.05148751488924,-8.239674824044108,4.597251218381524,-0.1328947693109512,0.5367515683174133,5.447633537241816,0.4271944165229797,-1.2978313411973417,2.743887789008021,15
1724682206158807300,-0.3494796464942395,-0.4384294111877679,-1.4687249373450877,0.1703634895927272,9.61779974527061,-1.9076982461512089,-0.3014367520809173,-0.057798646390438,0.0405081398785114,0.3683084766485024,0.4596002727751945,0.6213156476864156,0.5168011296714027,0.4499452412128448,0.2157912254333496,0.3682529330253601,2.994395166227221,-0.9198948310256004,1.98012430767566,-0.2479163855314254,0.5638197064399719,-0.263614312481042,0.4819088578224182,-0.1862759289956651,0.5368114229520783,16
1724682206238303000,0.2672381838003173,-6.695069885328412,0.2641755448266863,0.1650647986627183,9.630212652119994,-1.8444981320030984,-0.0537902042269706,-0.1342456489801406,-0.0792687982320785,0.3720624380211481,0.4607316794166214,0.6178750308854121,0.5172295798731124,0.0105271274223923,0.1636996269226074,-0.0610816329717636,-4.268920596769452,4.172790711313485,-2.3235630665704607,-0.231941357254982,-0.0237718317657709,-5.442134939825534,0.1752852499485016,1.0977262636125087,-2.298069436612725,17
1724682206278050000,0.7550415379554033,-7.274637367478013,1.1926980650745331,0.1115098162842448,9.633376084586978,-1.831949908336252,0.076560340821743,-0.0258795451372861,-0.1754087954759597,0.3743852294362867,0.4594719230963753,0.6182952402279129,0.5161708731374786,-0.1902901232242584,-0.0822996944189071,-0.0671931877732276,-5.942371695628762,4.349033413404226,-3.0733892079651355,-0.2869711816310882,0.0834556967020034,-5.371767272135615,-0.1565914005041122,1.2756605720520018,-2.767118442469835,18
1724682206317798000,0.4166333936389535,-6.999760688155889,0.9905436537444592,0.0364691792140714,9.615725277084112,-1.92532947217077,0.3676041662693023,-0.0487635023891925,-0.1699523329734802,0.3744936585202609,0.4592732992393828,0.6222800957799166,0.5114587779727123,-0.3444163203239441,-0.2624475359916687,0.0038160050753504,-5.936578499180079,3.95030648252964,-2.871056955850124,-0.2200594246387481,0.0312633961439132,-6.098989075273275,-0.2964580953121185,1.701953409113735,-2.639222130396962,19
1724682206357545700,0.6263063639055937,-5.030647311577201,0.630644173914194,-0.0249127910126117,9.58980582292974,-2.05070561811626,0.2829165160655975,0.0073526399210095,-0.160267174243927,0.373494683426506,0.4601809231182605,0.6267299325306045,0.5059099307304878,-0.3409259915351867,-0.3654858767986297,0.0152036808431148,-4.844527943116426,3.4114398440808054,-1.6089363949812947,-0.1145755872130394,-0.1598706245422363,-5.053440742665529,-0.0861956402659416,1.5467593402706086,-1.5796014332950117,20
1724682206397293600,0.396578520669043,2.5138854396790267,-0.0069084642142057,-0.1067307379147037,9.564714051771164,-2.162239116670192,0.2772642374038696,0.1217923983931541,-0.2630742192268371,0.3721834326029797,0.4586788192979029,0.6323426731783323,0.5012346414758236,-0.4187970757484436,-0.3565475940704345,0.044600386172533,-2.0847692157596347,1.5560311726152896,-0.2874339630782604,-0.0140235582366585,-0.6249155402183533,-1.6462233385853469,0.0044197589159011,0.5175006463477387,-1.2825222745150326,21
1724682206437040400,-0.3721696902733296,18.39561113992333,-1.411221719664335,-0.2070773642828688,9.535594340270755,-2.280338111219555,0.467987060546875,-0.1126940846443176,-0.2651169896125793,0.3714475627155478,0.4569722965757567,0.6383112124189901,0.4957437003209317,-0.3241211771965027,0.3033864796161651,-0.032469630241394,9.409922718510032,-7.625303155016899,4.771675765134394,-0.0229586232453584,-0.8225661516189575,8.90133606751263,-0.3784087598323822,-2.440658583165705,0.5256774865299463,22
1724682206476790300,0.5870691995492204,24.613931528019904,-10.829041913425922,-0.2042961725991219,9.525739301210642,-2.321409687928856,-0.9390695095062256,-0.3983469903469085,0.2530966699123382,0.3736944492981622,0.46213835620064,0.6362288070721631,0.4919283693491151,0.6846014261245728,1.142534255981445,-0.3296509981155395,18.56773997695446,-15.985369030070304,9.557742459192871,0.063750110566616,-0.8855713605880737,19.367971486723423,0.0923084616661071,-4.150974600824713,5.95983253351748,23
1724682206516538000,0.2873388138744048,18.51570116215944,-4.78331213465333,-0.159248878925573,9.682007721287013,-1.5503987196862696,-2.3392508029937744,0.2094932794570922,0.1164523884654045,0.3909625535598099,0.4484900481329455,0.6147397934613282,0.517783632598932,1.7570372819900513,0.7262693643569946,-0.4543726146221161,16.097938593673707,-16.345408795154093,6.171200909525155,0.1670781970024109,0.1406927853822708,22.60709720033407,0.8891722559928894,-3.851980840595066,7.4447724003434175,24
1724682206556286200,0.0197219557876931,3.885696355453133,2.109872677356005,-0.0698504023501649,9.773522806423902,-0.8023390034422277,-1.222494125366211,-0.2373783886432647,0.3110385239124298,0.4043901334560929,0.4347186755164609,0.5932348405653063,0.543654897707918,1.1564885377883911,0.6201397776603699,-0.2906606197357178,7.546824661585688,-7.109436283883452,1.1602961170330643,-0.1370358914136886,1.7600356340408323,9.603489480367305,1.0784523487091064,-1.9393929227061568,3.753797237479687,25
1724682206596032800,-2.1034125414311884,-11.2111462108016,-0.4949918043544515,0.0882429315984249,9.790635269266366,-0.5532191715912893,-0.6247866153717041,0.1284601688385009,0.507146954536438,0.4079210256995322,0.4368727163161411,0.5808171460493403,0.5526247214567415,1.0898504257202148,1.0990557670593262,-0.3892297446727752,-2.407873627156019,3.040660073795914,-5.135172684934735,-0.2911789417266845,0.9621897339820862,-10.94443471775651,0.3948152363300323,3.7788504301935433,-3.0190070449143644,26
1724682206635780900,0.4379524413257837,-15.864733064389227,-0.3578279342532158,0.1939672324169427,9.802763513955473,-0.1964301701980642,-0.9144405722618104,0.2664342224597931,0.0652942955493927,0.4092823017202862,0.4289439199577075,0.570983594469803,0.5678669054223435,0.7514233589172363,0.3038403391838074,-0.3839726150035858,-12.880391090142728,9.577355506679416,-8.305762622457742,0.0409504435956478,-0.2651726007461548,-5.215287255135178,-0.2662371695041656,1.2596041941337286,-1.972289084005356,27
1724682206675528700,0.5459199910264462,-13.220330316483974,2.7299802596867084,0.2167829849349334,9.804103238126634,-0.0543100704955169,0.2077227085828781,-0.1386456340551376,0.0677860826253891,0.4112112436515877,0.426127241974094,0.5667315206787105,0.5728317862732671,-0.5011070966720581,-0.3233416676521301,0.1839010268449783,-12.745173641401529,7.0874237740397446,-7.48697254269123,0.0244669038802385,0.1581025719642639,-9.74273428492844,0.4462000131607055,3.4306329125896093,-2.481203944043815,28
1724682206715275500,0.3724484341494739,-9.96205800385475,2.118210297590494,0.2524381443523801,9.799702372819183,-0.2692879924695938,0.767890214920044,0.0051663788035511,0.0235926173627376,0.4066363354721234,0.4328155962160366,0.5713147350356347,0.5664955139623503,-0.5526166558265686,-0.5036762952804565,0.4190036654472351,-7.928257343310117,6.00740677011907,-4.603313294899463,-0.1020777747035026,-0.0302446391433477,-9.701264210420849,-0.0223288834095001,3.0258146791025995,-3.530746606984734,29
1724682206755023400,0.1258967540198005,-8.7267534075886,0.2079845057230442,0.2399670227760449,9.787984462496638,-0.5551432715216651,0.6653668880462646,0.2464926987886428,-0.0696442499756813,0.3987628148986519,0.4363903580063876,0.5812640407570046,0.5591814625348585,-0.2675194144248962,-0.5827524662017822,0.3806317150592804,-5.808932362475991,5.334147443315387,-3.6665216896086927,-0.0837471932172775,-0.0040016933344304,-8.79859348591864,-0.0858093649148941,2.828864704547822,-3.39534532610923,30
1724682206794771200,-0.1503155395539477,-8.921844018012285,-0.5698748671095818,0.1913162612504325,9.772233935657145,-0.7982621824573725,0.5923321843147278,0.248160570859909,-0.2359022498130798,0.3919426883294464,0.4369185339957934,0.5914408159361416,0.5528841178089988,-0.3806542158126831,-0.4764426350593567,0.2327351421117782,-5.796434699952602,5.168236165624856,-4.216579876418412,0.0245693810284137,0.0055126957595348,-8.617063198813796,-0.2844784557819366,2.898632068257033,-3.7731899202138175,31
1724682206834519000,-0.1261966868144459,-9.93953053022623,-1.2764112442888318,0.10075802018065,9.75368179540038,-1.0128940903056411,0.456378161907196,0.1265219300985336,-0.2153653055429458,0.3876589449004266,0.4362312504517419,0.6011202240977789,0.5459646941982326,-0.474053144454956,-0.3777309060096741,0.1315129846334457,-6.130959500029682,5.623934691521525,-4.4687391124978655,0.0477221682667732,0.0827226042747497,-8.80454391875565,-0.4515105187892914,2.875455190809071,-3.550047519782185,32
1724682206874266000,0.7953391346175223,-9.160690768054128,-0.2285609183490276,0.03724446530235,9.742930684283376,-1.1154846231430768,0.2010555863380432,0.3568177819252014,-0.1631935387849807,0.3842638342434706,0.4330950297811088,0.6077027108571075,0.543569186365073,-0.2066629827022552,-0.3038726150989532,0.0667278617620468,-7.235030748754739,4.759491698604822,-4.06290556448847,0.0235477555543184,0.0675555393099784,-9.136100516676905,-0.4407242238521576,2.6713632355451584,-3.0088740656957027,33
1724682206953761800,-0.2163784592546522,12.548010900878904,3.265565976768732,0.0317257406967808,9.721057875171304,-1.2924448258534074,0.9026209712028505,-0.0633002072572708,0.0642446279525756,0.3771840759971539,0.4326612860794349,0.615386512036337,0.5402183255175838,-1.6752601861953735,-1.2000229358673096,0.6699931621551514,-0.220337279883027,-0.9806184720575808,1.3612035970419645,0.5158036351203918,-0.3775338530540466,6.008198212757707,-0.0531608685851097,-1.843125820736587,-0.1085340518764685,34
1724682206993510000,0.25803627488669,15.431605851262807,-4.897458738315105,0.1572081120792776,9.68042658957541,-1.5604513271450997,-0.3434537053108215,0.2192266136407852,0.2912030816078186,0.3688081091989469,0.4431206124944869,0.6190355410373065,0.533310128055375,0.3530402481555938,-0.2546539902687073,0.2419235706329345,16.046970622980595,-12.680281190252304,7.296638186883926,0.2354920655488968,-2.126883029937744,13.503572088569404,0.1633824855089187,-3.285081993621588,3.854217221345007,35
1724682207033256400,-0.4307135030481964,17.238651766097544,3.758102825719118,0.1999723545832559,9.688784668076035,-1.5026150781176983,1.0137875080108645,-0.1547997742891311,0.0357871204614639,0.3664853269964266,0.4405465542035787,0.6184907308307912,0.5376583433561132,-0.1804305762052536,-0.2572680711746216,0.522954523563385,16.696026067376135,-9.877988558548688,4.1144817302078005,0.0641993880271911,0.370352029800415,14.88140357980728,0.0054267169907689,-2.6224989591330288,3.631423488220572,36
1724682207072984000,-0.3504728953152894,7.892028092065453,-4.113974072946608,0.2217844830166548,9.619462710046768,-1.893976302529872,0.2792470455169678,-0.3985078930854797,0.097561202943325,0.3625478009726311,0.4553684096622163,0.6238633875403634,0.5215297238644278,-0.7438632845878601,0.2018182575702667,0.2963453531265259,10.684198558205363,-6.101223117935657,5.192425434985757,-0.2649603486061096,0.869431734085083,6.801711812448501,0.2290721237659454,-1.944901603125036,2.7103616592422126,37
1724682207152478200,0.8607837397567928,-5.615200765445828,-1.0945277598321437,0.1926651003098115,9.668734398216008,-1.627529013378918,-0.6137535572052002,0.0161913502961397,-0.0682876259088516,0.374148235703521,0.4546878161267488,0.6133839574607709,0.5263385185360322,0.2996335029602051,0.6738502383232117,-0.3440299928188324,-2.904614357537031,1.7902181141525506,-2.8763474634736776,-0.3193121254444122,0.2846466302871704,-4.713463814662397,-0.1498807072639465,1.3580717287570236,-1.8487005521290003,38
1724682207192224300,1.373378165090829,-8.247509755453468,0.9790158591665328,0.1659439561174251,9.709019646853209,-1.3703180468678473,-0.583870530128479,-0.0363517552614212,-0.0852445065975189,0.3804904701827341,0.4483981599191106,0.6072938883953551,0.5341911397641801,0.447471410036087,0.2899604141712188,-0.3784128427505493,-6.604670652478933,3.5969174075067043,-2.676170051304996,-0.2427690476179123,0.2646544277667999,-6.106541682609915,-0.0382725596427917,1.7770327616259454,-1.6932529469162223,39
1724682207231971600,1.0864913145013153,-8.808957059022784,2.2235785515129565,0.0984888970717322,9.728180858919025,-1.2341744231924414,-0.083849124610424,-0.1226914525032043,-0.2314159721136093,0.3864608493581222,0.4447245182742637,0.604272692536196,0.5363978470977372,0.0277050491422414,-0.0368164218962192,-0.2650851607322693,-7.578814375564455,5.30747161783576,-3.6184967866301534,-0.230817511677742,0.1479064524173736,-6.512666907042265,0.1468885242938995,1.798127718233317,-1.7092222310729324,40
1724682207271718400,0.1257109856567345,-7.930603614175319,2.3165001424469054,-0.0049534970756416,9.720119133016466,-1.29986240863353,0.3855678141117096,-0.0660985708236694,-0.2568096816539764,0.3890051365742848,0.4441798846444945,0.6074362278924316,0.531413652193141,-0.3757891654968261,-0.4518035054206848,-0.1016630157828331,-6.9565347098916765,5.14667081502676,-3.28852833468318,-0.2148511856794357,0.1332277208566665,-5.906980648773908,0.144349068403244,1.5507729598261415,-1.8639251553982488,41
1724682207311465700,-0.9560065203052014,-4.167764992105961,1.962941263815016,-0.0875663109784945,9.687598088639977,-1.5209116361781954,0.7597365379333496,-0.0280569456517696,-0.1555024981498718,0.3862975295045775,0.4461307439646931,0.6152335116707615,0.5227134636919464,-0.525914192199707,-0.7210709452629089,0.1105225458741188,-4.776259878054261,4.051970621237159,-2.130659444797039,-0.1133065745234489,-0.0530955046415329,-5.019722597458959,0.2584736049175262,1.3501459041938184,-1.289736297547072,42
1724682207351211800,-1.1594110047616064,5.3301989979505535,0.0267313550591468,-0.1196911682447884,9.629670800328254,-1.8508138910211624,0.7977639436721802,-0.0508782491087913,0.0362229235470294,0.3796792645721156,0.4518672405811836,0.6246448952465262,0.5113496679083243,-1.1718024015426636,-0.3564961552619934,0.1368205994367599,0.6476286264628172,1.4292431140452622,1.011846261753142,-0.1470353305339813,-0.6144394278526306,0.0297817396226921,0.2402173578739166,-0.0971575297369621,-0.311416567418538,43
1724682207390958800,0.2116853330023586,19.69652656474113,-4.008078580279648,-0.0958660103553906,9.589350480377671,-2.0507482882142067,0.218223437666893,-0.6515270471572876,0.2018007934093475,0.3784458249508384,0.4617004925266745,0.6256130741219046,0.502214863071265,-0.2268071323633194,0.7343458533287048,-0.2112939804792404,14.818020364177226,-9.053165043836833,7.212525486958026,-0.2186151444911956,-1.0889787673950195,10.47079663054347,-0.0145457917824387,-2.6295816108703614,1.9545707642242311,44
1724682207470453000,-0.7603841410923748,20.301396830451488,-5.317216766780614,0.108862078254437,9.649166358914972,-1.747025161375105,-0.4670502245426178,-0.1757257133722305,0.704473078250885,0.3883789043326173,0.471864661420908,0.6053240732282027,0.5099884378230002,0.2206678539514541,1.2017945051193235,0.4754433333873749,18.47132426029444,-18.802531898647544,6.049422788071632,0.2291493862867355,0.3672752380371094,20.567244400143625,0.2491292357444763,-3.279271553777158,5.092500833421945,45
1724682207510199300,0.2627040475020185,1.7149527375489473,-7.278443189501762,0.4426875800888985,9.709879478552937,-1.301029260455817,-2.2449939250946045,-0.2148142606019973,0.9161379337310792,0.3914375749790399,0.4744208705555953,0.5841736609725651,0.5295684096612326,1.7422287464141846,1.279647707939148,-0.0190800577402114,8.41957137246728,-8.076941591867804,3.626193478612601,0.0081437118351459,2.0865981578826904,1.049262165499106,0.5092079043388367,-0.9462271768298,2.5333999952271578,46
1724682207549946400,0.2783109646197408,-14.145331530737876,-0.8091022139668465,0.6207116126384585,9.786986683630944,0.0024056534942879,-3.63661527633667,0.1654429584741592,0.0011415600311011,0.4197475860939535,0.4548188144662815,0.5413106241491842,0.5691526017384315,3.772349357604981,2.1228158473968506,-1.0253756046295166,-2.666154560986161,7.273048636981844,-5.901815228834748,0.0219041816890239,-0.0903916135430336,-13.062882331234215,0.7247997522354126,3.35181656550616,-1.448247235853225,47
1724682207589693400,1.3545523224592209,-16.424798558211325,5.193216877624392,0.4355620390579104,9.745575061312318,1.002228611645475,-1.1682324409484863,-0.3110985159873962,-0.8543494939804077,0.4473086870705254,0.4271797790462995,0.5161569508227694,0.5924647746003439,0.2618560194969177,0.094577819108963,-1.307062029838562,-15.741960086679455,11.483294926464556,-14.162455684018134,-0.4701130092144012,0.9021027684211732,-3.729847622093558,-0.0178508888930082,0.8952272766284644,-1.4123228127740324,48
1724682207629440500,-0.4759049361664801,-15.584246728491784,2.038942115086317,0.1920423835678957,9.747183081030846,1.0610999028090389,0.3252117037773132,-0.4238379895687103,-0.3606199026107788,0.4616055960273511,0.4243289577205392,0.5156005193174451,0.5839703302342034,-0.7864930629730225,-0.3871403336524963,-0.60698401927948,-11.906212880265713,7.160071661621331,-7.736080574506521,-0.1471529603004455,-0.0962523072957992,-8.289201363757252,-0.0188250709325075,2.673187236101925,-2.5938886584594845,49
1724682207669186600,-0.4715062993487343,-12.539612490367888,1.010802086462453,0.1448473920748569,9.763686472064256,0.9054570672851056,0.5955721735954285,0.0302658844739198,-0.012515215203166,0.4613148624729197,0.4282782898900694,0.520011773699094,0.5773683311182075,-0.2331957817077636,-0.4700144529342651,0.0651856288313865,-10.444095670622586,5.031161106318235,-4.803018705642223,0.0223499070852994,0.0306113511323928,-9.141032712382078,-0.0829885303974151,3.300106544274092,-3.103898912519216,50
1724682207748680700,0.4120421203259378,-9.720215579128263,-1.120489884084463,0.0840065270045306,9.802066179341075,0.287756856623385,0.7413317561149597,0.2785147428512573,-0.1151441484689712,0.4445655616716816,0.4363765443491345,0.543050637915017,0.563056735662629,-0.4407378137111664,-0.4282767474651336,0.4877541661262512,-5.921627013763785,5.515090285921096,-5.1911137678653,0.1744766980409622,-0.0684085190296173,-8.849501835379003,-0.1960339993238449,3.070207363058626,-3.349753495496511,51
1724682207788428000,0.8627860194899142,-9.855824657535551,-1.1405302170723677,0.0209736728818388,9.80659388589859,0.0257300576456706,0.6185036301612854,0.4354554712772369,-0.1912937462329864,0.4366277391254898,0.4366715849435396,0.5549829358385275,0.5573760984013331,-0.1702735424041748,-0.5150673985481262,0.2985139489173889,-6.915154067233204,4.915251584637165,-4.987448221319913,0.1609009504318237,-0.0292246751487255,-8.980375701957941,-0.3771930336952209,2.8109926555097102,-3.419228890521824,52
1724682207828174000,0.8236120930954813,-7.786167670711874,-0.7322340783417225,-0.0733289971469668,9.804179810494183,-0.2074896166118793,0.6851175427436829,0.4005051255226135,-0.2632988393306732,0.4293708936257913,0.4343222125481836,0.5674004248464123,0.5523237868714774,-0.2504224479198456,-0.7081617712974548,0.2182428836822509,-7.480235343390703,4.522800080770254,-4.637998239311576,0.1565199792385101,-0.017371891066432,-9.237329186576604,-0.4552237689495086,2.6420097152888773,-3.149583682112396,53
1724682207867848200,0.4700479537665843,1.3613158252447843,-2.3475392777025696,-0.1460824137625284,9.79536463587582,-0.447092683180049,0.0709528923034668,0.5887272357940674,-0.3030292093753814,0.4216422962679779,0.4327345511649895,0.5792548586292838,0.5471950822827287,-0.4448883533477783,-0.4738768935203552,0.1552627831697464,-4.968212774974107,2.3911720832020045,-2.3120336645573376,1.4299111366271973,-4.646699905395508,-4.4005069955319165,-0.2777816951274872,3.0445331158369777,-2.4282697878442705,54
1724682207947415600,-1.4727667600817975,13.611246865868567,-3.467970709598064,-0.3122605804946273,9.771275319758058,-0.7714117310632019,-0.4454655349254608,0.0994287207722663,-0.274865984916687,0.4118643560163325,0.4267714089033484,0.5976597839293702,0.5394782745765034,0.0653845146298408,-0.5973652601242065,-0.0600415393710136,6.783411601126193,-6.93718820438683,6.107023913168907,0.2942158281803131,-2.723287343978882,7.397155493643879,0.5640344619750977,0.1302852621691767,3.345626770955324,55
1724682208026908700,-1.4243123796448112,7.131269930028915,-0.8753659534692764,-0.5812802043516189,9.748450324487685,-0.8945477699317037,0.6536900997161865,-0.1398168951272964,-0.0060253576375544,0.40816705995489,0.4114811378772378,0.6134268631268541,0.5364610324545284,-0.5378078818321228,0.1917185336351394,0.3577465116977691,8.785533513337374,-5.422508448335528,4.612348834270239,-0.0754122957587242,0.662026584148407,8.72611920133829,0.0885157063603401,-2.4841876360297204,2.51780495121032,56
1724682208066656000,-0.3603904051523655,2.9032144276112315,-1.9892625767685472,-0.494489444322884,9.745952662453057,-0.9707189362686128,-0.5056763291358948,0.974806785583496,0.3432664275169372,0.3977684633576451,0.4084790532079687,0.6185772028815327,0.5406361881294465,0.6953110694885254,0.1902195513248443,0.3620818853378296,3.783363523703813,-5.102434782937169,2.644142051142454,-0.2264681309461593,0.4720903635025024,3.777571788559854,0.1435294300317764,-1.317301180820912,1.7143768373571335,57
1724682208106269400,0.4386462322762235,0.3392535821646452,0.2913514287829399,-0.3374912851998582,9.778941908863189,-0.6548209491197019,-0.8320232629776001,1.0744627714157104,0.2343606203794479,0.3874585307155013,0.3932624032305125,0.615411456123859,0.5625738674231975,1.0473634004592896,0.1489822119474411,0.2934222519397735,1.0445295109540222,-0.7650830394983291,1.374681210513413,-0.1841256320476532,0.3383565843105316,-0.1408477827783674,0.2243810445070266,-0.1679561544563621,0.2530388136592693,58
1724682208146011400,0.0269323757902719,-2.502232995808124,1.0457096606492997,-0.2258008607848547,9.786591546833517,-0.5848254026778043,0.4708430171012878,-0.2115353345870971,0.4665484726428985,0.3807057207864492,0.3900569384717164,0.6145513664503828,0.5703028442377258,-0.0320040881633758,0.5386648774147034,0.2546852529048919,-0.3695803313672542,0.7379366738975047,-1.1848980588480829,-0.1371734589338302,0.1579345315694809,-1.8694911189623176,0.1218883171677589,0.3805434047345072,-0.609689721756056,59
1724682208185752300,0.1260499718201346,-3.040011839020252,-0.0091993516303598,0.0330147598773008,9.76293126978278,-0.924389365965873,0.9144508242607116,-0.3234474062919616,0.6292159557342529,0.3727973162639944,0.4118422703376242,0.6144238659780388,0.5602602482613092,-1.25823712348938,0.3932822942733764,0.1689082980155944,-2.821184963700175,1.4917314266622066,-0.8089987535923719,-0.1460995078086853,0.1150920614600181,-2.716957696506381,0.128641277551651,0.5753543579665944,-0.6298812997829168,60
1724682208225494300,0.9600641981981696,-3.1023803246498107,-0.0315488383434712,0.1545863852735608,9.74838368899226,-1.0561668303210288,-0.1282899081707,1.0545140504837036,-0.035099945962429,0.3611728196180968,0.4122869701455367,0.6195716069941518,0.561875959000583,-0.8511365056037903,0.2406202405691146,0.1228208914399147,-2.237940838864445,2.2205080580264327,-1.6757745733708145,-0.2087847590446472,0.1776565015316009,-2.365296906580776,0.1404908597469329,0.5538800466528162,-0.4755759234078228,61
1724682208265236500,-0.1285953454540111,-2.7312895887196063,1.6599442592933773,0.1422124495945405,9.750787827524542,-1.0355062465429306,0.1059391126036644,1.1994222402572632,-0.0632594153285026,0.3483003999213187,0.3964578363108956,0.6289811688014421,0.570868296688836,-1.399103760719299,0.0370497032999992,-0.0389985032379627,-2.208908221125603,2.770717343744636,-2.0720193320408464,-0.2669949829578399,0.1064959242939949,-1.960015001104772,0.0521393939852714,0.6336833954796195,-0.5862926987513899,62
1724682208344720400,1.5864320099674163,-0.6001169337034226,-1.0743104628421365,0.1777950643655844,9.642718497949838,-1.7767348015926778,1.1639373302459717,-0.0904380083084106,-0.195513054728508,0.316437330303788,0.3923070087292365,0.6608203058180343,0.5561288320472401,-1.1110063791275024,-0.4880313277244568,-0.0481356084346771,-0.5690940189301967,2.189121570637822,0.2441062780052423,-0.3671691417694092,0.0726190730929374,-0.4901756727769971,-0.3353016078472137,0.1987818296244367,-0.5153176032202318,63
1724682208384461300,0.6405014049313962,-0.1918804162055254,-1.095662901341915,0.0767117212207056,9.55560310907662,-2.20339749488011,1.1175010204315186,-0.499981939792633,-0.1141893565654754,0.3136197759591188,0.3995772124459767,0.6728150277710113,0.5378667777523376,-1.0154892206192017,-0.4950737357139587,0.0335518643260002,-0.7721066545248031,-0.8213888640880584,0.2240522087529301,-0.327350914478302,-0.0194053687155246,-0.7190499679241329,-0.4603383243083954,0.2358083687266334,-0.4177004748811945,64
1724682208424203500,-0.757902041953057,0.2912912230283022,-0.5660477831020951,0.002082393766749,9.469271564057468,-2.550155022934079,0.7353854179382324,0.137482464313507,-0.0396747626364231,0.31091814419461,0.405878673880245,0.6821174552957007,0.5227889009943094,-1.4488896131515503,-0.454320877790451,-0.2138565331697464,0.2706003171771765,-0.9532406357884406,-0.4433521084122359,-0.2714312374591827,-0.1089335158467292,-0.6963214187655598,-0.5075826644897461,0.3498722625410184,-0.2075536034924909,65
1724682208463945500,0.7130128797169775,0.423874816134572,-1.4877753825128075,-0.0423371990312123,9.43814109725654,-2.6627222484499216,-0.1923782676458358,0.3364728689193725,-0.4547778367996216,0.3078971786969637,0.4036995970611265,0.6875955871798519,0.5190744468208642,-0.1272834688425064,-0.0977946072816848,0.019252486526966,1.091036410585046,-0.2691699921131134,0.2318089603595435,-0.2663841843605041,-0.1198575943708419,-0.3025312319071032,-0.5809494853019714,0.1411746857783291,0.069566251646541,66
1724682208503685000,-0.2047987883590161,0.7070669038593769,0.2493468090072274,-0.1775252709808759,9.483402965262531,-2.490768183463812,-0.4396142363548279,0.0106229288503527,-0.2603348791599273,0.3130334778878922,0.3930524497451917,0.6873889783566535,0.524419813549446,-0.5303901433944702,-0.0552968941628932,0.1490870416164398,0.6653899086028338,0.9777098911345004,0.3098484778515994,-0.2458516806364059,-0.1667749732732772,-0.0114125581423344,-0.6192945837974548,0.1166591253388207,0.2146129656857811,67
1724682208543426300,-0.4547946723921224,-0.0144540572881698,0.1507505334377288,-0.1841578225968405,9.500131397223472,-2.425690731136501,-0.0048997025005519,0.9732012152671814,0.0280753634870052,0.310119694171686,0.3859531455956352,0.6889963554166525,0.5292919760455435,-0.5438332557678223,-0.0442334860563278,0.0050477171316742,0.20408757134974,-0.8436550564318895,-0.3655710957258939,-0.2143779397010803,-0.191057413816452,0.5636406488951295,-0.5814849734306335,-0.2075406526793725,0.4043269063061103,68
1724682208583168300,0.0250758383705047,0.472944844251871,-1.466260300797224,0.031935883165989,9.496959781450032,-2.44481774867177,0.1079727932810783,2.424675226211548,0.349299281835556,0.2878362894133386,0.3736625631517496,0.6964390151037425,0.5408320735199346,0.1309539377689361,-0.0914712473750114,-0.0952746272087097,0.0749737001806497,-2.061947143098712,0.076914239789173,-0.193358302116394,-0.011685193516314,0.5242650624487549,-0.5127401947975159,-0.3085054657448083,0.387884415147081,69
1724682208622910200,-0.5425672830650583,0.4181640372723341,-1.4566213887058197,0.5689035378593951,9.490837499177456,-2.402233137051016,-0.2036593109369278,4.454607009887695,0.5567107200622559,0.2322420641982964,0.3413894072771289,0.7112897267677781,0.5688442539325247,-0.0426697805523872,-0.1205838173627853,-0.0470211431384086,-0.0438134227633476,1.0102408723831175,1.28099784142673,-0.1559648364782333,-0.0710869431495666,-0.3482363684348762,-0.4735578298568725,0.0635448130996664,0.1760006004305556,70
1724682208662652200,-0.8799282929487526,-0.0335299291580915,-1.562734469646215,1.2779643189497292,9.50918154964149,-2.0279696163035927,-0.7782898545265198,4.697990417480469,0.9008041024208068,0.1613064361632295,0.2972045495690091,0.7176817740028443,0.6087549235578893,-0.4111160039901733,-0.1014471352100372,-0.0665088891983032,-0.2943272297233343,-0.8719581908524036,0.014339052606374,-0.1312459856271743,-0.1732835620641708,-0.5139232627850026,-0.5130550861358643,0.1278382708758581,-0.0395541533170966,71
1724682208702394400,0.0218415371909737,0.3294762845158577,-0.8316613979078828,1.7700687678322196,9.51024479495883,-1.6101253125049173,-0.5828614830970764,5.036392688751221,0.735276460647583,0.1045651250484107,0.2590908374102453,0.7176109541188948,0.6379441063900787,-0.3091294467449188,-0.0441963635385036,-0.0613705888390541,-0.1509808350622654,-0.2978057194888591,-0.1771172199029475,-0.1257531195878982,-0.2190887629985809,-0.3204647836077958,-0.5998116731643677,0.0639213776273652,-0.1047793937843758,72
1724682208742135300,-2.5331062729775904,-0.7623708579301833,-1.8281426250077784,2.2963798760905862,9.48429903731942,-0.9721749072305856,-1.043437957763672,3.0626420974731445,1.0089757442474363,0.0374027649679641,0.2143356123576758,0.7096670847563181,0.670100037417112,-0.2379452586174011,-0.0084760216996073,-0.0944055020809173,-0.1395037477582693,-0.2257838548511266,-0.660249696170166,-0.0980164930224418,-0.2420122921466827,-0.1641205218162387,-0.6639555096626282,0.0881454717064742,-0.1147613562929444,73
1724682208781877200,0.1473904093548655,-0.5411199703335762,-0.1046411086916923,2.727147958870232,9.418071538174152,-0.1816157734312116,-1.4644078016281128,3.59513258934021,0.813458263874054,-0.0142861518754078,0.1844668192359806,0.6893705969733604,0.700382855727821,-0.3527853190898895,-0.1029077172279357,-0.1110878139734268,-0.4117980093717575,-0.2258744557440281,0.542529764066264,-0.0664644539356231,-0.2095815539360046,0.189678193453513,-0.6650539636611938,0.0183892378876975,0.0017999815020069,74
1724682208821619200,-1.786647854450345,-1.0631816044539213,0.7044505108159035,2.9940736791878937,9.308661315384509,0.7447897546626627,-1.4876210689544678,2.490386962890625,0.8652895092964172,-0.0629078906538576,0.1518630397267599,0.6625435150099552,0.7307640980715329,-0.8192022442817688,-0.1433022171258926,-0.0466614179313182,-0.0183650932520627,0.127514034757018,-0.177662542293407,-0.0234910193830728,-0.1854630261659622,0.0681981050984933,-0.6529501676559448,0.1163202305069658,-0.0185768819723743,75
1724682208861361200,-0.6454191337198019,-1.1653741509497164,2.587320093724132,3.178035577353835,9.158416393381357,1.4811762765087186,-0.7045469880104065,2.9156551361083984,0.8071824908256531,-0.1071151368291601,0.1245406765779501,0.6395081285568108,0.7510295036262118,-0.9047443270683287,-0.1891169548034668,-0.0282935295253992,0.0082598788231611,0.3335767055720091,0.1589367625027894,-0.0030378522351384,-0.1892978399991989,-0.0233244030097383,-0.5502581000328064,0.1230747097358573,0.1814322335578501,76
1724682208940844300,0.3725593471780419,-0.6281716463208198,1.547337578549981,3.4411049145042893,8.926474600422381,2.1557437633015213,0.5539173483848572,2.391727924346924,0.8550864458084106,-0.1949882487908021,0.0720363733335797,0.6204018172585746,0.7562353617064452,-0.3231877386569977,-0.1294997036457061,-0.0549306645989418,0.2562795308798551,0.4772551086664199,0.0013864859223365,-0.0391128584742546,-0.18897245824337,-0.0819805102027952,-0.5280906558036804,0.1236468562011607,-0.2672984443538822,77
1724682208980586200,0.5110632702440023,-1.159304475647211,0.7270718732729554,3.4612162669017907,8.873421055626869,2.335112342327833,0.6019807457923889,3.2541275024414062,0.6603601574897766,-0.2421690228477569,0.0364215116827306,0.616129759034049,0.7486064804187965,-0.0674888417124748,-0.0492372475564479,-0.0243366044014692,0.3968804262250661,0.339513109883666,-0.2603659416769631,-0.0495448671281337,-0.1720475107431411,-0.0558630857909098,-0.550306499004364,0.0712824444472789,-0.2425736068115569,78
1724682209020328200,0.3038166503414511,1.2056652448058127,-1.4689660526245831,3.3377640747562047,8.824842610418797,2.6742963663876056,-0.7516579031944275,1.687238097190857,0.2727157175540924,-0.2845045330798412,-0.0018600387037199,0.6030301551149422,0.7452572064412814,-0.1090378835797309,0.0170627869665622,-0.0824250802397728,0.422692328351736,0.0380734178066253,-0.2901718453432433,-0.0700080916285514,-0.1260621845722198,0.0626719255555421,-0.5166533589363098,0.0183937028586165,-0.1682046493247151,79
1724682209060070400,1.2638085139557718,-0.113241179254651,1.925331517997384,3.255396757192909,8.728476578119396,3.0637355366960164,-0.2359934747219085,0.9548420906066896,-0.0819919034838676,-0.2990019441545629,-0.0123507474068735,0.5862085139262949,0.7528644529911583,0.1107828915119171,-0.0093197114765644,-0.1412526369094848,0.1650631364285945,0.0078308397561311,-0.1564028601109981,-0.0602542571723461,-0.1364272087812423,-0.0194762054322753,-0.4209523200988769,0.0465266957434592,-0.1553868514688685,80
1724682209099812400,-0.5695438085243105,0.5562070648282766,1.5335446155190466,3.145255882041156,8.758135218802094,3.09399857301265,0.6793081760406494,0.7536947131156921,0.2498601526021957,-0.3110674383995626,-0.0285724531520456,0.5843231950178688,0.7489907673642465,-0.5067239999771118,0.0823861360549926,0.0168150924146175,0.1384270584374666,1.4324714284420013,-1.1695780323803424,-0.0482992567121982,-0.1351238340139389,-0.0189806838501594,-0.3307888209819793,0.0322690674929763,-0.1638497237845324,81
1724682209139553000,-0.3964724299460649,-0.2120937676727771,0.290194952224195,3.2608354411154985,8.789619905868172,2.877482897244393,0.8005388379096985,0.3844509720802307,0.6732997894287109,-0.324002410753075,-0.0353040259377089,0.5933319731871527,0.7360252429396675,-0.5889413356781006,0.1302910149097442,-0.0217836312949657,0.0465191745907068,0.3041016047626733,-0.7047077735126018,-0.0239733196794986,-0.1530765742063522,-0.0635552203292492,-0.3114157617092132,0.0621413623427972,-0.3576722322348505,82
1724682209219147300,0.6982602048084139,0.122943073579669,-1.065457440431416,3.5171804384469985,8.766427830851077,2.6362030748367307,0.3365350365638733,0.5891740322113037,0.3956418335437774,-0.3547052597786519,-0.0483165521471834,0.6027076950797436,0.713157130213541,0.0610315799713134,0.1057641580700874,-0.097032181918621,-0.1164414366006851,-0.2697048296421766,0.2678326790947467,-0.0088249873369932,-0.1417313069105148,-0.0530457816141657,-0.4199522733688354,-0.0230119829095667,-0.2894581989148631,83
1724682209298639400,-0.198072841104865,-0.4689344395667314,-0.938045989266038,3.6267192560523744,8.741948638632893,2.5681986291468144,0.2872765064239502,0.4162388145923614,0.4154962599277496,-0.3747798727638312,-0.0595041574786964,0.6045804929292995,0.7003441110622608,0.0819397941231727,0.0875106453895568,-0.1975365430116653,-0.6670885292142629,-0.5271814613521099,-0.3765103863587603,-0.0245809350162744,-0.125120997428894,-0.033441807916644,-0.4828355312347412,-0.0202864874854101,-0.1411788413636386,84
1724682209338384100,-0.876595787525177,-0.9768354463875292,-0.3479834165871143,3.7746272595405577,8.68137638877034,2.560524733518064,0.2631242871284485,0.6758600473403931,0.7920538187026978,-0.3888200227080089,-0.0616205953030567,0.6046920496326382,0.6923651481938101,0.0558437407016754,0.1320582926273346,-0.1658177077770233,-0.3873264159381389,0.0560386980861425,-0.446989734262228,0.0008771262364462,-0.1031025499105453,-0.0170266500058234,-0.5461845993995667,0.0157420923712896,-0.2009160651741549,85
1724682209378130200,-1.583807945074141,-0.8165905238956213,-0.5780009634852409,4.064949053014814,8.54148276491165,2.58643717340976,0.1144798621535301,0.5911197066307068,1.2388132810592651,-0.4095506121631963,-0.0588076518033979,0.6038791811635587,0.6812781638665621,-0.1560485363006591,0.0367273539304733,-0.0902315303683281,-0.9053490038007496,-0.1815729572027921,-0.709962552235648,0.0203193500638008,-0.095844991505146,-0.0650255349104059,-0.6416503190994263,-0.022354521364544,-0.0528450805434491,86
1724682209417876200,-2.0360221359863875,-1.5158967306256292,0.2809241427928209,4.520155996002257,8.287447213566303,2.656462019011378,0.3416224718093872,1.146539330482483,1.9491835832595823,-0.4404561714702071,-0.0519149560134878,0.6015504725262342,0.6644096893227698,0.0653895810246467,-0.0520119406282901,0.012476472184062,-0.8944465015143156,-0.0247936649948358,-0.4130067275743931,0.0048968456685543,-0.0526394136250019,-0.0596788812194019,-0.7675366997718811,-0.0808086534118279,-0.019076910766249,87
1724682209457622300,-0.835912479481101,-1.4172346963435412,0.2905672926679253,5.05659073112905,7.940086897313594,2.748871422639489,0.8289830684661865,1.5681519508361816,2.2321786880493164,-0.4852366230835259,-0.0506568471927691,0.5977294032857026,0.6361594299798254,-0.2243527621030807,-0.1458368599414825,0.1180710047483444,-0.9114420599788426,0.3997597810536623,-0.2221779758462682,-0.0252940244972705,-0.0737673640251159,-0.188899080573488,-0.8833001852035522,0.0253539657587185,-0.0212629244522657,88
1724682209497369300,-1.128242397907376,-1.258781917965412,-0.577430177859962,5.577268217414617,7.545208458560705,2.852071684873104,0.2658604979515075,1.348935604095459,2.2819056510925293,-0.528772687002525,-0.0486954360770349,0.5934758347200446,0.6048262523917285,0.0831912159919738,-0.2574662566184997,0.2544910609722137,-0.4705436283290385,0.2147211935669183,-0.1169791236739605,-0.0654061883687973,-0.2080679535865783,-0.2830151785216294,-0.9059947729110718,0.1409096507671289,-0.0480556634429842,89
1724682209537114400,0.0714303284853696,-1.053733392629027,-0.778054457013309,6.107555243566632,6.97025519220829,3.20682211137712,-0.5689408779144287,1.2680178880691528,2.3707141876220703,-0.5720967000754544,-0.0342944140449628,0.5790694784588253,0.5798343846267131,0.067359521985054,-0.3405124545097351,0.3627654910087585,-0.1054635309904813,0.525610851034522,-0.3746925598144531,-0.0855964869260788,-0.1990335583686828,-0.0175140465053438,-0.8267850279808044,-0.0336346681741997,-0.0527339300528634,90
1724682209576860200,-0.2142892318904399,-0.9651894322574138,-0.4034963372334837,6.471534686186909,6.277174143603443,3.858329040578008,-0.5583287477493286,2.3211498260498047,2.4930074214935303,-0.6209318595441476,-0.0210570051084091,0.5503058840432181,0.5578203942506653,-0.0234297756105661,-0.3594373762607574,0.3599334359169006,0.5912976674318313,0.0526560699105262,0.032113669151999,-0.1301144957542419,-0.1245124116539955,0.0142535525802755,-0.6902103424072266,-0.0633215485706925,-0.1417453800720628,91
1724682209616606200,-0.037779403296113,0.014420155018568,0.1058025536864995,6.664031772986054,5.531449300047755,4.600450014422834,-0.3672351837158203,2.9139928817749023,2.7077441215515137,-0.6752457457675931,-0.015106041777002,0.5149894567246848,0.5278265812966323,0.0532112084329128,-0.3802947700023651,0.4145337045192718,0.5522831693828105,0.1831371377795934,0.6059784461479634,-0.1639217287302017,-0.0421497449278831,0.0129508656340069,-0.5631654858589172,-0.0523035621118498,-0.1170344705903902,92
1724682209656352300,-0.4801999299466609,-0.3499693297073245,0.5743956324696541,6.60980509275794,4.674346440760791,5.5345595410227775,-0.5901183485984802,3.0296781063079834,3.04059100151062,-0.7352324568010661,-0.012235605070253,0.4665471817945756,0.4915458521571703,0.2600202858448028,-0.3482900857925415,0.3903239667415619,0.7490408362358808,0.0651373658210039,0.4260463149547576,-0.212921917438507,-0.0151116224005818,-0.18035992815122,-0.432671844959259,0.0839963800698518,-0.1954211027533747,93
1724682209696098300,1.441094295358658,-0.3579340249761938,1.75073716763556,6.533542521810531,3.79855115596354,6.249337457650899,-0.15825055539608,1.8880760669708248,2.643497943878174,-0.7847853513875828,-0.0024423997244035,0.4258714639618384,0.4502660312824449,-0.1444581896066665,-0.2994004786014557,0.3080434799194336,1.1152706881314516,0.1381786366343498,0.2344879703104495,-0.2246865034103393,-0.0062111681327223,-0.1630896261322311,-0.3793278634548187,0.1058918668046128,-0.4046958492163569,94
1724682209735844400,1.1516232734948395,0.3178177031651139,2.6840789247334,6.454605178695917,3.233381909261644,6.637296326273679,0.3163662850856781,1.4251205921173096,2.0331830978393555,-0.8174221644495481,0.0012196514599403,0.4019833214778869,0.412588193508848,-0.0078087365254759,-0.2374498695135116,0.2637477219104767,0.843249398240447,0.818922181713581,0.354733475369215,-0.2043432742357254,-0.0049035316333174,-0.2463846347333863,-0.3085539638996124,0.1537915085688233,-0.3710597197374329,95
1724682209775589400,1.0727151564747095,1.1538891726002096,2.272707031819224,6.234537363404035,2.882135691486299,6.999587085154652,0.4821411669254303,1.8789737224578853,1.716248869895935,-0.844845627624743,-0.0045457770082856,0.3782852432190203,0.378305927912857,-0.1855973750352859,-0.167064294219017,0.2556395232677459,0.9012497517883776,0.7509814489096402,-0.0657996291220188,-0.1930320113897323,-0.0691350847482681,-0.4142574217552319,-0.2582279443740845,0.2837395838060416,-0.4155809619765728,96
1724682209855081200,0.9591144962579012,1.1439897098764775,1.178780745011568,5.493857528278231,2.5894685039296745,7.699517561262845,0.3178508281707763,1.5195846557617188,0.6256966590881348,-0.8835180413145761,-0.0256799091413263,0.3267635305228645,0.3346073852877114,-0.255093902349472,-0.0737611204385757,0.1482073366641998,0.854234318113327,-0.0535164861321449,0.5920389873184263,-0.1843537092208862,-0.1041147708892822,-0.3829853179939091,-0.2568421363830566,0.2683103248101659,-0.4961295396801084,97
1724682209894827300,1.5064537794977426,0.6394172629565,1.1424398500859736,5.10588170852065,2.569561149671673,7.968544930034875,0.4987818896770477,1.32818603515625,0.772743284702301,-0.8973448155051638,-0.0384055456371267,0.3037141524484921,0.3178914766865945,-0.1766411662101745,-0.0070163435302674,0.2935956418514251,0.2125631387501955,0.3128349463164806,0.5166751187764108,-0.1642784476280212,-0.1174623593688011,-0.2836067329403013,-0.265276551246643,0.2158111624944023,-0.4452133357068523,98
1724682209934573300,1.7559654236778617,0.0316562442407011,0.5547714790672064,4.832727907468378,2.5983742794409395,8.127950479093194,0.4537990689277649,0.7233930230140686,0.3802856802940368,-0.9064262979927974,-0.0492357683380355,0.2883846394104854,0.3046335256342907,0.095732569694519,0.0650259405374527,0.3337970972061157,0.2141056920170783,-0.6309715061724186,0.3558079727329313,-0.1554934978485107,-0.0774835348129272,-0.1196420318734366,-0.2112987637519836,0.1189170512002892,-0.3265594106884673,99
1724682209974318600,1.4800047485113144,-0.2163198609352111,-0.038240006545186,4.718732694976032,2.7641990478917955,8.140217839992046,0.7896021604537964,0.2594022452831268,0.0973060950636863,-0.9097280451931264,-0.0623731983023564,0.284734903578519,0.2956865289230063,0.0091864923015236,0.0426798947155475,0.3279517292976379,-0.187067462965846,-0.385451854237914,0.1675192974090576,-0.1533307135105133,-0.0419099330902099,-0.1400731086114421,-0.1719911694526672,0.0898210676353424,-0.3220863569276407,100
1724682210014064600,1.1795797864347697,0.0410465883985161,-1.7219091325581073,4.6060085253328085,2.972205838511884,8.131486252003908,0.3973130583763122,0.1200883388519287,-0.2327570021152496,-0.9102878658600204,-0.0755418136589251,0.2823172506762508,0.2932003671093895,0.2949782907962799,0.0295804962515831,0.3025322556495666,-0.1015057332754135,-0.6201864927858114,0.0444328698359429,-0.1382275223731994,-0.0446098744869232,-0.1437972985000349,-0.1200111657381057,0.0911201036030892,-0.2486312994153238,101
1724682210053810700,-0.3886450973212719,-0.8654524622201919,-1.348127257847786,4.674565051947534,3.085775226807594,8.049647342228889,0.1872596144676208,-0.3464638590812683,-0.0387083739042282,-0.9076381721143316,-0.0798069045568334,0.2884667514430281,0.2942971921925616,0.3108379542827606,0.064441330730915,0.4191698729991913,0.0118956049770116,0.6073492230445147,-0.8128281026221811,-0.1187048405408859,-0.0220060423016548,-0.200011882876046,-0.1038875803351402,0.0986436035762541,-0.2104109839512966,102
1724682210133302500,-0.5028270645573735,0.2540025258585811,-0.8444196110635995,4.719015895831585,3.087554803700745,8.022984376230836,-0.312479704618454,0.3712126314640045,0.1240202561020851,-0.9066830479128548,-0.0789500314640677,0.2910472993892046,0.2949308326449382,0.849406361579895,0.0559781230986118,0.2349464893341064,0.2758949164539575,-0.1172474922865629,-0.2825227736284956,-0.0689176842570304,-0.0220125000923872,-0.0940400553035549,-0.1047772169113159,0.0576794236310292,-0.1568673175512813,103
1724682210173048600,-0.295569923260808,0.2571817404165863,-0.9709428812175988,4.600793421033025,2.9009193024113773,8.160131331729888,-0.6051666140556335,0.4618005752563476,0.2607281804084778,-0.9108404056406104,-0.0717859513380344,0.2807059917346761,0.2939737181831491,0.6380813717842102,0.0326863266527652,0.2191880941390991,0.3321487185955047,0.3866986394286155,0.253066432318557,-0.050095796585083,-0.0104383947327733,-0.123338173844479,-0.1149288043379783,0.0797125470045022,-0.2498894645165651,104
1724682210212793600,1.01410602337867,0.1830576428025961,-0.9288204802811144,4.5027331520363685,2.632822784748673,8.304457969599962,-0.7286708950996399,0.3538056015968323,0.2083714753389358,-0.9154637098505444,-0.060454771833755,0.270066099995815,0.2921227673329065,0.6522320508956909,-0.0545915327966213,0.16883485019207,0.1552466758131981,0.179670922973752,0.3470703933954239,-0.035973697900772,-0.0163675975054502,-0.1669895744465291,-0.1135424226522445,0.075311439668457,-0.1908438579657115,105
1724682210252539600,0.5879615087464451,0.3123769734159112,-1.0123404750108718,4.439413064770401,2.353267299960553,8.421646425175666,-0.9775837659835817,0.0803618729114532,-0.0991976261138916,-0.9175497992007328,-0.0464191291026971,0.2616501245574459,0.2957819339847107,0.6345651745796204,-0.0764913484454155,0.1816948652267456,-0.0404243648469448,0.1235445466041565,0.1739215839331038,-0.0244137737900018,-0.0265439767390489,-0.1602685590958222,-0.10972411185503,0.1360986154899001,-0.1953238894565962,106
1724682210292120300,0.6983952293649316,-0.3001736176639795,-0.7241068859875202,4.439112620519102,2.024148450580239,8.50690829513669,-0.9708606600761414,-0.2674055695533752,-0.1090720668435096,-0.917646275231867,-0.0280401928712164,0.2558947756201111,0.3027489229906858,1.1629868745803833,-0.0025472394190728,0.2793721556663513,0.0607452683418989,-0.4557511328667402,-0.0974737012803554,-0.0431876070797443,-0.0131779853254556,-0.0574693017114186,-0.0842006057500839,0.0011687589391163,-0.0703582468410255,107
1724682210331860200,0.7025839132264257,-0.7345267193235456,0.1429354757726192,4.501961583141982,1.740241200323403,8.536644092708826,-0.8716456890106201,-0.1040633469820022,-0.2229300886392593,-0.9156593292391014,-0.0105036521631169,0.2542478323694372,0.3111524579219264,1.199087142944336,0.0342986583709716,0.3492472469806671,-0.1181049858987331,-0.098666125935316,-0.1443306564580649,-0.0513997711241245,-0.0151846138760447,-0.1125650700913742,-0.0806711316108703,0.0294291770250885,-0.0561711333933519,108
1724682210371600400,-0.1936708067536354,-0.3066780311219394,0.7653267851263285,4.463729175381363,1.496147197277844,8.602734813731908,-0.7116525769233704,0.2391175925731659,-0.0287508461624383,-0.9152747988435144,0.0026308503913769,0.2477411218020112,0.317630873291931,0.7884197235107422,-0.0143768405541777,0.3693033754825592,-0.1295306352764368,0.1176496433466672,0.0133919079493731,-0.0348124839365482,-0.0429798401892185,-0.1134002879396546,-0.0740915685892105,0.0666930845301365,-0.0431379940200829,109
1724682210451079400,-0.4992848619058728,-0.1237522710707038,0.9704062901228666,4.423381382901966,1.2023401920363306,8.669397781684994,-0.0488464795053005,-0.2718997001647949,-0.0739406198263168,-0.9187288108072102,0.0151431707472806,0.2403214494926307,0.3129756328972208,0.6646410226821899,-0.2226065844297409,0.6453787088394165,-0.3000134586662054,0.5365022474050521,-0.6922029505960643,-0.0103519381955266,-0.1109863892197609,-0.0934647396336309,-0.1325799822807312,0.1100466940622776,-0.0391481845984002,110
1724682210490815500,-0.7759191985502839,-0.058464171667397,-0.1307160456687212,4.515362624245882,1.225338132720813,8.618609259212016,0.1087348014116287,-0.2798168063163757,0.0855466276407241,-0.9190294184771276,0.0143404644822345,0.2456981009632545,0.3079151503320711,0.7509503960609436,-0.1498366594314575,0.608428418636322,0.2357414775028824,0.1768278085023164,-0.0045665772631764,-0.0323854349553585,-0.0559076927602291,0.0270523648911505,-0.1568553000688552,0.0001274223470187,0.0013693087419611,111
1724682210530555400,-0.0523313680008053,0.2285551461953669,-0.7875421240657567,4.639023198445141,1.2211340320944786,8.553284846386314,-0.032020803540945,-0.4174271523952484,0.0754853338003158,-0.9195210208128556,0.0148859891953567,0.2523533966155909,0.3009608346361254,0.7752969861030579,0.0252109952270984,0.657150149345398,0.5090352715477348,0.4801473229765892,-0.5959273730590939,-0.0497281737625598,-0.0409709550440311,-0.1283849906389601,-0.158452570438385,0.0688987139487871,-0.0152191553425742,112
1724682210570295600,-0.4448775644138455,0.1623915060665458,-1.212166297262907,4.833448915219306,1.185693666205183,8.44998755351901,-0.1219249442219734,-0.7507657408714294,0.0708704590797424,-0.9183917971182204,0.018617368669842,0.2623431657498271,0.2956112559271792,0.7073171138763428,0.0759634971618652,0.6593608260154724,0.0841159147962927,0.184973121035099,-0.1837792350754141,-0.0246833954006433,-0.0696939975023269,-0.1761601383738219,-0.175954595208168,0.0453088717857608,-0.1408346036363858,113
1724682210610035500,0.2045651257336139,0.3020888767007738,-0.7706523640632629,5.077492649382353,1.0881941728964448,8.318971648120879,-0.3731665015220642,-0.4582006335258484,0.1350345760583877,-0.9164318316399848,0.0263155975130957,0.274149569261351,0.2903484853240931,0.2970955073833465,0.1919054985046386,0.6152833104133606,0.3521723927095532,0.1668055961817502,-0.5629840116173028,-0.0236736983060836,-0.0631864443421363,-0.1732630469591356,-0.1666630953550338,0.0176393408273579,-0.0615372178706107,114
1724682210649775600,0.7657353659272194,0.1319903764534741,-0.0757604666441679,5.140909767282009,0.854271069927141,8.307325049468874,-0.7263423204421997,0.0246144998818635,0.2159957289695739,-0.9177301962298192,0.037655346469901,0.2739094193870019,0.2851787646880009,0.0255710575729608,0.0867658630013465,0.5658357739448547,0.1166612168312072,0.312759542992711,0.1331295365512371,-0.0201458167284727,-0.1052109599113464,-0.2356115309802815,-0.1704580783843994,0.1035081591390073,-0.1773414023139514,115
1724682210729254700,0.2669844647675752,-0.3011415859133005,1.1972060440182686,5.335597642123699,0.4721774035433307,8.21455031965971,-0.2841212153434753,-0.3861173689365387,0.0424345917999744,-0.9154961609899194,0.0601166384101479,0.2784968439680607,0.2840638980136825,0.3450978994369507,-0.0662631541490554,0.4931329786777496,0.122137310154736,-0.1730301697850227,-0.0280023979082703,0.0162893217056989,-0.0891905650496482,-0.0841900942773558,-0.1511509120464325,0.0416694512709043,-0.2160170968626625,116
1724682210768994600,-0.8575023799985647,0.0052304479993879,0.2054290490865707,5.485943101891875,0.415550530305691,8.118013022446632,0.0212573297321796,-0.60221928358078,0.1613671034574508,-0.9133564455747472,0.0652197232205962,0.2860820118523071,0.2822828161951787,0.3477259278297424,0.0110219931229949,0.4607323706150055,0.1915101215884089,-0.2795499318301677,-0.1528358152791857,0.0145110851153731,-0.0012721765087917,-0.0965974573019426,-0.1312432587146759,0.0623426707682898,-0.2407349749412387,117
1724682210808734700,-0.5031085118472576,0.2306697637291625,-0.4013829983413219,5.684758870318531,0.3943665802406146,7.9811261791884895,-0.0052984696812927,-0.5720860958099365,0.1508206576108932,-0.9106961884835398,0.068811337167117,0.2972218218534767,0.2784900578555593,0.0371582061052322,-0.0113549530506134,0.4374178349971771,0.0284355286285281,0.4883505031764507,-0.0318511822909116,0.03207628428936,-0.021765986457467,-0.2099977452415972,-0.117156408727169,0.1290357552984263,-0.2838729643947444,118
1724682210848474600,0.3875432735592126,-0.0515950165502727,-0.672910951757431,5.824362571319937,0.2970007232489064,7.884096130022406,-0.2367092370986938,-0.2509036958217621,0.3402434587478637,-0.9092617071998672,0.0750311131229466,0.3039626388568144,0.2742631159161209,-0.0859549343585968,0.0411889478564262,0.3436081409454345,0.507865350985527,-0.0386556016087532,0.0300923559248447,0.0402770042419433,-0.0210706740617752,-0.1735828169654123,-0.104165032505989,0.0637764481647638,-0.1934713203924708,119
1724682210888214800,0.8581851015657186,0.3812512607429176,-0.0926151553332805,5.7813850148588415,0.1306590639176312,7.92015820800662,-0.3486225605010986,0.2700605094432831,0.2731340229511261,-0.9114173222330212,0.0814808447353775,0.2992410039612606,0.2704335656724647,-0.062516450881958,0.0112374424934387,0.2894418239593506,0.0525596237987279,-0.3647282151609659,0.1201344458997249,0.0456441529095172,-0.0202385727316141,-0.156508183648996,-0.0782342478632927,0.03066164599607,-0.1258447224384639,120
1724682210927954700,0.2622498374611139,-0.064811727762944,0.375121598881483,5.7813137031883,-0.0285620958839543,7.921236066371202,-0.2564437687397003,-0.2309453040361404,0.1485582739114761,-0.91197865338989,0.0890755440965046,0.2969762631181833,0.2686367332479407,0.0872112587094307,0.0208218377083539,0.2604522705078125,0.1835699762389063,-0.1666349157899618,0.0744987761452794,0.0506022348999977,-0.0369253456592559,-0.1692552543561905,-0.0707810223102569,0.0743411378981545,-0.1459923151931259,121
1724682210967693800,0.7472901931762694,-0.0549585929655469,0.6686410193532705,5.767182886505126,-0.1053032441285438,7.9308824311167,-0.0837231501936912,0.3205649554729461,0.1755516231060028,-0.9127961178605836,0.0921563935449727,0.2952028459363524,0.2667691995035811,0.1569019258022308,-0.0274746399372816,0.2167754173278808,-0.0143365683883428,-0.2043395002841949,0.0888788914144039,0.048986192792654,-0.033077236264944,-0.1874686276452615,-0.0626260340213775,0.0635881727507803,-0.0530813187184277,122
1724682211047174000,0.1014706619620323,0.0481190932011697,0.2990869914710521,5.721078137934208,-0.1163537674503866,7.964051125746965,0.1467224806547165,-0.0702597349882125,-0.0102227116003632,-0.9141002382922304,0.0914502063578539,0.2925461513516019,0.2654701276835643,-0.1544066965579986,-0.0104112345725297,0.2547614276409149,0.0216533211424946,0.4040004873633384,-0.1429766845658421,0.0262428652495145,-0.0466735325753688,-0.1159576899380423,-0.0789605006575584,0.0713563316673971,-0.1270056651097722,123
1724682211086913800,0.2602314833760261,0.1122654295576736,-0.2392874795466661,5.758192355319857,-0.0814400009847711,7.937693280175328,0.0535266697406768,-0.1158807501196861,-0.0060728671960532,-0.913618467546192,0.0900568720517278,0.2952626539243241,0.2645960667978158,0.1941225230693817,-0.2265039086341858,0.5653180480003357,-0.8558988903246819,0.4842722939521074,0.4190881663799286,-0.0011302010389044,-0.0264434199780225,-0.0794430367475841,-0.0630578100681305,0.0958527764144819,-0.0469263945515733,124
1724682211126654000,0.3811982884466648,-0.1040214241570793,-0.1359556998878717,5.795392497423291,-0.0707553792327176,7.910676093912124,0.0430884063243866,-0.0889059752225875,-0.0016145284753292,-0.9129914402064628,0.0900525731140198,0.2975874529929921,0.264156661703243,0.5663637518882751,-0.5165860652923584,0.7796682119369507,-0.7154715979807078,0.2328513090193271,0.7729153405591845,-0.01835154928267,-0.0153378071263432,-0.060258553404035,-0.0492577366530895,0.0549596341451629,-0.020258747811825,125
1724682211166394000,0.0365296954959631,0.0484896435466129,-0.486100678423047,5.8102598116874695,-0.054026248585456,7.899895172178745,-0.0093178013339638,-0.0101007279008626,-0.0073749744333326,-0.9126823924656288,0.0894747302733843,0.2986832981404146,0.2641843026249352,0.8323245644569397,-0.4155113697052002,1.01565420627594,-0.1110327094249427,-0.1893885993897914,-0.2271460831150412,-0.0283109340816736,0.0175182912498712,-0.0974245557758491,-0.0494275577366352,0.0359721871940768,-0.0879825636291876,126
1724682211206133000,-0.1461982769608497,0.1787269566545263,-0.2483212653517723,5.814171432173252,-0.0976234028161969,7.896598468720913,-0.1472925394773483,0.1545813679695129,0.0720465779304504,-0.912642865655237,0.0917375792411347,0.2982779751961188,0.264002861816047,1.6845569610595703,0.1284700036048889,1.162043213844299,1.161594340150058,-0.9864245279878378,-1.5039321520656346,0.0029534508939832,0.028599040582776,-0.1154060656709596,-0.0536062344908714,-0.0239084020263282,-0.1290387235736474,127
1724682211245873000,-0.0203226570606231,0.1273953768134117,-0.0158592479109764,5.796633437395095,-0.1658522957785986,7.908345020616054,-0.1599314510822296,0.0872632637619972,0.082079105079174,-0.9130755548416548,0.0948159202751582,0.2963048586306642,0.2636405808709366,0.2146027684211731,0.2100570052862167,0.4010292589664459,0.9569777764901518,0.7330114924550056,-0.4202610095515847,0.007354125380516,0.0234410371631383,-0.1579386548435315,-0.0517035759985446,-0.0075725621376361,-0.0940263281723018,128
1724682211285613000,0.1176747777879238,0.0759342157758772,0.2682300809144973,5.783283541956544,-0.20881238964824,7.917095897826551,-0.0885552763938903,0.0970554277300834,0.0820210203528404,-0.9134370560455252,0.0966553482538413,0.2949545518154668,0.2632341402192202,-1.1773369312286377,0.1772567182779312,0.1438214480876922,1.1684558234173803,-0.7425292623847722,0.1736877569109201,-0.002675307681784,0.0049674166366457,-0.2196276703089475,-0.0725725963711738,0.0091528667279315,-0.082466686284542,129
1724682211365188600,0.7123404603481293,-0.0238279800341464,0.1898357586354017,5.724470702981948,-0.2304063087536953,7.959128866913915,-0.0052121980115771,0.1753856688737869,0.0611161217093467,-0.9149924671426668,0.0962556813579392,0.291431313725018,0.2618996897417965,-1.1423087120056152,-0.2001024931669235,-0.0188552197068929,-0.1797676613464951,-0.4992746327728032,1.0837675886258482,0.0220434181392192,-0.0212004240602254,-0.0373498756053159,-0.0483096800744533,0.0127674604746745,-0.0670461266183527,130
1724682211404932400,0.1921206547021865,0.098396496947389,-0.2527162854403257,5.705097309470176,-0.2164604749822989,7.973418089029193,0.0124340075999498,-0.1044494360685348,-0.124552384018898,-0.9152324855561216,0.0953552074196634,0.2904758150353085,0.2624513531523689,0.0432888008654117,-0.2370743602514267,0.145111545920372,-0.9000405221290886,-0.1533972485542297,-0.371057710443437,0.0378711782395839,-0.0340149961411953,-0.0643025178654817,-0.0414651855826377,0.1023957774503156,-0.0787378202208317,131
1724682211444675600,-0.4533294586777687,-0.2386274082027375,0.0942085620045661,5.726109702360629,-0.2090882839801721,7.95853849980533,-0.0261265337467193,0.1308203339576721,0.0815335065126419,-0.9146101330301812,0.095591453164678,0.2917014522370074,0.2631744716968448,1.4692786931991575,-0.6664003133773804,0.6996577978134155,0.793028081196174,0.247413502857089,-3.56455798343271,0.0174813009798526,-0.0168008934706449,-0.0672114184489706,-0.0077866902574896,0.0433000801134621,0.1181884446647949,132
1724682211484417000,-0.2920703907072544,0.0716371944353915,-0.2171785235911607,5.692940423208475,-0.2450671406603418,7.981275232270359,-0.0867933258414268,0.0628429278731346,0.0767603889107704,-0.915533043782119,0.0965184367229693,0.2894000661687258,0.2621660454164439,0.3973230421543121,-0.3322952687740326,-0.0022641913965344,0.4073131190426647,1.0996569394141436,1.62849522806257,0.0023609495256096,-0.0160679295659065,-0.11890276694661,-0.0349854193627834,0.1163985747064929,-0.073013579088822,133
1724682211524160500,-0.1195183598279952,0.0136878769549541,0.0874620103538036,5.678555339503288,-0.2783967249407433,7.990425337931513,-0.016798548400402,0.0449762642383575,0.134456917643547,-0.9161179055688534,0.0976118740907024,0.2882249476665659,0.2610103796674724,0.1745373755693435,-0.1876064091920852,0.1864151209592819,0.5414229718681425,-0.0160953947544097,-1.4285940024867654,0.0165694914758205,-0.0209622383117675,-0.1259354329292196,-0.0630722939968109,0.0381141082933289,-0.0607483736144378,134
1724682211563904000,0.3754594525337219,0.135128875408601,-0.0234071790724992,5.651494314098358,-0.299730166479107,8.00881790371239,0.0109839178621768,0.0797229185700416,0.0893993750214576,-0.9171942966039888,0.0975979860506127,0.2865982771783873,0.2590187596476069,0.7607694268226624,0.091863103210926,0.055958766490221,0.7413549579083919,0.0028209026396274,-1.232052316471934,0.0641669258475303,-0.0313257798552513,-0.1702182541694492,-0.0749452114105224,0.0623528496690094,-0.1258516910353675,135
1724682211643391000,0.1877788261055946,-0.1695594979997724,-0.1628536436855792,5.659010681077838,-0.3100290220502764,8.0031158926785,0.0184252336621284,-0.0906247198581695,0.0368633940815925,-0.9175180113843218,0.0977301315453609,0.2870600600625729,0.2573052997137302,-0.6437888741493225,0.4821766912937164,-0.6717265248298645,0.6596781068272888,1.922941407990456,0.8795382707178592,0.0105047225952148,-0.0368962176144123,-0.0216340410532895,-0.0721918940544128,0.0716777456414885,0.0188615738154039,136
1724682211683134200,0.1825292350143194,-0.1361777451407164,-0.2741846054047346,5.717233152943849,-0.3012129523827694,7.961966136166453,-0.0322137959301471,-0.0019471941050142,0.0511703640222549,-0.916564363134746,0.0981096971882278,0.2905635822333953,0.2566263288105872,0.5054412484169006,-0.2029458433389663,-0.1819639056921005,-2.4523145341679453,-2.3389327773988247,4.142502540555596,-0.0390518382191658,0.0389654263854026,0.0991666593359783,-0.0546597279608249,0.01975930353984,0.0483789908129489,137
1724682211722878000,-0.0891857654064893,0.2369122017826885,0.0826221691071987,5.657051363703609,-0.3524323222873732,8.002746474844217,-0.1424466669559478,0.2980004847049713,0.044439923018217,-0.9177726080316684,0.0995929432240138,0.2864519725573418,0.2563593013558152,1.575516939163208,-0.4024472534656524,0.3146548867225647,0.9726659786831588,2.523641110017896,-3.2195594278752804,0.0031376362312585,-0.0290816128253936,-0.218649107600376,-0.0600316263735294,0.2324075473072007,-0.1225743955309037,138
1724682211762620200,0.1043254668712616,0.127370899959281,0.2210942357301712,5.608987882280349,-0.3973171736745163,8.034412363696099,-0.0314000323414802,0.1210387498140335,0.0152362277731299,-0.9186147684017952,0.1010948744467281,0.2830879784321172,0.2564916643499882,-1.0964796543121338,-0.3889889419078827,0.1027780771255493,0.0657640463519841,3.4195255353808403,0.5736386766225099,0.0272688325494527,-0.0144320148974657,-0.0116282501445617,-0.0560813024640083,0.0644164174355799,-0.0441808130373246,139
1724682211802364000,0.0678892948776483,-0.0769161394853144,0.0617523995578289,5.617591459974646,-0.3754383001478388,8.029452110940218,0.0678426772356033,-0.1125075072050094,-0.0672259181737899,-0.9183042096205032,0.1003080924144979,0.2838136116363909,0.2571099978891603,-0.391158789396286,-0.1699238270521164,0.2917588353157043,0.5782002123843878,-2.923803626653552,-0.7463608033716678,0.0147993862628936,0.0112778581678867,-0.0332061862295959,-0.0337298884987831,0.0550870599171146,-0.0188894390698638,140
1724682211842107400,0.0133574942231178,-0.1345865304265171,-0.0653618222266435,5.656860225045681,-0.3312352935450151,8.00378633928597,0.10084118694067,-0.098243124783039,-0.0043038479052484,-0.9175868526586048,0.0987322061829728,0.2866572999636162,0.257126101734863,1.4657808542251587,0.2655757069587707,0.0301882233470678,0.6349964508395641,-0.5235866517305374,-1.591894805417955,0.0079579288139939,0.0083575621247291,-0.0630197526125237,-0.0178032796829938,0.0682469629086321,0.0330556512934039,141
1724682211881850600,0.2507587216317653,0.0375945482484996,-0.1898977179557085,5.667409091588855,-0.3159204912416636,7.99694041891396,-0.0161798000335693,0.0501991994678974,0.0090299984440207,-0.9175067290831348,0.0980066648490494,0.287513846192005,0.2567330717093132,1.1468710899353027,0.3263223171234131,0.1546494513750076,0.4038235233612358,-0.8880074083775281,-0.0212613992154598,0.0036843712441623,0.010340099222958,-0.0543447034174809,-0.0125690354034304,0.1125071750248316,-0.0084907307202578,142
1724682211921594000,0.3188426622986793,0.0627091522933915,-0.0818728120446205,5.634189543554187,-0.3468709983658045,8.019100228273867,-0.066315047442913,0.1221465021371841,0.0185394175350666,-0.9181478793778222,0.098982964870027,0.2852052550500794,0.2566414845933147,-0.2722795605659485,0.3367766737937927,-0.1849626302719116,0.0156339877877384,2.6049428441762923,-0.174849786427617,0.0042735580354928,-0.0019825366325676,-0.041130170462164,-0.0052342442795634,0.0950736087355297,-2.08977992006e-05,143
1724682211961337600,0.4008241954147815,0.0315611863683909,-0.0584732317566871,5.616553349098563,-0.3637566667150705,8.03071584726572,-0.0129117481410503,0.0347504988312721,0.0124537674710154,-0.9184337125017537,0.0995809812476397,0.283956116296081,0.2567724264075107,0.4539365172386169,-0.127902016043663,0.1033563762903213,-0.7173267973933368,-1.9867039783269165,1.451784031677246,0.0024350613821297,0.007422643713653,-0.039643607999105,-0.0095688411965966,0.0523007080010604,-0.0254094907716615,144
1724682212001081300,0.2082441065073013,0.1777511704249307,0.0880161371052265,5.641089239940047,-0.3534257537715137,8.013961696341633,0.0088155651465058,-0.0267768073827028,-0.026852635666728,-0.91791335813366,0.0995478145876119,0.285467849100576,0.2569696376405025,0.5447695255279541,-0.3537051975727081,-0.300856351852417,-0.4017714131370186,-0.0079050740361213,1.557833838123083,-0.0016518858028575,0.0324811227619648,0.0489699972423492,0.0016533812740817,-0.0135494891142821,-0.0284923414162592,145
1724682212040824600,0.1334673902034759,0.3445874540058896,0.2318085219681263,5.662745775952935,-0.3457845913685858,7.999007872837781,-0.0412550643086433,0.0639600604772567,-0.0478581711649894,-0.917285598604068,0.0997785792474384,0.2867199499375009,0.2577265582266165,1.7643966674804688,-0.4813916385173797,0.2836893498897552,0.2978383796494454,0.8613426888138055,-1.741111845678091,0.0297957975417375,0.0096482094377279,0.0360671103523578,0.0294182915240526,0.0213813586335862,-0.0447473471791716,146
1724682212080567000,-0.0624766221791505,0.6454904453903436,0.5084931274950504,5.6198675882130855,-0.3448684994369745,8.029230577144027,0.0251762568950653,0.1805936247110366,-0.0291261952370405,-0.9179809694172384,0.0991179325132872,0.2842513298048891,0.2582396909838043,-0.1287506073713302,-0.6666450500488281,-0.066376194357872,0.8225366458836942,2.147653249695897,2.8969895617470143,0.0421575754880905,0.0087756151333451,0.1386824945032596,0.0566040240228176,-0.0817936001954134,0.0808959755022544,147
1724682212120310500,0.1483300282925367,0.2562814671086147,0.206122292047739,5.633517343381047,-0.3016217158467508,8.021402075475454,0.1649499386548996,-0.1283109039068222,-0.0421630404889583,-0.9177141198752374,0.0971833009488516,0.2856181518320894,0.2584151572302558,-0.1213299632072448,-0.2960800528526306,0.1354789733886718,0.7456487095795571,0.0028846155256032,-0.8171461119517683,0.0474033281207084,0.0134388403967022,0.0345731043683597,0.0671374797821044,-0.2107465360485948,0.1403276130954734,148
1724682212160054000,0.4059498678654432,0.4011600763056427,-0.2720750659048557,5.666194455102086,-0.2308725014933385,8.00070766249299,0.118766464293003,-0.0858775377273559,-0.049781072884798,-0.9172586788589708,0.0939832603526161,0.2885213853382727,0.2579903716088071,0.651547372341156,0.1573053151369094,0.0757999122142791,0.4444842542473226,-1.1454776103466748,-1.0477706848323345,0.0552284196019172,0.0243162140250206,-0.1611230205006897,0.0504577234387397,-0.1883034893005155,0.2536192804283462,149
1724682212239540700,-1.1038690041512251,0.6484213842757046,-0.0247527484625577,5.678739463898539,-0.1350148205748759,7.994002027374505,0.2924692034721374,-0.1470781564712524,0.1043842211365699,-0.917628288643926,0.0886306185539534,0.2907987795505309,0.2560056229683128,0.0305900499224662,0.3290549516677856,-0.4379071295261383,0.0587793020311743,0.5283014052927494,-0.1386094292670488,0.0867829993367195,-0.0756157785654068,0.255048472981248,0.0032943128608167,-0.5089332724779844,0.2329431520212441,150
1724682212279284500,-0.7796931641310453,0.9975084512557834,-0.2886667197436094,5.735540963050723,-0.1008799295272678,7.953852972337603,0.0788098350167274,-0.1036934703588485,0.2135592848062515,-0.9177641234856562,0.0864256769376146,0.2949524602046328,0.2514810029269965,-1.5169755220413208,-0.2268159240484237,-0.6753216981887817,-0.3970364205043762,1.8102666304469108,1.2739517223075032,0.1109281852841377,-0.0549270510673522,0.1964884031913243,-0.0606229938566684,-0.5690049889398738,0.1898330186890438,151
1724682212319028000,0.9680267015099524,0.7107798599679023,0.1071095446318387,5.7246641797274345,-0.1505367993555031,7.960900552761554,-0.0441629588603973,0.2212929874658584,0.1680147647857666,-0.918998502390168,0.08758121230899,0.2940009571230731,0.2476582482694287,-0.1574770510196685,-0.5690562725067139,0.4076176881790161,-1.931898329167068,-0.8849106114059686,0.0358867214173078,0.1263762563467025,-0.0297204162925481,0.3071193816812709,-0.088167019188404,-0.558776330794394,0.1465661421588621,152
1724682212358771200,1.301888069242239,0.5709664617385715,-0.0426402873307466,5.616006821131706,-0.1923834520905278,8.037029268196225,-0.0898761227726936,0.3083995878696441,-0.0253953542560338,-0.9212444546422024,0.0877188537087898,0.2872820293122594,0.2471497498341698,-0.8922615647315979,-0.4112072288990021,0.0707700029015541,-0.0790559279929846,2.1239690072476862,0.4052233071565628,0.1421998143196106,-0.0757576078176498,0.2788323033464141,-0.0169979389756917,-0.5680260974377394,0.5723133828354999,153
1724682212398577000,0.0692424630522727,0.2050819344156421,0.107732060444355,5.555036511862277,-0.1881727938592433,8.0793901540637,-0.0065127136185765,0.0898882523179054,-0.1032698154449462,-0.9217117674903886,0.0872683577374007,0.2836370435794166,0.2497633209230307,0.9682797789573668,-0.3897360563278198,0.9106249213218688,-0.1747983485013246,-2.538586750215292,-0.0326011238753795,0.0937172472476959,-0.079804889857769,0.1467231228188611,0.0440671630203723,-0.4978283429546281,0.6305492621723562,154
1724682212438322700,-1.0788093816965818,0.5080168517528102,-0.2368652208358049,5.535166274744272,-0.1617554183864034,8.09358702172041,0.0657841265201568,-0.0350589416921138,0.0354435071349144,-0.9219149750203486,0.0857793093287468,0.2828140734106604,0.2504613644122104,-0.7108156085014343,-0.3691668808460235,0.150036871433258,0.8739865548748522,2.032518804040551,1.0137132246688008,0.0658512189984321,-0.0734007358551025,0.1729963771132752,0.0196187663823366,-0.5414440877214074,0.6513814761903136,155
1724682212478068500,-0.6205290226131678,0.4430195885222405,-0.516893876093626,5.5672483431816095,-0.1851940337767824,8.071049026697873,0.0157793741673231,-0.1034622490406036,0.2478142231702804,-0.9221658962325412,0.0865396352292479,0.2846083624487392,0.2472226469953818,1.0359176397323608,0.2003790885210037,-0.0553359314799308,1.477370746745914,-1.8127257140368225,-0.7615873063370585,0.0249967314302921,-0.0536631383001804,0.0089319585528253,-0.0328739546239376,-0.5343057602740824,0.5430499520154669,156
1724682212597306000,0.6975204923570155,1.2097681500799953,-0.257106044831872,5.5122898415476085,-0.340373635703139,8.103653073182702,0.0350745096802711,0.1179436445236206,0.108190543949604,-0.926292581387696,0.0898831832733859,0.2806237539154917,0.2348479040053753,0.7984832525253296,-0.3646426498889923,-0.4878916144371032,-0.5535964439384639,3.2208617426455017,2.327857256633043,0.0595639981329441,-0.0837776437401771,0.2065621813023462,-0.001990414224565,-0.5964066079434007,0.5291962717732415,157
1724682212637052000,0.4312140729814767,1.490094034718722,-0.5575234081238508,5.433233255967497,-0.3809800791187211,8.15507346381843,-0.155191034078598,0.2572589814662933,0.0798874124884605,-0.92802147246626,0.0903457161093127,0.2757619087608712,0.2336007414047783,3.727410078048706,-0.1357867419719696,0.1368221938610077,-0.0532700370904058,-1.9324030638188123,0.6136795951098203,0.0342690460383892,-0.076542817056179,0.312701638793014,0.0059551829472184,-0.5418569063059986,0.302623695963528,158
1724682212676797700,0.4213689707934856,1.3708441165685652,-0.3086182054042816,5.388460632783175,-0.4222913828680291,8.182697968325018,-0.1767241209745407,0.0721842423081398,-0.1087421327829361,-0.9283605112452868,0.0922623197490841,0.2725548909659803,0.2352620639464583,4.162877559661865,-0.0882166549563407,0.2428376376628875,0.5804303095240145,0.3505336855918168,0.1083037228524684,0.0578524991869926,-0.0015191460261121,0.4419218564134091,0.0645720437169075,-0.6480195254765451,0.3048097164994106,159
1724682212716542500,0.832478997901082,1.3101713289409875,-0.4278869743853807,5.426262832432985,-0.3379758538464084,8.161606664979457,-0.1144282519817352,-0.098772145807743,-0.4247965216636657,-0.9261392960997278,0.0903949454304128,0.275141075335357,0.2416445412160284,2.682945728302002,-0.28538379073143,0.2836889922618866,0.2375087794363498,1.3311305303394794,0.357551455399394,-0.0087792407721281,0.0578397288918495,0.6064899393340573,0.3615593314170837,-0.7330499247692525,0.5443976768299937,160
1724682212756288300,1.855498103314638,1.240486382818222,-1.2613976534217597,5.599147456267476,-0.2034978252956643,8.048510447153449,0.0206819865852594,-1.15806245803833,-1.060686111450195,-0.9196597603332712,0.0901756919963984,0.2854969630144226,0.2541373909629452,1.839400291442871,-0.3905430138111114,0.0631580278277397,0.4981780697077512,1.808634645330906,-0.0834714794129133,-0.0045630177482962,0.1253294050693512,0.5605446921737864,0.5026894807815552,-0.6720193366799503,-0.0271195643588667,161
1724682212796034000,1.844479865694046,0.9129900931384414,-0.2884387562066316,5.958672257566452,0.1292359266461804,7.787676906231045,0.0083842948079109,-0.7740928530693054,-1.7864257097244265,-0.9053814368436162,0.0875374842878594,0.3086683652576303,0.2781108186551705,0.9994139671325684,-0.2847573757171631,0.1631737053394317,0.8812127798013388,1.2470900188669565,1.013604795858264,-0.0082946605980396,0.1423110067844391,1.067023228443414,0.5252777338027954,-0.6468599801778793,-0.2565982779728248,162
1724682212835779800,1.4942068768650292,0.1531989129705354,-0.7357254275888204,6.159906193050742,0.5571307555444538,7.610226581916213,-0.3286719620227813,-0.8434720635414124,-2.0685348510742188,-0.8890220249085689,0.0820836744677973,0.3244205711904602,0.3124954683299075,0.7003279328346252,-0.3595791757106781,0.2089314758777618,0.6606197715915739,1.526163857617974,1.4590952314734458,0.0621885955333709,0.191869243979454,0.7716163137245923,0.5888329148292542,-0.2740106370773166,-0.3493389228492975,163
1724682212915271400,-0.4067582616388797,-1.3667379964239894,-1.4923580341279503,6.571528261333704,1.3781104543097316,7.147462355417013,-0.0220234878361225,-1.559053659439087,-1.829522967338562,-0.8478195060694287,0.0789973706829593,0.3596390736993523,0.3816036732488734,0.4081770181655884,-0.2396852225065231,0.0328995212912559,0.6137452076919376,0.198919521062076,0.131270172420144,0.1307325512170791,0.1976639330387115,-0.3325972295479849,0.9472383856773376,0.5188665278734639,0.0925772344756871,164
1724682212955017200,-1.444365279853344,-1.8903398457236589,-2.196261505520344,7.050089191901684,1.9035081009849903,6.545478458797931,0.182078331708908,-2.6333489418029785,-1.801317572593689,-0.8174012469858943,0.0802876736720128,0.3997841417056261,0.4069174616157978,0.0662710890173912,-0.0553120262920856,-0.2460661381483078,0.4561081296108663,0.5331555673256516,-1.3598247099041938,0.068009041249752,0.345195323228836,-0.0646228723936481,0.9348912239074708,0.4611696142515167,0.162121931877546,165
1724682212994763000,-0.5378589227110148,-3.839219266438484,-1.96922268217206,7.432860428753495,2.454023968434333,5.907684413129091,-0.0977595224976539,-1.379228949546814,-1.8776124715805047,-0.7834426052418878,0.0824278471725513,0.4381752913635426,0.4329269350401193,-0.6034478545188904,0.0478622466325759,-0.1422466039657592,0.5450093789875508,0.4568842285498976,-1.5399357778608798,-0.0507097765803337,0.3171501755714416,-0.1555781910561956,0.8988712430000305,0.5839257504243404,0.3401308764558285,166
1724682213034509000,-1.303394966673851,-2.0557500420242545,-2.785804438239336,7.579196068358421,2.7847847398027774,5.565173290473222,-1.3191900253295898,-1.890273928642273,-1.0377832651138306,-0.7562535244874915,0.0899232604328202,0.4562553348895486,0.4602451080094182,-3.395956993103028,-0.5861772298812866,-0.2228952348232269,1.4149376714475452,1.4990981560379266,-2.18395965783,-0.1683689355850219,0.3340804278850555,0.131975781672541,0.7417348027229309,0.7198575579799711,0.1387971155925653,167
1724682213074253600,-1.5237486131697893,-2.997118453711271,-0.9489087440639734,7.93302704192996,2.524563485559821,5.183054964572191,-1.8964442014694207,-1.508555293083191,0.3481007218360901,-0.7326645878263152,0.129012779808427,0.4680741867459665,0.476932960212977,-2.3855762481689453,-0.7445485591888428,-0.1058914512395858,2.201658542258292,0.8139350409507751,-1.1269774925380944,-0.1919531524181366,0.3438854813575744,0.2406807605359703,0.6524449586868286,0.7061096031345426,0.1358114782447461,168
1724682213113999400,-0.1797562631696462,-2.75881004832983,-1.0007201798439025,8.287869822892546,1.8668201461873948,4.8986301201820375,-2.209433078765869,-1.4886231422424316,0.8857116103172302,-0.7199499745658857,0.1797358132958895,0.4668344507040888,0.4810744559895062,-1.6131075620651243,-0.6868090033531189,0.1394049972295761,2.493573304012417,0.0608896452486515,-1.0662994442135094,-0.1311953663825988,0.4220540821552276,-0.1118270564067177,0.7117989659309387,0.6780826553069055,0.2707629055940546,169
1724682213153745200,0.2525280693918466,-2.123377324964851,-0.4161199642241001,8.646719501408935,1.2144785197280346,4.46426605873704,-2.099581480026245,-1.7471692562103271,0.556923508644104,-0.7022265966995163,0.2336417123484526,0.4666876073270657,0.4842438341194073,-2.0173089504241943,-0.905629575252533,0.2660568952560425,1.7146731899552046,1.0315765058785675,-1.4557611186146735,-0.0883746296167373,0.5180264115333557,-0.2908798840147443,0.8649144768714905,0.5370270019315183,0.6062931015877053,170
1724682213193491000,-1.221898586726189,-1.699721850669384,-0.4763043838128447,8.937961040076614,0.6542038401346654,3.981863942570984,-2.098158597946167,-1.467353582382202,0.7720927000045776,-0.6824593559720189,0.2833681455289784,0.4654932088936246,0.4871013166772389,-2.931898355484009,-0.7227348685264587,0.2419488877058029,1.8113003574088216,1.7589286573976275,-1.722924447080493,-0.0482439398765563,0.5606652498245239,-0.666012789741531,0.9879339337348938,0.6091930242802948,0.7770317629020661,171
1724682213233236700,-1.4305132801115512,-0.9833527923922986,-0.7634726816922426,9.183836665841936,-0.0295441200580913,3.438993036916852,-1.99987542629242,-1.9198684692382808,1.3035037517547607,-0.6654080570183593,0.3358561067947229,0.4602834159477907,0.4822572808665737,-3.249713182449341,-0.5964864492416382,0.2124404460191726,1.1990341362282633,1.28151981947422,-0.4935667765200138,-0.0436600819230079,0.5976223945617676,-0.5589376953685656,1.0855402946472168,0.377699376947619,0.8265093489069492,172
1724682213272982500,0.4431675456255674,-0.7217588615566491,0.3439224507585168,9.430818207022549,-0.7873362992953509,2.5710177782207726,-2.180984735488892,-2.37029242515564,1.3498049974441528,-0.642471457585708,0.396869829766745,0.4597922560750418,0.4672426664596597,-1.5607266426086426,-0.0409472025930881,0.5746214985847473,1.1946496375337243,1.049798975789547,0.3692597211107611,0.0017050363821908,0.5675843358039856,-0.9600204321216792,1.1718538999557495,0.5977437017660587,0.6924069487355649,173
1724682213312728300,0.7757575782477856,-0.5593316265895962,1.4136404712438582,9.555970773345232,-1.5282624373324214,1.5868926132164896,-1.839236736297608,-2.387444496154785,1.7432774305343628,-0.6173810758538488,0.4576631324093149,0.4578596393986158,0.4469336056789014,-0.5983841419219971,0.3093315064907074,0.5396685004234314,0.0434242773152887,0.3444248473227024,-0.1792746171325445,0.0763467848300933,0.3366657793521881,-1.196103781864792,1.3115137815475464,0.863141554929316,0.6432805873211472,174
1724682213352474000,1.6199439650774,0.6455230324856936,2.006673584166169,9.503217088279127,-2.3400189652003345,0.6193169434096664,-1.6397703886032104,-1.8453744649887085,2.1603684425354004,-0.5975096315096914,0.5149304860013935,0.4508549843589473,0.4178020982784321,0.0774065628647804,0.434150755405426,1.0724046230316162,-0.4200231091424822,1.5256290200889109,0.4678472288519144,0.1440970003604889,0.1803154945373535,1.2395569930136203,1.232189059257507,0.3626946635067463,0.3935510260740295,175
1724682213431966000,5.019369546237588,1.5242688376516105,3.495353222042322,8.843358510318398,-4.10641562039107,-1.050124773677811,-0.5899107456207275,-1.990030527114868,2.27667236328125,-0.5731936699505834,0.6155837649634671,0.4178493655116546,0.3433768126823078,3.188807249069214,1.0501251220703125,2.7968578338623047,-1.0801135230977088,-0.5726169323593377,0.3097124303817749,0.4140875041484833,-0.0925833731889724,2.658088451169431,0.8643622398376465,0.1486481177983805,0.2520016708975657,176
1724682213471574300,5.367513706344366,2.2366581055775283,2.5590964542806147,8.417702071464062,-4.754610648564994,-1.6451098243854938,0.1153305545449256,-1.5143870115280151,1.5968750715255735,-0.5699717359923624,0.6436101306417719,0.4118777173260791,0.3020845902807435,3.2332470417022705,2.5669965744018555,4.113377571105957,-1.1217850384615362,1.5042957246810198,-2.6685189520299435,0.6105716824531555,0.0595600306987762,2.379569762083143,0.671995222568512,-0.2555355989110656,-0.102079496309068,177
1724682213511315200,4.898709030637145,2.010035754075646,1.9293088971957564,7.9753627933561795,-5.27677486627698,-2.172470003305376,0.4450466632843017,-2.1948049068450928,1.46722149848938,-0.5674124924093095,0.6631696666855409,0.4134865620413414,0.2593799442852174,0.2935734689235687,3.322951316833496,4.970432758331299,-3.4631101178243755,4.156283228626847,-4.752440026527643,0.7163780331611633,0.0008664444321766,1.210975626173615,0.5648893713951111,-0.3906961846321821,-0.3112652127817273,178
1724682213551056100,6.622177667596936,1.8782938724905247,2.553240713989734,7.4304399236083025,-5.722334275475144,-2.8659838903695345,0.972619652748108,-3.204219102859497,0.7897301912307739,-0.5591575581795928,0.6783551301279034,0.4312294443143203,0.2030231377534577,-3.459399700164795,3.2010793685913086,4.937712669372559,-6.143042152011394,5.3597348890364165,-4.355309424933791,0.7619326114654541,0.2578462362289428,-1.1762338370077312,0.4624783992767334,-0.3498099744271487,-0.5741111164398491,179
1724682213590797000,8.264445692685246,2.3511299956709144,3.220521843166649,6.98422409632802,-5.922380462479591,-3.5094720560267567,1.7190754413604736,-3.259979009628296,-0.7558197975158691,-0.5478853570519961,0.6755727175133309,0.4717359239632847,0.1445279398934686,-5.503725528717041,2.447685480117798,5.128259181976318,-8.152188263770938,3.08270473332107,-3.323644363988936,0.7540614008903503,0.2355565279722213,-1.3163666764497757,0.318006306886673,-0.3293814093066379,-0.4866843235298991,180
1724682213630538000,6.631472734686732,1.0598609355986115,2.4925462990522385,6.929435106042027,-5.775539795961976,-3.846616683213413,1.90722405910492,-2.356816053390503,-2.1264023780822754,-0.5410729803170151,0.6469116469430289,0.5269043428938889,0.1054381542800256,-6.236904144287109,1.1099638938903809,5.027796268463135,-9.827063842475413,1.4027391380012035,-2.518438865199685,0.6944776177406311,0.038458302617073,-1.4639441328093408,0.406688392162323,-0.1818536190413869,0.0039090700523811,181
1724682213670279000,4.269906100675463,-0.1279816522687673,1.882490155136585,7.14938835504353,-5.410404753565788,-3.972927771921456,1.8893368244171145,-1.6358990669250488,-2.551699638366699,-0.5387094738366647,0.6038186076396478,0.581348462936884,0.0850245976333396,-4.983056545257568,-0.1514768004417419,4.501393795013428,-9.288864143502712,-0.9951274744033812,-1.3382295486897229,0.6234960556030273,-0.0194144882261753,-1.4240928916752338,0.538277804851532,-0.1182772280599456,0.1483930744582321,182
1724682213749760500,0.5794657753407955,-1.0499395533040166,1.113828088107705,7.867426734772324,-4.289278909665346,-3.984475294113159,1.3447822332382202,-0.809194803237915,-2.8966965675354004,-0.5392748138821585,0.5022306951472353,0.6715028196095728,0.0776586568244888,-1.5770233869552612,-0.5623524188995361,3.2325453758239746,-2.7975995054513216,-3.718742582972348,-0.6628478229045868,0.4513632655143738,-0.1821602284908294,-1.04990747766532,0.6656293869018555,0.0088348628454114,-0.0221720911694574,183
1724682213789501400,-1.2911702758729455,-1.7037550517082214,1.1729349415928123,8.171359412708878,-3.593117138440906,-4.060642295731604,1.09281325340271,-0.9235723614692688,-2.590304374694824,-0.5348674069793378,0.4524377171585306,0.7087561336177572,0.0829568791234489,-1.0586062669754028,-0.4471619129180908,2.851733922958374,-2.0603566590368745,-4.879139822292328,-0.8645177386533468,0.261816143989563,-0.2116413861513137,-1.4521290457226337,0.7093384861946106,0.1850114254851825,0.0042631190708838,184
1724682213829242400,-2.122378523185849,-1.8774454389676447,1.56563545178473,8.29537742204368,-2.9961013856232164,-4.287242727662623,1.0388671159744265,-1.29687762260437,-2.1206860542297363,-0.5239429043906261,0.4092129314379126,0.7423835398249217,0.0830373390201753,-1.0998214483261108,-0.3975086212158203,2.5312654972076416,-1.4494535429030655,-5.8545560495316975,-1.0627683474779128,0.044848833233118,-0.2695995569229126,-1.3510082201115787,0.7152093648910522,0.1882437584699131,0.0155757684942102,185
1724682213868982300,-2.0778917312055825,-2.729753757454455,1.538044265025854,8.275134844481945,-2.540333301621675,-4.608609063220023,0.9450871348381042,-1.3335291147232056,-1.7466591596603394,-0.508979749003279,0.3717078818638528,0.772532794129253,0.0772405103252101,-1.2416081428527832,-0.3296813666820526,2.1676394939422607,-0.6563824262827634,-6.794129979017376,-1.219426643654704,-0.076136514544487,-0.3972819447517395,-1.0260040395084769,0.7631783485412598,0.0626285933038918,0.170371380638238,186
1724682213908723500,-2.2360195154130458,-4.491954860651493,1.068441132417321,8.167206384682656,-2.191459512066096,-4.966351657277345,0.5959727168083191,-1.3626536130905151,-1.272691249847412,-0.4917231129660505,0.3418817804461216,0.7977031529090071,0.070675204935869,-1.0274806022644043,-0.0615413710474967,1.7439846992492676,-0.0358031347870826,-8.061518981808424,-0.9609452188163996,-0.1190912574529647,-0.4520004689693451,0.4239640287879854,0.782357394695282,-0.5602681402547285,0.3835057251388207,187
1724682213948464000,-2.11928055717051,-6.634437429711222,1.3294085288524626,7.972205790629983,-1.9610458054572344,-5.363638326215744,0.3355682790279388,-1.2515411376953125,-0.718370795249939,-0.4715864956220252,0.3235538953031384,0.8177911176569908,0.0643173258495511,-0.6517744064331055,0.0636600106954574,1.2451894283294678,-0.7445265736818313,-9.052232146900892,-0.868017490402609,-0.2258695363998413,-0.1407385766506195,1.8664163876920936,0.7303298711776733,-1.4989615240462124,0.6405501394439488,188
1724682214027946000,-6.236031401354074,-7.501046076229215,2.101650792455673,7.935317783215641,-1.8442713375099,-5.458921823975444,-0.8331664800643921,1.1874815225601196,0.9188395142555236,-0.4659379423528254,0.3210912652490086,0.8217225496499436,0.0676346685303238,0.7464752197265625,0.6003683805465698,-0.7115160226821899,-0.2926017211049795,-10.65179734081626,1.1012701467644423,-0.54471355676651,0.2575400471687317,2.571263277414441,0.4343027174472809,-0.8872496488127857,0.7241518211077899,189
1724682214067687000,-6.713777508407831,-7.575401936772465,2.168183412027359,8.09986946299076,-2.258032755909115,-5.046162276095152,-1.075905203819275,1.7145628929138184,2.969048500061035,-0.4867764514064502,0.3600910146827131,0.7922229137384299,0.0759334160062339,1.7335857152938845,0.432113915681839,-2.0706465244293213,-1.5437117892682553,-9.928762467974424,2.0981734717339275,-0.5039669275283813,-0.0326754376292228,0.2366218040013685,0.1868588477373123,0.2296426126385107,-0.2754943545627407,190
1724682214107427800,-3.0852970879018304,-6.3836997508674855,1.505792685240507,8.054163358348607,-3.198044930681586,-4.59057159448713,-0.7819404006004333,1.668499231338501,3.722145557403565,-0.5110347173267007,0.4201836889984766,0.7466590113111179,0.0692063394997916,1.6764135360717771,0.1892290264368057,-3.366259813308716,-1.725173687312007,-7.217928807306289,1.3753010959774254,-0.3878767490386963,-0.292365700006485,0.1632316101524978,0.0564174279570579,0.8316970537431537,-0.2211900059885345,191
1724682214147168500,-1.007222401344776,-5.7890025041252375,0.6161427703529596,7.765605944198369,-4.284601273243129,-4.1842514320045705,-0.256584495306015,1.3430588245391846,3.737541913986206,-0.5328861920800229,0.4777922411153817,0.6964567599388974,0.0519128060382013,1.8860399723052976,0.0144461784511804,-4.107316970825195,-3.5920196985930204,-5.125826179918646,0.7674135282725095,-0.2988634705543518,-0.3829688429832458,-0.0039456032413087,-0.2527321875095367,0.8142622270785271,-0.6676127722840756,192
1724682214186909700,0.525747044634819,-4.739663547062873,-0.8611404442399739,7.200043022003769,-5.40262418269217,-3.891200798088312,0.2535778284072876,0.448074996471405,3.633300304412842,-0.5487994772496767,0.5262622417663777,0.6491872485600516,0.0205722917176249,2.440480709075928,-0.3817647099494934,-4.259178161621094,-6.222116273248195,-3.0755969471424818,-0.5610907817492261,-0.4128616452217102,-0.2884593904018402,0.2292089156626723,-0.55287104845047,0.466637926127389,-0.2850557627048343,193
1724682214226650400,1.8913643664658069,-3.421093807610869,-1.3274465811297296,6.393170759046077,-6.358471201586723,-3.855849790982902,-0.0818927735090255,-0.2868485748767853,3.229593515396118,-0.550495346497477,0.5677901764381935,0.6117253820294449,-0.0190052057599328,2.7940123081207275,-0.6820461750030518,-4.092699527740479,-7.684278491076826,-1.191920358700305,-1.4760434436649084,-0.5368307828903198,-0.0863763689994812,-0.2343013982297852,-0.7728987336158752,0.367390968096815,-0.3617386779561639,194
1724682214266391600,2.1020617113441227,-1.957858992114663,0.0371837754905223,5.528258979573845,-7.053916056713462,-3.981331150868535,-0.5237857103347778,0.152707502245903,3.1050689220428467,-0.5425769323579046,0.6084448536250173,0.5768762950361649,-0.05117473879513,2.675735712051392,-0.9643235802650452,-3.998076677322388,-7.543638432765007,0.1426987444072961,-2.442728229046613,-0.4803095459938049,-0.0735922679305076,-1.100620962140709,-0.8729799389839172,0.6437232895873487,-0.5528874919515103,195
1724682214345872400,3.364766940233112,0.1076122334569692,1.149516656604409,3.98917368106246,-7.896550537925958,-4.231004707612097,-1.2476294040679932,1.258371353149414,2.8356432914733887,-0.5279936257709031,0.6947066161381569,0.482808365281705,-0.0741730128760001,1.8267273902893064,-1.0558661222457886,-3.6556127071380615,-5.029965174531936,3.7084196341395375,-4.357048377555609,-0.230681225657463,0.0291845686733722,-1.5590207098200917,-0.3677482306957245,0.697386856039986,0.3269017943853512,196
1724682214385613300,4.152868451747298,0.2710065598905086,1.4183745140284298,3.3394857839822767,-8.073708601295948,-4.453473738826811,-1.280368685722351,1.1851156949996948,2.5720021724700928,-0.5172870187104751,0.7345473020367714,0.4330175910806736,-0.0731443521140058,1.447434663772583,-0.9579248428344728,-3.32762098312378,-3.6665854024946687,4.524562414267659,-4.767478897966444,-0.1454406678676605,0.0108415326103568,-1.2798980634912849,-0.0652781650424003,0.8007976192191243,0.4291230189863592,197
1724682214425354000,5.235597052714228,-0.0100409170210361,1.5717454590976236,2.750561567683518,-8.141168272584677,-4.72505897538811,-1.2101994752883911,1.0253431797027588,2.2836685180664062,-0.5039691563431986,0.768733288612449,0.3872468112923302,-0.0714432846784937,0.986663579940796,-0.8590251207351685,-2.767570734024048,-3.0631968997746704,5.469522128444909,-5.184042222043872,-0.1054608896374702,-0.0592903420329093,-0.8224698642577976,0.1272968351840973,1.0855183047506958,0.4747485326729714,198
1724682214465095200,6.094003103554249,0.187127084198594,1.8332576299339527,2.2321324448466298,-8.15024180587828,-4.976095637178421,-0.9092316031455994,1.038732409477234,2.0951547622680664,-0.4913780088441367,0.7969276426795279,0.3444076305951564,-0.0695511707757766,0.571463406085968,-0.6330327987670898,-1.8314887285232544,-2.7123502027109265,6.66232380002439,-5.657180543041229,-0.0814406871795654,-0.2138836085796356,0.9760374278776348,0.2120217233896255,0.7928451989099383,0.7371716808743775,199
1724682214504834800,7.247495678052306,0.976621511375904,1.288520053625107,1.809919132183492,-8.171798388648032,-5.11041584481895,-0.4479688704013824,0.976186454296112,1.7058401107788086,-0.4846616643086392,0.8173657659519076,0.3040919057431966,-0.067413505416489,0.0567308403551578,-0.2999380230903625,-0.5529110431671143,-2.934301055270433,6.800113729602098,-5.636481453883648,-0.161756619811058,-0.2798559665679931,1.1679894480146469,0.3572777509689331,0.7485703691799194,0.8338393995340913,200
1724682214544595700,8.017766933843493,2.0311019229799507,0.6483125170737505,1.515644655560702,-8.21292944045961,-5.140133522212505,-0.0741290301084518,0.5629921555519104,1.0399153232574463,-0.4832356809119862,0.82891351976322,0.2738179199087736,-0.0664028453277132,-0.9407331943511964,-0.1648611575365066,0.650712251663208,-3.5719331883758305,6.287655790129303,-5.815430492323637,-0.4332244098186493,-0.5683023929595947,2.4331585827991367,0.6122008562088013,-0.0033141158169368,1.7628192350953815,201
1724682214624079000,8.478743107882142,3.4431583399027583,-0.1611015393212437,1.4937047725617885,-8.387332652163504,-4.857144555844366,0.7235133647918701,-0.1214256063103675,-0.8555559515953064,-0.4976791000762504,0.8227340018680688,0.2659966447231488,-0.0683370575199665,-2.254897356033325,0.5822242498397827,2.3178930282592773,-3.9014199942857024,5.612147223094105,-3.1566672106325626,-2.2898268699646,-0.1278185695409774,-0.0854646351246628,0.7493216395378113,-0.0137145617491914,0.484108225964196,202
1724682214663820800,8.596246036234497,2.097726312488317,-1.0482575915664434,1.9346506966151296,-8.395076398158073,-4.685107488749921,0.3953272998332977,-0.5438318252563477,-2.1776833534240723,-0.5072762618307842,0.8082350668187925,0.2926261811403557,-0.0616189359384842,-1.455594182014465,1.0096399784088137,3.1116278171539307,-2.845727868804336,3.834086579725146,-0.7705491959497333,-2.980876207351685,0.3852485716342926,1.8550341390647,0.4404431283473968,-0.5953360561024398,-0.1563762278323993,203
1724682214703562200,7.534712783509493,-0.6383131011068821,-0.3906669585376978,2.7081317082330583,-8.199584221196174,-4.647931312043965,0.3709736466407776,-1.0563915967941284,-3.316456317901612,-0.5105799944583308,0.7862085363302774,0.3447530756271768,-0.0482667490577663,-1.099510908126831,1.2307958602905271,3.8705999851226807,-4.68004582144618,3.6726995014607904,-0.9622997021652756,-2.986943244934082,0.0604716353118419,-0.3353593512050807,0.2276297062635421,0.9224858704321086,-1.497913037906587,204
1724682214743304000,5.3574681131482125,-1.824997751110792,0.7361988903194665,3.63320832581073,-7.837552990034222,-4.641441365502774,0.6846285462379456,-1.4810346364974976,-3.862973928451538,-0.5119952763798735,0.7523869506835094,0.4129909591414901,-0.0348322811820332,-1.287368655204773,0.7365891933441162,4.16025447845459,-5.977628302448988,1.845381198447943,-0.019427754047513,-2.587886095046997,-0.1676801294088363,-0.7148641336068511,0.1617692857980728,1.1518596395339815,-1.657306750396639,205
1724682214783046000,3.860209155236185,-1.7840017238557335,1.356056881803274,4.331849931152164,-7.472130362868309,-4.644641330587864,0.903127372264862,-1.6327427625656128,-4.129846572875977,-0.5123211405288742,0.7191407813124696,0.4686654847191264,-0.0267602069301708,-2.2962019443511963,0.4053881466388702,3.934812545776367,-4.253128568875789,0.7301528881534933,1.1097779359340667,-1.9803431034088133,-0.5289207696914673,-1.5443006950721143,0.1270519495010376,1.0765418020907789,-2.1425255314186216,206
1724682214822787300,2.423572131547332,-2.699556479850412,1.352619600830972,5.260766565284133,-6.827419669678807,-4.677716501715779,0.9044084548950196,-1.4799643754959106,-4.40972900390625,-0.5111685572723921,0.6656017472226056,0.5435728810727258,-0.0144724936224465,-2.9296584129333496,0.0682761222124099,3.535328865051269,-3.428507298737764,-0.955879898250848,1.0576666404247284,-1.4026471376419067,-0.4333770871162414,-1.0560378701791169,0.0523727349936962,0.2893766398449428,-1.9365385561883448,207
1724682214862527700,0.7728396449744701,-4.410939542219043,1.2175526664763687,6.144308810946345,-5.963436110967398,-4.780723579464852,0.5700567960739136,-1.093170166015625,-4.317775249481201,-0.5061861220577206,0.6069185261567228,0.6126981060513761,0.0051626048855586,-2.4270174503326416,-0.2371195256710052,3.1603169441223145,-3.568954464825988,-3.188613669991493,0.912320011857152,-0.8295356035232544,-0.4819470942020416,-1.37302219126001,0.1509731709957122,0.314361388698779,-1.704582150182128,208
1724682214942011100,-1.6824205872565507,-5.69636338339448,1.432699391978979,7.327350136011838,-4.128243129056692,-5.043604408305884,-0.1080198138952255,-0.3482018411159515,-2.666899919509888,-0.4897353139869065,0.5088249956376472,0.7058678164274268,0.0548370952983926,-0.0512845739722251,-0.2764630913734436,2.825829267501831,-2.698747501555085,-6.552878505921363,0.4075631482809781,-0.1828942149877548,-0.4744362235069275,-0.5155452379636466,0.183419868350029,-0.1017449123261496,-1.1917707210965454,209
1724682214981752800,-1.7393413288742303,-5.835712232851982,1.3473691329568624,7.61306560473442,-3.3550288055509325,-5.191857864230871,-0.8666353225708008,-0.1798743903636932,-1.955660462379456,-0.4782883088460207,0.4810255458459581,0.7302913775775577,0.0808034081847953,1.0564402341842651,-0.1426736712455749,2.6364128589630127,-1.4497142396658658,-8.20571001060009,0.5250830277681351,-0.0392673909664154,-0.5207839608192444,0.018709365228645,0.1345837712287902,-0.2902429560843855,-1.1463672526627775,210
1724682215021494300,-1.9957056154280897,-7.294611064970493,1.77917824922204,7.866884882980584,-2.514432844428718,-5.287729975533485,-1.7393449544906616,0.6761854887008667,-1.90997052192688,-0.4651206012141096,0.4652541146882902,0.7437323539451545,0.1185895451663335,1.9627901315689087,0.0270376037806272,2.0453808307647705,-0.7113871051460504,-9.919945539790392,1.2931348539441825,-0.0488664917647838,-0.2734297811985016,0.8992663959514349,0.1015648022294044,-0.5285264462202787,-0.7042028196651489,211
1724682215061236200,-6.1762295513421295,-9.604961306485531,2.336339838296175,8.248710363414883,-1.4863273756615816,-5.091168708035349,-2.644813299179077,1.590684175491333,-1.402199149131775,-0.4566670455554502,0.4562656366118167,0.7425624791481626,0.1785437253097181,1.8846359252929688,0.034934889525175,1.220144748687744,-0.5204249728292226,-10.316816029143332,1.5571172142863272,-0.0158515684306621,-0.240222156047821,0.7891901104684919,0.075129821896553,-0.1709834481219761,-0.7061181517671793,212
1724682215100977700,-10.303126526486873,-9.680300917369127,3.818871474936605,8.619106687340139,-0.7594659302689135,-4.615692299479246,-2.181512355804444,1.7170289754867554,0.2120486795902252,-0.4558910357078311,0.4625197629683837,0.7220874490516164,0.2383875086523107,0.9197425842285156,-0.0385716594755649,-0.290577232837677,-0.1539420229554176,-9.88132150236368,2.356987489527464,-0.0535260736942291,-0.0881911888718605,2.973890722858905,-0.0190439969301223,-0.4036039988590404,-0.1754588582366704,213
1724682215140719400,-9.73342752740085,-10.34986957296133,3.3473505260080096,8.828569521987438,-0.9286157514892518,-4.167065903925895,-0.5417133569717407,0.964543879032135,2.0536491870880127,-0.4689147454187098,0.4844063338327501,0.691239276983213,0.2601111541898716,-0.1653730571269989,-0.2480205446481704,-1.825208187103272,-1.3737509439259767,-8.918450283920764,3.4894729318320747,0.0819169133901596,-0.2553907632827759,1.0687990059442818,0.0324311852455139,0.6070774934310466,-0.0064912554363982,214
1724682215180461000,-6.276521817174554,-9.416542428910732,1.7209955248445272,8.751226754587888,-1.939604811891168,-3.9779789178311824,1.0855296850204468,0.0180912297219038,3.3391685485839844,-0.4920303923823031,0.5161185165604574,0.6606376873593758,0.2347030332053707,-0.5757339596748352,-0.6034950613975525,-3.073424816131592,-2.3006875101566315,-7.726461682289838,1.915283002191782,0.1143969446420669,-0.1170359030365943,1.0727508123099805,0.1639661937952041,0.7188879092302173,0.574823319829814,215
1724682215220202800,-2.434390462681651,-7.491955007278919,-0.8207417983561753,8.302579900768398,-3.401813060818613,-3.9579359544947743,1.8221670389175413,-0.8193239569664001,3.637209177017212,-0.5175873912152735,0.5481668427464075,0.6334916668612968,0.1740828806132625,0.5076575875282288,-0.5745944976806641,-3.91172194480896,-3.1193735450267788,-6.0356637273103,1.1240455307394266,0.1030000746250152,-0.3517873585224151,-0.1331264586781617,0.1153080463409423,1.2534249209769068,0.1021858244940638,216
1724682215259944200,0.1333539929568767,-5.727621275967359,-2.5027444524616,7.5625067993640895,-4.807763269820809,-3.9829976227760313,1.683013677597046,-1.1339683532714844,3.3853566646575928,-0.5350836074941749,0.5754976426044656,0.6098186879776735,0.1030005257989891,1.530829668045044,-0.63779616355896,-4.127992630004883,-4.729333876228332,-3.696891985692083,-0.2005623198330402,-0.1264107227325439,-0.269528716802597,0.4144312074195593,-0.2117441594600677,0.7378470228526741,0.0491665838269516,217
1724682215299686000,1.259725920817256,-4.901007370707393,-2.667532863602042,6.68483315347433,-5.959390050446987,-3.996129199288785,0.7609801292419434,-0.6731852889060974,3.36807918548584,-0.5427893442483067,0.6031984576017039,0.583007291424415,0.0404203566234212,2.4233720302581787,-0.7889367341995239,-3.9934661388397217,-6.2534513227105135,-1.8241892112068832,-1.0581587347906083,-0.2685970664024353,-0.2549608051776886,-0.8604786923956126,-0.4208071231842041,0.8547923903875052,-0.0924552885964512,218
1724682215339427600,2.0378981589913368,-3.055111208474636,-1.403165254458785,5.769741923338175,-6.87513886770904,-3.9513162440940737,-0.0529026016592979,0.4430763721466064,3.596702337265014,-0.5463812235084547,0.6390545854083104,0.5413596750377624,-0.0025252911187827,2.50266432762146,-1.0778037309646606,-3.7820193767547607,-6.249893337967992,0.1282198449388146,-2.5310072548717257,-0.271051675081253,-0.2080164700746536,-1.096676608429104,-0.4041521847248077,0.4806329510690644,0.1881135196863673,219
1724682215379169300,3.2841213318958875,-1.6150918488711117,-0.8636223241835832,4.85152496239692,-7.593006567046046,-3.870312323838472,-0.5769202709197998,1.1070877313613892,3.5827503204345703,-0.5494500360193336,0.6800564654311448,0.4846175995199172,-0.0278127253889116,2.13090443611145,-1.123722791671753,-3.596078872680664,-5.29348342449367,1.901083796447516,-3.7783629389375446,-0.2332313358783722,0.0174487326294183,-0.8234192008718848,-0.2874040603637695,0.1705881469277665,0.4446829551571979,220
1724682215418910700,4.679576742629707,-0.7423983294814824,-0.2812666726201772,3.947928062960506,-8.091456439432502,-3.887486746001243,-0.8326562643051147,1.1966243982315063,3.233816385269165,-0.5476805692464717,0.7200718512227924,0.4239141258197623,-0.0428862924476432,1.6534199714660645,-1.1876736879348757,-3.335367679595948,-5.137033218109608,3.287323635068536,-4.57001016023457,-0.1179966479539871,0.1552646905183792,-1.0932397658482194,-0.1041324436664581,0.2709333850564435,0.5416015067728236,221
1724682215458652400,5.360315903794765,-0.2835363711178302,0.2173252385854721,3.1096216740801927,-8.400233050268888,-3.992083723290264,-0.6900030374526978,0.930798590183258,2.9075276851654053,-0.5418018396565397,0.7538791926518049,0.3677033949428828,-0.0539553283160477,0.9737701416015624,-1.2158405780792236,-3.011958360671997,-4.155283696195483,4.3821518391519785,-5.3026867216467855,-0.0125200105831027,0.2702230513095855,-0.8489332160305232,0.047762643545866,0.2348162889493629,0.5408920798618346,222
1724682215498397200,6.279387727999687,0.711783410987258,0.3940490021914243,2.272250958614796,-8.621326116955279,-4.0841120186463,-0.254662811756134,0.3853581845760345,2.6355435848236084,-0.535549741139858,0.7788866587544235,0.3186963033074175,-0.0703891487266064,0.2411699295043945,-1.1276334524154663,-2.4500303268432617,-3.0356039594501256,5.971716448056697,-5.8092462507307525,0.080974668264389,0.2720040380954742,-0.8071205386303365,0.1431003808975219,0.5567664888093248,0.48862336530108,223
1724682215538138600,7.799663696622848,1.2715548902988434,-0.0531985062241554,1.4394108723163603,-8.799673097848892,-4.082186019019782,0.159361645579338,-0.0928148180246353,2.254729986190796,-0.5319647497308321,0.7940436878170533,0.2786183603146388,-0.0942336294724213,-0.0349378250539302,-0.6881133317947388,-1.5977824926376345,-1.8048223935663696,7.010077499508857,-5.333129790705442,0.1909395605325698,0.2070147097110748,0.6891989464744925,0.1015356034040451,0.5326613906005397,0.4000996074672788,224
1724682215617598500,10.466429082983732,3.686766605257988,-1.2053408351570367,0.0551889950547832,-9.087934743922949,-3.6846658335864544,0.9953611493110656,-0.5558062791824341,1.1340421438217163,-0.5382207559286216,0.7976248075071808,0.2272891272092406,-0.1498422178262587,-0.9366657733917236,0.0366992317140102,0.6026443243026733,-3.143553754298389,7.77763482016623,-5.880746137320995,0.4824907779693603,0.0362977012991905,1.6708322946630418,0.2234957218170166,0.4653825923040509,0.5709231340534985,225
1724682215697080000,11.29410155738592,4.217194501185417,-3.1422926483213898,0.0732684534656116,-9.330760334467888,-3.0169407600343225,0.4734949767589569,-0.3618362843990326,-1.6671441793441772,-0.5633432563744317,0.7723425791088282,0.2393911211957837,-0.1697740429420821,-1.2261934280395508,1.4199343919754028,2.60074520111084,-4.745681199917197,6.127744629636407,-3.915264395242929,0.4025554060935974,0.5728558301925659,0.5966061125708744,-0.0216751359403133,0.2145679392339661,-0.5541409260787069,226
1724682215736821000,9.051925857430696,3.5618624607384204,-2.856821802009642,0.8934379820588976,-9.285950886404514,-3.023786388145387,-0.5338179469108582,-0.0573612079024314,-2.8320417404174805,-0.5693916492380309,0.7601456469459291,0.2763128596372661,-0.1470475768437454,-0.4641403257846832,1.3350554704666138,3.461780071258545,-4.644440839579701,3.482415999057889,-1.206310264711082,0.3262293040752411,0.2974871397018432,-0.4714868274632841,-0.2347717583179474,0.1980447292552329,-1.152386586017534,227
1724682215776561700,8.423750703978538,-0.7714063973009586,-2.169173299847543,2.11507579895705,-8.962818417957424,-3.371158687096834,-1.2678953409194946,-0.0514022409915924,-3.8524460792541504,-0.5633644409119215,0.7505485831502259,0.329481543162541,-0.1036299787978623,-0.8855783343315125,1.546514630317688,3.964212417602539,-4.244239159977436,3.105295919835567,-1.1863060259498657,0.2587710618972778,0.2952907085418701,0.139425348759815,-0.2751697599887848,0.0919859723179601,-0.7537006447404623,228
1724682215856043300,4.791290273925662,-6.318657662114501,0.821742207570374,4.908068979656696,-7.384405902186035,-4.18948553326577,-0.6820272207260132,-0.3015782237052917,-4.4995646476745605,-0.5351511564314851,0.7061235424137542,0.4636742980405258,0.0029825315537316,-1.7469463348388672,0.5484740138053894,3.590045213699341,-4.811660861781239,-0.837857476069033,1.6536789152882991,0.5291913151741028,-0.0931179374456405,-0.9231612854756416,-0.373696893453598,0.150258439071849,-1.0658142179798331,229
1724682215895784200,2.6225351994901893,-6.3061851340323685,1.2248767257541415,6.098943482565879,-6.316046602833271,-4.368164522592723,-0.2776265442371368,-0.160875990986824,-4.502942085266113,-0.5240340782996618,0.6665831961265257,0.5276184689414762,0.0517107502110843,-2.095061779022217,0.2823164463043213,3.215584278106689,-3.0979175000220533,-1.6706617604017258,1.8114625622332088,0.6569838523864746,-0.1795685142278671,-1.2578434680715205,-0.4465082585811615,0.1733634568599984,-0.8859140162948519,230
1724682215935524900,0.5943687454402447,-6.803402249753475,1.2105278824061154,7.100446337220072,-5.108050869253278,-4.434170780202746,-0.0696315914392471,-0.1078873574733734,-4.401046752929688,-0.5140494441654969,0.6187355432024065,0.585872104733244,0.0983534665229837,-1.8243911266326904,0.1851625144481659,2.82053279876709,-1.7417536507129667,-3.113732908791304,1.3457909238547086,0.8056036233901978,-0.1714402288198471,-1.3246665950223804,-0.379260390996933,-0.1622506545574404,-0.606179667808488,231
1724682215975265800,-1.4498597856163975,-7.051417225635051,1.4447329441219567,7.816340106135606,-3.841900760607421,-4.507215265886486,-0.0304885432124137,-0.3848406672477722,-3.991537570953369,-0.5008712442798089,0.5681457682138731,0.6379768055747201,0.1390104767324938,-1.1575851440429688,-0.0017779055051505,2.651113986968994,-2.0842975065946576,-4.62133644284606,0.9258937791794538,0.9383931159973145,-0.0181346368044614,-1.3933800657644868,-0.2727920413017273,-0.2874440826134756,-0.4426355576407164,232
1724682216015006500,-2.9563614959090945,-6.885549787086248,2.1719240598604084,8.183949429690838,-2.659832079966366,-4.703043250674009,-0.0186839811503887,-0.7942390441894531,-3.323232650756836,-0.4812735312208852,0.5219503839329068,0.6836346040630145,0.1690774689349441,-0.5299014449119568,-0.0298541225492954,2.531031847000122,-1.4069032719433308,-6.045928516215086,0.8231926986396312,1.0370022058486938,0.0953529551625251,-1.3421125276029109,-0.1150149926543235,-0.2160256454952992,-0.2565079693408683,233
1724682216054747400,-3.301366773468256,-6.852951001298427,2.7249761677891016,8.28489636003971,-1.6928521110303698,-4.966396665462852,0.1228473037481308,-0.7690640091896057,-2.6840813159942627,-0.4598579065061863,0.4824934261049075,0.7213985449033948,0.1879224420224823,-0.191380962729454,-0.0491179898381233,2.2932798862457275,-0.6748042181581259,-7.212865678697824,1.117043543022871,1.013205647468567,-0.0473918579518795,-0.3839469661002978,0.0121796000748872,-0.4207483181444927,0.1228223880757577,234
1724682216134229000,-5.869459019631147,-9.257259629449248,2.643666834846139,8.31827957420349,-0.1564418769471347,-5.191546314063668,-0.8870205283164978,0.3551448881626129,-1.3263970613479614,-0.4275171425607402,0.4276078819641893,0.7627887687029813,0.2292028814502558,0.0457282587885856,-0.1141980364918708,1.0641788244247437,-1.4412743281006812,-9.214875947228071,1.0173749620467425,0.6681444048881531,0.0758349597454071,1.7846708552889523,0.0175653006881475,-0.9614060412611812,0.1961354798341169,235
1724682216173969700,-7.955996414107084,-8.77774359011352,3.20521818331182,8.458029990199208,0.2325388272703625,-4.957623576420545,-0.8726656436920166,0.9406771659851074,0.1886670887470245,-0.4272807541821469,0.4230584009445866,0.7574893071046406,0.2542885966839734,-0.4156715869903564,-0.2445757985115051,-0.2354080229997635,-0.8058394127786159,-9.20911899113655,0.5631178671300411,0.5046178102493286,-0.2078820317983627,1.6808680971175431,-0.0886540189385414,-0.5461909534549341,0.0649135533027583,236
1724682216213710600,-7.399133515718579,-8.537285897743702,3.029652065308392,8.65623902490437,0.0215595487616839,-4.608628644703328,-0.3117853999137878,1.0225694179534912,1.6377959251403809,-0.4421005088941409,0.4374144669440516,0.7373216719555432,0.2637660019378374,-0.6035668849945068,0.0765567943453788,-1.6012171506881714,-0.3606383154988288,-8.61205735335052,1.6855933720737697,0.3802914917469024,-0.0112499073147773,0.691321856912598,-0.1742678433656692,-0.0395236257480923,0.0095287753809709,237
