time_imu,phone_acc_x,phone_acc_y,phone_acc_z,phone_gravity_x,phone_gravity_y,phone_gravity_z,phone_gyro_x,phone_gyro_y,phone_gyro_z,phone_ori_w,phone_ori_x,phone_ori_y,phone_ori_z,watch_gyro_x,watch_gyro_y,watch_gyro_z,watch_acc_x,watch_acc_y,watch_acc_z,headphone_gyro_x,headphone_gyro_y,headphone_gyro_z,headphone_acc_x,headphone_acc_y,headphone_acc_z,frame_imu
1733403022908936400,0.7037962846908717,10.125706597310304,-1.3255448391616345,-0.153878036074806,9.805423673075436,-0.0193982448252383,-0.8189562559127808,0.1568134576082229,-0.4753766655921936,-0.3309321171286961,-0.341358758881381,0.6200509922237845,0.624095262270885,-0.8041213750839233,0.7493066787719727,0.5252075791358948,-0.0370471477508544,-0.0967574119567871,0.0834051370620727,-0.0921532288193702,0.087724931538105,-0.0682049366980791,0.0407168716192245,0.1426824508596211,0.0180748233349062,0
1733403022948936400,2.351525278598815,8.659536897405982,-1.3545692735940218,-0.5106836232766508,9.785841605249049,0.3832715510567649,-1.2132340669631958,-0.3719206154346466,-1.3173844814300537,-0.3242693503398755,-0.3436720851053115,0.6019535585619035,0.6437319675094637,-1.4761204719543457,1.214179515838623,0.897341251373291,-0.0818480253219604,-0.1311616599559784,0.0674790740013122,-0.0817574188113212,0.1355904638767242,0.05264905564785,0.0831464678049087,0.1510532427113503,0.0640091655086726,1
1733403022988936700,2.770489380207658,0.9646002341926098,0.5611176332235336,-1.1163953082472085,9.701867437011003,0.893210091587156,-1.2019720077514648,-0.044520728290081,-1.6548584699630735,-0.3098226235130606,-0.3508816560474476,0.5756222923989268,0.6704856928767294,-1.6304833889007568,1.3908627033233645,1.0841797590255735,-0.0019485354423522,0.014154702425003,0.0072391927242279,-0.066187284886837,0.0975438803434372,0.1661281353116035,0.1022414118051529,0.2473472326878458,0.1606766649726778,2
1733403023028936700,2.7168858003139493,-6.228524386724829,0.5917500143092125,-1.7086274800501762,9.583997428911925,1.1823534889318048,-0.3817123472690582,0.0640574470162391,-1.4108316898345947,-0.2955827385990245,-0.3647160965705379,0.5538040439515722,0.6876874345491221,-1.594824194908142,1.5517170429229736,0.9739546775817872,-0.009459376335144,-0.0643152296543121,0.0064986050128936,0.0054394528269767,0.0834148749709129,0.1591056893289089,0.185466393828392,0.2835564640577882,0.2492455405898392,3
1733403023068936700,1.905221042382717,-12.46058980705738,-0.7775356938362121,-2.1552654782652856,9.48489583416879,1.2497919713020325,0.1057305485010147,-0.4137983620166778,-0.8640601634979248,-0.2772941771675753,-0.3738909042066917,0.544503381910696,0.6977318051040624,-2.176758289337158,1.5125317573547363,0.8260594010353088,0.0417311787605285,-0.0242903232574462,0.0795813798904419,0.0315334126353263,0.0711903572082519,-0.13107260402143,0.273033857345581,0.1264472092431038,0.2380563303165137,4
1733403023108936400,1.6789062955252825,-13.764543576657772,-1.2819839298546314,-2.354669714104384,9.445703056943415,1.1851679618306457,0.290472149848938,-0.1426731199026107,-0.3279858827590942,-0.2652853136342277,-0.3779319762267993,0.5447390878839935,0.7000361023546391,-1.0940817594528198,1.7806282043457031,0.4918366968631744,-0.0049270391464233,0.1051823794841766,0.066976249217987,0.0745145231485366,0.0930965766310691,-0.2437222471237182,0.4136567115783691,0.0764957951813936,0.3391905268657952,5
1733403023148936400,-0.7300128951609134,-9.636364745008946,-2.131477629312128,-2.391128682451695,9.443632680410149,1.1272595974151045,0.0192477535456419,-0.0963879823684692,0.0838964283466339,-0.2611556854811743,-0.3785291681934428,0.5470296386798335,0.6994798677242438,-1.2695585489273071,1.4705119132995603,0.3910272717475891,0.1218370795249939,0.0729331374168396,-0.0501618310809135,0.098591461777687,0.0749270394444465,-0.2310650101244449,0.5137845277786255,0.0064519526183605,0.2159128875695168,6
1733403023188936400,-1.3480249665170907,-6.345593015313148,-0.7467949570052326,-2.299691338726133,9.46553822274804,1.1337579464584588,-0.0455392561852932,0.2695096433162689,0.5016669034957886,-0.2669767682170785,-0.3776047886190123,0.5473655604332359,0.6975163616089499,-2.186840534210205,0.901012122631073,-0.0861768424510955,0.0778007507324218,-0.0301317572593688,-0.0626861453056335,0.0827961862087249,0.0189770609140396,-0.0948497825175523,0.558974027633667,0.0579223929408937,0.1555996539693325,7
1733403023228936700,-0.4841375616565346,-1.9155565584361551,1.483184547591209,-1.9967039788156744,9.546624852851032,1.0224968351051211,0.5615518689155579,0.3243473470211029,1.1153435707092283,-0.2793190309748799,-0.3731968333843283,0.5555099404134642,0.6885590922390339,-1.345179557800293,0.2959983646869659,-0.2532685101032257,0.0876244306564331,0.1847569346427917,-0.18711918592453,0.0664443522691726,-0.1028912737965583,0.0857335791260004,0.5365937948226929,0.1271465896841138,0.0728081927098333,8
1733403023268936700,0.5158128028586506,1.562144102537632,0.4880523970127105,-1.561031318990141,9.655588500916958,0.7093473429467528,0.8986887335777283,0.3315478265285492,1.180608868598938,-0.2937105739354475,-0.3692474019983464,0.5722671642504275,0.6707464015143119,-0.6644793748855591,0.0438887886703014,-0.1672248244285583,0.0324240922927856,0.1453688740730285,-0.1603860855102539,0.0441563874483108,-0.1568566858768463,-0.0198550395488739,0.3995222449302673,0.0252524416130036,0.01299435999915,9
1733403023308936700,0.6296547244854271,3.840218214347958,-0.8874608804106712,-1.1426124301739036,9.731313311725854,0.4078724334258586,0.5011860132217407,0.0524790920317173,0.9620457887649536,-0.3053288713732532,-0.3640299425104699,0.5888008957756118,0.6538883426369864,-0.5398772358894348,0.130134031176567,-0.0078710569068789,-0.0565335750579834,0.0521636605262756,-0.0187262296676635,0.0062296092510223,-0.1216476708650589,-0.0931850641757249,0.2220434993505478,-0.0343649186775088,0.0196240072719752,10
1733403023348936400,-0.2739232510548084,5.123481078097224,0.5037286895722151,-0.812595170649141,9.77009867719412,0.2350320140592753,0.4457896053791046,0.2998233735561371,0.757953941822052,-0.3142183742359626,-0.3577406374645014,0.6000319475669195,0.6428453003871436,-0.4323560893535614,0.2218145281076431,0.1704818308353424,-0.0899065732955932,0.0135268568992614,0.0345652140676975,-0.0122008621692657,-0.0659796148538589,-0.1201999123513698,0.08918197453022,-0.0297549406640231,0.1025840300314128,11
1733403023388936400,-0.4328316642459481,5.095785261920094,-0.8367769873559474,-0.5462472502194344,9.790911748120187,0.1002605372535996,0.1430760025978088,0.132072627544403,0.6143863797187805,-0.3244032386894328,-0.3554716812245351,0.6070650862654531,0.6323562490134015,-0.273235410451889,0.4331763684749603,0.3222654461860657,-0.0738200545310974,0.0382256209850311,0.0193482711911201,-0.0079102516174316,0.0153934136033058,-0.1348848557859659,-0.0349952951073646,-0.0184595666024833,0.0816343271136283,12
1733403023428936400,0.3316366408875212,4.243957420426607,0.6078191786438226,-0.3509398552399128,9.800129073798656,0.0683932577778352,0.1583627313375473,-0.053840409964323,0.3965326249599457,-0.3299261322985728,-0.3497483285331713,0.6117099156756,0.6282003993942004,-0.0590259134769439,0.305016428232193,0.3313235640525818,0.0067555904388427,0.0857367515563964,-0.0224342346191406,0.0054789762943983,0.0968503579497337,-0.1214262392759323,-0.142789214849472,-0.0186761319626122,0.0478156441420316,13
1733403023468936400,1.1514125533536077,2.380017651981116,-0.2278571539938449,-0.2540358801389113,9.803325824013353,-0.0256289787412388,0.2097755819559097,-0.0382208339869976,0.0762423202395439,-0.331022077156412,-0.3479782782573509,0.6166180601251906,0.6237930059941532,0.1795965135097503,0.1533373594284057,0.3180413246154785,0.0401545166969299,0.1032740771770477,-0.040944218635559,0.0264856312423944,0.1580425798892974,-0.0751496412694454,-0.2145222723484039,-0.0129661568179726,0.010458850172162,14
1733403023508936700,1.2860349588111042,0.2692605930060148,-0.4100374294400215,-0.2774775825355202,9.80254724085629,-0.0587774891000008,-0.0001426460221409,0.0181360151618719,-0.1591678410768509,-0.3294493348296406,-0.3490388612647376,0.6173886064264458,0.623270670487918,0.2796570658683777,-0.0253417883068323,0.1668926328420639,0.0520741939544677,0.0697811543941497,-0.0369737148284912,0.0182497818022966,0.1788243800401687,-0.0327647900044918,-0.2504766583442688,-0.0034329701233655,-0.0153558284334838,15
1733403023548936700,0.6862263604044914,-0.6718488754838705,-0.0930418654459062,-0.3458010675793513,9.800342424288392,-0.064227927392465,0.0007325746119022,0.0935229361057281,-0.1808273792266845,-0.3279355429401121,-0.352028068752817,0.6159147276415118,0.6238459299387926,0.1665028184652328,-0.0758009627461433,-0.0182661730796098,0.0306808948516845,0.0059568285942077,-0.015882134437561,0.0037707742303609,0.1798176616430282,-0.0342722719579935,-0.2195352166891098,0.0107561526183038,0.0060245209865272,16
1733403023588936400,-0.0260937878079712,-0.5642366420269012,0.1502116042554378,-0.3999243604982271,9.798372585520148,-0.0483084326276555,-0.057920191437006,0.0990761369466781,-0.0815406888723373,-0.3277313568102205,-0.354673813529844,0.6137340878685942,0.6246031268517656,0.0673248395323753,-0.0882477834820747,-0.0395640693604946,0.0060129761695861,-0.0190409123897552,0.0028506517410278,-0.0007839407771825,0.1683203130960464,-0.0090840546876192,-0.1540793925523758,0.0457653970813378,0.0321570333696901,17
1733403023628936400,-0.4528014892809093,0.1792804623514413,0.490882652002573,-0.4035746266340836,9.79825568114221,-0.0413709843475604,0.0178574454039335,0.082512617111206,0.0565117038786411,-0.3287109313460784,-0.3556246405552011,0.6128951364405588,0.6243715569750738,-0.1653278470039367,-0.006748981308192,-0.0262667741626501,-0.0181547999382019,-0.0621690154075622,0.0034560039639472,0.0013998998329043,0.105281114578247,0.0548912816166877,-0.1108875423669815,0.0305947890216484,0.0366189812146127,18
1733403023668936400,-0.2587631278565153,1.8887837023228409,0.2934580456733703,-0.358940863931179,9.800007493245602,-0.0372789406773983,-0.0906360745429992,0.1988074481487274,0.1383622288703918,-0.3316341010053604,-0.3555637376707053,0.6127602512482255,0.6229912157604709,-0.141210526227951,-0.0536899641156196,-0.0105585856363177,0.0025554299354553,-0.0027399361133575,-0.0160561800003051,0.0136602707207202,0.0747339949011802,0.0303384396404027,-0.0870531424880027,0.0553340569481253,0.065574076737836,19
1733403023708936400,0.1158808435758575,7.6384093048274515,0.623792408323288,-0.3696662195524201,9.799610018360614,0.0373066986172925,-0.2632454633712768,0.6976897120475769,-0.3170208930969238,-0.3380109996108461,-0.359869055505832,0.6071179049947588,0.6226160855176229,-0.1025012135505676,-0.084001325070858,-0.0115956868976354,0.0003637075424194,0.0050632357597351,-0.0082645528018474,0.0405647158622741,0.0441251099109649,-0.0035410336077213,-0.0556070953607559,0.0524674154706299,0.1076690782107412,20
1733403023748936700,-0.7430754980906844,11.806016476023196,-2.682193841639161,-0.6078528251850978,9.785043148347734,0.2320277176767587,-0.9485132694244384,-0.2782452702522278,-0.702068567276001,-0.3388218708454171,-0.3684146846052416,0.5936669932499407,0.6301030894538583,-0.0890021845698356,-0.0718701928853988,-0.0049392487853765,-0.0086287856101989,0.0066957771778106,-0.0027233362197875,0.0681549608707428,0.0187591351568698,-0.000607902765274,-0.026594890281558,0.0543802268220111,0.1300030750937759,21
1733403023788936700,0.9986470998968928,6.73638330796957,-0.7882248456329107,-0.8412283407416195,9.745151282942295,0.7033805434968322,-1.2314672470092771,-0.4799029529094696,-0.7575631737709045,-0.3331725071694693,-0.3610968529920145,0.5777080871350212,0.651811716177067,-0.1250960081815719,-0.0764862522482872,-0.0071946801617741,-0.005030870437622,0.0043000876903533,-0.003572229295969,0.0649539083242416,-0.004822326824069,0.0177186120420694,-0.0091702621430158,0.0517363977823406,0.1046468077801167,22
1733403023828936700,2.5833228407815096,-2.47329623965919,-0.0498737457156181,-1.3148448737099765,9.636897244450449,1.253708414093405,-0.8666691184043884,-0.1687206029891967,-1.109263896942139,-0.3235167652995117,-0.3624429990471777,0.552008814682842,0.6776859864953735,-0.1010588482022285,-0.0848307311534881,-0.0275195259600877,-0.0003542900085449,0.0126152038574218,-0.0092768669128417,0.0549228824675083,-0.0205983780324459,0.0051052141845226,0.0008088974282145,0.0744893141971901,0.1030478481508791,23
1733403023868936400,2.817686307929456,-9.613539165216684,-0.0748328304052352,-1.6837325466379522,9.548895720392466,1.4676593539401888,-0.1394585371017456,-0.491100549697876,-0.8640883564949036,-0.3093189254143825,-0.3653569027624527,0.5400782657752302,0.6922078035004747,-0.1176047995686531,-0.0986108928918838,-0.0351861007511615,-0.0102989673614501,0.0081087350845336,-0.0042366907000541,0.0352620258927345,-0.0277400072664022,0.0037719197541475,-0.0094899125397205,0.1134488306559622,0.0823101074833422,24
1733403023908936400,3.925743119159341,-14.055621449196336,-1.222230449029058,-1.933169225885719,9.50753787408769,1.4282814294062554,0.427155077457428,-0.3733649849891662,-0.5898164510726929,-0.2935196102192408,-0.3684275345878961,0.5398509640063733,0.6976162808476558,-0.0923745483160018,-0.0820126309990882,-0.0219776220619678,-0.0145173668861389,0.0036675631999969,0.0093008242547512,0.0190423987805843,-0.0296952109783887,-0.0466109445273876,-0.0304933171719312,0.089009239795804,0.0912641060505062,25
1733403023948936400,2.257598456145078,-13.220962769168615,-2.5700182457894085,-2.0786320281788706,9.498727375644444,1.2743065270945428,0.3552658855915069,-0.1435962617397308,-0.2447135746479034,-0.2815346365630073,-0.3720688883730169,0.5446037002619146,0.6969288516252228,-0.1047539860010147,-0.0674424767494201,-0.0268127229064703,-0.0081241726875305,0.0127973556518554,0.0050007067620754,-0.0024307891726493,-0.0261026415973901,-0.0270540111422538,-0.0730868503451347,0.0669377663064748,0.0566668399218469,26
1733403023988936700,0.0885423529364168,-8.683246274295449,-1.6778841128706932,-2.0941351561285555,9.501913604465129,1.2241828982710838,0.0049640396609902,0.3355927765369415,0.1606720983982086,-0.2804883238828891,-0.3736508157427574,0.5458654683714154,0.6955158561433722,-0.1071308553218841,-0.0835085809230804,-0.0487839989364147,-0.0089637637138366,0.0088362693786621,-0.0043041743338108,-0.0288940221071243,0.0090842600911855,0.0122334586292505,-0.1561854928731918,0.0591784939492121,0.0019622399836778,27
1733403024028936700,-0.2443313189327716,-2.50722130561471,-0.0778781894505023,-2.0108571534611284,9.530761513286828,1.136414671512321,0.1609491109848022,1.3436691761016846,0.3854973018169403,-0.292847130394226,-0.3813214680473432,0.5446585287349943,0.6871547873075977,-0.0690788105130195,-0.0582929700613021,-0.0167303942143917,-0.0152844190597534,0.0035531520843505,0.0046821869909763,-0.0313473306596279,0.0044872388243675,-0.0133650930076837,-0.2524459362030029,0.1027849959636107,-0.0141601889081299,28
1733403024068936700,-0.3049721039868891,1.657948993822932,-0.465575338397175,-1.9089159513778984,9.561578091832995,1.0500598186828196,0.0092658000066876,0.0498934835195541,0.3860540091991424,-0.3062209014180194,-0.3889131823642589,0.5433308243876062,0.6780610535702029,-0.1155781373381614,-0.044726725667715,-0.029245987534523,-0.0130897760391235,-0.0056230425834655,0.0086612664163112,0.0132219083607196,-0.0104047916829586,-0.0302922624111175,-0.2927725911140442,0.1207137801576405,0.1151034659951925,29
1733403024108936400,-2.794740608888864,4.392719994917512,1.7093822439402342,-1.6765807751871644,9.615604281052946,0.9484808740407228,0.4302588403224945,0.1923813968896865,0.9517592191696168,-0.3136531854589103,-0.3849907031506415,0.5508385370788965,0.6708060464987831,-0.096983678638935,-0.0091067310422658,-0.0086546912789344,-0.0041722059249877,0.0066160261631011,0.0240386724472045,0.0554835423827171,-0.0358906239271163,-0.0500035095751285,-0.2962260842323303,0.0664398632543161,0.1299720954336226,30
1733403024148936400,-1.2349819401830433,5.8673079790771006,1.2503478516191244,-1.2594769144922495,9.69784592640996,0.7320510499250144,0.5622760653495789,0.1412949115037918,1.033220887184143,-0.325729463555186,-0.3782195746950667,0.565354523498469,0.6566769469398035,-0.1047744899988174,-0.0283353924751281,-0.0282877162098884,0.0105425119400024,0.0097764730453491,0.0133523903787136,0.080435536801815,-0.026581484824419,0.0191881000727415,-0.3132850229740143,0.0833695534083992,0.0370401292361319,31
1733403024188936400,0.3116258627876639,4.333423171818256,0.6112310329139232,-0.9490820548042654,9.74567969073057,0.5397810498800129,0.4596560597419739,-0.1590965688228607,0.5867199897766113,-0.3329571546852201,-0.3728357061732094,0.5774706594982799,0.6454926423774197,-0.0593223236501216,-0.0399518348276615,-0.0317014195024967,0.0057010650634765,0.0052452385425567,-0.0043797455728054,0.056636519730091,-0.0641837269067764,-0.0283048879861831,-0.3099590539932251,0.097333196831122,0.072736004256457,32
1733403024228936700,0.1206643149927258,3.5199066485404966,0.1909387514412403,-0.783109913771972,9.76821184053421,0.3730455597924068,0.387063056230545,-0.1392422318458557,0.2814454436302185,-0.3327790262110218,-0.3684822349920578,0.5875379241755512,0.6389664669757579,-0.0562327913939952,-0.0599787011742591,-0.0420208387076854,-0.0088362693786621,0.002980887889862,-0.0160336457192897,0.0461102798581123,-0.0270523913204669,-0.1076519809454679,-0.2570161819458008,0.0601463891332969,0.0260982082547619,33
1733403024268936700,0.7091422488287091,1.6093278785169125,-0.1716548080448992,-0.6928316038884222,9.77914064630568,0.2424334311558864,0.3244722187519073,-0.1727961152791977,0.1674336940050125,-0.3312048422137931,-0.366057333251313,0.5946775293454409,0.6345581368689999,-0.0241741891950368,-0.068972997367382,-0.0096597019582986,-0.0016955137252807,-0.0035063028335571,-0.0122380256652832,-0.0058034025132656,-0.0381308905780315,-0.0894189896404743,-0.1948829740285873,0.0944614407870918,0.0882829530815593,34
1733403024308936700,1.0409545750766993,0.4168675677210092,-0.8679396028608083,-0.6453129699315875,9.784228324833512,0.1511754443189129,0.1073326766490936,-0.0155842108651995,0.0670626237988472,-0.3301475339167294,-0.3653118305406195,0.5990321058595559,0.6314352774674685,-0.0161841735243797,-0.0854501277208328,-0.02092707157135,0.0012574791908264,0.0005243718624114,-0.0026924610137939,-0.0263388454914093,-0.0414464212954044,-0.0500210452318191,-0.0921960175037384,0.1257987552717328,0.0611969576321542,35
1733403024348936400,0.8308199055824428,-0.3117027274161577,-0.1660123817111365,-0.6264150849770754,9.785559865698218,0.1443149291659705,-0.0068123396486043,0.0688011050224304,0.0245677568018436,-0.3309199893810106,-0.3651254143683508,0.599437584968575,0.630753577980314,-0.0569459833204746,-0.0921347737312316,-0.053286675363779,-0.0081611275672912,-0.0011487603187561,0.0018947049975395,-0.052647441625595,-0.0183668285608291,-0.015194062000513,0.0109690427780151,0.0786902364857494,0.0544053977958857,36
1733403024388936400,-0.002372647415474,-0.2099912424355745,0.4683516712427139,-0.6252074627529829,9.786049110519883,0.1128405808308161,0.1698227822780609,0.0909286215901374,-0.0122196096926927,-0.3316266242997014,-0.3668170034620757,0.5997432928790664,0.6291081150662596,-0.0379571132361888,-0.0718900635838508,-0.0441569611430168,-0.0180040597915649,0.0080634355545043,-0.0047658681869506,-0.0769943594932556,-0.0521441139280796,-0.0320411519050598,0.0644721463322639,0.1159027266141027,0.0338183176454156,37
1733403024428936400,-0.3680493954729288,-0.3445014196902513,0.3901531637966632,-0.6256940041609108,9.786634216931462,0.0264380552179762,0.2620306611061096,0.0774046629667282,0.0352684929966926,-0.3307343366394768,-0.3690095245595519,0.6020664457431647,0.6260693795655458,-0.080962099134922,-0.0748023390769958,-0.0565239451825618,-0.0203987956047058,-0.0003751814365386,0.0032895803451538,-0.0636792108416557,-0.0376910418272018,-0.0244727624773979,0.06389931589365,0.1767088582977652,0.0688640581939369,38
1733403024468936400,-0.2318386979106813,-0.2375193008303642,0.3134989631831645,-0.6149605748310685,9.786942259967326,-0.0893418418841902,0.3142577111721039,0.2178468853235244,0.0352720096707344,-0.3306289639402101,-0.3723231052988469,0.6049220376651401,0.6213931008170436,0.051244668662548,-0.058650366961956,0.0073457127436995,-0.0085089206695556,0.0130690038204193,0.003675103187561,-0.0507360845804214,-0.0665875747799873,-0.012816226953268,0.0518873631954193,0.2106801745478063,0.0985204521206207,39
1733403024508936700,-0.1446361422106623,-0.2789700861155986,-0.3128057202219962,-0.5935263032667338,9.786346047639846,-0.2134694764727726,0.2717474102973938,0.2130950987339019,0.0766021013259887,-0.3311356256546313,-0.3759153276708186,0.6079239927080545,0.6160076314146562,-0.0820545330643653,-0.0250804778188467,-0.050415389239788,-0.0176233649253845,0.0043383836746215,0.0048124771565198,-0.0205210819840431,-0.0607321672141552,-0.042956513673067,0.0604169443249702,0.1869827072918415,0.1462703192837536,40
1733403024548936700,-0.405111444279924,0.4064244996398687,-1.421298877042532,-0.5760621409097686,9.7841950070858,-0.3287131181236356,0.3332625925540924,0.7996137738227844,0.0004513394087553,-0.3338306209690254,-0.3816779370721906,0.6091647215871124,0.6097518600415016,0.0710908100008964,-0.0205420795828104,-0.0113121941685676,-0.0040357708930969,0.0304729044437408,0.0094298124313354,-0.0135799366980791,-0.0448528975248336,-0.0768891784131527,0.0472365282475948,0.1819051848318427,0.1115769723694771,41
1733403024588936400,-1.7110775035507977,-0.47363691816926,-2.2324130153536794,-0.4763246959485113,9.786631294322014,-0.4065953992273658,-0.2072743773460388,0.6579965949058533,0.4819341599941253,-0.3452468321198134,-0.3898518499495396,0.6072447039441004,0.6000615634507349,0.1056639701128006,-0.0157604794949293,-0.0031384197063744,-0.0064834952354431,0.0049153268337249,-0.0024349689483642,-0.0073017454706132,-0.0246007610112428,-0.0923684870958328,0.0502662993967533,0.1737741930853575,0.1404876076964661,42
1733403024628936400,-0.7378135589744895,-0.2749246101170778,-1.763154166138172,-0.2074470195791684,9.802799169790744,-0.1801895765529945,-0.8376128673553467,0.8201255202293396,0.8059675097465515,-0.365785542793762,-0.3853621433372293,0.6005690052588795,0.5975063147831527,0.0841195285320282,-0.0296436976641416,-0.0101031186059117,-0.0001152157783508,-0.010009765625,0.0004612170159816,-0.0168880019336938,-0.0145257078111171,-0.0774450587302446,0.0410852245986461,0.1580053268715739,0.0652848845329135,43
1733403024668936400,-0.3502101527258753,-0.4086193793356418,-1.6561884138911962,0.1309910540846642,9.804514157015085,0.1572685918285511,-0.9380847215652466,1.1588033437728882,0.9334860444068908,-0.3953215683465202,-0.3812002315550749,0.5887851193357576,0.5930761658632282,0.0403901562094688,0.0031214389018714,0.0054602618329226,-0.0058076977729797,-0.0159896612167358,0.0100303944200277,-0.0284462850540876,-0.0088247945532202,-0.0431920759946107,0.0194722115993499,0.1520480259023606,0.0513928085090592,44
1733403024708936400,-0.4188580108858645,-1.4976479572296142,-1.5304747065544126,0.5119324908265843,9.777844761276244,0.5495999581808224,-1.0025644302368164,0.8085479736328125,1.093622803688049,-0.4254804711381242,-0.3725986366415622,0.5771901390677553,0.5890570110079546,0.0018510195659473,-0.0102178556844592,-0.0089396499097347,-0.0018562674522399,-0.0060360729694366,0.0013103522360324,-0.0350061506032943,-0.0002278611063957,-0.068115504848957,-0.0036376882344484,0.1143878650717437,0.0511925001639872,45
1733403024748936700,-0.067618515112251,-1.915089525446296,-1.5424585743367671,0.9036436611875892,9.718690561518072,0.9491455484945328,-0.9854657053947448,0.8171230554580688,1.0045695304870603,-0.454211867545695,-0.3612769396908176,0.5666445241525583,0.5848800136146817,0.0254950951784849,-0.0122049460187554,-0.0040444936603307,-0.0066473484039306,0.0006287992000579,0.0047179460525512,-0.037954568862915,0.0084423571825027,-0.0277104292243719,-0.046720303595066,0.1465392724182456,0.0653105669634416,46
1733403024788936700,-1.1936674946285784,-1.865916621476412,-0.8884902234584092,1.2448437012448903,9.626422027665376,1.397408006106317,-1.1660804748535156,0.829453706741333,1.03322172164917,-0.4833719388313597,-0.3507520860120818,0.5529240410676269,0.581033175478076,-0.0016531676519662,-0.0017241826280951,-0.0025358793791383,-0.0052025318145751,-0.0033292174339294,0.0010876636952161,-0.0332909449934959,-0.0033957175910472,0.0282283156186342,-0.093563325703144,0.1142315785314887,0.0991600469321012,47
1733403024828936700,-1.9500734528049823,-2.003417212718725,0.5278242893002927,1.6754883037753403,9.474671961796282,1.8957060489319264,-1.2057925462722778,1.2017558813095093,1.6225897073745728,-0.514442728977107,-0.3340152704102999,0.5401663541386887,0.5761967751960069,-0.0039288392290472,-0.0302283689379692,-0.0078947581350803,-0.0026978850364685,-0.0008909702301025,0.000385645776987,-0.009141981601715,0.0085950139909982,0.0157078567415475,-0.1342737674713134,0.1617406409423798,0.197132601112686,48
1733403024868936400,-1.6193455607928335,-2.513545247939229,0.421884811361134,2.2588966792620715,9.194714033687116,2.5544068351596594,-1.4236701726913452,2.770506858825684,2.442523002624512,-0.569030812687956,-0.3221094495967048,0.5157586684535655,0.5535723759429695,-0.0483780615031719,-0.0264635644853115,-0.0088524315506219,-0.0039244890213012,-0.0111814439296722,0.0001423358917236,0.0076005514711141,-0.0415063500404357,0.088902856811881,-0.2176621556282043,0.2039670867752283,0.1233473435316234,49
1733403024908936400,-1.0057315782651304,-1.0202069706022738,0.4912766197562217,2.849865699261427,8.752430869680643,3.3828406493231653,-1.6548973321914673,2.3929269313812256,2.570331335067749,-0.6321523003360343,-0.3066238224336202,0.48322350901353,0.5223604089836444,-0.0955895110964775,-0.0864724144339561,-0.0334749557077884,0.0054625272750854,-0.0115593969821929,-0.0015878695994615,0.0187430717051029,-0.0263098459690809,0.0114946229606866,-0.3271355330944061,0.1339114807091653,0.0472562932262197,50
1733403024948936400,0.2859945779249072,-1.1749679087251423,0.872606425628066,3.4136455374315378,8.176960301455855,4.201754063208401,-1.6784334182739258,1.559160590171814,2.4014461040496826,-0.6864411081483889,-0.2805562239617034,0.455036669473065,0.4929792440680656,-0.0539619140326976,-0.0163535121828317,0.0367628559470176,-0.0117462277412414,-0.012248158454895,0.0037217140197753,-0.0276008322834968,0.0354122892022132,-0.0646206484705209,-0.4720340669155121,-0.0015738982532173,-0.0792092188585549,51
1733403024988936700,1.5745149238109588,0.1100245552957057,2.159129167956113,3.872593128252029,7.63013013678193,4.791088906134664,-0.9766306281089784,0.5178073644638062,1.7197914123535156,-0.723180119668693,-0.2532063603771871,0.4377316409917201,0.4704128256928046,0.0586961917579174,-0.0750374346971511,0.0553224273025989,0.0189355015754699,-0.0122509598731994,-0.0149705428630113,-0.0701623484492302,0.0849740281701088,-0.0581008913129568,-0.611150324344635,-0.0925027079347521,-0.0623899850753136,52
1733403025028936700,2.155420084305108,-0.4250023588597774,1.5919646557837723,4.259693334218859,7.27391489842236,5.0115422136127945,-0.4008704423904419,0.0918157994747161,1.2181971073150637,-0.7412318954665683,-0.2333527663419198,0.4359231007913395,0.4539744028527744,-0.2212840616703033,0.0098575847223401,0.0227014329284429,-0.0194863080978393,-0.0164435505867004,0.0144094228744506,-0.1155248507857322,0.1850331425666809,-0.2285533195644617,-0.6760914325714111,-0.1046661700677126,0.0244035331660881,53
1733403025068936700,1.7619281314745543,0.7436766788542271,1.631397086983919,4.532577670679986,7.031343574899434,5.11725884258151,-0.2870474457740783,0.1076609566807746,0.8897577524185181,-0.7524803991012664,-0.2205222729067842,0.4364199138556157,0.4412265623330159,-0.2257254123687744,0.042060263454914,-0.0575862824916839,-0.0207825303077697,0.0516046583652496,0.007048251107335,-0.1907953321933746,0.1960062235593795,-0.1700894401580095,-0.6894754767417908,-0.0836004760874435,0.0642724926199764,54
1733403025108936400,0.7386401459917425,0.186107093501091,1.4216016593813896,4.687219366337359,6.780421187138557,5.312838113304973,-0.5016561150550842,0.8481257557868958,0.9926902651786804,-0.7664148537909556,-0.2109081481369112,0.4296956912714544,0.4283546273560842,-0.1521332114934921,-0.0386966355144977,-0.0944612100720405,-0.0028913021087646,0.056379348039627,-0.0227447748184204,-0.2473076283931732,0.2366873919963836,-0.1598293274283409,-0.6673264503479004,-0.0543240761879831,-0.0455160619627684,55
1733403025148936400,-0.0222436882510781,-0.0139887778639793,1.5599667584985493,4.766354277850687,6.463818412721157,5.6277259004980325,-0.5200563073158264,0.9433683753013612,1.0788010358810425,-0.7848068093642546,-0.20096620275225,0.4155459396710394,0.4135364149866356,0.0112194875255227,-0.0514065697789192,-0.0747556835412979,-0.0064963698387146,0.0600224137306213,-0.0207991562783718,-0.3145310282707214,0.2546386420726776,-0.1210118132561445,-0.5612280368804932,0.0120442562000826,0.0943373760160058,56
1733403025188936400,0.4611532841712236,0.0316688114613294,1.0625316161125895,4.808334932228923,6.176196233594418,5.908036295306682,-0.1796321421861648,1.0360112190246582,1.0935293436050415,-0.803447813843796,-0.1950375238765313,0.4009168744178191,0.3945852588658783,0.1402096897363662,-0.1156985312700271,-0.1100900396704673,0.0056174993515014,0.0251487493515014,-0.0005977153778076,-0.2923217415809631,0.2021927237510681,0.1439946294367313,-0.4327177405357361,0.2095201908577233,0.1439959446109831,57
1733403025228936700,1.3226008946642278,-0.4467407279372215,3.2262948736101387,4.741163722492754,6.004730244386196,6.134734342393279,0.5067501664161682,1.7573764324188232,0.8629144430160522,-0.8200873204160468,-0.1975295439446336,0.3849645061836858,0.3744879613036381,0.1301565319299698,-0.1154693886637687,-0.0966399386525154,0.006622314453125,-0.0246968269348144,0.0189452189952135,-0.2401785254478454,0.1289499402046203,0.0861561884522438,-0.3342290222644806,0.2723211496204137,0.3092848526194691,58
1733403025268936700,1.38176415451169,0.0173380882918834,0.9608768297553062,4.491810776005685,6.061539926844835,6.265123055803776,0.8985406756401062,1.2684369087219238,0.735356330871582,-0.8369841449131793,-0.2193047487283478,0.3639684910111183,0.3448043715170739,0.0123252319172024,-0.1492692083120346,-0.1078096404671669,0.0052258968353271,-0.0622049570083618,0.0280697345733642,-0.1298822462558746,0.0667306333780288,0.0656733723938465,-0.2858130633831024,0.2455159621400758,0.109272567884624,59
1733403025308936700,2.5413380947500466,0.460900770714879,-0.8675520648479461,4.435066267737746,6.146646898505091,6.222483352994918,0.1248683333396911,-0.2944878041744232,-0.1640050560235977,-0.8403266711565577,-0.2300091392355413,0.3603296040388716,0.3333307975170491,-0.1198029741644859,-0.1164805367588996,-0.0929213017225265,0.0025566220283508,-0.0804894268512725,0.0369294881820678,-0.0732101947069168,0.0592083930969238,0.0213525846302509,-0.3209582865238189,0.2955418296774849,0.1655693323850631,60
1733403025348936400,-0.269629426318407,0.7378805597960949,-1.0632166757673025,4.462475375927984,6.164602826434374,6.18501257725656,-0.4097052216529846,-0.3117182850837707,-0.3258388936519623,-0.8350619761625415,-0.2260420376766369,0.3654546851253715,0.3435396051838017,-0.234889343380928,-0.0575200170278549,-0.0409111641347408,-0.0070201754570007,-0.059086263179779,0.0170836448669433,0.0215801820158958,-0.007925845682621,0.0816337425917387,-0.2975460290908813,0.3237242237951606,0.2719021935559809,61
1733403025388936400,-3.709108493186533,0.5738929436445236,0.5498907212883234,4.538250455619394,6.005222996339201,6.28585429366529,-0.3637512624263763,-0.2123562842607498,0.8464866876602173,-0.8380640421763338,-0.2158091517045887,0.3646053197741781,0.3437121432960228,-0.3412717282772064,-0.0499699562788009,-0.0447780080139637,0.0001352429389953,-0.0272434949874877,-0.0058707003481686,0.0914999321103096,0.0091783720999956,-0.0394786084294319,-0.2771775722503662,0.2405065364802256,0.372132061676681,62
1733403025428936400,0.6288526143223047,-0.2513631172657012,-0.0183954883903265,4.7720174181789154,5.830750811052322,6.276988265642523,0.0867324024438858,0.0021310863085091,0.8425366282463074,-0.8440220152405357,-0.2086267307029335,0.3693745434205995,0.3281222660177474,-0.2891046702861786,-0.0412019230425357,-0.0208072289824485,0.0023684501647949,0.0259451568126678,-0.0323066711425781,0.1202063784003257,0.0283923707902431,-0.0803740979194641,-0.2901664674282074,0.1466428789231926,0.2107398688457906,63
1733403025468936400,1.450472949078679,1.493330678552389,-0.6515969455718994,4.905682961302995,5.684635536199808,6.30789836769104,-0.1489249765872955,0.2045752555131912,0.5134544372558594,-0.8493588843636594,-0.2032579415674505,0.3702335864163172,0.3165482815028026,-0.0585204474627971,-0.0658045262098312,-0.0060121035203337,0.0053725838661193,0.0670747756958007,-0.0258522033691406,0.1136779934167862,0.0722202509641647,-0.0435252534717321,-0.2405712902545929,0.077333597712405,0.3042635173261165,64
1733403025508936700,-0.2276297749787569,0.9381552948594092,-0.8837783925056457,4.939268420040607,5.53666323530376,6.4124383540958165,-0.1161090731620788,0.4040950536727905,0.6217294335365295,-0.8558927398050762,-0.1986112777055345,0.3655272750236478,0.3072309800123273,0.0469010509550571,-0.0733013227581977,-0.0057929251343011,0.0046933889389038,0.0320606529712677,-0.0125842094421386,0.0905529260635376,0.047944352030754,-0.0032914427608251,-0.1982416957616806,0.0304238163689151,0.2329375259980559,65
1733403025548936700,-1.1109738677203655,-0.3944312795072793,-0.909837547391653,5.031179811018705,5.3772138471037145,6.476355822733044,0.3026686906814575,0.2607834935188293,1.1135711669921875,-0.8637604671550002,-0.1956277379829806,0.3626672365646441,0.2900347433214381,0.0006347538437694,-0.0728204101324081,-0.020469807088375,-0.0016564130783081,-0.007349669933319,-0.000481724506244,0.0464672818779945,0.0645113736391067,0.1385480544686317,-0.1742468029260635,0.0017934044891037,0.1802040069371461,66
1733403025588936400,-2.1713123577028512,3.3886703783899543,-1.1436679305762052,5.177980730047822,5.165512293618917,6.532716592380404,0.2672091722488403,0.9137666821479796,1.803201675415039,-0.8746446788507641,-0.1938273526243191,0.3596597175320536,0.2609070688830803,-0.0603116862475872,-0.0699490383267402,-0.0349748432636261,-0.0081796646118164,-0.0350745618343353,-0.0001685023162281,0.014203768223524,-0.0071217566728591,0.1126823763281106,-0.1982360780239105,0.0336252610250376,0.0825853442281484,67
1733403025628936400,-2.4694722974568606,0.6522188768625259,-1.81260004183054,5.436337067201733,4.769750057768821,6.623149727499484,0.0754574090242385,0.3897507190704345,2.356812000274658,-0.8882487159054709,-0.184848212408955,0.3579727554306678,0.2206826594303705,-0.1528184413909912,-0.0761946886777877,-0.0734103843569755,-0.0191298127174377,-0.0523715317249298,0.0102151632308959,0.0006037596613168,0.019217250868678,-0.0010673369705677,-0.0959607809782028,0.04287816947354,0.1442185013204812,68
1733403025668936400,-3.163994192519784,-0.7912482851073145,-2.1440917578220366,5.8164703567653895,4.179193564093112,6.698761141061783,-0.0330356806516647,0.1607191711664199,2.970223903656006,-0.9009798644417254,-0.1673194445051267,0.3611958335446426,0.1725604459026598,-0.269084095954895,-0.06235983222723,-0.055452823638916,-0.0164198279380798,-0.0699150562286377,0.020446240901947,0.0043123196810483,0.018770482391119,0.0049228433549404,-0.0148883089423179,0.1172642059593461,0.1332243752278387,69
1733403025708936400,-4.0026036559998985,-2.0646885507613417,-1.801407616686821,6.375855467107892,3.3922730790570377,6.634103083190322,0.3895540535449981,-0.4985299408435821,3.771461248397827,-0.9087697084671136,-0.1443550617488911,0.375388440204178,0.1112774933079645,-0.3474731743335724,0.0389444679021835,0.0046748286113142,-0.0286837816238403,-0.0153643786907196,-0.0049976110458374,0.0216895807534456,0.018270157277584,-0.0040630116552114,0.0525502637028694,0.1108193589352071,0.0700638624377548,70
1733403025748936700,-3.192407217055559,-1.9295120185524224,-1.84999249163568,6.989461412459612,2.505018242612481,6.406457526120543,1.1414412260055542,-0.3695936799049377,4.248800754547119,-0.908597315330736,-0.126154463072964,0.3967954388433062,0.0330063815930082,-0.3588267564773559,0.0321840904653072,0.0251256413757801,-0.012449026107788,0.0032855570316314,-0.0026389360427856,0.0186706613749265,0.0175754707306623,-0.0237549695968627,0.0393977127969265,0.102206355825439,0.0155482822656631,71
1733403025788936700,-2.165164356467128,-2.5821891605764624,-2.8417414295166727,7.262120415732264,1.6019130722157655,6.392641766735911,1.364754557609558,1.1699159145355225,4.533594608306885,-0.90702858331569,-0.1151850839349748,0.4009967197593044,-0.0568616226614026,-0.3197848200798034,0.0660191774368286,0.0199949294328689,-0.0159374475479125,0.0194038450717926,-0.0141906719654798,0.0395452491939067,0.0182037092745304,-0.0082101944625377,0.0600768253207206,0.1731573398286476,0.1235727497853338,72
1733403025828936700,-1.5607330666959285,-4.471097658322751,-2.215171957695484,7.000059963363409,0.5712425752662121,6.844211230003833,1.2861648797988892,2.3000905513763428,5.092440128326416,-0.9076837360891796,-0.0977016607090555,0.3761605008419271,-0.1583285407347072,-0.3014460206031799,0.0796634033322334,0.0024665358942002,-0.0041857957839965,0.0107771754264831,-0.0073726195842027,0.0420277751982212,-0.0336920656263828,-0.0913134250849485,0.0412607453763484,0.2098940839377231,0.0575165155537426,73
1733403025868936400,-1.1673895824253555,-4.588970881292224,-2.236816803270578,6.254768835049867,-0.5123244858188555,7.535633990007638,0.8046357035636902,3.1550893783569336,5.388336181640625,-0.9021205072074208,-0.0690376648002837,0.3332017150845507,-0.2653094739590736,-0.2399397641420364,0.0962843522429466,0.0033297326881438,-0.0007348656654357,0.015175461769104,-0.0163586139678955,0.0555879399180412,0.0177181437611579,-0.1501461378037929,0.0334693826735019,0.123800494126603,0.0273486101746559,74
1733403025908936400,-0.4382400260955095,-2.6355910804182288,-3.389832992428541,5.079699219515919,-1.53391111074388,8.247069610470533,-0.2662015855312347,1.5526624917984009,4.162581443786621,-0.8885584058974791,-0.0263217413603765,0.2807554492368166,-0.3618669186119287,-0.1830948591232299,0.069555327296257,0.0278508532792329,0.0030636191368103,0.0192350149154663,-0.0176315307617187,0.0458752177655696,0.0393405258655548,-0.1489490369737148,-0.0205679535865783,0.1266023998048156,0.0990296985507011,75
1733403025948936400,0.8863745464786886,-1.559098158970475,-3.343702524894476,4.579737481261789,-2.5905022308915853,8.275608307212591,-2.3804354667663574,-0.3890178799629211,1.6791938543319702,-0.8716070168572296,0.0228526197315877,0.2784585669868007,-0.4027900677912868,-0.1389969140291214,0.0748128816485405,0.0357702299952507,-0.004373013973236,0.0308675467967987,-0.013353943824768,0.0602316595613956,0.022032830864191,-0.0878571471512317,-0.0812775939702987,0.1495049264239613,0.0412698757603764,76
1733403025988936700,1.4468161801367998,-1.1704995311394333,0.9939256973981856,4.997925191670656,-3.3985350620612502,7.722763996815681,-1.431164264678955,-2.3688888549804688,0.5632986426353455,-0.8516834496200663,0.0481236772057323,0.3223859779243472,-0.4103495210662686,-0.1227404475212097,0.0755107402801513,0.1150678470730781,-0.0029018521308898,0.0330276787281036,-0.0138710737228393,0.0555408671498298,-0.00136424228549,0.0151432085961103,-0.1725633144378662,0.2210245680274441,0.0464700747519731,77
1733403026028936700,1.471252702257037,-1.2823419495120645,2.644753461039066,5.557973734357953,-3.990587931774556,7.025277406728267,-1.9855746030807493,-1.7640976905822754,0.6093005537986755,-0.8305973613967744,0.0614585017338264,0.371528463753879,-0.4102406814039049,0.1263428777456283,0.0440150238573551,0.152294173836708,-0.023001492023468,0.0823467373847961,-0.0442210398614406,0.0663355514407157,0.001317226095125,-0.0798141259491443,-0.1773733049631118,0.1816091244947165,-0.0014367548048496,78
1733403026068936700,3.074251962274313,-1.1790165995940565,3.898827639704943,5.713515009203553,-4.735858601821959,6.410754346531629,-2.3122854232788086,-0.1407309621572494,0.8679508566856384,-0.8126687619338195,0.0935926186898398,0.40544163467633,-0.4079546322382483,0.301192432641983,-0.022464508190751,0.0940972492098808,-0.009046196937561,0.0593773126602172,-0.020588994026184,0.0870013386011123,0.0065293507650494,-0.0359299760371446,-0.1518725007772445,0.2484780633486807,-0.0239376326873898,79
1733403026108936400,3.2763843079030512,-0.9086006990730762,4.969251470372081,5.485944855457544,-5.501425333184003,5.984072071760893,-2.442704200744629,0.4970666170120239,0.3951045274734497,-0.8046227448604345,0.1423700454471155,0.4178851696825205,-0.3970958377837287,0.3811703622341156,0.0071540507487952,0.1009778678417205,-0.0188381075859069,0.0060610175132751,0.0157407559454441,0.0636661052703857,0.0314236134290695,-0.1894552348852157,-0.1340466439723968,0.1093109362667892,-0.1627998676717281,80
1733403026148936400,2.2786872752726075,-1.0445295109540222,4.4934097356349225,5.381411298793554,-6.001007424470782,5.58558070320785,-1.5508544445037842,-0.0907686501741409,0.0731429457664489,-0.7989397477047858,0.1776757516035773,0.4285393298617996,-0.3827280172121296,0.1271018832921981,0.0139667363837361,0.0579301267862319,-0.0007678270339965,-0.0466615855693817,0.036330584436655,0.033956229686737,0.0645612329244613,-0.1486485927224159,-0.1164101734757423,0.105123604112165,-0.2828565721601248,81
1733403026188936400,1.5240005421042442,-0.7006979533493518,4.158762770482897,5.4715580181866885,-6.243534324330091,5.220222957971692,-0.5441015958786011,-0.8797454237937927,0.03925097361207,-0.7904705819391206,0.19155535407702,0.4440149295061307,-0.3759170610480778,-0.0132421785965561,0.0440181121230125,0.0483998730778694,-0.0191101431846618,-0.0408124327659606,0.0373386181890964,-0.0244434662163257,0.0830724909901619,-0.1548497854501009,-0.1145710200071334,0.0230463418368948,-0.2543555770799517,82
1733403026228936700,0.9906494522064924,-0.7643477109611034,2.512998719972372,5.652810657393932,-6.284630304828286,4.971873635569215,-0.0249304249882698,-0.9389247298240662,-0.0237086843699216,-0.7813820143594208,0.1876735373559691,0.4596559829544245,-0.378070216828742,-0.0148816211149096,0.0682820677757263,0.0623828694224357,-0.0098668336868286,-0.0102463066577911,0.0110599994659423,-0.0497425869107246,0.0837013721466064,-0.1004997711032629,-0.0677224397659301,0.0185823116327403,-0.2027525233536958,83
1733403026268936700,-0.0377466700702905,-0.3809732475191354,0.9042261372506618,5.927931666865945,-6.259494694527984,4.674263438652456,0.2468876838684082,-1.236822485923767,-0.0234879534691572,-0.7688012566135065,0.1752272220516847,0.4805978603766185,-0.383752236140835,0.027486341074109,0.0529955737292766,0.0733353793621063,0.0039603114128112,0.0024352669715881,-0.0125216245651245,-0.0680639743804931,0.066237598657608,-0.1203758534401655,-0.0682033523917198,0.0201434303194866,-0.1619520186707377,84
1733403026308936700,-0.1731394753783941,-0.6272516088664531,0.4363204562097788,6.097591483435035,-6.2225593408405775,4.502169672934711,-0.0649808943271637,-0.4902341663837433,-0.0054296539165079,-0.7611208015680766,0.1658157496185908,0.4929080747287878,-0.3876106391101167,0.1226472184062004,0.039366740733385,0.0821545049548149,0.0041055679321289,0.021375149488449,-0.0219590663909912,-0.0441079661250114,0.0581186488270759,-0.0754652830898761,-0.0617746002972126,0.0467258122118655,0.0138894091427326,85
1733403026348936400,-0.3976128321528434,-0.5383119271755218,0.2841688238024711,6.121999948504567,-6.279177300119399,4.389013541615009,-0.2743212878704071,-0.1207524538040161,0.1578426212072372,-0.7572420680557105,0.1677243191834208,0.4980874794524038,-0.3877652918741474,0.1787797212600708,-0.0040263254195451,0.0642829611897468,0.004399299621582,0.0134019255638122,-0.0093567371368408,-0.0166132692247629,0.057375319302082,-0.0862614023923873,-0.0959227606654167,0.0348937557240482,0.037089375205338,86
1733403026388936400,-0.0738888275533914,-0.4780564881771802,0.527095536634326,6.081838033986092,-6.373399890649318,4.30829340673685,-0.3665951788425445,0.092264823615551,0.1548993289470672,-0.7549468404097743,0.1741640867992224,0.5000050406321724,-0.3869327831575909,0.1281381249427795,-0.0266465228050947,0.0486079975962638,-0.0019384622573852,-0.0181272029876709,0.0097304582595825,0.0267256665974855,0.0649027898907661,-0.0886000744730234,-0.1268394291400909,0.0102485844053677,0.1258604223310947,87
1733403026428936400,-0.157867087444663,-0.2867886509120464,0.6581199175998568,6.026503684777021,-6.47054509062767,4.240715662026405,-0.1836601942777633,-0.0782176107168197,0.2299187034368515,-0.7527375648090159,0.1807928592352868,0.5010964102201607,-0.3867846978174669,0.0163663122802972,-0.0234696920961141,0.0249193143099546,-0.0033715367317199,-0.0338894426822662,0.0164705514907836,0.0499143898487091,0.0574447736144065,-0.0322696999639272,-0.1902341544628143,0.0084786498401081,0.0034694296762347,88
1733403026468936400,0.2220014137029647,-0.1079869119882583,0.6734256232813001,5.995291384911537,-6.5416083393663165,4.175431288950145,-0.0347837246954441,-0.2281974107027053,0.2092831581830978,-0.7490018429294593,0.1833185000099688,0.5034943666462917,-0.3897229387422555,-0.04938979819417,-0.0508139617741107,0.0079180262982845,0.0037667751312255,-0.02278533577919,0.0074589289724826,0.0550982356071472,0.0394406393170356,0.0385801982849836,-0.17830491065979,0.011514341441309,0.0511801521390676,89
1733403026508936700,0.3617623510926961,-0.0437573086619377,0.5861360468849539,5.998583412194252,-6.576958469688892,4.114729275228083,0.1074901893734932,-0.3623659610748291,0.1371274441480636,-0.7447562368705481,0.1821363022919168,0.5069847708049311,-0.3938666609912306,-0.0848977193236351,-0.0646637827157974,-0.0050873206928372,-0.0014002323150634,-0.0169691443443298,0.0069241560995578,0.0529449768364429,0.0054814219474792,0.0249210907667875,-0.1574833840131759,0.0243115349005442,0.0182946583643555,90
1733403026548936700,0.3212251735210418,-0.0954535936295986,0.407943964292109,6.023259003767371,-6.582722440043091,4.069212847939133,0.1387347728013992,-0.3030705153942108,0.0952586680650711,-0.7409160215458919,0.1786659376977157,0.5104961952905952,-0.3981400625155037,-0.1108933687210083,-0.087480254471302,0.0159482564777135,-0.0043047666549682,-0.0048736035823822,0.0006299018859863,0.0535180009901523,-0.0237228386104106,0.0525976177215576,-0.1271333247423172,0.0998470245492644,0.0928799437493085,91
1733403026588936400,0.1765150892913341,-0.0853618232041597,0.1973819362312555,6.039580023971199,-6.580394873878359,4.048735000316799,0.1706058084964752,-0.2443555295467376,0.0741881802678108,-0.738155717880402,0.1753700388965994,0.5126571132460623,-0.4019380078505441,-0.0117699839174747,-0.0758070424199104,0.0235432591289281,-0.0197057127952575,0.0245985388755798,0.0008769016712903,0.0545739233493804,-0.0073946118354797,-0.0327525150448083,-0.1060111373662948,0.0326709285754244,0.0411094245016574,92
1733403026628936400,0.2011573631167411,-0.0816506937265396,-0.1090846440970897,6.062223232933879,-6.562857463622093,4.043355937626957,0.21990966796875,-0.2529745697975158,0.0307163000106811,-0.73587122456974,0.171087641158813,0.514368772539656,-0.4057674993817904,0.036120843142271,-0.0605775378644466,0.0194482486695051,-0.0074416399002075,0.0130584836006164,0.0053114891052246,0.0404241904616355,-0.0008773286826908,-0.0229635269582271,-0.0683279931545257,0.0750886272306321,0.1059603745967149,93
1733403026668936400,-0.080596216237545,-0.0334498496592044,-0.3299854030817747,6.095279699361324,-6.535940230602026,4.037257328490913,0.1837355643510818,-0.2692959308624267,0.0467882193624973,-0.7336778383589275,0.1661545899110362,0.516284629499038,-0.4093406138391935,0.0279582533985376,-0.0592705644667148,0.0182490274310112,-0.0067540407180786,-0.00381600856781,0.0080257654190063,0.0309582240879535,-0.0038315462879836,0.0037175592184066,-0.0327431783080101,0.0884660910961218,0.0469362309589982,94
1733403026708936400,-0.037311201262474,0.0552531006664037,-0.391074954816699,6.117385732707381,-6.53156800686717,4.01080800524354,0.0717281028628349,-0.2347926646471023,0.0694472789764404,-0.7310645407633068,0.1630145864071998,0.518586482507976,-0.4123576773527959,-0.01158276386559,-0.0308848917484283,0.007086188532412,-0.0128723978996276,-0.0159689486026763,0.0127439517527818,0.0221183188259601,-0.0009884808678179,-0.0099579149127006,-0.0303484052419662,0.0919240677965805,0.031080197918415,95
1733403026748936700,0.1535147374540567,0.0267827929854393,-0.181069683855772,6.128571143588424,-6.544248040220141,3.972886270867288,0.000100698787719,-0.1357314735651016,0.0679965987801551,-0.7285445222477394,0.1616657106536297,0.5208678984276299,-0.4144681136534004,-0.0581880845129489,-0.0207860246300697,-0.0080940965563058,-0.0125663876533508,-0.0187547504901886,0.0078277606517076,0.0222403481602668,-0.0045922109857201,-0.0149210902780294,-0.02941470220685,0.1175422922483645,0.0605740034282207,96
1733403026788936700,0.139545248812437,0.0505108745753765,-0.0448991721734404,6.121740420785546,-6.568425034621358,3.943407078404724,-0.0601416900753974,-0.0531580224633216,0.0757766664028167,-0.7269323080101969,0.1622767435095602,0.5221191885413787,-0.4154841929331126,-0.089775301516056,-0.0065382188186049,-0.0089603560045361,-0.0098019242286682,-0.0127437710762023,0.0071907043457031,0.0254435911774635,-0.0087628606706857,-0.0322615166574716,-0.0601629763841629,0.1307986733177211,-0.0202083830311894,97
1733403026828936700,0.2729728915274143,0.0234954418778419,0.0779033238917589,6.111165835279226,-6.592885522139072,3.918916780270636,-0.0656049400568008,-0.0203886032104492,0.0321282260119915,-0.7258590784970644,0.1634998696850051,0.5229327271452368,-0.4158579993134331,-0.089115634560585,-0.0010230254847556,-0.0111183151602745,-0.0051688551902771,-0.0047596096992492,0.004164695739746,0.0236018430441617,-0.0220088921487331,-0.0342407077759504,-0.0817608311772346,0.1551138066811486,0.0208504803270101,98
1733403026868936400,0.1139250698655843,0.0270160172194242,0.1294821199595928,6.105463239723444,-6.609124709278345,3.90040789463371,-0.0580444373190403,-0.0040578250773251,0.0218103136867284,-0.7253571205212592,0.1646269312328441,0.5234811464094036,-0.4155990614532422,-0.0749188587069511,-0.0051156650297343,-0.0073512736707925,-0.0048409700393676,-4.13060188293457e-05,-0.0039577484130859,0.040664367377758,-0.0144418720155954,-0.0746007752150297,-0.083154372870922,0.1359953743111342,-0.0053594812065362,99
1733403026908936400,0.1018845034599304,0.0459510193139314,0.1337035370469093,6.102539461231231,-6.619680590084195,3.887058583717048,-0.0302375741302967,-0.0227745212614536,-0.0016428148373961,-0.7249861457311337,0.1653324510555659,0.5239087197626598,-0.4154274226804872,-0.0673829093575477,-0.0012926971539855,0.0037392606027424,-0.0016660094261169,-0.0038684904575347,-0.0052257813513278,0.0423861630260944,-0.0096129328012466,-0.0681798022568225,-0.081587828695774,0.1335618087549693,-0.0154670337229967,100
1733403026948936400,-0.0106271924763917,-0.0130406833589077,0.1545394043266773,6.110753747346997,-6.620543928915262,3.872658010181784,-0.0166609715670347,-0.0382070578634738,-0.0147619303315877,-0.7246481849100741,0.1652705878923327,0.5246284672292799,-0.4151333212230279,-0.0897713080048561,-0.0260282438248395,-0.0115506798028945,0.0055680274963378,-0.0083310604095458,-0.0043809413909912,0.0556196048855781,-0.0042992862872779,-0.0729401485264301,-0.0365518853068351,0.1088350075844209,-0.0001925999626517,101
1733403026988936700,-0.1839689124286174,-0.070443071013689,0.1246732583731412,6.116801210817695,-6.622248979267478,3.8601767142713066,0.0055454550310969,-0.0581269189715385,0.0244897194206714,-0.7241249268852166,0.1650089975477438,0.5253168466432495,-0.4152800355655154,-0.0892258882522583,-0.0269761160016059,-0.00769595336169,0.0024177432060241,-0.0077648758888244,-0.0011061392724514,0.0580180548131465,0.0096775256097316,-0.087649641880393,-0.0187115669250488,0.0978783365584909,-0.0402007852241396,102
1733403027028936700,-0.0913747998833656,-0.0707744949251413,0.073436407610774,6.115785311773419,-6.630895227059722,3.8469191732913255,-0.0006608511321246,-0.0528205223381519,0.0489986427128315,-0.7231931233597653,0.1648438638093162,0.5260116029638161,-0.416088944796919,-0.0941380932927131,-0.0233075059950351,0.0016821017488837,-0.0005854368209838,-0.0073220431804656,-0.0029182434082031,0.0510242991149425,0.0131927384063601,-0.0504722961306571,-0.0050091752782464,0.095986074804794,-0.0120043260484933,103
1733403027068936700,-0.0750485189825296,-0.0660731853663921,0.1432937876909971,6.109933663135767,-6.643976826950907,3.833625099693239,0.0096470126882195,-0.0652992203831672,0.0612819716334342,-0.7221620151261744,0.1649374688499622,0.5266261988665226,-0.4170642661787552,-0.088234394788742,-0.0487439967691898,-0.0015110283857211,0.0025317072868347,-0.0024036765098571,-0.0046503562480211,0.040054015815258,0.0067748329602181,-0.026891514056921,-0.0090181343257427,0.0752923513754969,0.0034413726255297,104
1733403027108936400,0.0570575197398662,-0.1219096388787031,0.0602092617690563,6.103821902257204,-6.656973086646199,3.820791629344225,0.0373979322612285,-0.0932422131299972,0.0686841011047363,-0.7208123900239636,0.1646162692962474,0.527347443487622,-0.4186115514440392,-0.0699632465839386,-0.0445223003625869,0.008144062012434,-0.0039023160934448,-0.0028864443302154,0.001497745513916,0.0340659841895103,0.0105083025991916,-0.0395393987059593,-0.0273909475654363,0.0876005420416593,0.0425815428808331,105
1733403027148936400,0.0668242959946393,-0.0948386766016483,0.0045452422142028,6.098693891718983,-6.667583912509679,3.8104654656410215,0.0375215746462345,-0.0681886598467826,0.0729205161333084,-0.7194518312436466,0.1640291009387757,0.5280291570425739,-0.4203198548523618,-0.0662422776222229,-0.0328812524676322,0.007202701177448,-0.006237506866455,-0.0022879838943481,0.0020233392715454,0.038245566189289,0.0113209094852209,-0.0371411053925752,-0.0346016958355903,0.0880182925296947,0.0560851675763726,106
1733403027188936400,0.1208048925071954,-0.0404617742478847,-0.0373071096092462,6.087959731736779,-6.678267219087481,3.808923496896029,0.0511250607669353,-0.046965654939413,0.0657129138708114,-0.7184113056584026,0.1636806625775931,0.5282116919849374,-0.4220028318390846,-0.078491486608982,-0.0397805944085121,0.0048669762909412,-0.0034952759742736,-0.0046176612377166,0.0015674829483032,0.028453029692173,0.0028401706367731,-0.0197328744739294,-0.0596526563167572,0.0945991596241947,0.044995033763349,107
1733403027228936700,0.109893622392416,-0.0160404496967792,-0.0710784463077783,6.076124917036295,-6.686077600577473,3.814113759015501,0.0347741320729255,-0.0047999764792621,0.050745602697134,-0.717788424484998,0.1634794832830625,0.5280234595424216,-0.4233740309902172,-0.0681030303239822,-0.0279709678143262,0.0074292034842073,-0.0066909193992614,0.0029179155826568,0.0010520238429307,0.0297657568007707,0.000365839106962,-0.0157557875365018,-0.069548986852169,0.107342513137497,0.0359530646517872,108
1733403027268936700,0.084031451383233,-0.0053460372030735,-0.1119900101497769,6.066073478621244,-6.692432522562146,3.8189620758295058,0.00826764293015,-0.0099773919209837,0.0329430662095546,-0.7174026262771606,0.1634584367638258,0.5277958489286905,-0.4243185841672861,-0.02233980409801,-0.0258461367338895,0.00901944283396,-0.0076208114624023,0.0050878524780273,-0.0005531329661607,0.013548232614994,-0.0049494924023747,-0.0294312616676092,-0.088574394583702,0.0929640418361872,-0.0039820553734898,109
1733403027308936700,0.0177776487529277,-0.0402916783779859,-0.0443400769859552,6.058706164723635,-6.700732733395696,3.816105517354608,-0.0038034371100366,-0.0100381784141063,0.0325304791331291,-0.7170451318816936,0.1637909333969221,0.5278307403756598,-0.4247512902769927,0.0534481666982173,-0.0401993505656719,-0.0268970802426338,-0.0002018213272094,0.006718099117279,0.003337025642395,0.0098134707659482,0.0062688253819942,-0.0069686699688434,-0.0702377185225486,0.0885468373152893,0.0306184256255626,110
1733403027348936400,-0.0394423680722713,-0.056815527677536,-0.0669575669854879,6.051283321246505,-6.707253659597039,3.81642729665488,0.0059423809871077,-0.0055853147059679,0.038854245096445,-0.7167102159251478,0.1639374031571265,0.5277697282894658,-0.4253353873857897,0.039293996989727,-0.0492426976561546,-0.0560756027698516,-0.0062788724899291,-0.0093677639961242,0.0029985904693603,0.027625948190689,-0.0045956308022141,-0.0491723194479942,-0.0761206895112991,0.0539274050205945,-0.0222486566871404,111
1733403027388936400,-0.0084212068647146,-0.0530038604348897,-0.1107218899101018,6.040163376817107,-6.721389736977219,3.809164904436469,-0.0365995615720748,-0.0162994284182786,0.0574906282126903,-0.7160750484396999,0.1645215388070083,0.5279387298025038,-0.4259693814247848,-0.0855254307389259,-0.0737019702792167,-0.0578054599463939,-0.0075551867485046,-0.0316706597805023,-0.002026081085205,0.0445315316319465,-0.0055657625198364,-0.0358645095854997,-0.0653124302625656,0.0498518261447548,-0.0179965522006154,112
1733403027428936400,0.0470376455068588,0.0001344400346279,-0.0090063132762908,6.02510667746067,-6.7441516038835045,3.792743054206669,-0.056224949657917,-0.0068110590800642,0.0676357671618461,-0.7152499840897254,0.1658025312893648,0.5283308049707072,-0.4263725957581923,-0.1363268196582794,0.0037290658801794,-0.0023123736027628,-0.0125456452369689,-0.0261344015598297,0.022761108353734,0.0444288961589336,-0.0066386302933096,-0.0300707286149263,-0.0454687625169754,0.0358439234551973,-0.0836404062390327,113
1733403027468936400,0.1488952609598636,-0.0182604638338088,0.0756593443572521,6.007793723610043,-6.768104141879081,3.7775089524567127,-0.0443500094115734,-0.0016825019847601,0.0598105452954769,-0.714453956733586,0.1672090900968283,0.5286225176812667,-0.4267961970953081,-0.0846298038959503,0.0058151199482381,0.0203716997057199,-0.0090647339820861,0.0164552927017211,0.0024071913212537,0.0384926460683345,-0.0226657763123512,-0.0269067116260528,-0.0208430998027324,0.0371123450889717,-0.0267474294111132,114
1733403027508936700,0.1461947698295116,-0.0568804096072912,0.02472995210886,5.995680676490068,-6.784550834289193,3.767235980245471,-0.02471767924726,-0.0152966985478997,0.0357806608080863,-0.7138536219837918,0.1681095769560426,0.5288322821757693,-0.4271868441698246,-0.0325389131903648,-0.0052985176444053,0.0035399226471781,-0.0034646391868591,0.0193670988082885,-0.0073108673095703,0.0278538297861814,-0.0170212294906377,-0.0509130256354808,-0.0186254363507032,0.0408199035031721,-0.0837158095628023,115
1733403027548936700,0.1497428176999092,-0.0188666130334138,0.0425485173940658,5.9894397362738845,-6.793385298129916,3.761239370179176,-0.0021637696772813,-0.0020528873428702,0.0181435868144035,-0.7134688029295743,0.1685267004007086,0.5289885760987226,-0.4274718254680699,-0.0184079129248857,-0.0123190898448228,0.0136946886777877,-0.0027822256088256,0.003150850534439,-0.0128225069493055,0.0231915581971406,-0.0125319305807352,-0.0618494301915168,0.0025089029222726,0.0549030816523358,-0.0110059626609086,116
1733403027588936400,0.1031301196068525,0.0407704018056392,0.0243155260890722,5.988017594516277,-6.795561473125219,3.759569975662232,-0.0013931607827544,-0.0140155097469687,0.0025760093703866,-0.7133196220089337,0.1685661518654868,0.529056453713642,-0.4276210101226829,-0.0413379967212677,-0.0095325177535414,0.013855411671102,-0.0100032687187194,-0.002790093421936,-0.0039886217564344,0.0215642526745796,-0.0177730843424797,-0.0768991152852773,-0.0006976996082812,0.0669996890941634,-0.0092886373490095,117
1733403027628936400,0.0964922890275716,0.0167845460623502,0.0714104547411203,5.989717968693375,-6.794619808360934,3.75856401349008,-0.0054911021143198,0.0185336042195558,-0.0052088191732764,-0.7133522242663043,0.168542309169725,0.5291125206003429,-0.4275067331433886,-0.0480947010219097,0.0107719544321298,0.0150909852236509,-0.0117118954658508,0.0023095905780792,-0.0017869472503662,0.0194666422903537,-0.0087152179330587,-0.0608095657497644,-0.0108286747708916,0.09314003772391,0.0283691853940486,118
1733403027668936400,0.1025233858853578,-0.0167342771798372,0.0718915162563323,5.990121873319149,-6.793123432323336,3.760626791238785,-0.0196212418377399,0.0366980507969856,-0.0222999285906553,-0.7137121325914436,0.1688163947007403,0.5289257156202177,-0.4270289416997668,-0.0288235358893871,-0.0018639985937625,0.0030444415751844,-0.0047841072082519,0.0070729851722717,-0.0075063686817884,0.0170823466032743,-0.0079110283404588,-0.0491401707440614,-0.0213293191045522,0.1068210648129694,0.0233700619325041,119
1733403027708936400,0.0259814134746789,-0.0831079067975282,0.0966489408940076,5.993640695095062,-6.785407743379474,3.768939277032018,0.0284462664276361,0.0165152177214622,-0.0308114681392908,-0.7143209919001987,0.1687316236652209,0.5285519916473633,-0.4265066919435128,-0.0165050849318504,-0.0099251214414834,-0.0022017192095518,-0.0026587843894958,0.0026160776615142,-0.0089774131774902,0.0116274133324623,-0.0005645304918289,-0.0641419250428676,-0.027541384100914,0.103714970290102,0.0119967272639274,120
1733403027748936700,0.0215922386050224,-0.0628185674846172,-0.0228302559673786,5.999675883606076,-6.772028621846437,3.783373168314993,0.04966951161623,0.0145303215831518,-0.0213983915746212,-0.7147910681256948,0.1678608196535627,0.5281329413614694,-0.4265818805106857,-0.0146928029134869,-0.023845249786973,0.0009019286371767,-0.0010849833488464,-0.0039707124233245,-0.0089921969920396,-0.0002081841230392,0.0126957427710294,-0.0580044452011585,-0.0322515256702899,0.1092736912626307,0.0066305240556597,121
1733403027788936700,0.0314256503552198,-0.0029185177952051,-0.096873981821537,6.000915070012211,-6.762646460995078,3.798160403080285,0.0004761475138366,0.0414560735225677,-0.022325811907649,-0.7154007766067016,0.167510698309791,0.5275299816772169,-0.4264434800036354,-0.0106357438489794,-0.0331198722124099,-0.0022785514593124,-0.0049005150794982,-0.0030488073825836,-0.0092891454696655,-0.012764286249876,0.024783544242382,-0.0642348640233278,-0.0283120404928922,0.0944568650766741,0.0142027128756046,122
1733403027828936700,0.0188034846693277,-0.0164852708548307,-0.0468979447752237,5.999920213755965,-6.759404702594876,3.805495276013017,-0.0185842271894216,0.0441067591309547,-0.0198265612125396,-0.7159940561190715,0.167821608661018,0.5270765065333799,-0.4258859143768117,-0.0150739019736647,-0.0191260762512683,-0.0086012287065386,-0.0035045146942138,-0.0012952089309692,0.0013440866023302,-0.0288250055164098,0.0325723402202129,-0.0405617274910211,-0.0372386872768402,0.0911251085717696,-0.0159510178476572,123
1733403027868936400,0.0636146862983703,-0.0597410597354173,0.0118014969527721,6.0002995684623714,-6.755802878710627,3.81128964150548,-0.0208723600953817,0.0462841652333736,-0.030708260834217,-0.7166142691504069,0.1681636543486078,0.5266870959131899,-0.4251890887363656,-0.00320925260894,-0.0178816337138414,-0.0109147168695926,-0.0032154321670532,0.0006877183914184,-0.0030977725982666,-0.0350711606442928,0.0338285341858863,-0.026158523607254,-0.0244810711592435,0.0928871589413844,0.0364040232896804,124
1733403027908936400,0.0157633863210678,-0.09552548982203,0.0850809604361653,6.000715163525939,-6.750843210476637,3.819413034467399,-0.005900464951992,0.0455268025398254,-0.0227718986570835,-0.7173255067112453,0.168456013572597,0.5262002520226119,-0.4244760651790534,-0.0187613144516944,-0.0279759727418422,-0.023996964097023,-0.0031104683876037,-0.0087397992610931,-0.0041061658412218,-0.037240907549858,0.0442971959710121,-0.0303852013915777,-0.0238410141319036,0.0768529289228376,0.0087333415538072,125
1733403027948936400,0.1200958674550056,-0.0885562353312969,0.0620119272768497,6.001430033797026,-6.743747114735841,3.8308106267943978,0.0109528172761201,0.0650008991360664,-0.0395982861518859,-0.7180532304711476,0.1685198517523787,0.525627315749278,-0.4239300240509482,-0.0314278416335582,-0.0226340983062982,-0.0101013872772455,-0.0054156780242919,-0.0130754113197326,0.0054594278335571,-0.0391212105751037,0.0344100706279277,-0.0389186364591121,-0.0342713221907615,0.0840348945824895,0.0531277790755033,126
1733403027988936700,0.0542664277166128,-0.1241343291908502,0.2022235310435295,6.000968846026063,-6.72612553332746,3.862382407622039,0.07697094976902,0.1032351404428482,-0.0500861853361129,-0.7195276538832809,0.1682090362007989,0.5241936945972868,-0.4233280614782759,-0.03344651684165,-0.0083251474425196,-0.0074778404086828,-0.0048775076866149,-0.0003775358200073,0.0017553549259901,-0.030805729329586,0.034436710178852,-0.0492436311185359,-0.0451721027493476,0.0916458536433987,0.0451642528504133,127
1733403028028936700,0.2018406692057847,-0.5205044678062201,1.0462322232186794,5.985973521468043,-6.681403763547539,3.961988737016916,0.3098499774932861,0.3300169110298157,-0.0670404434204101,-0.7230583026427966,0.1668369334656868,0.5197694041792023,-0.4233107041073178,0.0104367844760417,-0.0110973380506038,-0.0030318265780806,-0.0048152208328247,0.0100072622299194,-0.0013742446899414,-0.0307517759501934,0.0307026840746402,-0.0374000485897064,-0.0491348728537559,0.1072480489202309,0.0576131077960133,128
1733403028068936700,-0.0008247603863477,-0.1155050325334072,0.231135737273097,5.962087618967891,-6.597686200419068,4.134541644679009,0.4776038825511932,0.1756419986486435,-0.0747975409030914,-0.7275918224798051,0.1621822039186642,0.5127318817025487,-0.4259262043839847,0.0376319177448749,0.0023250472731888,0.0152243413031101,-0.0065913200378417,0.0076410770416259,-0.0016164761036634,-0.0360688120126724,0.035740815103054,-0.0564560467153787,-0.0313143208622932,0.0933118140942417,0.0340337870270013,129
1733403028108936400,-0.2692418883055448,0.128911042073369,-0.3905260887622833,5.981507774230837,-6.498385283711552,4.261800535631179,0.4152424335479736,-0.0638377144932746,-0.109959676861763,-0.7303486851994578,0.155036822093205,0.5085982993215185,-0.4288148437304882,0.0713728442788124,0.0008932253695093,0.0099327741190791,-0.0013684630393981,0.0047767460346221,0.0021359948441386,-0.0526526048779487,0.0206432845443487,-0.0230611421138048,-0.0316089168190956,0.1024428862613625,-0.0351586994037032,130
1733403028148936400,-0.2980921352148056,0.199736390402913,-0.7275485508739948,6.024274902811646,-6.4176277394324535,4.323490099085867,0.2465603351593017,-0.1396294683218002,-0.0727791637182235,-0.7310799811411385,0.1481906133540338,0.5075459506878648,-0.4312294480142864,0.0467191562056541,0.0087719215080142,0.0089241694658994,-0.008912444114685,-0.0082418322563171,0.0004162788391113,-0.0697292163968086,0.0403426587581634,-0.0497422282904386,-0.0300217680633068,0.0657029272818937,-0.0312277896955609,131
1733403028188936400,-0.0976800375074148,0.1731044040650129,-0.8058268455579877,6.0643286807805294,-6.382615462762117,4.3193177818372845,0.0108492746949195,-0.1435048878192901,-0.0353503003716468,-0.7303545098764818,0.144450610871505,0.5088321005693994,-0.4322107063175858,0.0190542396157979,0.0062141679227352,0.0127954063937067,-0.0063918232917785,-0.0091647505760192,0.0040161609649658,-0.0753244087100029,0.0305611230432987,-0.031011224335432,-0.0177107006311416,0.066120102381194,-0.017141104415059,132
1733403028228936700,0.0482633879095315,0.2061591169267892,-0.5393099983021616,6.087775607341528,-6.396516562342644,4.265435385002196,-0.224509596824646,-0.060339331626892,-0.0174469668418169,-0.7291928492640288,0.1450040594337036,0.5113679140344637,-0.4309923396309191,0.0158355440944433,0.0187446605414152,0.0032698116265237,-0.0055676102638244,-0.0009886026382446,-0.000934244133532,-0.0687021166086196,0.0246320702135562,-0.0212725051313638,-0.0105594173073768,0.090404374815477,0.0222571322545409,133
1733403028268936700,0.1715776328891515,0.1162748478621244,-0.0778343503087758,6.099733756160735,-6.433974478599429,4.191372369925678,-0.2533553540706634,-0.0156469624489545,-0.0335950441658496,-0.728335002686338,0.1482412613463553,0.5141245070834423,-0.4280521413676203,0.0495727360248565,0.0208271984010934,0.0094653898850083,-0.008105993270874,0.000630497932434,-0.0006160717457532,-0.0430485196411609,0.0099169136956334,-0.0186041627049446,-0.0045716981403529,0.1036287259119097,0.0574795445442199,134
1733403028308936700,0.2104606135129928,-0.0120651163250207,0.0776838359221816,6.114121762475371,-6.462454138630628,4.126085074239969,-0.2293052077293396,-0.0174270290881395,-0.0585853233933448,-0.7277915433149692,0.1510357965106406,0.5165427302009635,-0.4250778771437961,0.0399541966617107,0.007542819250375,-0.0009740686509758,-0.0013172626495361,-0.0045302212238311,-0.0060609579086303,-0.0150159299373626,0.0009441962465643,-0.033993455016613,-0.0058344095014035,0.1011399595697876,0.0571881603822112,135
1733403028348936400,0.0238636906683444,-0.0233837981969118,0.2041965846821665,6.132077105882764,-6.481511890321969,4.069153811228275,-0.1718163192272186,-0.0094815474003553,-0.0510830245912075,-0.7274964441436307,0.153257238099524,0.5186936585198241,-0.4221587048531164,0.0299489665776491,-0.009326921775937,0.0008254293352365,0.0017520785331726,-0.01034876704216,-0.0024044513702392,-0.0006410842761397,0.0068811574019491,-0.0323766674697399,-0.0009303847327828,0.1026177861705422,0.066157356518507,136
1733403028388936400,0.0212035315483808,-0.0661801528722047,0.1809533639997243,6.143865743353962,-6.495728047201037,4.028502067366242,-0.1456422805786132,0.0047596846707165,-0.0401144549250602,-0.7273492719909226,0.1550061979631488,0.5201698172385479,-0.4199519100030218,0.0094010811299085,-0.0040589226409792,0.0072335940785706,-0.0064257979393005,-0.0086613297462463,0.0011461973190307,0.0088406689465045,-0.0021657044999301,-0.0255950445055961,0.0181444101035594,0.0994475586365908,0.0671253247678279,137
1733403028428936400,-0.02808686132133,-0.0654103375434875,0.2997726356476545,6.148714352428913,-6.510264522075652,3.99751977686435,-0.1063869521021843,0.0163027141243219,-0.0176741331815719,-0.7273070108954705,0.1567595043320805,0.5211618469977702,-0.4181404146567345,0.0145630864426493,-0.0062880418263375,0.0076363966800272,-0.0052446722984313,0.0027682483196258,0.0001794090494513,0.0013683303259313,0.0012260768562555,-0.0251473007380962,0.0070471093058586,0.1066115593812894,0.0505550059780478,138
1733403028468936400,0.0168383220762014,-0.0734820003181696,0.2325260225877165,6.15571283301413,-6.516258209532499,3.976929116517305,-0.0450741946697235,-0.0343693792819976,-0.0290707666426897,-0.7271854585838997,0.1575070457038349,0.5219430699300408,-0.4170950658400906,0.015544194728136,-0.0130780367180705,-0.0013777371495962,-0.0001226663589477,0.0002900660037994,-0.0039409408345818,-0.0079374592751264,0.0112338298931717,-0.0290180046916007,0.0125972246751189,0.0804506520207039,0.0737771838724613,139
1733403028508936700,0.0094037881612777,-0.0922691183745861,0.2926931987807154,6.164494105362892,-6.516624704757333,3.962700976939499,-0.0365813374519348,0.0069455401971936,-0.0143500352278351,-0.7271259024148362,0.1577381659743169,0.5225678416437809,-0.4163285154202507,0.0024755308404564,-0.0116109019145369,0.0038457866758108,-0.008205235004425,-0.0083591639995574,-0.0039129266515374,-0.0151324905455112,0.019621854647994,-0.0211363115310668,0.008331973105669,0.0891387844596058,0.0718316027626395,140
1733403028548936700,0.0389373411595821,-0.0541530304700136,0.2313578555911779,6.164588797909021,-6.517182923161983,3.961637147100269,0.0144516937434673,-0.0049575492739677,-0.006516873370856,-0.7272362545317218,0.1579445721067345,0.5225573898080177,-0.4160707044793822,-0.0085590109229087,-0.0180503726005554,0.0021585414651781,-0.0035209655761718,-0.002598226070404,-0.0012663593515753,-0.0184946339577436,0.0197598710656166,-0.0018482582151889,0.0025712973438203,0.0907396072523668,0.090379943627119,141
1733403028588936400,0.0503407787054777,-0.0606266103982925,0.0691363723292946,6.172638248851895,-6.508912522944808,3.96269863885194,0.0445559918880462,-0.0477651469409465,-0.0146492514759302,-0.7271194723680349,0.1570766529152551,0.5227671755906211,-0.4163396081732816,-0.0057104937732219,-0.0094315307214856,-0.0016732150688767,-0.0055562257766723,-0.0017149150371551,0.0021959552541375,-0.0171288978308439,0.0205122344195842,-0.015272387933731,-0.0135479215532541,0.077736488558026,0.0659831689953804,142
1733403028628936400,0.0300870952278375,-0.0025660510957241,-0.0755839410334825,6.182267662462592,-6.499936020284891,3.9624206986933945,0.0293286070227623,-0.0420494079589843,-0.0065763485617935,-0.7268805188108226,0.1560222283138212,0.5230963894497789,-0.4167396368344336,0.0023937718942761,-0.0161352939903736,0.0007328179199248,-0.0080252289772033,-0.0015232563018798,-0.0011097202077507,-0.017199832946062,0.0131519362330436,-0.0156757080376148,-0.0297480355948209,0.0861861360659357,0.0585451279491186,143
1733403028668936400,0.0336585239738225,0.0555991376250982,-0.1339379303246736,6.190966517224908,-6.49585196584165,3.955532400484383,-0.0130169298499822,-0.0386777557432651,-0.0133205419406294,-0.7265822875771976,0.1554359167085215,0.5236063878641674,-0.4168384869136859,-0.0084833763539791,-0.0031778425909578,-0.0045841829851269,-0.0113990306854248,-0.001170128583908,-0.0014292001724243,-0.0162652377039194,0.0092563424259424,-0.0159217917531728,-0.0362841188907623,0.0948621944745536,0.0584410830527543,144
1733403028708936400,0.087326985797286,-0.0151718501687049,-0.0221568867504596,6.200295486584305,-6.497954491078853,3.937424789124727,-0.0475538671016693,-0.0090703275054693,-0.0161056742072105,-0.7262644024402485,0.1555684923263364,0.5244479468751525,-0.4162846062785301,-0.0291974432766437,0.0047294558025896,-0.0040864385664463,-0.0032407045364379,-0.0085683763027191,-0.000543475151062,-0.0156182060018181,0.0009766835719347,-0.0366927771031856,-0.0452616959810256,0.0898846343908458,0.0295350143030285,145
1733403028748936700,0.0675906041920185,-0.057658408242464,0.0549444731086492,6.203721369379759,-6.501406677359342,3.92631390478462,-0.0517730377614498,0.0136913945898413,-0.0197633784264326,-0.7263548120664824,0.1561949392839826,0.5248017146656667,-0.4154455746006864,-0.0189243014901876,-0.0112743852660059,-0.0115216514095664,-0.0062831044197082,0.0020259916782379,-0.004895924590528,-0.0176948253065347,0.0077981925569474,-0.0707137046486139,-0.0485624410212039,0.0997240831561852,0.0231903214514255,146
1733403028788936700,0.0611398206174373,-0.0557926143705844,0.133196756568551,6.207179400879144,-6.502524283212423,3.918989845506847,-0.0314672067761421,0.0247944016009569,-0.02346764318645,-0.7265546643654119,0.156689120225339,0.5250101423451187,-0.4146458226661436,-0.0149719016626477,-0.0029891841113567,0.0006413382943719,-0.0093653798103332,-0.0059823393821716,0.0005044946447014,-0.0267360210418701,0.014139162376523,-0.0337450332134962,-0.037577137351036,0.0953500419235788,0.024964929908514,147
1733403028828936700,0.0077273793816566,-0.0664893649518489,0.0611088409572839,6.2089668688178055,-6.499758325630426,3.9207475028291343,0.0037827671039849,0.0151494331657886,-0.0144004486501216,-0.7268869115000548,0.1568405093701169,0.524879564943784,-0.4141714556335563,-0.0162933636456727,0.0036617410369217,0.0047720344737172,-0.0021476745605468,-0.0063507258892059,0.0035393238067626,-0.0373789854347705,0.0034438259899616,-0.0017775310665369,-0.0281988214701414,0.0988890479709953,-0.0005360065728425,148
1733403028868936400,-0.0099596684783697,-0.0190536600381135,-0.0242775321662425,6.211690156301856,-6.496466882869601,3.9218881972968576,-0.0207897052168846,0.003772733034566,-0.0175500810146331,-0.7271116739264751,0.156824285041383,0.5248290159436346,-0.4138469111085451,-0.0311684496700763,-0.0078837014734745,-0.0047793262638151,-0.0042436122894287,-0.0010144114494323,-0.002414702437818,-0.0443763211369514,0.0295420512557029,-0.0368184493094682,-0.0297987665981054,0.0835757983039133,0.0104445293858647,149
1733403028908936400,-0.0416086061954498,-0.0065559975147247,-0.0166001294061541,6.218199392065405,-6.494599335432052,3.914659415087104,-0.0234084129333496,-0.0304841641336679,-0.0222208835184574,-0.7271377274713993,0.1568466326269258,0.5251733565340255,-0.4133555005835892,0.0080508589744567,-0.0279967989772558,-0.0098118353635072,-0.0087119936943054,-0.0008190870285034,-0.0029495954513549,-0.0359094515442848,0.0066042132675647,-0.0221492879658937,-0.0216872058808803,0.1015119803531095,0.0258837983191013,150
1733403028948936400,-0.011613280904293,-0.0468400771081447,0.0121340899080038,6.2259133274436,-6.495315959268808,3.901188231356442,-0.0246829371899366,-0.0185578074306249,0.00031392974779,-0.726832143458979,0.1567945934038447,0.5258423836129563,-0.4130621563060429,-0.0191072598099708,0.0040000155568122,-0.0017806733958423,-0.0081780552864074,-0.0147965550422668,0.0124411592260003,-0.0213518291711807,0.0056241853162646,-0.0239893628746271,-0.0074830474331974,0.1085407373455818,0.075739716117084,151
1733403028988936700,0.0248223065674304,-0.0112684129893779,-0.0323041867554187,6.228233879345655,-6.499463726598024,3.89056045435816,-0.0215194523334503,-0.0251055862754583,-0.0040692207403481,-0.7265640549419073,0.1570230356838765,0.5262892628376454,-0.412877777165108,-0.0230684448033571,0.0074940826743841,0.0004677001852542,-0.001352846622467,-0.0029452145099639,0.0048916339874267,0.0006961058825254,-0.0045197866857051,-0.0140256027430295,0.0005043558776378,0.1220894524250179,0.0562491259664297,152
1733403029028936700,0.078287354773283,-0.0193985279530286,-0.0045049102038145,6.232828805920481,-6.501658021771908,3.8795205894276497,-0.0378966927528381,0.0022760122083127,-0.013046059757471,-0.7263988391983479,0.1572271417710299,0.5267628677316787,-0.4124867407131984,-0.0278291124850511,0.0116933556273579,-0.004051418043673,-0.0086240172386169,-0.0032541155815124,-0.0042113065719604,0.0071182921528816,-0.0092174774035811,-0.033583120650053,-0.0020201611332595,0.121389240866946,0.0500263059288263,153
1733403029068936700,0.0686275460243225,-0.0245277075350284,-0.0256453133881092,6.232911223506927,-6.505656736019254,3.872678468447924,-0.0435125939548015,0.0246423278003931,-0.0046366788446903,-0.7265189368374034,0.1578620068149087,0.5269041026092037,-0.4118518982970107,0.0325668528676033,-0.0019833082333207,0.016816446557641,-0.0022369027137756,0.0050040185451507,-0.0097744474187493,0.0009317160584032,0.0052413316443562,-0.051955228164792,-0.0072323279455304,0.1079937161883805,0.0196022338315844,154
1733403029108936400,0.0569862080693244,0.0319645795375108,-0.0412315895766019,6.231085177123546,-6.5115720975428815,3.865669466468692,-0.0502524822950363,0.0111475251615047,-0.0036144503392279,-0.7266011539663683,0.1586154496707464,0.5270169328684153,-0.4112725523056855,0.0452674701809883,-0.0059473700821399,0.0113969128578901,-0.0072067975997924,0.0141025781631469,-0.0030758390203118,-0.012307483702898,0.008946125395596,-0.0685451284378767,-0.0144780334085226,0.0983958850260358,0.0369715940445661,155
1733403029148936400,0.1708539947897195,0.006458382359147,0.0053986441731452,6.234383634147048,-6.516891246739029,3.8513609551310535,-0.0737145990133285,0.0250189993530511,-0.033084861934185,-0.7266563469246421,0.1594415022165901,0.5274596202638463,-0.4102869831972027,0.0397909432649612,0.0114110074937343,0.0125278914347291,-0.0107443928718566,-0.0001823902130126,-0.0010936250910162,-0.0260040499269962,0.0287053845822811,-0.0503477929681539,-0.0179749764502048,0.1067586488349363,0.033793840791285,156
1733403029188936400,0.0847398919135332,-0.0099175829023122,0.0861848300248384,6.238646552288532,-6.519070928865671,3.84075538996458,-0.0615300834178924,0.0328038483858108,-0.0338672660291194,-0.7270348570490386,0.1603428225341908,0.5276989276708012,-0.4089553423410846,0.0148999765515327,0.0108432751148939,0.0097339693456888,-0.0046305656433105,-0.0035159587860107,-0.0035225162282586,-0.0367713123559951,0.0299608390778303,-0.0389028543680906,-0.0227899719029665,0.097137555528013,0.0123714057952165,157
1733403029228936700,0.0470598573386669,-0.0136474170804023,0.0525946951121091,6.244303555136919,-6.517136161410808,3.8348409052237855,-0.0464566648006439,0.0184712950140237,-0.046953123062849,-0.727509771972284,0.1609227544170625,0.5278081040455145,-0.4077402351668578,0.0433225631713867,0.0121477972716093,0.0093586631119251,-0.0062257647514343,0.0042725503444671,-0.0044516334310173,-0.029979296028614,0.0173689313232898,-0.022782909694314,-0.0080956425517797,0.1025646220780443,0.0354515448704361,158
1733403029268936700,-0.0368739788889884,-0.0396691625654697,0.0507177953243255,6.25356881161034,-6.512513177785277,3.827589911182225,-0.036234725266695,0.0069142552092671,-0.0330471917986869,-0.7278677262816385,0.1611571542618666,0.5280867292974258,-0.406646582516108,0.0349756814539432,0.0135627342388033,0.002846835181117,-0.0028295516967773,0.0008341073989868,-0.0016456851735711,-0.0196571238338947,0.0205440428107976,-0.0263479086995124,-0.009439087472856,0.0960643002733122,0.0283928585305809,159
1733403029308936700,-0.0138216046035289,-0.0311965177744627,0.0096492873549461,6.258498084706067,-6.512306257036328,3.819875975804031,-0.0483392886817455,0.0125872064381837,-0.0209920406341552,-0.7280486058521881,0.1615479207153993,0.5283396563943723,-0.4058383353814522,0.0368090011179447,0.0230126418173313,0.0020315749570727,-0.0072382092475891,-0.0024981200695037,-0.0001829853281378,-0.0189687144011259,0.0152950789779424,-0.0093190324872732,-0.0071271951310336,0.0961834057414904,0.0383653864905238,160
1733403029348936400,-0.0160199914306402,-0.0258387901335954,0.0261009482011198,6.262491538256406,-6.514072097665071,3.810307644730806,-0.0439412295818328,0.0018963939510285,-0.0190535355359315,-0.7282029909195062,0.1621150080083637,0.5286275611070945,-0.4049592514739314,0.0395070500671863,0.0217139776796102,0.0065683363936841,-0.0023701786994934,-0.0019351840019226,-0.0008682012557983,-0.0145570412278175,0.0068660266697406,-0.0085088851481676,-0.0033093292731791,0.0981538016321603,0.0369303852513432,161
1733403029388936400,0.0041360768914222,-0.0467927308350801,0.059613049441576,6.268672272717953,-6.515115469238162,3.798343358431756,-0.0317877233028411,-0.0132315838709473,-0.0137547021731734,-0.7281450554179901,0.1624008856196944,0.529116557500305,-0.4043098417960624,0.0436128452420234,0.0144119635224342,0.0024514223914593,-0.0013567209243774,-0.002072274684906,-0.0006722211837768,-0.01041289139539,0.005950815975666,-0.0368850848048925,-0.0058117695152759,0.0889552537193987,0.0409571565493941,162
1733403029428936400,0.0568295562028884,-0.0045855742245912,0.0787245771467685,6.270297243571281,-6.51901539928615,3.7889585672318935,-0.0388156659901142,0.0077230059541761,-0.0061773364432156,-0.7280332430938266,0.1628000088022791,0.52944597062574,-0.4039193400184059,0.0416200049221515,0.0136997811496257,0.0013470095582306,-0.0044668316841125,-0.0029462575912475,0.0002177953720092,-0.0049455412663519,-0.001088585704565,-0.0230763396829366,-0.0079784737899899,0.1002078115525189,0.0416965767398476,163
1733403029468936400,0.0341167891353368,-0.0066623804986476,0.0753518858432769,6.271312558093666,-6.521726996332407,3.782604814291,-0.0252839047461748,-0.004098255187273,-0.0175396390259265,-0.72809157482801,0.1632530238733741,0.5296123865799568,-0.4034127401106128,0.0378585532307624,0.0130109274759888,8.83755274116993e-06,-0.0038310885429382,-0.0055398344993591,0.004415868781507,0.0014752279967069,-0.0019831478130072,-0.0474614238768816,-0.0135994739830493,0.1130091788633726,0.0208557410240173,164
1733403029508936700,0.0385650007158517,-0.0371563029617071,0.0871501679256558,6.276590206235647,-6.520711097288132,3.775594351007044,-0.0169281028211116,-0.0077734594233334,-0.0074027273803949,-0.7280490758203616,0.1632751084785632,0.529942916495049,-0.4030461656075494,0.0131936892867088,0.0134818274527788,0.0046910075470805,-0.0058131217956542,-0.0105213224887847,0.0035923719406127,0.0043411422520875,-0.0018722238019108,-0.019839841979742,-0.0169376023113727,0.1093131738896481,0.0344981896683573,165
1733403029548936700,0.0669651657700538,-0.0435223308622837,0.0502832032993435,6.277369373914599,-6.519582385519146,3.776249015523493,-0.0019066387321799,0.002371511189267,-0.0030064173042774,-0.7281367615723713,0.1632797614414615,0.5299099902770122,-0.4029291764536828,0.0093326382339,0.0040692049078643,0.0050406139343976,-0.0047493577003479,-0.0058826208114624,0.0032194843515753,0.0053133629262447,-0.0032579137478023,-0.0096919574528932,-0.0066892774775624,0.1259360996495001,0.0462348046913743,166
1733403029588936400,-0.0236830734044313,0.0154565123289823,-0.0150274732619523,6.277936360147595,-6.519604597350955,3.775270818141103,-0.0160605404525995,-0.0120295323431491,-0.0013627144508063,-0.7281533148751588,0.1633261541858491,0.5299427531471982,-0.4028375578745878,-0.0130970375612378,0.007954703643918,-0.0026070524472743,-0.0033069849014282,-0.0085130333900451,0.0034987926483154,-0.0035548321902751,0.0030957337003201,-0.0810311005234718,0.0053077228367328,0.047547531257756,0.0353355172753334,167
1733403029628936400,-0.0271942963957786,-0.0384685546040535,0.0077951839208602,6.281148307931423,-6.524336886569857,3.761725692391396,-0.0364513583481311,-0.0467247515916824,0.0011180255096405,-0.7277796706240136,0.1635525671452803,0.5305242015083966,-0.4026552587484562,-0.003586622653529,0.0067808884195983,-0.0054597640410065,-0.0054530501365661,-0.0019918382167816,0.0016072988510131,-0.0012054040562361,0.0044842427596449,-0.0054833998471498,-8.86069610714e-05,0.1061072722541168,0.0301560688108205,168
1733403029668936400,0.0501455483943223,-0.1266343293130397,0.1853100979045033,6.290148775988817,-6.525504761305451,3.744622289638221,-0.0049848901107907,-0.0356012806296348,-0.0016497448086738,-0.7273082894069575,0.1634345207243774,0.5313817386554474,-0.4024241999448493,0.012919383123517,0.0053261634893715,0.007445914670825,-0.0090145468711853,-0.0005249977111816,0.0008183708414435,0.0089340172708034,-0.0066868057474493,-0.0145966806292533,-0.0116559853777289,0.0985686934428289,0.0339618908345699,169
1733403029708936400,0.0922463220208883,-0.0361468336582183,0.0605114595860242,6.293388780823349,-6.523067889547348,3.7434260655909775,0.0483330562710762,-0.0423148833215236,-0.0004578570660669,-0.7270030114691619,0.1628539942568101,0.531617314991948,-0.4028998800893771,0.0229682885110378,0.0062026097439229,0.0131627898663282,-0.0057108402252197,-0.0015950202941894,0.0088378190994262,0.0279820095747709,-0.0129828266799449,-0.0064601359248161,0.0005984585732221,0.1307297910662833,0.066065878842771,170
1733403029748936700,-0.0120884972006082,-0.0084662150502204,-0.1502116042554378,6.29956191650033,-6.51588353100121,3.745554894313216,0.0222474336624145,-0.0296439472585916,0.0015803448623046,-0.7267948056790161,0.1619222921020202,0.531799794027818,-0.4034099197530129,-0.0039690528064966,8.735281880944967e-05,-0.0061986576765775,-0.002472698688507,-0.006789743900299,0.0020982045680284,0.0265918429940938,-0.019187107682228,-0.0080225629359483,0.0120800221338868,0.1267785874887835,0.0529801872983574,171
1733403029788936700,-0.0104313776433467,-0.0184901809364557,-0.1894756931513548,6.299251535376906,-6.518727814516425,3.7411248029112816,-0.0259777903556823,-0.0094555113464593,0.017092227935791,-0.7265437571243705,0.1619362033366587,0.5320078843247873,-0.4035821726394571,-0.0219017155468463,-0.007133808452636,0.0001211564522236,-0.0019454956054687,-0.0055866837501525,-0.000877022743225,0.009499154984951,-0.0089090857654809,-0.0418178650319576,0.0096321580931544,0.0833582830957137,0.0233230079203844,172
1733403029828936700,-0.0062058689028024,-0.0034714755028486,-0.0567939003676176,6.297120368567109,-6.530004995334148,3.725010411195457,-0.0538614690303802,-0.026155412197113,0.0166627168655395,-0.7260588449982913,0.1626317036687465,0.5325676023512286,-0.4034369053049436,-0.0215123612433671,0.0100843263790011,0.008642473258078,-0.0086849927902221,-0.0008297264575958,-0.0004117470234632,-0.0047160573303699,0.0018290765583515,-0.0162006086945533,0.0005896594375371,0.1123150591193698,0.0312602306604385,173
1733403029868936400,0.0426841264724731,-0.0621481208771467,0.1410620831161737,6.297910057640076,-6.5415089706450695,3.703427232679725,-0.0449603646993637,-0.0234838705509901,0.0103394584730267,-0.7254870125787378,0.1633656376069205,0.533375504791509,-0.4031015587874688,0.0130070019513368,-0.0130257327109575,0.0055668544955551,-0.0050391554832458,0.0103742778301239,-0.0006458759307861,0.0101165808737277,-0.0046253115870058,-0.0105137952297925,-0.0051957205869257,0.1128302238335832,0.0507584195956587,174
1733403029908936400,0.0643716421455144,-0.0648638095766305,0.0967591232702136,6.300612886857986,-6.546424215215445,3.69012000733912,0.0037880544550716,-0.0413248278200626,0.0065780067816376,-0.7249543854907242,0.1633974812751199,0.5340014116620111,-0.4032180642613057,-0.0195549372583627,0.0124137410894036,0.0006091140676289,-0.0102424025535583,-0.0157623589038848,0.0025573959574103,0.0250253528356552,-0.0211587473750114,0.0107838443428277,-0.0062616737559437,0.1218871073864866,0.0497185551539063,175
1733403029948936400,-0.0091430913984775,-0.0391997914880514,-0.041600715149939,6.301105054289102,-6.549941867947578,3.683031802643835,-0.0220041461288929,-0.0054506585001945,0.0233256518840789,-0.724609774440998,0.163410290275091,0.5343357699482053,-0.4033894428842203,-0.0787205174565315,0.0198807120323181,-0.0116149950772523,0.0004667043685913,-0.0155584812164306,0.0053257923573255,0.0399281680583953,-0.0192533396184444,-0.0339238969117403,-0.0012507755309343,0.0840625680407043,0.0507905682995915,176
1733403029988936700,-0.0241027601212263,-0.0626215836077928,-0.0139516607239842,6.296162337189912,-6.561386222025751,3.671094404351711,-0.0486072413623333,-0.025452122092247,0.0203068684786558,-0.7242229960323263,0.1641578926068338,0.5346760326936404,-0.4033295831417361,-0.0516343116760253,0.0117360716685652,0.0025345792528241,-0.0065609812736511,-0.0002637207508087,0.0011069793254137,0.0340303964912891,-0.0082436548545956,-0.0334445889621973,-0.0079609649255871,0.077464795477176,0.009127309307456,177
1733403030028936700,-0.0261766437858343,-0.106088969412446,0.1070715507090091,6.297039704546332,-6.571040185555815,3.652274260808528,-0.0072695417329669,-0.0514802448451519,0.0238224528729915,-0.7234973189242563,0.1644735279830355,0.5354757619643781,-0.4034424768989357,-0.0285777263343334,0.0223712995648384,0.0166306905448436,-0.0039865374565124,-0.0009853541851043,-0.0045609455555677,0.0190018285065889,-0.023022711277008,-0.0240729495048522,-0.0020949346944689,0.0911633399566169,0.0167573657944798,178
1733403030068936700,0.0040875615745782,-0.0763935038506984,0.013284428986907,6.297601430082321,-6.577990735346079,3.638770636112988,0.0110926879569888,-0.0619067847728729,0.0315661244094371,-0.7226628916217781,0.1642870123467033,0.5361754426653929,-0.4040842631935918,0.0326693877577781,0.0234435424208641,0.0201896056532859,-0.003788411617279,0.0121070742607116,-0.000162960961461,0.0139283277094364,-0.0228376109153032,-0.0515858103305101,0.000820112414658,0.0686159743175376,0.0055164253339171,179
1733403030108936400,0.052777650463581,-0.0610837065160274,-0.112224695688486,6.301284502509236,-6.584471914058923,3.620627953439951,-0.0082154758274555,-0.0663694217801094,0.0149926738813519,-0.7216105982383921,0.1638858386281838,0.5371599198230477,-0.4048196422642809,0.0326555371284484,0.0113079957664012,0.0094464141875505,-0.000917375087738,-0.0017155706882476,-0.0005148649215698,0.0058499434962868,-0.0123360538855195,-0.0837117179095745,-0.0048239030875265,0.0651122039802838,-0.0032528643161058,180
1733403030148936400,0.0586567716300487,-0.0414022699683904,-0.0735322692006826,6.305879429084063,-6.589638503041863,3.603183482164144,-0.0144252087920904,-0.0454605594277381,0.013529447838664,-0.7208394077556279,0.1637299970130599,0.5380346209279689,-0.4050947879339172,-0.0365259312093257,0.0302053075283765,0.0030110192019492,-0.0148258805274963,-0.0169624984264373,0.0006979703903198,0.0037358913104981,-0.0078155193477869,-0.0671247402459383,-0.0070792092010378,0.0771605518335942,-0.0084995327979326,181
1733403030188936400,0.0901285992145538,-0.0495709633767604,-0.0865296979397535,6.31076953921318,-6.595086831575632,3.584607668770849,-0.0274651106446981,-0.06216736510396,-0.0040109292604029,-0.7201538638822795,0.1637410833142413,0.5389106867940322,-0.4051451828768697,-0.0218170266598463,0.0189821608364582,0.0084029883146286,-0.00676691532135,-0.0036053955554962,0.0005364436656236,-0.0034199196379631,-0.0010782596655189,-0.0705132136404514,-0.0199844762682914,0.0750612505999393,-0.0416872243896126,182
1733403030228936700,0.0665472326189279,-0.0789461109429597,-0.0503872481957077,6.323427945256233,-6.595490151679515,3.561483982814848,-0.0432336293160915,-0.0305220801383256,-0.0128228235989809,-0.7195820982557012,0.1635880990414471,0.5400498008405538,-0.404705898304094,-0.025569686666131,0.0382753238081932,0.0006592480931431,-0.0073688626289367,-0.0022913813591003,0.0027267951518297,-0.0161410067230463,0.0095172617584466,-0.0994482162237167,-0.0224120132625103,0.0624535883634351,-0.0057213002562522,183
1733403030268936700,0.1010848775148391,0.0059434185743331,-0.0161003631904721,6.32240795455873,-6.604213556361198,3.5470983145877715,-0.0704022124409675,0.0297269280999898,-0.0003548514214344,-0.719420331248605,0.1644784731192735,0.5404582737488458,-0.4040867255238959,-0.0053562931716442,0.0368239022791385,0.000256311846897,-0.0030372142791748,0.0011945366859436,0.0015019159764051,-0.0361605957150459,0.0328172445297241,-0.0579319644868373,-0.0341702662408351,0.0672785791007801,-0.0308291457667946,184
1733403030308936700,0.0641419250428676,-0.0523778374910354,0.0517854245558381,6.322092312738299,-6.610985242453217,3.535027937565744,-0.0547051578760147,0.0055918642319738,-0.0150992078706622,-0.7195126167842754,0.1654868260975668,0.5407197419856155,-0.4031600380977869,-0.0150001319125294,0.0299372877925634,0.0038099675439298,-0.0050228238105773,-0.0010237693786621,-0.0004097260534763,-0.0506813339889049,-0.0011316575109958,0.0329693726658821,-0.0590073503553867,0.1512119404044002,0.0158539872139692,185
1733403030348936400,0.0440653516978025,-0.0855430249899625,-0.0025216274321079,6.32615707795918,-6.611338293674588,3.5270857463896275,-0.0224554520100355,0.0060325991362333,-0.0176275633275508,-0.7195924159796757,0.165827247638018,0.5409898324236212,-0.4025148178855435,0.0452014207839965,0.0190846398472785,0.0117694232612848,-0.0047721266746521,0.0103894472122192,-0.0031253099441528,-0.0366263948380947,0.0071775335818529,-0.0451654218941926,-0.0436156094074249,0.0930061639448627,0.0154787241607904,186
1733403030388936400,0.02831073320508,-0.0528039539486169,-0.0530251954838633,6.328594534239173,-6.612952743133902,3.519679561786353,-0.0661330744624137,0.0339692346751689,-0.0166797041893005,-0.7197932296592224,0.1664262609535859,0.5411548586856422,-0.4016858977387814,0.0640523433685302,0.0314191244542598,0.0079956576228141,-0.0102377533912658,0.0107761621475219,-0.0013531409204006,-0.0268043093383312,0.0066205631010234,-0.0446598104596138,-0.0305889230221509,0.1098875305783469,-0.0334969036713242,187
1733403030428936400,-0.0250292273163795,0.0652718058556318,-0.0026566519886255,6.32596944643259,-6.619249212929606,3.512556285777688,-0.0686703994870185,0.0292098578065633,-0.0123940240591764,-0.720104008225951,0.1675690392528989,0.5411377770945023,-0.4006754759882853,0.0350587740540504,0.0178134068846702,-0.0103454664349555,-0.0008206963539123,-0.003435343503952,-0.0011546574532985,-0.0180097371339797,0.0047505581751465,-0.0673860215306282,-0.0217615440487861,0.1145475126128643,-0.0106646018773317,188
1733403030468936400,-0.0248263982206583,0.0046691608548164,0.1136658344075083,6.326665027481317,-6.6274804501801725,3.495743098142743,-0.0869194418191909,0.0246728975325822,-0.0099761392921209,-0.7201219804958898,0.168739196594893,0.5415660471663559,-0.3995720298735089,0.0279627796262502,0.0289193727076053,0.0004952638410031,-0.0107627511024475,-0.0108698010444641,0.0033204555511474,-0.0161325167864561,0.006199368275702,-0.023519407275319,-0.0156134478747844,0.1261348370919935,-0.0273603006124496,189
1733403030508936700,0.0208522338926792,-0.0791103615939617,0.1798962561622261,6.324680575665831,-6.63587769164741,3.483382506002485,-0.0595412254333496,0.0257170367985963,-0.0035392912104725,-0.7202256155763159,0.1699273455543002,0.5417763584720625,-0.3985953962012962,0.0260991007089614,0.0229037720710039,-0.0007397771114483,-0.0080951452255249,-0.0073283314704895,0.0014717616140842,-0.013077120296657,-0.0015157926827669,-0.0320493352115154,-0.0005649589002132,0.1342154138254933,0.0113639823183417,190
1733403030548936700,0.0453226582825183,-0.0611088409572839,0.1810582856789231,6.319961145928501,-6.643253773373365,3.477880109193921,-0.0351748801767826,0.031276062130928,0.0080767925828695,-0.7203201343677941,0.170835513918392,0.5417496579673209,-0.3980721018953432,0.020898213610053,0.0207636561244726,-0.0119109395891428,0.0008160471916198,-0.0059651136398315,-0.000179648399353,-0.0159169621765613,0.002045453293249,-0.049010406884551,0.0121033880859613,0.135643181606289,0.001159983690083,191
1733403030588936400,-0.0011462474256753,-0.0376788655310869,0.1343915193110704,6.3149553004652255,-6.64872782087028,3.4765137892767783,-0.0026880684308707,0.0059483116492629,0.0177262984216213,-0.7203653975096049,0.1714030786642736,0.5416346588278654,-0.3979027597444125,0.0121526597067713,0.0148203326389193,-0.0014290696708485,-0.0049301981925964,-0.0023075938224792,-0.0018393956124782,-0.0146396150812506,0.0094264075160026,-0.0809843387722969,0.0186481978744268,0.1068892986104357,0.0257809224665164,192
1733403030628936400,-0.0066594578891992,-0.012609306204319,0.0482855997413396,6.307749314609169,-6.654045216500759,3.4794206166341897,0.0062803928740322,-0.0008145194151438,0.0323734134435653,-0.7202189058688341,0.1715821102504479,0.5414411298149903,-0.3983539577870155,0.0323878899216651,0.0106715001165866,0.0038951884489506,-0.0043138861656188,0.0039706528186798,0.0020028352737426,-0.0268896035850048,0.0186415575444698,-0.0227834942162036,0.0197733547538518,0.1259286469954066,0.0336243294432759,193
1733403030668936400,0.1260439622044563,-0.0336789822399616,0.0527285506248474,6.296701266372203,-6.664399437254667,3.47961672372818,-0.0289236493408679,0.0447939187288284,0.02442592009902,-0.7200679833111268,0.1722611643255125,0.5412162396608832,-0.3986392873430229,0.0466254130005836,0.0021341517567634,0.0037192204035818,-0.0033629536628723,-0.001013696193695,0.0023565292358398,-0.0402749329805374,0.0166714712977409,-0.0656231035113334,0.0180967878550291,0.0932165735588409,0.0398024335563182,194
1733403030708936400,0.0173334121167659,0.0357645563423633,0.1400754101663827,6.289143398338556,-6.669947719031572,3.482650684596598,0.0117780566215515,-0.0033117921557277,0.0068644057027995,-0.7202318992523855,0.1728798797068952,0.5408759309380928,-0.3985370396624342,-0.0152209075167775,0.0141575252637267,-0.0020248189102858,-0.0087177157402038,-0.0184853971004486,0.0037434082478284,-0.0348666757345199,0.0103241009637713,0.0075514382928609,0.0171134285628795,0.1141539284517057,0.1531678237125277,195
1733403030748936700,0.0577519317448139,-0.0072054013341665,-0.0730319184631109,6.287630655688047,-6.670971216860413,3.483422838012874,-0.0057588834315538,-0.0221624691039323,0.0107614807784557,-0.720023257025383,0.1726642257634386,0.5409084281925454,-0.3989632897354359,-0.0250607561320066,0.0048521738499403,-0.0055148247629404,-0.0054290294647216,-0.0068324208259582,0.0020025968551635,0.0057029724121093,-0.0211487114429473,-6.54664516448e-05,0.0103323720395565,0.1067400719986297,0.067108373633027,196
1733403030788936700,0.0460936426550149,-0.0869563989192247,0.0571647795066237,6.285820975917577,-6.674867055255175,3.4792204178869723,-0.0080328974872827,0.0187583398073911,0.0073060006834566,-0.7199364481375152,0.1729938049348413,0.5410011708678932,-0.3988512195751529,0.0018478237325325,-0.011943370103836,-0.0093250088393688,0.0057156085968017,-0.0011847913265228,0.0075838547199964,0.028021540492773,-0.0061421580612659,-0.0657587125897407,-0.0226623006165027,0.0790429132477845,0.0113251116126775,197
1733403030828936700,-0.0021592238605022,0.0008498948276042,-0.0824678553283214,6.282898366469144,-6.677530136984586,3.4793916828006504,0.0031725028529763,-0.0226588901132345,0.0177930518984794,-0.7197666026397207,0.1729880968467376,0.5409949348681707,-0.3991686839930015,-0.0425888821482658,-0.0082199517637491,-0.0170460455119609,-0.0123540163040161,-0.007988154888153,0.0028543472290039,0.0279911067336797,-0.0061592701822519,-0.0327858327925205,-0.0015235934406518,0.1085157855674158,-0.0176823716849088,198
1733403030868936400,0.0520505052328109,-0.0310275909483432,0.0130590957984328,6.2797144757360215,-6.685455669286847,3.4699054770529267,-0.0518288798630237,0.0151469418779015,0.0105877248570322,-0.7194892220775112,0.1735475240160479,0.5412626975346798,-0.3990627878851237,0.0226372573524713,0.0131774814799427,0.0024600110482424,-0.0065008401870727,0.0073027610778808,-0.0029813013970851,0.010945139452815,-0.0047994861379265,-0.0598375058472156,0.0102384556084871,0.1069462894946802,-0.0279199803218245,199
1733403030908936400,-2.51344412565e-05,-0.0739531249612569,0.0549427195429801,6.27358167206943,-6.694305330696702,3.463935170471668,-0.0074970899149775,-0.003347884863615,0.0230930689722299,-0.7193822615061851,0.1743248481873208,0.5412940978576019,-0.3988744214289523,-0.030111439526081,0.0052697043865919,-0.0048475032672286,-0.0028949975967407,-0.0116760730743408,-0.0004690885543823,0.0009170463308691,-0.0010881191119551,-0.0399275212407112,0.0265540946274995,0.122146141915163,0.0334831674069166,200
1733403030948936400,0.0833738642573356,-0.0056277767539024,-0.0197024793356657,6.2702387913823125,-6.700231798136234,3.4585239590778944,-0.0156392678618431,-0.0079880682751536,0.0170883797109127,-0.7189889529708468,0.1744476410143574,0.5415093431989815,-0.3992374527824537,-0.0205339156091213,-0.005971445236355,-0.0081601422280073,-0.0015438795089721,-0.0010376274585723,0.0047944784164428,-0.004636887460947,0.0065820054151117,-0.0405506215751171,0.0315633080899715,0.0954897061225958,0.012609306204319,201
1733403030988936700,0.0775228001415729,-0.0642453854173421,0.0346527957081794,6.265764276316761,-6.7079036479383705,3.4517537342905995,-0.0271478313952684,0.0093287276104092,0.0064710401929914,-0.7188136289047516,0.1750539435794746,0.5416323958223159,-0.3991207677703685,-0.0414684899151325,-0.0053566275164484,0.0012302964460104,-0.0061402916908264,-0.0054371356964111,0.0039664506912231,-0.0069059347733855,0.0115402806550264,-0.0264548762053251,0.0379048101603984,0.1184254865573719,0.0652551469817757,202
1733403031028936700,0.0079489131778478,-0.0053033671051263,0.0574377512291073,6.263362475872039,-6.711628805941343,3.4488705800697206,0.0077323522418737,-0.0099610639736056,0.009761600755155,-0.7187271436267664,0.1753360208219753,0.5416768568689929,-0.3990923318710291,0.0127287013456225,0.0099364686757326,0.0147210042923688,-0.0110841393470764,0.0068356096744537,-0.0004500113427639,-0.0079827383160591,-0.0180066712200641,-0.0201964003324508,0.0560574680566787,0.0988432086684275,0.1073313706889748,203
1733403031068936700,0.0170931736201047,-0.0820709649652242,-0.077906831023097,6.265890533044934,-6.712074796143174,3.4434061771839857,-0.0104543603956699,-0.0256719905883073,0.0044527458958327,-0.7183941629030483,0.1750692508270083,0.5420202112947258,-0.3993427689169932,0.0398793593049049,0.0026038270443677,0.0055990787222981,0.0011273026466369,0.0060206055641174,0.0006455183029174,-0.0150715038180351,-0.0022809039801359,-0.0636965193629264,0.0461710207164287,0.0443868113376665,0.0890805514663457,204
1733403031108936400,-0.0390729502379894,-0.0533405450433492,-0.0009954407781362,6.2633987162292,-6.717312696796656,3.437722578589618,-0.0189774259924888,0.0081558469682931,0.0177245773375034,-0.7182381674527077,0.1754633323407785,0.5421600771008652,-0.3992606010464165,0.0025586215779185,0.0048516946844756,-0.0047800587490201,-0.0021770596504211,-0.0095002353191375,0.0043008364737033,-0.0101873530074954,-0.0062022949568927,0.0804062466233968,0.0150732081383466,0.1339468990824185,0.05022445884943,205
1733403031148936400,0.042445641541481,-0.0180693251758813,-0.0685720164448022,6.261786020335554,-6.722057260975241,3.431377885738015,0.0072110760957002,-0.0435870923101902,0.0118183018639683,-0.717839856276152,0.1755041705494309,0.5424451143101626,-0.3995715520774677,-0.0168507639318704,0.0159334819763898,0.0075045707635581,-0.0094278454780578,-0.0101127922534942,0.0009593944996595,0.0150803355500102,-0.0297876950353384,-0.0142319389700889,-0.0154131259769201,0.1446674323980696,0.0868558611541986,206
1733403031188936400,0.0568389085531234,-0.0217564892560243,-0.1304655780389904,6.262357682743668,-6.727348937642574,3.419949313750863,-0.0385293997824192,-0.0168930646032094,0.0152140641584992,-0.7173443101786015,0.1755974058260808,0.5429518110727634,-0.3997326079378614,0.0194571763277053,0.0138715552166104,0.013006062246859,-0.0071985721588134,0.0055309534072875,0.0009670220315456,0.0246612057089805,-0.0073680486530065,-0.0589940407603979,-0.0260675586760044,0.1224360008403658,0.0042664252728223,207
1733403031228936700,0.0460667546480894,-0.0215285257190465,-0.1253653322905302,6.258464766958356,-6.740145875373482,3.401830304214358,-0.0613744519650936,-0.022875640541315,0.0329258367419242,-0.7167909797064944,0.1764459508620163,0.5435271402841004,-0.3995696444967015,0.0134640000760555,0.0185646302998065,0.0128663796931505,0.0009735822677612,0.0004853904247283,0.0042612552642822,-0.014125533401966,0.0184528212994337,-0.057483051675558,-0.0218879282474517,0.1131467789694666,-0.054737844620645,208
1733403031268936700,0.1476134044557809,0.0345680400341749,-0.1164271158143877,6.253433787053823,-6.758982093268632,3.3735885445922613,-0.1287067979574203,0.0049731116741895,0.017192717641592,-0.7160979076124089,0.1779111833451646,0.5443734561989272,-0.3990097961543524,0.0301532298326492,0.0131444055587053,0.0051738386973738,-0.008902370929718,0.0080293416976928,-0.0091855525970458,-0.0574880205094814,0.0398780032992363,-0.0592161590784788,-0.0151106361299753,0.1126460263730958,-0.0246168471232056,209
1733403031308936700,0.1093149457216262,0.0291951148241758,0.1118453409820795,6.243249662169814,-6.784884011766314,3.3402941777557134,-0.17384834587574,0.0560459569096565,0.0169730372726917,-0.7158164516299806,0.1807082155616657,0.5450109454557078,-0.3973844882128479,0.0318653769791126,0.0263642314821481,0.0188371185213327,-0.0138001441955566,0.0006722807884216,-0.0025372542440891,-0.0786852985620498,0.0597985014319419,-0.0618716420233249,0.0020862091332674,0.0660274602282559,0.0229433609530329,210
1733403031348936400,0.0435001190304756,-0.0427770654529333,0.2728714769795536,6.236490251037478,-6.805088010883331,3.3116970288246868,-0.1284475922584533,0.0239739175885915,-0.0152431046590209,-0.7158237566578266,0.183293719167806,0.5454849699805585,-0.3955322897284457,0.0501865930855274,0.0266462601721286,0.0112885236740112,-0.0070858001708984,0.0063280463218688,0.0032219849526882,-0.0621486045420169,0.0361312888562679,0.018194997382164,0.0109107447788119,0.1306271435425616,0.0781485308244824,211
1733403031388936400,0.0130664023220539,-0.1438543441832065,0.4082967232525348,6.237595581930876,-6.812498579400778,3.2943358519181607,-0.0272036008536815,0.0252915155142545,-0.0102918855845928,-0.7158156482192386,0.1844303751823579,0.5459130448947096,-0.3944266003318908,0.0524185895919799,0.0270633623003959,-0.0006956349825486,-0.0015659928321838,-0.0058900415897369,-0.0008169412612915,-0.03095468506217,0.0086528286337852,-0.0017582418441772,0.0103480471298098,0.0965952653448563,0.0972726257503032,212
1733403031428936400,-0.0311234525382518,-0.0593301408469676,0.1402916832655668,6.2386898069083685,-6.8088862341225145,3.299727189567685,0.0243370104581117,-0.0008504571742378,-0.0123214079067111,-0.7160959876783703,0.1843462828460958,0.5456896364185875,-0.3942661511929393,0.0343879237771034,0.0146454693749547,-0.0077570066787302,-0.0021212697029113,-0.0150755941867828,-0.0032292604446411,-0.0142771862447261,0.019058957695961,0.0651683454811573,0.0249903034418821,0.0851204704626463,0.1392874746590852,213
1733403031468936400,0.0301993234306573,0.0077454995602369,-0.0047939562782645,6.242608441656827,-6.8050330658257,3.3002629038795828,0.0101957535371184,-0.0258260704576969,-0.0031013970728963,-0.7160139736001331,0.1838804530469917,0.5458217708099026,-0.3944495594902632,-0.0388806983828544,0.0233158152550458,-0.0136593040078878,-0.0079985260963439,-0.0263695120811462,0.0031335316598415,-0.0275027174502611,-0.014036264270544,0.1357563779234886,0.0474596060812473,0.1001484825807157,0.2140299964323639,214
1733403031508936700,0.1848246524751186,0.1692389608085155,-0.0328176892355084,6.255727450948953,-6.798035754284262,3.2898303571924563,-0.0222623795270919,-0.0449134856462478,-0.0809050872921943,-0.7158741479426105,0.1833773909530764,0.546477877028189,-0.3940291774266974,-0.0043006157502532,0.0226426236331462,-0.0007905100937932,-0.0062986612319946,0.0025782287120819,-0.0041209459304809,-0.0512557439506053,-0.0311299357563257,0.2001660139918327,0.1466758996248245,0.0596317267425823,0.299171162623167,215
1733403031548936700,0.190980252495408,0.088069328597188,-0.0498050643935799,6.294762407264113,-6.768041013514996,3.27718861002326,-0.0186877492815256,0.0478537753224372,-0.2085278928279876,-0.7165154794569568,0.1820265437236281,0.5475182373643577,-0.3920403070574993,0.0276471953839063,0.0130660021677613,-0.0039383666589856,-0.0031895041465759,0.0097526907920837,-0.0063650608062744,-0.0631599724292755,-0.0546447783708572,0.2343599600166082,0.3256569802761078,0.0485121978717157,0.4927636434435844,216
1733403031588936400,0.5382821165591478,0.302908595585823,0.1886865886002779,6.370186773821711,-6.661908204960823,3.348147813865542,0.0368755683302879,0.4382055103778839,-0.6338247060775757,-0.7226883992893757,0.1794227431044017,0.54506829815472,-0.3852655671693126,0.0055560092441737,0.0225350856781005,-0.0023053828626871,-0.0068215727806091,-0.0029697716236114,-0.0098124742507934,-0.0924064368009567,-0.1216722950339317,0.2080482916742563,0.5630769729614258,0.0213236827627522,0.3807806475564837,217
1733403031628936400,0.5446802931636572,0.0815419726550579,-0.0105795539423823,6.533177780151367,-6.4300663652449845,3.484566162829101,0.125415489077568,0.709155797958374,-1.1707531213760376,-0.7345110466498038,0.1726409985109825,0.5408619504386478,-0.3716945322904396,-0.000529313692823,0.0354922674596309,-0.0018053741659969,-0.0063763260841369,-0.0064651370048522,-0.0147372484207153,-0.1298254430294037,-0.1503484547138214,0.0816612151205539,0.7297446131706238,0.0849771895344369,0.2786006682813167,218
1733403031668936400,0.1647188530355691,0.2099918269574642,-0.1039431895554065,6.740158734855055,-6.039573594230413,3.7767978815779086,0.3416372835636139,0.895348072052002,-1.4460264444351196,-0.7545315123559478,0.1612865012620374,0.5304936967461202,-0.3510631822150759,-0.0341903381049633,0.0377659685909748,-0.0088265985250473,-0.0219523310661315,-0.0031164586544036,-0.0265319310128688,-0.2151994705200195,-0.1659661531448364,-0.1942021371513605,0.8318487405776978,-0.0440570998926879,0.1136105970889329,219
1733403031708936400,0.2232166347116231,0.3135825498133897,0.9161790253728628,6.934697556614875,-5.562719467580318,4.1396266928583385,0.8022032380104065,1.064044713973999,-1.4412320852279663,-0.7750894230397476,0.1440173218454195,0.5178771967116399,-0.332112459979072,-0.106562003493309,0.0571939945220947,-0.0111603271216154,-0.0447708368301391,-0.0167418718338012,-0.0264914073050022,-0.2754238545894623,-0.0695920661091804,-0.0726151543557643,0.7112728953361511,0.0038668314959853,0.1191162087678909,220
1733403031748936700,0.0381102426856756,-0.4740320549666881,0.4122799476698041,6.986626481294632,-5.014525028815865,4.712957034184038,1.292365550994873,1.0963715314865112,-0.9164281487464904,-0.7985137165427747,0.1215945234382486,0.4948947768130997,-0.3204210973319837,-0.2092271298170089,0.05150793120265,0.0089867524802684,-0.0316382646560668,-0.028357595205307,-0.0279240608215332,-0.3005840480327606,0.0098358318209648,-0.2380067920863628,0.4884551763534546,-0.0162620200255885,0.1673395569279789,221
1733403031788936700,0.3398836967617273,0.4985927879884839,-0.974749287763238,7.026925173935294,-4.682011276300251,4.987131994977593,0.0407553575932979,-0.0294218957424163,-0.5099560022354126,-0.8089108305708067,0.1058504967919223,0.48427545510807,-0.3161269616253141,-0.2658254504203796,0.07561656832695,0.0086436048150062,-0.0275370478630065,-0.0169443488121032,-0.0355684757232666,-0.4068846702575683,0.0676194652915,-0.4164624940514564,0.2619475126266479,-0.0373462908421643,0.3385952643863856,222
1733403031828936700,0.3437561542809009,0.3247983558326959,0.1258773734658956,7.032329663327336,-4.586028105838596,5.068043268513679,-0.2852305769920349,0.8259819746017456,-0.4278062880039215,-0.8150283780532271,0.106235188858099,0.4799122639169526,-0.3068012323085053,-0.3029192686080932,0.0751922726631164,0.0391583070158958,-0.002447485923767,-0.0172503888607025,-0.0504986159503459,-0.5073680281639099,0.1583940386772155,-0.5334890370637179,0.1148846447467804,-0.0213064074009656,0.5264627916887402,223
1733403031868936400,-0.0411713838219642,-0.1330284142643213,-0.8871943384289741,6.891430661818385,-4.574420962414146,5.268135048225521,-0.929452419281006,1.2203593254089355,-0.532929539680481,-0.8271774873915104,0.1182137520623332,0.4662889454700706,-0.2904782726002181,-0.1878808289766311,0.051155649125576,0.0860924497246742,0.0189160108566284,0.0159536898136138,-0.0759192779660224,-0.516232967376709,0.2674874067306518,0.0372083254098892,0.090222917497158,0.2626658161171711,0.7177694996595382,224
1733403031908936400,-0.5290864181905984,-0.4841241176530718,-0.3655313482373952,6.720640964436531,-4.710844572074711,5.367615997675061,-1.0488910675048828,0.8836596608161926,-0.0106231747195124,-0.8359389493619427,0.1383229729158029,0.4551862159038275,-0.2736389205661352,-0.062803603708744,0.0113150272518396,0.0651706680655479,-0.0034514069557189,0.0224875211715698,-0.0736394003033638,-0.4755994379520416,0.141468659043312,0.5669447319418192,-0.0094107314944267,0.365666080532968,0.5855787052631378,225
1733403031948936400,0.240009364080429,-0.6214736099869013,0.5501753834486007,6.504007799768448,-4.953275318083167,5.416025516057014,-0.855366587638855,0.8877030611038208,0.1154670938849449,-0.8404358096569567,0.1605809292334996,0.4450542937270961,-0.2642122346304689,0.1430403739213943,-0.0402536280453205,0.1176172867417335,-0.0351813435554504,0.0302716195583343,-0.0551974810659885,-0.4566338658332824,0.2041971087455749,-0.3207961344540119,-0.2039960026741027,0.2155171114512719,0.493507593678683,226
1733403031988936700,0.1710474715352058,0.4490659560143947,0.43111470426023,6.405973541995882,-5.071969502046704,5.423007045507431,-0.2426469326019287,0.04407225176692,-0.1650578677654266,-0.8428284098009385,0.1725169677309076,0.4401607656492852,-0.2571703046641137,0.1230253875255584,-0.0396466366946697,0.2293397635221481,-0.0730557441711425,-0.0089451968669891,-0.0017968490719795,-0.5242748260498047,0.2115972191095352,-0.2595265499770641,-0.3276329934597015,0.5024485135685652,0.6750999862343072,227
1733403032028936700,-0.198669637954235,0.2007464442282915,-0.4060965828597545,6.517416731917858,-4.982565709975361,5.372867926853895,0.3355093896389007,-0.6289579272270203,-0.2981147468090057,-0.8422989257964761,0.1674586586036828,0.4449916525394963,-0.2539146404965008,0.0438333563506603,0.0494611859321594,0.3829247951507568,-0.0455870628356933,-0.0074394643306732,0.0301508978009223,-0.4976688325405121,0.3065420985221863,0.1046358479946851,-0.1581471711397171,0.612359379356727,0.9579286474741996,228
1733403032068936700,-0.0216594586223363,0.3431552657783031,-1.7135668361485004,6.774654878696799,-4.838418228064477,5.183063732400536,0.375053733587265,-1.1783668994903564,-0.2143842279911041,-0.835559098954282,0.1535036702841035,0.4606233862130069,-0.2571065557608918,0.1065918132662773,-0.0218435134738683,0.4308187365531921,0.0477993488311767,0.0410357564687728,0.0513069555163383,-0.4830082356929779,0.1514766067266464,1.096802719026804,-0.1522502899169922,0.9051333882886916,0.590116787084192,229
1733403032108936400,-0.1132756660461425,0.5489344434767961,-2.145325099009275,7.030573175048827,-4.746119006812572,4.920952426627278,-0.3435372412204742,-0.7558287978172302,-0.2339923977851867,-0.8279068386419945,0.1446561881401825,0.477677537189976,-0.2558690196142643,0.4870778918266296,0.0884551405906677,0.3407924473285675,-0.0375187993049621,0.1053329855203628,0.0003424882888793,-0.5031905174255371,0.0082755237817764,0.7827554743111134,-0.1060436069965362,0.7938301913592964,0.657215077714622,230
1733403032148936400,0.6606599574714899,1.4245356670066711,-1.9808856474369765,7.215814591631293,-4.853182081954181,4.533104617163539,-0.8226174712181091,-1.0555121898651123,-0.0322860367596149,-0.8169978192426777,0.1495650890096741,0.4964939773163873,-0.2522670486343501,0.650019109249115,0.2095188200473785,0.2165979295969009,-0.0871348977088928,0.0632192194461822,-0.0217516347765922,-0.4661093056201935,-0.0423724390566349,0.1982441060185432,0.0592448562383651,0.773970840961486,1.0823124213814734,231
1733403032188936400,0.7575251714646816,1.4314268878251313,-1.3264210374742746,7.418523860365152,-4.947161803638934,4.081847580845654,-1.0669864416122437,-0.8378663659095764,-0.370142787694931,-0.8060955810829206,0.1581344702798878,0.5166015747948034,-0.2415082977804117,0.2500320672988891,0.314178854227066,0.3513500094413757,-0.05960613489151,0.0212929546833038,0.0234073400497436,-0.3713030219078064,-0.0063558518886566,-0.0098439331442117,0.3428832292556762,0.7142576921463012,1.175433188149333,232
1733403032228936700,0.1853507221758365,0.8266980764120817,-1.5839914849475023,7.629921462467312,-5.0192438740313055,3.572375963707268,-1.418591022491455,-0.9586061239242554,-0.3633597791194916,-0.7945257811967521,0.1694480794076915,0.5377237793098674,-0.2255421126349568,-0.0963911265134811,0.1493079364299774,0.4402161836624145,0.0765058994293212,0.0634806156158447,0.0198078155517578,-0.3422930836677551,0.0238499511033296,-0.0733557435899972,0.5326108336448669,0.763103702249378,1.4080755305930972,233
1733403032268936700,-0.0546609799921512,0.401601025006175,-0.3718807172641158,7.825491965362429,-5.125361485016346,2.943253592532873,-1.6936990022659302,-0.9317411184310912,-0.3032737672328949,-0.7794034305017885,0.1866416447911262,0.5613383294261298,-0.206384575187893,0.0136783840134739,0.2016772031784057,0.3886227011680603,0.0601367354393005,0.1325480639934539,-0.0824043750762939,-0.2608032822608948,-0.1008933186531066,-0.0991916111141443,0.7538478374481201,0.8687661898780613,1.2465598575130103,234
1733403032308936700,-0.8030810539811849,0.2465279521942138,0.3690973701559007,7.96952458872199,-5.224222841262817,2.3161491370521485,-1.4980238676071167,-1.0588407516479492,-0.1233879625797271,-0.7633784504171862,0.2053806837752432,0.5828619355710295,-0.1879999828582469,0.4719015955924988,0.2986403405666351,0.2843412458896637,-0.0281504392623901,0.1498980373144149,-0.117370493710041,-0.0588899403810501,-0.0893816128373146,0.1188116728633642,0.7739754915237427,1.1943271275810896,0.8047187381856143,235
