time_imu,phone_acc_x,phone_acc_y,phone_acc_z,phone_gravity_x,phone_gravity_y,phone_gravity_z,phone_gyro_x,phone_gyro_y,phone_gyro_z,phone_ori_w,phone_ori_x,phone_ori_y,phone_ori_z,watch_gyro_x,watch_gyro_y,watch_gyro_z,watch_acc_x,watch_acc_y,watch_acc_z,headphone_gyro_x,headphone_gyro_y,headphone_gyro_z,headphone_acc_x,headphone_acc_y,headphone_acc_z,frame_imu
1733405882767003400,2.925939761899412,12.599969051653146,-3.319240283811092,0.2626879731500521,9.76651438896656,-0.846521040322259,-1.4684655666351318,-0.3763789236545563,0.7711479663848877,-0.3324409297254692,-0.3451064880306643,0.6512004863692119,0.5884917926374817,1.534278392791748,1.7218706607818604,-0.3818852007389068,-0.9435972571372986,0.9417572021484376,-0.5475356578826904,0.2176805883646011,-0.0802856087684631,0.3947381534993648,-0.1280100047588348,0.1043424545386806,0.309007204721868,0
1733405882807003100,2.7489935877144336,6.058326810017228,-4.352705379915237,0.3485046274496242,9.799519417467712,-0.1355250442524906,-2.067810297012329,-0.2720224857330322,-0.2531474232673645,-0.3447449132661557,-0.3272768451828065,0.6322971777984292,0.6117525478748113,1.532048583030701,1.367595672607422,-1.1465450525283811,-0.4397730231285095,0.5217377543449402,0.0906139314174652,0.2715088129043579,-0.1169243305921554,0.4739958146095275,-0.2959280014038086,0.1050336608063895,0.370087988628447,1
1733405882847003100,0.0091344697006046,-4.057121428129077,-3.9608208622813215,0.200058681159839,9.773129423192144,0.785062143818289,-2.5079565048217773,-0.7186943292617798,-0.448442667722702,-0.3482973235101382,-0.3091567809645207,0.6036514352194462,0.6470827680095552,1.2528446912765503,0.7717994451522827,-1.5573618412017822,0.1279310584068298,0.0346526503562927,0.4256227612495422,0.3253370523452759,-0.1535630375146865,0.5538315678685903,-0.4638460278511047,0.1067956929096952,0.4307552232980728,2
1733405882887003100,-1.5441802835628389,-11.762008991992474,-0.6797429897345603,0.1024220352695789,9.669476741015911,1.6312888043038547,-1.7917513847351074,-0.3937878012657165,-0.1927985996007919,-0.3488795079586376,-0.2888550945933819,0.5773994769032738,0.6793052241236422,1.1572965383529663,0.4243445098400116,-1.0505720376968384,0.7497329115867615,-0.3908259272575378,0.741973876953125,0.3092723190784454,-0.0965566188097,0.0428852020025253,-0.4733513593673706,-0.0067818786924704,0.2019990746378898,3
1733405882927003100,-1.2354425434321163,-14.82362476005554,-0.912506474339962,0.0998427410997915,9.548151039505004,2.234554557427019,-1.396634578704834,0.3169540166854858,0.1158918961882591,-0.3562589679277314,-0.2767113370046932,0.556327474348938,0.6978611380527521,1.0816757678985596,0.3159489333629608,-0.5435943603515625,1.1103925704956057,-0.6338561773300171,0.7722411155700684,0.293207585811615,-0.0395502001047134,-0.4674158516973257,-0.4828566908836365,-0.1194821742697618,-0.0273953719258308,4
1733405882967003400,0.3549804358676076,-14.748387440502643,0.3569672257706522,0.0821109316494315,9.462140397003292,2.5751819121629,-0.3153499960899353,0.5634201169013977,0.0493968911468982,-0.3688761309041285,-0.2772266201726462,0.5402292690783227,0.7037245924608159,0.1977170705795288,0.4157514572143554,0.4492834508419037,1.1272375583648682,-0.6475800275802612,0.7598411440849304,0.2771428823471069,0.0174562223255634,-0.9770791920155286,-0.4923619925975799,-0.2313110207747667,-0.2574433139622211,5
1733405883174359600,-1.1526802352018657,5.802559904834628,-0.6644423986196517,-0.1295643092171754,9.804640998265146,0.1502875373021699,1.384668231010437,-0.096445582807064,-0.3231238126754761,-0.3400632449910954,-0.3430091896334845,0.6121128684296703,0.6261145068983746,-1.53930401802063,-0.9022247791290284,0.3923159837722778,-0.4095358252525329,0.5541082620620728,-0.2643840312957763,0.0221046973019838,0.1917704343795776,-0.2816495161916129,-0.292319118976593,-0.6364220997285097,0.146770733953407,6
1733405883373239300,1.068265045198053,0.6495224773854017,-0.1001720004536211,-0.1050481003236956,9.758821496376395,-0.9616566550213844,0.2900866270065307,0.0154834436252713,-0.0267608482390642,-0.3268164384521145,-0.3675490561926043,0.6433805514251781,0.5866517661281881,-0.052807830274105,-0.0598598904907703,0.1611720323562622,-0.0323091149330139,-0.0169488787651062,0.0168948769569396,0.091498926281929,-0.093440257012844,-0.0542125786375254,-0.0743860080838203,0.0263761986456578,-0.1321355114120524,7
1733405883413239300,0.2600036659695208,1.951009564611316,-0.9359691099267452,-0.1359540376537479,9.74735843759775,-1.0681270249668509,0.1633512377738952,-0.0399867706000804,-0.0984366685152053,-0.3232439367365012,-0.3696473296276748,0.6463901088045642,0.5839982955625413,-0.0700419470667839,-0.0358619838953018,-0.1010629832744598,-0.0474523901939392,0.0642491579055786,-0.0194409787654876,0.027102343738079,-0.0655253753066062,-0.1320662912338972,-0.012701366096735,-0.0374107161141932,-0.2169517290979623,8
1733405883651671600,0.3357137906659394,-14.276611640030143,-2.948822040314972,-0.1860761321072466,9.308941301369666,3.0788571179822086,-1.473251461982727,-0.3051464259624481,-0.2069811224937439,-0.3532693739002375,-0.265748791526317,0.5219191115762388,0.729505781291463,0.6971513628959656,0.0869872868061065,-0.7641000747680664,1.2115600109100342,-0.6114388704299927,0.9211715459823608,-0.1889848262071609,0.0233403593301773,-1.178264392987266,0.3497111201286316,-0.0372300189351779,-0.0341763441527145,9
1733405883810775300,0.8657594823427498,-1.0603279685884714,-0.5160170932590961,-0.2550882570023648,9.587277181234954,2.0468094874605534,1.922438383102417,0.1290790289640426,0.2402527034282684,-0.3455416768349207,-0.2944663440302175,0.5558159118272789,0.6963900884964326,-1.9903851747512813,-0.265445739030838,1.4403390884399414,0.2122418284416198,-0.212507963180542,0.1477870345115661,-0.0182982664555311,0.0801196694374084,0.5841234649535268,0.2056213319301605,0.0713161914532538,0.522820928055048,10
1733405883850775600,-0.5140157633740454,3.096502957049012,-0.2324322068244218,-0.1909271340686827,9.7274396851629,1.2291687238596378,2.137368440628052,-0.0279866456985473,-0.0106063093990087,-0.3320945749240155,-0.3043585900660862,0.5871078960587898,0.6725945262387463,-1.898106575012207,-0.7674857974052429,0.7956017255783081,-0.159227192401886,0.1099171042442321,0.0788892805576324,-0.0285119097679853,0.022080585360527,0.4886275665521621,0.2183624505996704,0.1792587619762867,0.2527890584155917,11
1733405883890775600,0.868223315173015,5.495658440220356,-0.4147188652545213,-0.2608442267131992,9.794461549556257,0.4133719076249748,2.1162209510803223,-0.2087330222129821,-0.2839804589748382,-0.3179705894841594,-0.3212704303406114,0.6129512288438356,0.6480516050240314,-1.7279855012893677,-0.7391499280929565,0.7106279134750366,-0.3664658069610595,0.369889497756958,-0.0785120725631713,-0.0628047958016395,0.124421939253807,0.0382318232387304,0.1733309626579284,-0.2186467695128172,0.202302733759582,12
1733405884049430000,0.3681010160623118,1.1971762334018945,0.6813865191578865,-0.4222699382212013,9.734598909267785,-1.1089006416428833,0.672244668006897,0.1231995597481727,0.0689245238900184,-0.2838208652242153,-0.346901835947898,0.6604523544734061,0.6024180668426458,-0.3858241438865661,-0.0468245707452297,0.2686403691768646,-0.0856522321701049,0.1760931015014648,-0.0255687832832336,0.0052326531149446,-0.0251428894698619,0.0658651047068182,-0.0400321148335933,0.2030449486953206,-0.0767253478872589,13
1733405884089430000,0.6654120473694056,2.0335984159708023,-0.1396165604829788,-0.399954828701727,9.709362176680564,-1.3186018881559372,0.4054711461067199,0.1806176602840423,-0.0057490863837301,-0.283446090416927,-0.3522030609163155,0.6657199043402167,0.5936567515355209,-0.1304205954074859,-0.0442582927644252,0.2268157452344894,-0.0443772673606872,0.0516537427902221,-0.1133367121219635,0.025745652616024,-0.0404691882431507,-0.0446954662948846,0.0187312066555023,0.1126919478740543,-0.0556961682587862,14
1733405884288125400,0.4049740085706114,-9.076860392200944,-1.2808248229473829,-0.227354319038242,9.569467383778097,2.1316643840558824,-2.2676963806152344,-0.3026022315025329,-0.0623701848089695,-0.3360368609676638,-0.282768140816165,0.5579942148279525,0.7041050227761398,2.1151297092437744,0.4175745844841003,-1.7450193166732788,0.3710116744041443,0.0522942543029785,0.7855234146118164,-0.0566369965672493,-0.029431402683258,-0.0376096750356839,0.283613920211792,-0.0765001882287207,0.7359056064613163,15
1733405884328125400,0.9630783583875744,-13.809598523914811,-1.2694509037569164,-0.3399873032666742,9.41279564359784,2.730212899398804,-1.0124074220657349,0.0120786698535084,-0.5412697196006775,-0.3389294906212698,-0.274108536247182,0.5344739409743463,0.724105539854275,0.6803780198097229,0.3841872215270996,-1.0833756923675537,1.073714256286621,-0.5235375165939331,0.956794500350952,-0.0049684830009937,0.0236933790147304,-0.2862865466088056,0.1132657080888748,-0.0455394428383559,0.3957841554209589,16
1733405884368125400,0.9607347909361124,-14.908963786906003,-0.8016247176930308,-0.5472858725521713,9.344688906577227,2.9236352843493223,-0.1059474349021911,-0.1961501985788345,-0.5324851274490356,-0.3325487815430392,-0.2756551213564379,0.5243570673556843,0.7338086705754735,-0.3234931230545044,0.3206109702587127,-0.3096662759780884,1.294388771057129,-0.6686320304870605,0.7269267439842224,0.0467000342905521,0.0768181607127189,-0.5348416207164526,-0.0570825040340423,-0.0145711808618158,0.0556061518877744,17
1733405884526789600,0.3180175365861505,4.960032975649834,-0.1504734700620174,-0.4480525046555325,9.738569566464424,1.0629640161804854,2.222278356552124,0.3241613209247589,0.5155544281005859,-0.3358966667632289,-0.3283299398691219,0.5813805721288865,0.6643564597903531,-1.888406038284301,-0.9763729572296144,0.8073046207427979,-0.445616066455841,0.2604871988296509,-0.1762050092220306,0.0628638416528701,-0.0598389878869056,0.4658682569291442,0.0790565237402916,0.0849277791684493,0.1811953377957455,18
1733405884566789600,2.519039461441338,5.747842226219177,-1.104359418016672,-0.3323851211672649,9.796212192615869,0.30679120917283,1.603024959564209,1.0597273111343384,0.0116328736767172,-0.3363928392406951,-0.3466916758031765,0.6034590990172312,0.6344145541994377,-0.987453281879425,-1.144728422164917,0.802866518497467,-0.2846355438232422,0.3540059924125671,-0.1332091093063354,0.0634824633598327,0.0232342928647995,0.3325824338376522,0.0206053368747234,0.053308250208944,0.0259153625011444,19
1733405884606789600,0.3425314347915351,5.290623943409323,-1.6782020927786827,-0.4125618698837235,9.79449194469452,-0.2609510846211574,1.2820826768875122,-0.0352952405810356,-0.227056935429573,-0.3303915897167837,-0.365558620883754,0.6161750543761898,0.6144400510287263,-1.1374502182006836,-0.6534388065338135,0.4181466996669769,-0.546928346157074,0.2381289005279541,-0.3447605073451996,0.0641010850667953,0.106307566165924,0.1993868463128805,-0.037845853716135,0.0217181300070136,-0.1295572310224175,20
1733405884646789600,0.4803127792039885,3.583597907206416,-1.955214030563832,-0.454874605760537,9.77589888790548,-0.6287281111598014,0.5157899260520935,-0.0591446720063686,-0.0785253643989563,-0.3206639297693716,-0.371504080508843,0.6277267957937454,0.6042504087094979,-0.2363246530294418,-0.5031315684318542,0.3132955729961395,-0.24732506275177,0.3033238053321838,-0.2656711041927337,0.0206807442009449,0.0995005741715431,0.0905956322044134,-0.0700630247592926,-0.0795082018051296,-0.0520861610680818,21
1733405884686789600,-0.6279803615324199,1.964720110055804,-0.5847801752965897,-0.4926556530244648,9.769710554659364,-0.6931251800075173,0.0027740579098463,-0.1019612029194831,0.0120638357475399,-0.3170562491533188,-0.3725051005454783,0.6297455830097093,0.6034366246897767,-0.0907317847013473,-0.1548978239297866,0.2326857596635818,-0.2144542932510376,0.195919930934906,-0.1802052855491638,-0.0149157159030437,0.1027209386229515,0.1065764606684446,-0.0822377726435661,-0.0893525733407586,0.015872984175384,22
1733405884726789400,-1.321058341397345,0.159579152059555,-0.3298970672111958,-0.3860073692288249,9.775758602651951,-0.6752189364388584,-0.131881982088089,0.2547177672386169,0.4739934206008911,-0.3213107284615432,-0.3694284046501851,0.6308321785632864,0.6019408455154672,0.4731582403182983,-0.0664169639348983,0.3183284401893616,-0.0371095538139343,0.171191394329071,-0.0679093450307846,-0.0505121760070323,0.1059413030743599,0.1228261692017316,-0.0944125205278396,-0.0992724212653934,0.0837383136555552,23
1733405884766789600,1.43134534702152,1.013023196578026,-0.4199053279817104,-0.2694094816911034,9.786322666764258,-0.5706962299624457,-0.2914639115333557,0.5998521447181702,-0.0519055090844631,-0.3337028558417388,-0.3710788646084133,0.6256180029388344,0.5996207169725098,0.4798635244369507,0.0401733964681625,0.1804604977369308,-0.0752365589141845,-0.0022662281990051,0.078357994556427,0.0222382508218288,0.074130542576313,0.0546586419045925,-0.0412555262446403,-0.1164049039825797,0.1889762191966175,24
1733405884806789600,0.4167065319404006,0.2755909650713205,-0.2328278916111215,-0.3016351781165227,9.788734404081106,-0.5099730638545006,-0.04871142283082,0.1724516600370407,-0.1062252297997474,-0.3390786190963368,-0.3764664005486467,0.619898733192606,0.5991863289724938,0.0489957593381404,0.0659477859735488,0.1129094287753105,-0.0270751118659973,-0.0104450583457946,0.0421871840953826,0.0013270396739244,0.0656093433499336,0.0175707280039787,-0.0441217646002769,-0.1231479485020041,0.1033975383713841,25
1733405884846789600,0.1916243042862974,-0.112663087105751,-0.0526688928594812,-0.2957721313020214,9.788678874501583,-0.5144581368466838,0.0210815407335758,-0.0437592640519142,0.1297319382429123,-0.3393018131146939,-0.3764930073136277,0.6200669971799555,0.5988691257917579,-0.0434356369078159,-0.0253938995301723,-0.039152342826128,-0.0001578330993652,0.013328194618225,-0.0287292599678039,-0.0195841696113348,0.0570881478488445,-0.0194680860579013,-0.0469880029559135,-0.1298953769356012,0.0177870011031627,26
1733405884886789600,0.5798458606995642,0.0340589214682579,0.2902221324920654,-0.264709158513043,9.787854114115238,-0.5461026541169732,0.1688223332166671,0.061860017478466,0.0048082889989018,-0.339744163101227,-0.3761623083409903,0.6215668944214201,0.5972691318124247,-0.1481929421424865,-0.02578916400671,-0.0247676782310009,0.0379971265792846,0.0195425748825073,0.0036273300647735,-0.0404953807592392,0.0485669523477554,-0.0564589693248271,-0.0498542413115501,-0.1366466778267175,-0.0678553926080465,27
1733405884926789600,0.6555201103650034,-0.0119797761291265,-0.4401694597881287,-0.3092583664713427,9.782416306975485,-0.6156730339493602,0.1444009244441986,0.0909084156155586,-0.230642169713974,-0.3383198758764033,-0.3801149255971335,0.6220154600544388,0.5951041828804519,-0.2471714615821838,-0.0084898555651307,0.0186782665550708,0.0204926133155822,0.0198239684104919,0.0135919451713562,-0.0439397916197776,0.0216103494167327,-0.0484901824027299,-0.0340605825185775,-0.0601564356032758,0.0062543842196464,28
1733405884966789400,-0.7088235382683574,-0.8814408894687891,-0.5795055228292941,-0.3664723919471725,9.778443896213174,-0.6466249293129891,-0.1448864489793777,0.5724676847457886,-0.0433013625442981,-0.3388567189258136,-0.3854773051005378,0.6199805988860434,0.5934706940590341,-0.3381727337837219,0.0073644747026264,0.039796732366085,0.0406034588813781,0.0246327519416809,-0.0371046066284179,-0.0351262502372264,0.0564975962042808,-0.1583995868861675,-0.026494538411498,-0.1050564114943146,-0.0253162275642156,29
1733405885006789400,0.2394455927178263,0.0062158057749271,-0.10130005463548,-0.3893825082177296,9.787566529345511,-0.4715128752199932,-0.5674160718917847,0.9706361293792723,-0.1569375246763229,-0.3531218735724348,-0.394957313451584,0.6066705755450019,0.5926757779644956,0.0037372023798525,0.0425209179520607,0.1202907115221023,0.0328949093818664,-0.0105700492858886,-0.0444150865077972,-0.055292010307312,0.0400454029440879,-0.0295090030789375,0.0228428822010755,-0.0537150043789297,-0.0247401812419295,30
1733405885046789600,1.4124854559898377,0.4506359818100929,0.5895441017627716,-0.4970025961875915,9.786970317018032,-0.3722705202993005,0.0040760771371424,0.6612027287483215,-0.5414294600486755,-0.3610584189620261,-0.4057473244216315,0.5952727300142929,0.5921624053163483,-0.1693693250417709,0.206628680229187,0.1201142072677612,-0.0501043796539306,-0.0412024855613708,0.0540613234043121,-0.0739322379231453,0.0490630082786083,-0.0522299534529447,0.0174963138997554,-0.0779792386721819,-0.0375067238345742,31
1733405885086789600,-0.1858908204019069,0.1799789660096168,-0.8001450005292892,-0.7081937159322201,9.772716750738024,-0.4035405051687732,-0.0603844001889228,0.4745913445949554,-0.464697390794754,-0.3608266804099803,-0.4195174843903077,0.5870093017382619,0.5909561769822045,-0.355692595243454,0.112560823559761,0.0203157775104045,-0.0316576957702636,-0.0491766929626464,0.0140855312347412,-0.0616020448505878,0.0397512018680572,-0.0547457356661558,0.0113085201010108,-0.046239919257909,0.0057449733927845,32
1733405885126789600,0.0295153597544878,-0.1659212145626545,0.0608066796729341,-0.7426880331430584,9.772803844499588,-0.3332970849130302,-0.1606335341930389,-0.6864469647407532,0.2723420858383178,-0.3613820296920631,-0.4193453367100671,0.5840744058109434,0.5936409087564087,-0.0479267910122871,-0.09762804210186,-0.0496555194258689,0.0052960515022277,0.0164340734481811,-0.1960059404373169,-0.0521138124167919,0.0454114079475402,-0.0169902977675199,0.0130355777218937,-0.036325185899809,0.0567103137373924,33
1733405885166789600,0.6815459475032984,0.1482148774802684,1.139436576616764,-0.654910380968824,9.777995567923783,-0.3637158963132649,0.3985404372215271,-0.4683898687362671,0.1527324467897415,-0.3553256079922169,-0.4092678459306684,0.5924898136832898,0.5959860789972353,-0.2935378849506378,-0.0407624654471874,-0.0673745274543762,0.019334077835083,0.0471616983413696,0.0435210764408111,-0.0570275001227855,0.0372144654393196,-0.0026087211936712,0.0358720198273658,-0.0220393247853964,0.0494230793386697,34
1733405885206570500,-0.6041578796572983,0.3764227446079254,-0.4057902568569406,-0.6381332875605672,9.77199895785749,-0.5207664066780359,0.2295166850090026,0.4529066085815429,-0.0773740857839584,-0.3529324289785677,-0.4119995188438698,0.5973341551910035,0.5906665582312818,-0.2644135653972626,0.0100995935499668,-0.0267521999776363,0.0550363659858703,0.027362048625946,0.0046058297157287,-0.0723422244191169,0.0379809103906154,-0.001614336436527,0.022434651851654,0.0064792972830124,0.0324960834651719,35
1733405885246570200,-1.3124474571794271,-0.3845066823422908,0.793183344823122,-0.6256590059127658,9.769178639739753,-0.5848871062697842,0.2223213613033294,0.975582480430603,0.1701171398162841,-0.3597633247528575,-0.4207235041198265,0.5939803669787059,0.5837374932050532,-0.3640868961811065,-0.1334127187728881,-0.1103155985474586,-0.0106023550033569,-0.067200481891632,-0.0144394040107727,-0.0713287740945816,0.0585253722965717,-0.0217523976027965,0.0154620166867971,-0.0401212171819061,0.0890358355417847,36
1733405885286570500,-0.4646798873947933,-0.0905839417666196,0.1277121876776218,-0.4047147365799173,9.770491475903988,-0.7376357912547886,0.3449575304985046,1.384279727935791,0.5961835980415344,-0.3773080056804979,-0.4317377557376112,0.5926309734976516,0.5657117474180127,-0.0497792847454547,-0.083313338458538,-0.170502170920372,0.0445128679275512,0.0479130744934082,-0.0258113145828247,-0.0772861316800117,0.0602191798388958,0.0144523037225008,0.0023898780345916,-0.0284733033556491,0.0722737935721874,37
1733405885326570500,0.813966897393763,0.1071376016825437,-0.2924843052703887,-0.1308712636298965,9.769244690713286,-0.8456586513392627,0.196092888712883,0.899560272693634,0.5643749237060547,-0.3945142768495325,-0.438113908651423,0.5925983427449852,0.5488551702555717,-0.1223829165101051,0.0485919639468193,0.0252810418605804,-0.0206485390663146,-0.0886220335960388,0.0544353872537612,-0.0832434892654419,0.0619129873812198,0.0506914918392896,-0.0106822615489363,-0.0168234898332506,0.0555462383940815,38
1733405885366570500,0.5587067726895213,-0.2131061595857143,-0.4853097472410649,0.0732129649852868,9.765371064150331,-0.8958447509396821,-0.038952387869358,0.9383352994918824,0.3039408028125763,-0.4099068159523136,-0.4448215946975953,0.5897534403315314,0.5350709932866519,-0.6443877816200256,0.0149988513439893,0.0003346791490912,-0.002181589603424,-0.0388764142990112,0.0148887187242507,-0.0754185914993286,0.0431485995650291,0.0918248817384242,-0.0245143137872219,-0.0269428789179772,0.1317556178495287,39
1733405885406570500,-0.7874361794732511,0.63604164904356,-0.7730500728547572,0.2228535187539644,9.76392086534202,-0.8868797925870865,0.0656318813562393,0.998344361782074,0.4657301902770996,-0.4222697910309267,-0.4490958749931074,0.5861153285813528,0.5258040502323997,-0.0366941094398498,-0.0089986268430948,-0.0906223952770233,-0.0414276123046875,0.2163823843002319,0.0667466521263122,-0.056012287735939,0.0329006686806678,0.0993079309701919,-0.0284643545746803,-0.0190197577685117,0.1518520649388432,40
1733405885446570500,-1.2031934478648003,-0.2676397138059139,0.345806510939449,0.5763615987803786,9.740150113654137,-0.9837119810935108,0.4888718724250793,2.2343125343322754,0.973128378391266,-0.4476153193881158,-0.4615192276114978,0.5806508022495377,0.4994849977801487,-0.1960166543722152,-0.0490562990307807,-0.044866356998682,0.0208262801170349,-0.0261173248291015,-0.0362300872802734,-0.0388071797788143,0.0017648320645093,0.1103232459813356,-0.0361204445362091,0.0038584289938211,0.1554614876076579,41
1733405885486570200,-0.6778390558093785,-0.1905231563776731,0.7616122946478426,1.1447080872789024,9.66737070864737,-1.18403888473548,0.8783925771713257,1.781733512878418,1.3966317176818848,-0.4766905357409099,-0.4732660147208373,0.5799900537021085,0.460865334874687,-0.6519604921340942,-0.0394987985491752,-0.0881211534142494,0.0247805714607238,-0.0483593940734863,-0.0106701850891113,-0.0204309672117233,-0.0003394475206732,0.039316111344099,-0.0444797500967979,-0.0332950974889099,0.1544222076877951,42
1733405885526570200,0.0244710089117288,-0.6843038679093122,-1.227158991472423,1.764446544036269,9.551227962732314,-1.353190970978141,0.3754443228244781,2.302109718322754,1.275081992149353,-0.5041907159631364,-0.4819019729666519,0.5803137342477078,0.4204736114663562,-0.0218049082905054,0.0067580728791654,-0.0611224919557571,0.010812759399414,0.0840421319007873,0.0085188746452331,-0.0074195098131895,-0.0107473256066441,0.0610994886070489,-0.0509129501879215,-0.0017043196998536,0.1410021696224808,43
1733405885566570500,-0.02827814610973,-0.5700345146507024,-1.239199265617132,2.332996226956696,9.4450407936424,-1.232365474074334,0.0340399369597435,1.76196551322937,1.1416497230529783,-0.5372959616971059,-0.4870151461300496,0.570656990578645,0.3853309171502099,0.0317078493535518,0.0016861357726156,-0.0086731305345892,0.0134150981903076,-0.0064072608947753,-0.0396512746810913,0.0020821206271648,-0.0213526524603366,0.0741337422251701,-0.0493394322693347,0.0201188050515949,0.1565358388409018,44
1733405885606570500,1.8712299254536628,-0.1703296786546707,-0.8834310403726995,2.74299463956058,9.363464334195852,-0.9858414674028754,-0.5324939489364624,1.649478554725647,0.6349207758903503,-0.563700084977102,-0.4854077834401795,0.5609306638616449,0.3632880563635003,0.1468365788459777,-0.0179793909192085,0.0429425910115242,0.0154411792755126,0.0257496237754821,-0.0201245546340942,0.0051870164461433,-0.0348963253200054,0.0549883122503757,-0.0472414381802082,0.0480843050155788,0.121534960347414,45
1733405885646570500,0.583090395578742,-0.5306570285081863,0.5041875757882371,2.987562105336785,9.32635479298532,-0.5137649304181338,-0.6631616353988647,2.0470080375671387,0.4773970246315002,-0.5950697479023226,-0.4859864712887985,0.5385275035521522,0.3459729023436336,-0.0347017981112003,-0.0537571497261524,0.0136365033686161,-0.0031219720840454,-0.0204846262931823,0.0004103034734725,0.0082919122651219,-0.0484399981796741,0.035873277413845,-0.0451434440910816,0.0760617146130651,0.086528821156919,46
1733405885686570500,0.0590106996342539,-0.3098527156352996,1.7212041991591454,3.21371274767369,9.264764890512824,-0.0810260681553278,-0.2927733063697815,1.998556137084961,0.644371509552002,-0.6246588370331895,-0.487643511921159,0.5160765301862645,0.3250694591684624,-0.0377820096909999,-0.092642605304718,0.0191559046506881,-0.0012362599372863,-0.0404871106147766,-0.0077832341194152,-0.0017197420820593,-0.0317898914217948,0.0057061026871204,-0.0641296133399009,0.0570580311965197,0.049256490600109,47
1733405885726570200,0.3480941834852099,0.1625847636163234,1.553050110977888,3.470807102067768,9.16926570417583,0.2201558406352065,0.0385737232863903,1.7997344732284546,0.7292096018791199,-0.6499315598395337,-0.4911869469654781,0.497504331091838,0.2980165743041018,-0.0955696776509285,-0.0801831111311912,0.0163203701376914,-0.0134509801864624,-0.0278257727622985,0.0014678984880447,-0.0117313954979181,-0.0151397865265607,-0.0243909294128417,-0.08311577886343,0.0380697645448148,0.01195464168787,48
1733405885766570200,-0.6696046036884188,0.2196937212824821,1.620244409328699,3.719219260573387,9.066516692841052,0.3688884401129558,0.280670553445816,1.036049485206604,0.730468213558197,-0.6665803432997118,-0.4941808946452163,0.4868030066684923,0.2729079798224536,-0.264195442199707,-0.0049651619046926,0.0637583881616592,-0.0197077393531799,-0.0354384183883667,0.0087174624204635,-0.0319307409226894,0.0138224847614765,-0.065571665585041,-0.099737636744976,-0.0148044781610369,0.0301285962820053,49
1733405885806570500,0.2390659457504749,0.5158201093822717,-0.3137818352451548,3.9257977719560255,8.980781944671273,0.3226099789429456,0.3937914073467254,0.4286933839321136,0.411964476108551,-0.6723925611626771,-0.4978489981532527,0.4854872224871948,0.2536472203589481,-0.0389364920556545,0.0501336716115474,0.0146969072520732,-0.0054588317871093,0.0624077320098876,0.0325697809457778,-0.0416192784905433,0.0399597734212875,-0.0125911860257387,-0.0966522768139839,-0.0214374133694916,0.0475397498100996,50
1733405885846570500,0.2221937214046716,0.2475958736866712,-0.7730307836323976,4.0124002428710455,8.942546029779315,0.3191797487659379,0.0160027369856834,0.6237642168998718,0.1870115846395492,-0.6757327429764413,-0.4999825199472806,0.4834706217890657,0.2442514502081154,0.0967358499765396,0.035048458725214,-0.0074613252654671,0.0137553811073303,0.0591328740119934,-0.0108321905136108,-0.0411531813442707,0.0215448662638664,0.0543003299862146,-0.0900601595640182,-0.0005617255359888,0.0765881496399641,51
1733405885886570500,0.1006947091534733,0.0792921479016542,-0.4905897334706038,4.085417548286914,8.903155099633336,0.4621585887562483,-0.037602886557579,0.8965478539466858,0.3116834461688995,-0.6850806392338586,-0.5013249559287054,0.4744573311689393,0.2328693186880326,0.1791526973247528,0.067289650440216,0.0163808893412351,0.0169134140014648,0.0347533226013183,-0.0048603862524032,-0.0251629315316677,0.0009644161909818,0.0543009145081043,-0.0972268357872963,0.0262227479498833,0.0962970587164163,52
1733405885926570500,0.9292723157018422,-0.0667436319738626,-0.4763023379862308,4.162446427431703,8.854960100784897,0.6588603607036173,-0.2128374725580215,0.9101334810256958,0.1738091707229614,-0.6962798480278206,-0.5012789594465779,0.4638177172527579,0.2208774723266955,0.1502893567085266,0.1104133576154708,0.0327868275344371,0.0018446445465087,0.0146666765213012,0.0164658427238464,-0.0091726798564195,-0.0196160357445478,0.054411389145255,-0.1043935120105743,0.0529784337326884,0.1159375787317752,53
1733405885966570500,0.5855164536818862,-0.3976613474696874,0.2808334688346833,4.1644300024643535,8.836772702187298,0.85985398462601,-0.2510949969291687,0.6539029479026794,0.0318255685269832,-0.7052687400903496,-0.5001548113496779,0.453877528200744,0.2154908714737123,0.0838991478085517,0.1874517798423767,0.0056803757324814,-0.0148144364356994,-0.0608882904052734,0.1262726187705993,0.021728366613388,-0.0332535095512867,0.0069686699688434,-0.1224993988871574,0.0576777705300599,0.1541097807377576,54
1733405886006570200,0.0593909311234951,-0.5459200640916824,0.8363304126322268,4.143181170469522,8.82806215698719,1.0342894911643117,-0.1149114295840263,0.5061124563217163,-0.0357055217027664,-0.7128929630655989,-0.4998906489556541,0.444269346560411,0.2109922175300364,0.5821656584739685,0.1836538612842559,-0.0690874755382537,-0.0010359287261962,0.0699630975723266,0.0512836128473281,0.0410908311605453,-0.0186604931950569,-0.0728822808593511,-0.1695949286222458,0.0285710646416991,0.1049836385190486,55
1733405886046570500,-0.0341819633260369,-0.4211544512599706,0.3460737835735082,4.116595069099962,8.833481259426474,1.0925422851033508,0.1736572384834289,0.3286953866481781,0.0014136976096779,-0.7159450799123748,-0.5018164042485338,0.4387210291572704,0.2076700180454278,0.7205477952957153,0.1093068197369575,-0.1518914699554443,0.0209954977035522,0.1078929305076599,0.0192573368549346,0.045433796942234,-0.0030432334169745,-0.0364396791249513,-0.2184878140687942,0.0369884721141308,0.0837806914925575,56
1733405886086570500,-0.3984010599210858,0.0718400783300399,-0.9325281026273964,4.115100154367089,8.830849157357216,1.1191265598420053,0.0038031488656997,0.344700276851654,0.0756683051586151,-0.7185200651052348,-0.5046826103036344,0.4338616009709414,0.2019616873306207,0.1986353248357772,0.1210333555936813,-0.208740234375,0.0589653253555297,0.0307937264442443,-0.0043874084949493,0.0411548875272274,-0.0003546553198248,-0.0152905081123113,-0.2499173283576965,0.0118975046731531,0.0648860214084386,57
1733405886126570500,-0.306081088142097,-0.3309159619301557,-0.2102406871519982,4.137702154536545,8.808485934379696,1.2084735071595758,-0.0835513398051261,0.5557685494422913,0.2237573415040969,-0.7230108393873186,-0.504112057364977,0.4292505492238078,0.19715597302722,0.0266600959002971,0.2014960348606109,-0.1703302711248397,0.0260139107704162,-0.0318872332572937,0.04065403342247,0.0384381674230098,0.0012589601101353,0.0082370824694633,-0.2514636516571045,0.020101488590613,0.0734703098803758,58
1733405886166570500,-0.3601841419905424,-0.1263473290652036,-0.3355418681651353,4.225473376969993,8.748166782495378,1.336168524506688,-0.0923649817705154,0.7003310918807983,0.4305632710456848,-0.7303777683468262,-0.5028030065223982,0.4231589587278726,0.1862095337506168,-0.4500417411327362,0.2373647540807724,-0.1419302523136139,0.0504714846611022,0.0087931752204895,0.0244956612586975,0.0457507073879241,0.0043328152969479,-0.0295838218808174,-0.2247508764266967,-0.003258490339294,0.0753892952442169,59
1733405886206570500,-0.2782446944504976,-0.3276648511797189,0.4305455260701477,4.344946436351537,8.6648747513026,1.4872101498454808,-0.023102568462491,0.7365056872367859,0.4951396882534027,-0.7388914174436505,-0.5004057684191615,0.4168542347897948,0.1728185535574336,-0.3341952860355377,0.284856230020523,-0.2040623873472213,0.0232477784156799,0.0210618376731872,0.0618432164192199,0.0530632436275482,0.0074066706001758,-0.0667880556374788,-0.198038101196289,-0.0264884131487458,0.0768687201470136,60
1733405886246570200,-0.1738113832905888,-0.1949199300318956,0.5244216412499547,4.485767988710105,8.574175074201822,1.5911548007056115,0.1710112392902374,0.585790753364563,0.5590754151344299,-0.7459873172932765,-0.4994159579176238,0.4116520178093262,0.1569366548679275,-0.175820842385292,0.3187822699546814,-0.128880575299263,-0.0169677734375,-0.0712837576866149,0.0482730418443679,0.0641264468431472,0.0028026150539517,-0.073367434027791,-0.1963305920362472,-0.0174066234834492,0.0078910455107688,61
1733405886286570500,-0.2454574003532528,-0.2065975083440542,0.8115722573421895,4.653780914855003,8.484100251001118,1.591457875305414,0.4301762580871582,0.6223213076591492,0.6675130724906921,-0.7493408920356587,-0.5005618051957021,0.4102390893115666,0.1401068470244364,-0.3883791863918304,0.1346126049757003,-0.0830055549740791,0.0261827707290649,-0.0097761154174804,-0.0305806100368499,0.0548582449555397,0.0089706666767597,-0.0683463909953832,-0.1914902329444885,-0.0166494484405964,-0.0414238972783088,62
1733405886326570500,-0.0576315202355384,0.0752682992130518,-0.0045668695241212,4.866834467470645,8.372672843170166,1.5435896241933107,0.6010026335716248,0.9191179871559144,0.8646147847175598,-0.7517325582081403,-0.504523013742922,0.4083569047897375,0.1166164301587225,-0.3582929074764251,0.1144433096051216,0.0265995729714632,0.0356806516647338,-0.1247649192810058,0.0160939097404479,0.0195212848484516,0.0097030950710177,-0.0541582911670208,-0.1830950528383255,-0.0353457464084029,-0.0842927326679229,63
1733405886366570500,-0.0934592049419879,0.1391115335702896,-0.8750595178686081,5.109910233384371,8.220693060198426,1.5746156077064573,0.4552979171276092,1.1241106986999512,0.9877008199691772,-0.7567074993003555,-0.5072317995112191,0.4030295915063921,0.0876178996651224,-0.3482804894447326,0.115818940103054,0.1015844047069549,0.0626607537269592,-0.0098414421081542,-0.0186997056007385,-0.0140543729066848,0.0559937730431556,-0.0551449641168117,-0.165435254573822,-0.1045486081026494,-0.0318231252402067,64
1733405886406570500,-0.5015034147381783,0.2721890476733446,-0.4681022265262901,5.370860094162821,8.027460060340166,1.6982726747743784,0.4992797672748565,1.6217457056045532,1.268587946891785,-0.7639475549043017,-0.50758820151145,0.3946725367750554,0.054515583353966,-0.3285302221775055,0.1123863905668258,0.0366842299699783,0.038944125175476,0.0258247256278991,0.0422337055206298,-0.0289986506104469,0.0667746439576149,0.0062304188221693,-0.1409531533718109,-0.0774431590341031,0.0781675277858972,65
1733405886446570500,-1.5542898819059132,-0.4734481175988912,-0.3405570659786462,5.720649683389067,7.729824436721206,1.922076900115609,0.7338326573371887,2.198464870452881,1.883737564086914,-0.7732746447573171,-0.506352541032801,0.3815867580730039,0.0067135224274059,-0.1194843351840972,0.0774624422192573,0.0382512360811233,0.0538185238838195,0.0454828143119812,-0.0285739302635192,-0.0170499682426452,0.0674387142062187,0.0121849433124065,-0.1470662355422973,-0.0630709348104894,0.1366337452799081,66
1733405886486570200,-1.900657679989934,-0.8294096734583377,-0.2428299744591116,6.176102710092067,7.264125325813889,2.293164275044948,1.1010373830795288,3.032403945922852,2.6838178634643555,-0.7829233712715244,-0.5021069832544641,0.3618974184035732,-0.0628464764546548,-0.2206964343786239,0.0713856369256973,0.0496340505778789,0.0421131253242492,-0.0071109533309936,0.0552889555692672,-0.0283915512263774,0.0807566791772842,-0.0284843362063169,-0.1715816557407379,-0.0669485068961977,0.088209029328823,67
1733405886526570200,-1.752182690268755,-1.2823995249181983,-0.8322861056774854,6.712968530112504,6.6210203142553565,2.696022168244421,0.9347179532051086,2.309169292449951,3.040744066238404,-0.7856651180035686,-0.492354174328412,0.3465955773793825,-0.1420889419488868,-0.2824708521366119,0.1073396503925323,0.1012576296925544,0.0294538736343383,0.0053486227989196,0.0626672953367233,-0.0397331342101097,0.0940746441483497,-0.0687041183918714,-0.1960970759391784,-0.0710053810715675,0.0394791929513216,68
1733405886566570500,-0.2181470763623714,-1.3924644122242926,-1.6598992511078714,7.233306993702054,5.862587964817881,3.078912647561729,0.4388134181499481,1.8483355045318604,2.914233684539795,-0.7816583470173497,-0.4760180765552068,0.3412124544004525,-0.2144549930915124,-0.2141146957874298,0.0397020652890205,0.1037832349538803,0.023733377456665,-0.0267502069473266,-0.0605839490890502,-0.051470473408699,0.0965794175863266,-0.0305453603893518,-0.194137156009674,-0.0672559654101729,0.0713765524715185,69
1733405886606570500,1.0278419955253602,-0.2531640292078256,-2.416809797805548,7.606397963538765,5.069399359297752,3.5516610924586653,-0.5494053959846497,1.4172065258026123,2.316346883773804,-0.7796375097392341,-0.4499776565277527,0.3412268794835023,-0.2706469526076183,-0.1651727259159088,0.0082586575299501,0.0330801755189895,-0.0568041205406188,0.0458723306655883,-0.0128958225250244,-0.0450194962322711,0.0737731605768203,-0.0065858081310987,-0.1999589204788208,-0.0429905620731413,-0.0420423214375972,70
1733405886646570500,-0.2906090859830379,-1.0006313325166702,0.3670964055970311,7.782365355819463,4.324381202706694,4.111556782671809,-1.1206094026565552,1.4042829275131226,1.717707633972168,-0.7853447809930139,-0.4143999558064535,0.3444439390287779,-0.3047368657827422,-0.1799820214509964,-0.0533799901604652,-0.093932569026947,-0.0990647673606872,-0.0015626549720764,-0.0396608859300613,-0.0345130935311317,0.0324833057820797,0.0287251592248678,-0.2169052362442016,0.0210414728544652,-0.0562333438754081,71
1733405886686570500,0.0648030193001031,0.0812979347661137,2.395260229298472,7.832470572203397,3.660090779778361,4.628878236527741,0.2537401914596557,1.3215709924697876,2.1489391326904297,-0.7862805121951848,-0.3855610082995888,0.3396109584239141,-0.343176228605643,-0.1370763629674911,-0.0177528634667396,-0.1187333241105079,-0.0581709146499633,-0.057860255241394,-0.0022703409194946,-0.0098023042082786,-0.0483548529446125,0.0540314499169588,-0.2165786325931549,0.1176568768050521,-0.0196387664496898,72
1733405886726570200,-0.4446498931378126,-1.2064385672658682,1.0953045894235371,7.831210343009233,3.0002941611379383,5.083381707420945,0.0834622234106063,1.9323796033859253,2.3368616104125977,-0.7782706229314453,-0.3628594773019915,0.3303825880072587,-0.39175925278303,-0.1014976128935813,0.0094593167304992,0.0101958317682147,-0.0189876556396484,-0.0915731191635131,-0.07550048828125,0.0111167021095752,-0.0805973261594772,-0.020337854629755,-0.2027114927768707,0.108470969178155,-0.0188385559827089,73
1733405886766570200,-1.4141601112037896,-2.0310845334537326,2.1078508161395786,7.582820688596367,2.228157257605344,5.805733858695626,-0.1300040334463119,2.8080835342407227,2.6186368465423584,-0.7728649709049165,-0.3267969460650625,0.3117590673912875,-0.4457464806022679,-0.0297421924769878,0.047601006925106,0.2544080913066864,-0.0020214915275573,-0.0933820605278015,-0.0675151348114013,0.0049392753280699,-0.081370323896408,-0.0770709647208452,-0.1805461049079895,0.110491807481274,0.0030506197422742,74
1733405886806570500,-1.4333675004988908,-0.8650275148063897,3.484872160038352,7.060339952281117,1.4465190968863666,6.650531070899963,0.4631360173225403,2.6739532947540283,2.812908887863159,-0.7639112594653219,-0.2840072276147602,0.2832969639087278,-0.5054920705347044,-0.0789739266037941,0.0543281994760036,0.3043215870857239,-0.0065810680389404,-0.0196207761764526,-0.0379085540771484,-0.0012381509877741,-0.0821433290839195,-0.133372113135457,-0.1583807170391082,0.1126871986337006,0.0246796832263469,75
1733405886846570500,0.4521808731645345,0.1457774212002754,1.4488555770099163,6.650966539707779,0.9323615138888358,7.146029107743502,1.0234051942825315,1.179399013519287,2.5412473678588867,-0.740497185114288,-0.2612705989385159,0.2595988709499011,-0.5621478112240696,-0.2454707473516464,-0.0370305255055427,0.4029342532157898,0.0080969929695129,0.0358456969261169,0.0035301446914672,-0.008523385040462,-0.0538335815072059,-0.1585176603078842,-0.1482182890176773,0.110546241082251,-0.0376344418674707,76
1733405886886570500,2.2401152602940795,1.3675551580257712,-0.613739800864458,6.5995759596884245,0.6752974085025489,7.222185295706986,0.5572189688682556,-0.0689753368496894,1.300843358039856,-0.7164015565576181,-0.259320331037314,0.254015750593541,-0.5958170011811299,-0.1720953434705734,-0.0426725931465625,0.4221144020557403,-0.0019353032112121,0.0109550952911376,-0.0249267816543579,-0.0340481996536254,-0.0145269110798835,-0.2206751335352659,-0.147639974951744,0.0554728808969259,-0.0379734645634889,77
1733405886926570500,1.16909755538702,0.842847393310815,-0.4269599226683378,6.551604248201847,0.4443354568937793,7.283504564544558,0.0336334109306335,0.6889725923538208,1.2686370611190796,-0.7019458538051243,-0.254139231992782,0.2530965457693261,-0.6153271520214265,-0.1661756634712219,-0.0562537051737308,0.3981196582317352,-0.0107725262641906,0.0004384517669677,0.0028453320264816,-0.0448738150298595,0.0424467474222183,-0.1573702438384294,-0.1253455877304077,-0.0080051003444939,-0.0258031342983245,78
1733405886966570500,2.617505388629436,0.8637401784095913,0.3833130886435508,6.250916251274943,0.1377840112935751,7.554961206290125,-0.0198101960122585,1.1600035429000854,0.8441861271858215,-0.6934918120372804,-0.2344252032080028,0.2446405691968693,-0.6358182117671869,-0.2517049610614776,-0.0446771010756492,0.3177812099456787,-0.0358898639678955,-0.0180886983871459,0.0278623104095459,-0.0496016964316368,0.0540471896529197,-0.1013981812477111,-0.0993604287505149,-0.0370735200490802,-0.0039081133544445,79
1733405887006570200,0.5472048432052136,0.4624102619623765,0.0387245751917362,5.929709197932482,-0.0097565699545899,7.810815205234289,0.0681459605693817,0.5939269065856934,0.5027825832366943,-0.688652350602406,-0.2187841464930688,0.2321481287611575,-0.6511517632716226,-0.2414389997720718,-0.0098360842093825,0.1590102910995483,-0.0543524622917175,0.0364629626274108,-0.0157325193285942,-0.0543295741081237,0.0656476318836212,-0.0452940167099237,-0.0733752623200416,-0.0662833209857344,0.017883447214961,80
1733405887046570500,1.9840701226919888,0.304895129760541,0.3685580025821924,5.702364669635892,-0.1042310665860772,7.977628984722495,0.0271394699811935,0.9296910762786864,0.2813606858253479,-0.686062438404656,-0.2077147221693703,0.2238497803025488,-0.6603516604791169,-0.158077523112297,0.0241318419575691,0.0576315931975841,-0.0414732098579406,0.0199207663536071,0.0104391574859619,-0.0502872020006179,0.0588953457772731,0.0107224695444107,-0.0603391975164413,-0.0548776184175163,0.0144949738204479,81
1733405887086570500,0.9691302788376808,0.0457348649457562,-0.0632476065516471,5.390467880952358,-0.1183092945654876,8.191412605178355,0.0805855244398117,0.8242413401603699,0.1128563806414604,-0.6876219336258669,-0.1952331706181397,0.2103287960797468,-0.6669495958288985,-0.0273448172956705,0.0499520450830459,0.0888300538063049,-0.0017564892768859,0.0232776999473571,-0.0157771110534667,-0.0420920476317405,0.0379307344555854,0.0363952554613351,-0.0514174662530422,-0.0423063061360269,0.0630085370987653,82
1733405887126570500,1.6642846265852451,-0.146583403820917,-0.7963689891219139,5.194354941743612,-0.1182750452360138,8.317154954087734,-0.1263340264558792,0.3562709093093872,-0.2881621122360229,-0.6906952104142006,-0.1871097867964311,0.2023191232687217,-0.6685783363564041,0.0699106231331825,0.0562701784074306,0.1715226769447326,0.0193431973457336,0.0089686512947082,-0.0029457136988639,-0.0250556394457817,0.011940985918045,0.0432592960119247,-0.0483413115143775,-0.0284482419796288,0.091737787976861,83
1733405887166570500,-0.3857160581320524,-0.438521290722303,-0.3361848422437906,5.148232072994112,-0.0748852318793302,8.346285771504045,-0.1287321746349334,0.057926770299673,-0.3411736488342285,-0.6975248623090016,-0.1850300398225848,0.2005535818740899,-0.6625717475977773,0.1682680994272232,0.02211987785995,0.2387743592262268,0.0460638403892517,-0.0075360536575317,-0.0117423683404922,0.0060387775301933,-0.0141522977501153,0.0495469979792833,-0.0424089431762695,-0.0040353929959237,0.116752986767888,84
1733405887206570500,-0.0672884063750505,-0.0453835124911274,-0.2522130120933056,5.099750658419728,-0.1222105489208828,8.375439969795941,-0.3113428950309753,0.1554436981678009,-0.0439141280949115,-0.7004514873086886,-0.1805792360427397,0.200904322959139,-0.6606030003816235,0.1521160304546356,-0.0793143883347511,0.170970469713211,0.0092967748641967,0.0671209692955017,-0.0098848193883895,0.0113052204251289,-0.0289750527590513,0.0221504570096731,-0.0515040792524814,0.006724559014663,0.061384735289216,85
1733405887246570200,-0.2380518002718687,0.3601113690152764,0.6544067422956228,5.059525031015276,-0.1842871845975518,8.398668285170197,-0.1256951689720153,0.1853838860988617,-0.0729279816150665,-0.7031658555037752,-0.1759201884626444,0.2020870641378705,-0.658612671193598,0.1738902926445007,-0.150206983089447,0.1585818976163864,0.0073408484458923,-0.0251141190528869,-0.0334833264350891,0.0165716633200645,-0.0437978059053421,-0.0052279637813568,-0.0605992153286933,0.0175027773343026,0.0060030398070812,86
1733405887286570500,-0.3741507080227136,0.0961215194864198,0.2986924391955137,4.991667300319671,-0.2008678786508738,8.438796881940961,0.0682063028216362,0.1553682535886764,0.1967596560716629,-0.7031407652091877,-0.1728768138237626,0.199636467839685,-0.6601907352183006,0.444453090429306,-0.1144315749406814,0.1669729948043823,-0.0231533646583557,-0.002956748008728,-0.0182911157608032,0.0378907956182956,-0.0303052142262458,-0.0708019674539566,-0.0518596172332763,-0.014956307721883,0.0362736749082803,87
1733405887326570500,0.5346379148378968,0.1180938982491381,0.3445639635324478,4.884637542925775,-0.2279278994088061,8.500514210185408,0.059561189264059,0.4047280550003052,0.1881408244371414,-0.7011099241762937,-0.1686282848990303,0.1953429804273568,-0.6647182957300488,0.4645764529705047,-0.0764268264174461,0.2052413672208786,-0.0108416676521301,-0.0324575304985046,0.0358375757932662,0.0445492714643478,-0.0579077675938606,0.0081271923542022,-0.0495525784790515,0.0665420449871569,-0.023693010276556,88
1733405887366570500,0.0872547973439097,0.2752018378895707,-0.0783498986154794,4.790631810016929,-0.2051714393300004,8.554421741461754,0.1427942812442779,0.118558332324028,0.0261619333177804,-0.7005855901064909,-0.1662870656358537,0.1902484455517561,-0.6673334656884707,0.2857995331287384,-0.0553310774266719,0.2222927808761596,0.0216886401176452,-0.0101376175880432,0.0523043721914291,0.0475987866520881,-0.0577584393322467,-0.0345592722058296,-0.0400893278419971,0.0542468462333083,0.0389186364591121,89
1733405887406570500,-0.4395955323576927,0.1124842782064341,-0.1046978073149919,4.7343443978667255,-0.1985258638356812,8.585857913210987,-0.085032619535923,0.2273420989513397,0.0384364686906337,-0.7009043518324698,-0.1644330898706333,0.187629525629694,-0.6681990485705922,0.0379303283989429,-0.0568064153194427,0.1659803688526153,-0.0092104077339172,0.0229514241218566,0.0309507250785827,0.0409306101500988,-0.0450655668973922,-0.0415320338279008,-0.0406419113278389,0.079979691774398,0.00994037925601,90
1733405887446570500,0.98566494179219,0.1367165829914622,-0.9073638507544994,4.691286469645798,-0.2535835515278391,8.608014215439557,-0.1571728587150573,-0.0127526381984353,0.0256865676492452,-0.7005500574656877,-0.1608918137595331,0.1876891832677846,-0.6694148829696892,-0.0239434279501438,-0.0896053239703178,-0.0205633454024791,-0.0274757742881774,0.0283200740814209,0.0157137513160705,0.0310235284268856,-0.0289629325270652,-0.0682061057418584,-0.0596218258142471,0.0381011825963854,-0.0093833298951387,91
1733405887486570200,0.5966197392374277,0.0428541858097538,-0.7742804914325475,4.667032610616087,-0.3265670825382694,8.61873200880885,-0.2798372209072113,0.2935846447944641,0.0998431891202926,-0.7011859115319898,-0.1570656247944193,0.189465935408984,-0.6691571779196455,0.0925517529249191,-0.1513339877128601,-0.0081446263939142,0.0119189023971557,0.0014649033546447,-0.0262460112571716,0.035711146891117,-0.0011177901178598,-0.0309936886787414,-0.0490376278758049,0.0083873045951128,0.0539934559941291,92
1733405887526570200,0.1477452141419053,-0.1261174658320844,-0.2211930199295282,4.500746654394269,-0.4709365001041442,8.700108561769127,-0.388459712266922,0.4998242259025574,-0.0172630921006202,-0.7032909892491571,-0.1450556226662588,0.1880871919466631,-0.670047709001912,0.2316915392875671,-0.0657097324728965,-0.0330748073756694,-0.0089176297187805,0.0022217631340026,0.0231200009584426,0.020741693675518,-0.0107681788504123,0.0175181210339069,-0.0418934151530265,0.0160312434770166,-0.018970657929778,93
1733405887566570500,-0.9256909500837326,-0.0947348509009927,-0.2666103707581758,4.376184162919223,-0.5729481370750814,8.757346698772906,-0.2451799809932708,0.230351448059082,0.1239608600735664,-0.7051848843294312,-0.1362334036652069,0.1869225182602427,-0.6702347271572845,0.2595112025737762,-0.0690909326076507,0.014667878858745,0.0087137818336486,-0.0120127201080322,-0.0158198326826095,0.0085280453786253,-0.0240266770124435,0.0221183083057403,-0.0349330268800258,0.0154746325075626,0.014684943434596,94
1733405887606570500,0.0513631074905395,-0.2406108371049165,-0.5709773484587669,4.300547322654724,-0.7336796740401536,8.782789767587184,-0.4359793066978454,0.1894151121377945,0.3038091957569122,-0.703575988567493,-0.1278999273060093,0.1893250245808373,-0.6728881792736371,0.5630766749382019,-0.1090531051158905,0.1134514436125755,0.0156161785125732,0.0186032652854919,-0.0481396913528442,0.0180058628320693,-0.0392620116472244,0.0353033685714006,-0.0376440770924091,0.0206858643498271,0.0446989734262227,95
1733405887646570500,1.023509227018058,0.0094645053725689,-0.2125859351038932,4.225777620613575,-0.9373672862868756,8.799689464461803,-0.4642929136753082,0.1704671680927276,0.1242683678865432,-0.7021593420015553,-0.1179296650190102,0.1934768832351452,-0.6750049099715997,0.4954683184623718,-0.1872491687536239,0.1969695687294006,0.0329639315605163,-0.0218284726142883,-0.007585734128952,0.0238997712731361,-0.0528916791081428,0.0132610481113195,-0.0353978388011455,0.0363843687411397,0.0393324779570102,96
1733405887686570500,0.503007097299397,0.0614310586489737,-0.0799012197107076,4.21072705873698,-1.0807623423952608,8.790455772170423,-0.3670966029167175,-0.0449981763958931,-0.0760397762060165,-0.7034130758748258,-0.1115800248783961,0.1983970190796467,-0.6733487906863511,0.637721598148346,-0.1481851041316986,0.1948682069778442,0.0289976000785827,-0.0037569999694824,-0.014559730887413,0.0219651088118553,-0.0557024031877517,-0.0268108500361442,-0.0421739444136619,0.0475421609628945,0.0109749830007553,97
1733405887726570200,0.1783361672386527,-0.2199639165259897,-0.4144762886703014,4.210834026242792,-1.219849106850475,8.77218537146449,-0.4803628623485565,0.0757212489843368,0.0395033508539199,-0.7044370306034052,-0.105960527276178,0.2037532778286729,-0.6715843517451687,0.810758650302887,-0.2511183619499206,0.3161388635635376,0.0750227570533752,0.045944333076477,-0.0290376394987106,0.0105072408914566,-0.0475097000598907,-0.022169161710143,-0.047848604619503,0.0514209020923823,-0.0116173725575208,98
1733405887766570200,0.1742316545292735,0.1199918225586414,-0.3995347401261329,4.197580576916039,-1.4115139806091783,8.749761358210444,-0.6238904595375061,-0.0905911400914192,-0.137360394001007,-0.7062607132789014,-0.0975671054712618,0.2106346875139326,-0.6688119655581938,1.243155837059021,-0.2155414223670959,0.3276687264442444,0.0031582117080688,0.0684510469436645,0.0145480930805206,0.0071172635070979,-0.0271565783768892,-0.0575368276894092,-0.0418724529445171,0.0428015423070639,0.0272024797022342,99
1733405887806570500,-0.4533806043431163,-0.0163784494794905,0.0196089558333158,4.28485115635097,-1.5922257909379898,8.676130889332294,-0.5650054812431335,-0.2594754099845886,-0.1503863483667373,-0.7088370657022559,-0.0926985971049956,0.2214664744526444,-0.6632567048030644,1.0058386325836182,-0.0064491825178265,0.2219223976135254,-0.0692477822303772,-0.0268531441688537,0.1328643858432769,0.0122746806591749,-0.022913733497262,-0.0321329218417406,-0.0489025563001632,0.0410940808020532,0.0291582899451255,100
1733405887846570500,-0.2871463783085346,-0.0300064312070608,0.1732400131434202,4.349208769971132,-1.7574147457033396,8.611983703592418,-0.4343712925910949,-0.1173146367073059,0.0364748649299144,-0.7096046498015873,-0.0881305408165015,0.2305299144102927,-0.6599623132558566,1.335442066192627,0.066178098320961,0.1830327957868576,-0.0498942136764526,0.0673055648803711,0.0560587644577026,0.0174320992082357,-0.0186708886176347,-0.006702712509036,-0.0559326633810997,0.039405543193221,0.0310907193124294,101
1733405887886570500,-0.1730509203121066,0.0436991487339138,0.1575847633719444,4.415875537316501,-1.882894936545193,8.551323775446415,-0.2843455374240875,-0.3333304226398468,-0.027010777965188,-0.7090002525922021,-0.0856221967925673,0.2380602239615887,-0.6582665499616385,1.0050837993621826,0.0649482980370521,0.2179501503705978,-0.0035856366157531,0.0100102424621582,0.0117632746696472,0.0140625145286321,-0.0330210998654365,0.0162426942706108,-0.0592417418956756,0.0768691585384309,0.0281616801232099,102
1733405887926570500,-0.2476686466619372,-0.1094404717974364,0.1269604925274849,4.522814986078441,-1.963189977879077,8.477052086055279,-0.1986298561096191,-0.2037275433540344,0.1224873512983322,-0.7075572587699847,-0.086533649059934,0.2455657728228544,-0.6569414896273542,0.8787856101989746,-0.0866215676069259,0.2181488424539566,0.040249228477478,-0.0116133689880371,0.0339791774749755,0.0099364845082163,-0.0489453412592411,0.0420136798650026,-0.0587937459349632,0.0958786871738731,0.0205582193821668,103
1733405887966570500,0.0460310988128185,-0.0798588418737053,-0.2876981669723987,4.537069429141283,-2.088090761397779,8.43950590699315,-0.2975731194019317,-0.0416148155927658,0.2670820653438568,-0.7045570898580569,-0.0831637306104158,0.2505768042624263,-0.6587065986036552,0.0494996309280395,-0.1719958484172821,0.2733170092105865,0.0353727638721466,-0.0674271583557128,0.0624223947525024,0.0053544463589787,-0.0299642588943243,0.0124596686005592,-0.0440089926123619,0.0709642453435808,0.0350204599767923,104
1733405888006570200,0.1897410660892725,0.0018942893140017,0.0277916777670383,4.557960826000571,-2.221319374409318,8.39411193704009,-0.2680054306983948,-0.209443986415863,0.131757915019989,-0.7018337711563153,-0.0795901345517181,0.2562904657723926,-0.6598560313693766,-0.187092125415802,-0.2203812301158905,0.3419328033924103,0.0444827675819397,-0.0366621613502502,0.0101374983787536,0.002951526781544,-0.011943819001317,0.0114992991358041,-0.0310521721839904,0.0690328388895839,0.0498351672708988,105
1733405888046570500,-0.1092301900476217,0.162873663560301,-0.1097813941895961,4.651928564986586,-2.322294069547952,8.314860121148824,-0.2265234887599945,-0.4185439348220825,0.0896513164043426,-0.699337687311294,-0.0796633094094241,0.2640338746278438,-0.6594441637033003,-0.2036588639020919,-0.1987714767456054,0.3877385258674621,0.030057281255722,-0.0041213035583496,0.0269970297813415,-0.0035125475842505,0.0075263809412717,-0.0129395610719919,-0.026032593101263,0.0363110843092203,0.0579033229142427,106
1733405888086570500,0.4026087407439946,0.1797257219009101,-0.572398321172595,4.81705015360415,-2.4189028245620428,8.19239401743114,-0.3146466910839081,-0.6145185828208923,0.0525425001978874,-0.6958370674109133,-0.0826956140111432,0.2747100104010667,-0.658412112891961,-0.2765479683876037,-0.1732802987098693,0.34980508685112,-0.0009559392929077,-0.011478304862976,0.0246048271656036,0.0082689793780446,0.0194168090820312,-0.0049970776349306,-0.0274837501347064,0.0332825302682816,0.0742804572194814,107
1733405888126570500,0.9141331987589596,0.234530055886507,0.0674877283394336,4.97859563730061,-2.5278759711086747,8.061874371117353,-0.3463753759860992,-0.3005093336105346,-0.0571809746325016,-0.6939358192401537,-0.0844266490400237,0.286061064551702,-0.655358260006084,-0.175577163696289,-0.1732802391052246,0.3176290094852447,-0.0235771238803863,0.0150995254516601,-0.0139043927192687,0.0200505070388317,0.0313072390854358,0.0029611878931522,-0.0289349071681499,0.0302465966384857,0.0906453165650367,108
1733405888166570500,-0.2460521513760089,-0.229173789550364,0.3270318139731883,5.009316354256868,-2.6426708095461127,8.00583742659688,-0.3114281296730041,-0.0042280894704163,0.1545199453830719,-0.6933300755492129,-0.0810070061109969,0.2919824734921592,-0.6538177093087543,-0.1962528675794601,-0.2462915033102035,0.3131839334964752,-0.0312358438968658,-0.0282157063484191,-0.0013360083103179,0.0266602598130702,0.0342555753886699,0.0490022235780954,-0.0261051934212446,0.0703532738383859,0.0479214426040649,109
1733405888206570500,-0.1145364797621965,-0.2032321235641837,0.3266699949234724,5.0213031446486704,-2.768570687104761,7.955621735575795,-0.2446607500314712,-0.2192948907613754,0.1972478479146957,-0.6905078969560999,-0.0774933525997202,0.2972725249958167,-0.6548455710304626,-0.4107973873615265,-0.2348412871360778,0.2779194116592407,-0.0123094022274017,-0.0400774478912353,0.0036312341690063,0.0161486510187387,0.0228415578603744,0.0980553005605936,-0.0094214659184217,0.0703361035078763,0.0686281305462122,110
1733405888246570200,0.1787964782267808,-0.0099333649933338,0.1853729340076446,5.115979908686876,-2.8442539968594907,7.868122315821051,-0.1124898865818977,-0.4630496501922607,-0.0488717816770076,-0.6879201297810367,-0.0786466855938013,0.304388062021607,-0.654162449409529,-0.3913025259971618,-0.2149117887020111,0.2197782099246978,-0.0406919419765472,0.0173318982124328,-0.0077572762966156,-0.0063700973987579,0.0380768477916717,0.0490086533188819,0.0098386947065591,0.0468431458480656,0.0850491039931774,111
1733405888286570500,-0.417447997957468,0.2205918391659855,-0.4084112895429134,5.293239678865671,-2.8606477900385854,7.743945901054143,-0.0768514350056648,-0.4959219694137573,0.0858762338757515,-0.6847391670954114,-0.0852325781458262,0.3128962337645863,-0.6526589815949511,-0.3917672336101532,-0.1684520989656448,0.2230134904384613,-0.0231286883354187,-0.0049746632575988,0.000366061925888,-0.0304038599133491,0.0268542803823947,0.1144955632299184,-0.0054535614326596,0.1090590712644159,0.0883797097206115,112
1733405888326570500,1.0302549018859863,0.1465162568688392,-0.3983183500736951,5.286097405895591,-2.96508986902684,7.7094614476501935,-0.3075445890426636,0.4912563860416412,0.3183757960796356,-0.6818450506580825,-0.082048552809795,0.3165357608846322,-0.6543396792397494,-0.4151705801486969,-0.1551294773817062,0.2119713574647903,-0.017539620399475,0.0036694407463073,-0.0347530543804168,-0.0345315001904964,0.0079802144318819,0.0956049847990274,-0.0281965360045433,0.0863886820338666,0.1814414397776126,113
1733405888366570500,0.5429004240095615,0.1420841196402907,-0.210594469025731,5.06132711200118,-3.1569825601920485,7.783753595307469,-0.4401862919330597,0.4832442998886108,0.2695561647415161,-0.682021603604577,-0.0666492472083002,0.3141606228936218,-0.6570445967447572,-0.2953794598579407,-0.2107437849044799,0.2232895940542221,-0.0202976167201995,0.0172643661499023,-0.0872120559215545,-0.0285526048392057,0.0104454029351472,0.0530289948761463,-0.0686620473861694,0.0889238995999097,0.1064841062098741,114
1733405888406570500,0.2277484329223632,-0.0098699443683028,0.5005775320649146,4.941781864166259,-3.3167236248150465,7.794133535024523,-0.353765457868576,0.2368356585502624,0.1294761151075363,-0.6821056823236573,-0.0560300653410524,0.3153892898693587,-0.6573598875728173,-0.1863701492547989,-0.2719892561435699,0.2886970341205597,0.024825632572174,0.0256980657577514,-0.0641257166862487,-0.0371269956231117,0.0157715249806642,0.0239712426960468,-0.0657858178019523,0.0931503581885248,0.0967553238779306,115
1733405888446570500,-0.0856973387688398,-0.179999132014811,0.722773591557145,4.852253568932413,-3.429708783482015,7.801482144221663,-0.1934538930654525,0.1915916353464126,0.1461727917194366,-0.6821210717883202,-0.0483586693695032,0.3160641639067241,-0.6576289603571854,0.0792274326086044,-0.2086075097322464,0.3525672256946563,0.0126802027225494,0.0442922115325927,-0.0346831977367401,-0.0457013882696628,0.0210976470261812,-0.005011106160283,-0.0629095807671547,0.0973365578319877,0.0869388632625341,116
1733405888486570200,0.2755997328996658,-0.1004609003975987,0.5721393779754639,4.801454525065422,-3.487549562554061,7.807267157363891,-0.0277459695935249,0.0174707435071468,0.0886360257863998,-0.681169768745171,-0.0447241896921278,0.3161327219235991,-0.6588381603013659,0.2673864364624023,-0.3622345924377441,0.470054566860199,0.0422964096069335,0.0324866771697998,-0.063238114118576,-0.0408110059797763,0.0263564307242631,-0.0357400064229965,-0.0474601686000824,0.091531597880274,0.0561789833396673,117
1733405888526570200,0.2719736513569951,0.1016127007812261,0.0331552506268024,4.80358393830955,-3.494345798565447,7.802916560938954,0.0435775406658649,-0.0656834840774536,0.0907890647649765,-0.6799196624052739,-0.0451060907868889,0.3164291534575626,-0.6599599645094651,0.7492142915725708,-0.2380804270505905,0.5333940982818604,0.0194437205791473,0.0219060182571411,-0.0167227387428283,-0.0271288454532623,0.0290280394256114,-0.0383732775360345,-0.0414141826331615,0.0692839641064405,0.0175602066099643,118
1733405888566570500,0.5238970328539609,0.1636667136341333,-0.4171230037868023,4.799909341450035,-3.51764396430552,7.794705197432637,-0.0956137552857399,0.0132403904572129,0.0707958564162254,-0.6784638150683983,-0.0447021221129292,0.317147212814191,-0.6611399672578337,1.213419795036316,-0.1208769083023071,0.5727445483207703,-0.0132348239421844,0.0052759647369384,0.0575168132781982,-0.0151812834665179,0.0185823533684015,-0.0225052617967128,-0.0220573283731937,0.0390912896122783,-0.0062888710111379,119
1733405888606570500,0.3068810063481331,0.1829994828745722,-0.1022024833679199,4.7804982462763785,-3.570046351715922,7.78280140914917,-0.1347045451402664,0.0327841117978096,0.0702714174985885,-0.6779589054730171,-0.0421000218503953,0.3184574741143837,-0.661199110149646,1.5483369827270508,-0.0886681526899337,0.6118962168693542,-0.0266903042793273,0.0049397349357604,0.033901423215866,-0.0021299310028553,0.0006194598972797,-0.0367085591942071,-0.0029283463954925,0.0485332908920943,-0.0208598326772451,120
1733405888646570500,0.1814250731647014,0.2400593407019972,0.0117541506797075,4.760955341416597,-3.623964112125337,7.769850157639384,-0.1272201389074325,0.0259391888976097,0.0643465220928192,-0.6772810298541474,-0.0395088304036696,0.319823287548575,-0.6613943950614964,1.4120616912841797,0.0220225118100643,0.6165938973426819,-0.038418710231781,0.0560543537139892,0.0100459158420562,0.0102328546345233,-0.0162052884697914,-0.0301677592486143,0.0024416018277406,0.0494061282038688,-0.0146925422191619,121
1733405888686570500,0.0676134005457162,0.0419371074974536,0.3045809127122164,4.746677225217223,-3.666459145766496,7.758641365882754,-0.067577987909317,0.0284826178103685,0.0533930510282516,-0.6769117705466862,-0.0374203726198619,0.3209658834203641,-0.6613403208545819,1.2268106937408447,0.1762481927871704,0.4966238737106323,-0.0574187934398651,-0.0539960265159606,0.0635139346122741,0.0131341591477394,-0.0355630181729793,-0.0043798225194215,0.01152272708714,0.0586702886987477,0.0216354932248592,122
1733405888726570200,0.1846642012163996,0.055834407685697,-0.0109931031793355,4.732278112986684,-3.6869405005201696,7.7577318498224015,-0.0088985115289688,-0.0415912456810474,0.0676090344786644,-0.6761085585623572,-0.0364712480256394,0.3211473125377925,-0.6621265638805314,0.4623894691467285,0.1265423148870468,0.2156665623188018,-0.0504575073719024,0.0437657833099365,0.0414027571678161,0.0215229764580726,-0.0350139513611793,-0.0477314729899168,0.0089400149881839,0.0351001010842621,0.0068996963858604,123
1733405888766570200,0.4074383528575301,0.0686056264534592,-0.0522813913792371,4.7570042657032605,-3.705397948230803,7.733778142783045,-0.0512004792690277,-0.1275665760040283,0.0219671074301004,-0.674846767840717,-0.0371084550500353,0.3229706246457201,-0.662491318482108,-1.212048053741455,-0.2250257283449173,-0.0493933968245983,0.0193636417388916,-0.0021259784698486,-0.0443795323371887,0.0308448430150747,-0.0376641079783439,-0.0710626642167568,-0.0012941621243953,0.0649956192627549,-0.0278694191783666,124
1733405888806570500,0.2745879255086183,0.1245540159076452,0.3328583281695842,4.780768587650359,-3.7143601301044233,7.71480163963437,0.016617514193058,0.0153164668008685,0.0165211297571659,-0.6743898106165046,-0.0377266029414693,0.3243937091046224,-0.6622264605012107,-0.5994986295700073,-0.2819562256336212,0.1796698868274688,0.0324806272983551,0.018251895904541,-0.0732272863388061,0.041737750172615,-0.0480737760663032,-0.0328068755805492,-0.0102009521797299,0.101089699820429,-0.0507101965397596,125
1733405888846570500,0.2751712783545255,-0.0375800813317298,-0.1290741236805915,4.757889231844247,-3.709195879209042,7.731412582695484,0.0659111365675926,-0.0255244206637144,0.0628564283251762,-0.6735984856082095,-0.0375844295460983,0.3231022688723817,-0.6636696460171392,0.0288548059761524,-0.2903465330600738,0.2708760201931,0.0603128373622894,-0.0941038131713867,-0.0002628564834594,0.0456375703215599,-0.0461299493908882,-0.0761708010107278,0.0038894424214959,0.0473424006070941,-0.0134451725065708,126
1733405888886570500,0.0704179365724325,-0.0362456178575754,-0.064368719536066,4.775595861187577,-3.702150636872649,7.723868743187189,-0.0314053706824779,-0.0380623266100883,-0.0573559254407882,-0.6737254390592184,-0.0384007570074748,0.3236010926431296,-0.6632509056598951,-0.0170359853655099,-0.2048281580209732,0.135767325758934,0.0574080646038055,0.1445679068565368,-0.0209323763847351,0.0304014161229133,-0.0251139160245656,-0.060476388272643,0.0011985728051513,0.0206170368973165,-0.0426543158560991,127
1733405888926570500,0.194628253608942,0.0981856489419937,-0.3592869008898735,4.779026420158147,-3.70774392683506,7.719062804210186,-0.02266800776124,-0.0087611125782132,0.0472515784204006,-0.6734248267066536,-0.0384225560017995,0.3239769240975478,-0.6633714125078088,-1.838223576545716,-0.2452528029680252,0.133356973528862,0.0640357434749603,-0.1963854432106018,-0.1150990724563598,0.0240648724138736,-0.0230271499603986,0.0079290394335985,-0.0147777497768402,0.0492518874902278,-0.0190028066337108,128
1733405889069340700,0.0844333101823926,0.3187669667139649,0.2614747614353895,4.633490698759258,-3.827619137276709,7.749224718239903,0.0788865312933921,-0.0436306446790695,-0.014768254943192,-0.6746404532088284,-0.0279739214993124,0.3226715919237375,-0.6632954736940078,0.4855435192584991,0.2101573646068573,0.2072661519050598,-0.0585218071937561,-0.0566714406013488,0.170344203710556,0.1079062223434448,-0.0303322207182645,-0.1285127634707838,-0.023066384717822,-0.0196465204978827,-0.0081116654206853,129
1733405889109113300,-0.2583428931504488,0.1344683839395642,0.0421481198996305,4.668462058897316,-3.802385327298939,7.740653289249539,0.0707718506455421,-0.1417700350284576,0.0137786576524376,-0.6740934360016031,-0.0304584989846237,0.3231235125667963,-0.6635220492639803,1.0029211044311523,0.3989633023738861,0.0255660656839609,-0.0469405651092529,0.036422312259674,0.106121152639389,0.080614760518074,-0.0334898643195629,-0.0136620792183501,0.0206127241253852,-0.0143184858840249,-0.1332964449502062,130
1733405889149113300,0.3042144174873828,-0.1297355101987719,-0.1201139876335859,4.673480179320276,-3.7912183288574215,7.743101851445436,0.0592599026858806,0.0738596469163894,0.0678925067186355,-0.6729779848976717,-0.0316401410910067,0.3228166178511603,-0.6647472414623773,0.3367370069026947,0.2856813073158264,-0.0397907681763172,0.010869950056076,0.0668048858642578,-0.102643221616745,0.0647600442171096,-0.0484791323542594,0.0517459693282842,0.0366756692528724,0.015590879298374,-0.0082557871699333,131
1733405889189113300,0.0417711032807827,-0.0295852831855416,-0.1484942789435386,4.654305815511941,-3.78093629655689,7.759661356580257,0.0495452135801315,-0.0142893427982926,0.0310987569391727,-0.6727413792919351,-0.031561131441167,0.3215140215856368,-0.6656212994039437,-0.0140303429216146,0.1140605062246322,-0.138689711689949,0.0500780940055847,-0.0927991271018982,0.0055787563323974,0.0641493946313858,-0.0352677926421165,0.0053881227791309,0.038845244795084,-0.0141421417947858,0.0562181463062763,132
1733405889229113300,0.1728723488748073,0.0117819154694676,-0.2705050401091575,4.665061018282175,-3.778310039706528,7.754480154550075,0.0076982122845947,-0.0926579535007476,0.0288149733096361,-0.671878608178238,-0.0324430321010068,0.3218368905492901,-0.6662939652055034,0.0343116223812103,0.0942748710513114,-0.1151590943336486,0.0602325797080993,0.0089887976646423,-0.0602016448974609,0.035716887563467,-0.0268825218081474,0.0153659114360809,0.0267199762165546,0.0050887745063751,0.04886310736835,133
1733405889269113300,0.0854614841863513,-0.1776817949831485,-0.0411854123473167,4.679149457128346,-3.787116154235601,7.741686139428615,-0.0322791151702404,0.062617152929306,0.0366593450307846,-0.6714458991554474,-0.0327436186027448,0.3228184061765293,-0.6662406608627416,-0.7625746130943298,-0.3581313192844391,0.0892405807971954,0.1296304166316986,-0.1125129461288452,-0.1793095767498016,0.0293402839452028,-0.0212719701230525,-0.025035657057166,-0.0044381003826856,-0.0243392722908407,0.093255791324377,134
1733405889309113300,0.0566530305922031,0.1294873806565999,-0.1686684674441814,4.653489530692994,-3.802192727336288,7.749758386725187,0.0038624524604529,-0.0246117506176233,0.0404870212078094,-0.6709015695820159,-0.0315231503165253,0.3223020185142984,-0.6670973182836099,-0.6402716040611267,-0.4431271851062774,0.0866756290197372,0.0843369364738464,-0.0717922449111938,-0.107108861207962,0.0229636784642934,-0.0156614165753126,-0.0654313803315162,-0.0355961769819259,-0.0537640311524271,0.1376490598022937,135
1733405889349113300,-0.3217313694775104,-0.0149760353356599,-0.1788788958132267,4.671996078242361,-3.8114071304053065,7.734081509643793,-0.04596958309412,-0.0447745881974697,0.0448644235730171,-0.6703810189612348,-0.031995636692845,0.3234932347992279,-0.6670215263669814,-0.6006392240524292,0.0131838005036115,0.129856988787651,-0.043804794549942,0.0692805647850036,0.074460357427597,0.0094941752031445,-0.0047322046011686,-0.0481657727539539,-0.059129923582077,-0.037088352292031,0.0428746806085109,136
1733405889389113300,0.1072282025754451,0.0740247288927435,-0.3984977982938289,4.664565343719721,-3.846837632487714,7.721013938277959,-0.0934444889426231,-0.0194949451833963,0.0955558568239212,-0.668971196905132,-0.0309346394076634,0.3246242293357789,-0.6679369435884394,0.5976820588111877,0.2964090704917907,0.3942269086837768,-0.0579298734664917,0.0189570188522338,0.0480726957321167,0.0058482703752815,-0.0146976299583911,-0.0248451029211282,-0.0550666972994804,0.0120497726254165,0.0495300468444824,137
1733405889429113300,0.0599403816998004,-0.0178664960801601,-0.1050578727990388,4.6258115424335005,-3.917003640125692,7.709042345455288,-0.215699627995491,0.1591009795665741,0.1155663952231407,-0.6681989708233154,-0.0270542708640297,0.3259083959935965,-0.6682529559601156,-0.0312127918004989,-0.0477049015462398,0.1099748238921165,-0.0181190073490142,-0.0098575949668884,-0.023045927286148,0.0188594106584787,-0.0170295909047126,-0.0891167918235063,-0.0473655946552753,0.0005664017111063,0.0329454072684049,138
1733405889469113300,0.1832359219789505,0.0281415141180157,0.2633995920181274,4.5764369784116745,-3.992041345453262,7.700013820347189,-0.1238862499594688,0.0239939428865909,0.0715973526239395,-0.6675643202004272,-0.0225399245961398,0.3269564203130291,-0.6685426723517244,0.0021488931961357,0.1216453537344932,-0.1773317903280258,-0.0721924602985382,0.0811694264411926,0.0705475509166717,0.0279982425272464,-0.0028118817135691,-0.107801034027338,-0.0426869429647922,0.0088335870578885,-0.0179530053198337,139
1733405889509113300,0.2134422596722841,-0.0595125116765499,0.3415717959791421,4.57511099050492,-4.021254580456018,7.685587820109725,-0.0503361299633979,0.0171328410506248,-0.0165748540312051,-0.6673628295820276,-0.0213480202553043,0.3281590062679923,-0.6681937602266569,-0.0018173526041209,0.2702370285987854,-0.0820793658494949,-0.0551506578922271,0.0087478160858154,0.0520613193511962,0.0342295467853546,-0.0174343213438987,-0.0699023882657289,-0.0451348461210727,0.0627270898088812,-0.0678185677289962,140
1733405889549113300,0.0122059861004352,-0.0095429043710231,0.4165408199846744,4.578825334852934,-4.0130151598989965,7.687682162040471,0.0814587548375129,-0.0328779742121696,-0.012320389971137,-0.667588075693393,-0.0217120132945031,0.3279723646430226,-0.6680486810656101,0.4209291040897369,0.3813328444957733,-0.2301550656557083,0.0100793242454528,-0.0596522092819213,0.0024288296699523,0.0390487499535083,-0.0159640945494174,-0.1006476551413536,-0.0290777515619993,0.0427221934605389,-0.0268307237803935,141
1733405889589113300,0.1019394485175609,-0.099878424334526,0.0293593654751777,4.58994761736989,-3.9834325070619583,7.696430116641521,0.0836889743804931,-0.0257291421294212,-0.0050576627254486,-0.667440524703865,-0.0234137030522905,0.3271743811741335,-0.668529702065762,0.1623478829860687,0.3447863161563873,-0.2240836471319198,0.042339026927948,0.027866780757904,0.0010213255882263,0.0311240591108798,-0.0149804055690765,-0.0635807840287685,-0.0170309357345104,0.0477703436955809,-0.0214262343883514,142
1733405889629113300,0.1807794687375426,0.0471276618778705,-0.285036254286766,4.611215154065191,-3.95790672840029,7.696886043715477,0.0583396703004837,-0.1164840757846832,-0.0261182077229022,-0.6671245519135014,-0.0253578054169611,0.3269939063676209,-0.6688622845666412,-0.0767885372042656,0.0553622022271156,-0.3080742955207824,0.0918660759925842,-0.0099531412124633,-0.0897113680839538,0.0231993682682514,-0.0139967175200581,-0.0265150819599628,-0.0049841227009892,0.052824412214756,-0.0160346044778823,143
1733405889669113300,0.2304547692716121,-0.0655868631541728,-0.2921639142096042,4.657906470352411,-3.940211789494753,7.677827122980355,-0.0042873341590166,-0.0588052198290824,-0.0454434975981712,-0.6670442394198907,-0.0276926204854195,0.3282878068326841,-0.6682157967688587,0.2001623809337616,-0.4697251915931701,0.0016070043202489,0.1845616400241851,-0.0086957812309265,-0.2919719815254211,0.0276128388941288,-0.0055339690297842,-0.0233230079203844,-0.0070662908256053,0.0615830343402922,-0.0036433249384164,144
1733405889709113300,0.304831380341947,-0.0397173856213688,-0.0955763432264328,4.638446567600965,-3.945880190519989,7.6866913974374524,-0.0149670932441949,0.1272807121276855,0.0155512876808643,-0.6672662076719603,-0.0266999202287178,0.3276811229666486,-0.6683322071940978,-0.0286356508731842,-0.5152799487113953,0.0674545243382453,0.0615961849689483,-0.0902225375175476,0.030457317829132,0.0342805869877338,-0.0043789534829556,-0.040136780077219,-0.0044334540143609,0.0401860260464251,0.0095078330576419,145
1733405889749113300,0.0185799050465226,0.1062280856221914,0.030628947019577,4.631707906995714,-3.9445822596639393,7.691420179525017,-0.0188832227140665,-0.0326426699757576,-0.0708993077278137,-0.6681029937292579,-0.0261225814701607,0.3273596334060022,-0.6676763770018302,-0.6687722206115723,-0.230564683675766,0.1605199575424194,-0.0052873492240905,-0.0352280139923095,0.1474050283432006,0.0357809215784072,-0.0003541889600455,-0.0439139605283737,-0.0058936988934874,0.0298315860968083,0.0041056817531585,146
1733405889789113300,-0.0500149077519774,0.0612152239412069,0.2556055771410465,4.645684702160954,-3.939073433114588,7.685811107471585,0.0104489913210272,0.0419347435235977,-0.0043083601631224,-0.6685309067912714,-0.0266077522521073,0.327757083619059,-0.6670335052702869,0.6172733306884766,-0.0495267733931541,0.2733483016490936,-0.0709108710289001,0.0774074792861938,0.0309544801712036,0.0457328483462333,-0.0088168550282716,-0.0311146847099065,-0.0130706615746021,0.0277361481875181,-0.0042518122255802,147
1733405889829113300,0.1830979748129844,0.2115098303049802,0.2055313404172658,4.627002798044681,-3.9313510221689936,7.70102036704123,0.0638152882456779,0.0119877243414521,0.0177309457212686,-0.6685017091401694,-0.0263356200471482,0.3265940459592976,-0.667643903840593,0.0872459411621093,-0.1640020608901977,0.1051144227385521,-0.049568772315979,-0.032720923423767,0.0332919359207153,0.0580995269119739,-0.0037175314500927,-0.0523930350601673,-0.0023190723732113,-0.0088439623214304,0.0333142405807971,148
1733405889869113300,0.24640461807549,0.1935962802127003,0.0043009120643138,4.636569960074127,-3.908050518341362,7.707123360091447,0.0538019984960556,-0.0557390078902244,-0.0394252575933933,-0.6685460939040989,-0.0276205169306156,0.3260110247524572,-0.6678323735877252,0.1256716251373291,0.2593454420566559,-0.118927001953125,-0.1151614487171173,0.0658103227615356,0.1193048954010009,0.0665656849741935,-0.0090344566851854,0.0050917701810598,0.008517874404788,0.0044729076303541,-0.0025198738664388,149
1733405889909113300,-0.0130985510259866,0.0752262136369943,0.0494575661301612,4.65889723495543,-3.8905361966997374,7.702518496644497,0.0400444343686103,-0.054197646677494,0.004899785388261,-0.6683653744532039,-0.029189660037163,0.3262342764633358,-0.6678375593714266,0.1487223654985427,0.4834082126617431,-0.053838811814785,-0.0641995966434478,0.0421270728111267,0.0610515475273132,0.0701631307601928,-0.0324798375368118,0.0198778359025716,0.0172526147216558,0.0406926603943109,0.0130190560489892,150
1733405889949113300,0.0331850612431764,-0.0020361820027232,0.1245318040758371,4.6750122111931445,-3.877019128000736,7.699568999189138,0.079046793282032,-0.0813209488987922,0.0277507863938808,-0.6676893823728237,-0.0306255239499294,0.3263331301562478,-0.6684007269723153,0.529293417930603,0.480860024690628,-0.3227543532848358,0.0013692677021026,-0.0303074717521667,-0.0315261781215667,0.0678321868181228,-0.0357382446527481,-0.0066027592658996,0.0337946750223636,0.0335934959135949,0.0355067821890115,151
1733405889989113300,0.2387754383713007,0.0462178535565733,-0.0131236854672431,4.703305701002479,-3.849556828318536,7.696116812908649,0.1191000714898109,-0.1309307813644409,0.0209228675812482,-0.6665749576398863,-0.0332681109586881,0.3263441294268822,-0.6693807197944964,0.2182393819093704,0.2792346775531769,-0.2973063886165619,0.0422503054141998,0.0043767690658569,-0.0534343719482421,0.0553183704614639,-0.0312605202198028,-0.0040045594662427,0.0363776087760925,0.0454547602295875,0.0377151058882474,152
1733405890029113300,0.3756529292792082,0.0133358669131994,-0.2537467975318431,4.754522385759652,-3.8169741168826814,7.6808602070659395,0.0642986297607421,-0.1730651408433914,-0.0663792416453361,-0.6656886709890083,-0.0367748131434944,0.327158586973856,-0.6696816347717053,-0.2912001609802246,-0.3229602873325348,-0.3175396919250488,0.1227173209190368,-0.0773618221282959,-0.0670338869094848,0.0493915788829326,-0.0273936484009027,0.0097200145035982,0.0379371643066406,0.0502205133266746,0.078884151622653,153
1733405890069113300,0.1925754127323627,-0.0709513127967715,-0.0488233598798513,4.790656067675352,-3.786257199318707,7.673607459458708,0.0814376696944236,-0.0045379092916846,-0.0042428961023688,-0.6656689849125453,-0.0392780715471575,0.3274326516468984,-0.6694249725271878,0.1411440670490265,-0.3176541626453399,-0.1181659996509552,0.0783884525299072,0.0014583468437194,-0.1022324562072753,0.0559747107326984,-0.032927967607975,0.0355962140381336,0.0466929823160171,0.0704668172154575,0.1470382349163293,154
1733405890109113300,0.2170274246826767,0.217263863787055,-0.1530693317741155,4.792091361175477,-3.762926884874701,7.684180291399359,0.0378399193286895,-0.0156814511865377,-0.0648226961493492,-0.665933055166639,-0.0401787418226298,0.326498854633553,-0.66956505896051,0.6286362409591675,0.1893351227045059,0.0221540909260511,0.003786414861679,0.0271486639976501,0.0903615653514862,0.0564504116773605,-0.0444365143775939,0.0195709619104862,0.041989080607891,0.0357417599886655,0.1494558174520731,155
1733405890149113300,-0.1286564827904105,0.1654383994817733,0.0476011246085166,4.817550796602666,-3.739831840491296,7.67953451142013,0.0542559921741485,-0.075910598039627,-0.0298457853496074,-0.6662839174373616,-0.0418238487781169,0.3266549580656266,-0.6690390144704638,1.8830585479736328,0.7389065623283386,0.0574132800102233,-0.0270940065383911,0.0700128078460693,0.1220778226852417,0.0662212669849395,-0.0326991342008113,0.00956745429039,0.0254559144377708,0.0177069216042757,0.1294470486462116,156
1733405890189113300,-0.0962444517463445,0.0931032311111688,-0.115764560252428,4.84589134042412,-3.7164281685501335,7.67306210053563,0.0700636804103851,-0.0904598161578178,0.0025535037275403,-0.6657947492249533,-0.0439867484685484,0.3268759415288417,-0.6692791271620426,3.34342360496521,0.6415420174598694,0.26058229804039,0.0294259488582611,0.0575889945030212,0.0353114008903503,0.065943643450737,-0.0335956513881683,0.0268757319658994,0.0194035023450851,0.0188715814694762,0.1013005660921335,157
1733405890229113300,0.1737152294397354,0.2111976956158876,-0.0781803872674703,4.8591959354162215,-3.699998427274823,7.672588053283095,0.0655710399150848,-0.027421211823821,0.0263370256870985,-0.6650645385331313,-0.0454744818527358,0.3267092666505133,-0.6699867603104611,4.9807209968566895,0.2823528349399566,0.769557535648346,0.0363794267177581,0.147683560848236,0.0464246273040771,0.0656660199165344,-0.0344921685755252,0.0441711501598358,0.0133510902523994,0.0200075997620821,0.0731172586590051,158
1733405890269113300,0.4403016348004341,0.337336642627418,-0.0409399131536483,4.872282211482524,-3.684580201129615,7.671709516882896,0.0412757098674774,-0.0418370552361011,-0.0292996652424335,-0.6647145333753621,-0.0467263500808647,0.3266011743463538,-0.6703006696745736,6.094102382659912,0.0120651135221123,0.7186213135719299,0.0067851841449737,0.0801001787185669,0.1766523122787475,0.0642558336257934,-0.038392174988985,0.0547036500900983,0.0214642621576786,0.0225464705899357,0.0815653535306453,159
1733405890309113300,0.2803536494284868,0.1709197535023093,0.1630325073838233,4.878702015396953,-3.660767948387563,7.679025392854213,0.0725064650177955,0.0293734092265367,-0.0186040345579385,-0.6650767623620558,-0.0477596459215112,0.3258798737211268,-0.6702195309550618,3.373828411102295,0.0493179410696029,0.3715751469135284,-0.0885700285434722,-0.2394934594631195,0.1196522712707519,0.0622540265321731,-0.042286742478609,0.0511912580549716,0.0354502759873867,0.0272943957693874,0.1028466264903545,160
1733405890349113300,0.1300628424569964,0.1082964163288474,0.1674082382500171,4.87157406321317,-3.6360029249653216,7.695299651306867,0.0870139300823211,0.0036263486836105,0.0002026134170591,-0.665244604591868,-0.0484743734702308,0.3244983101600949,-0.670671823871244,3.017009973526001,-0.1959618031978607,0.5077875852584839,-0.0105101466178894,0.0673915743827819,0.0825191140174865,0.058979332447052,-0.0425253063440322,0.0651864656597375,0.0398924201726913,0.0354391237802803,0.0996615667134523,161
1733405890389113300,0.135073071834445,0.0176654205501079,0.1087052893906831,4.898436935697496,-3.602832769030333,7.693848283454775,0.1265859603881836,-0.1850128024816513,-0.0270029064267873,-0.6646992350437536,-0.0510169192543094,0.3242224289554477,-0.6711573059313286,2.056360244750977,-0.2415266185998916,0.3391391038894653,-0.0453541874885559,-0.0342879146337509,-0.0121676325798034,0.054828580468893,-0.0505547448992729,0.0752647920817136,0.0394696667790412,0.0503039538264274,0.0992950714886188,162
1733405890429113300,0.2393453472137451,-0.0116086047291755,0.0587917961865663,4.995426945114136,-3.5361493428111075,7.662358920213579,0.2059592455625534,-0.359793484210968,-0.109704352915287,-0.6636342562361326,-0.0575474259722982,0.3256020958783592,-0.6710149770433971,2.2032134532928467,-0.3000081479549408,0.323626309633255,-0.018262431025505,0.0650683641433715,0.0411685109138488,0.0512625537812709,-0.0652720853686332,0.0820101746886968,0.0465671345591545,0.0608203794047236,0.1297802261233329,163
1733405890469113300,0.2573112120151519,0.0970364789068698,-0.0775327370136976,5.112583836507797,-3.4484698903143403,7.624954195448756,0.2046637535095214,-0.2684162557125091,-0.1032215729355812,-0.6628300850510959,-0.0654941476918808,0.3270260728490352,-0.6703885283560553,1.136337161064148,-0.0359957814216613,0.2307498455047607,-0.0299503803253173,-0.0827522054314613,0.0027076601982116,0.0414466708898544,-0.0766639113426208,0.1203448737800121,0.0493552200496196,0.0888952580273151,0.1185083060026168,164
1733405890509113300,0.715433165666461,0.4877621818944812,-0.193376792243123,5.196449283674359,-3.372775182382762,7.602084191992878,0.1604756861925125,-0.2644557654857635,-0.1693761199712753,-0.6622682165758115,-0.0717067657231212,0.3275052802833584,-0.670074054465086,1.3732434511184692,-0.137885183095932,0.291898638010025,0.0062658190727233,0.0493949279189109,0.0311410427093505,0.043032307177782,-0.0788615718483924,0.1466314076811075,0.0459208115935325,0.1048820778407156,0.1489367620140314,165
1733405890549113300,0.6939215910822153,0.1980851160645484,-0.3053291007310152,5.417577421674132,-3.220166161596775,7.513372473838925,0.1915674209594726,-0.7040899395942688,-0.6494630575180054,-0.6647945830594619,-0.0841483051071153,0.3314267220878127,-0.6641713114798072,0.490226686000824,-0.1038097739219665,0.0915159881114959,-0.0181874334812164,-0.0099888667464256,-0.0508772730827331,0.0446179471909999,-0.0810592323541641,0.1729968520373105,0.0424864068627357,0.1207723054118454,0.1793447597593069,166
1733405890589113300,0.5516361036509275,0.255904852348566,0.0991220530092716,5.73867984559834,-2.9918787994921208,7.367944012206792,0.3426159620285034,-0.8030804991722107,-0.7036664485931396,-0.6678610072070365,-0.1026686126963698,0.3373404249837199,-0.6554557905948448,0.7297969460487366,-0.3490892946720123,0.0603245124220848,0.0133781880140304,0.0371967777609825,-0.0011224746704101,0.0353120751678943,-0.097863458096981,0.1743698939561843,0.0562477596104145,0.1110710686739534,0.243168704894185,167
1733405890629113300,0.899663943901658,0.068770169365406,0.2795037546008825,6.088262514075637,-2.647474994957447,7.217639468970894,0.7045621275901794,-1.1197129487991333,-0.935494065284729,-0.6714225423454337,-0.1265747089934012,0.3405607721241787,-0.6459016766231556,-0.0309488736093044,-0.121168628334999,0.1694978773593902,0.001133918762207,-0.0436059460043907,-0.0653122663497924,0.0322283282876014,-0.1033634170889854,0.2446224108338356,0.0596841871738433,0.1137099658101797,0.2350385899305343,168
1733405890669113300,1.0448480753839016,-0.1997372671857476,-0.0894067146807909,6.542077710443735,-2.144784416261315,6.983660032704472,0.8399941921234131,-1.3162246942520142,-1.251330018043518,-0.6747249627836898,-0.1604878212712599,0.3437675164838394,-0.6330985416738785,-0.0997788086533546,-0.01682666875422,0.313328206539154,0.0171290338039398,-0.0284205675125122,-0.0165016651153564,0.0291445851325988,-0.1088633760809898,0.3149912475675344,0.0631206184625625,0.1162360502216964,0.2268734036535024,169
1733405890709113300,0.4822779052644967,-0.0457170644275844,-0.5322229626506567,7.020850237935781,-1.564682827235013,6.66556848103404,0.695572555065155,-1.4157326221466064,-1.4277359247207642,-0.6792677418600129,-0.1976806215980987,0.3479553933159033,-0.6151785391524336,-0.2495853304862976,0.047266561537981,0.3983966410160064,0.0490790903568267,-0.0466400161385536,0.1047529578208923,-0.0055378340184688,-0.1139544695615768,0.3588262976408004,0.1222516000270843,0.0705664051324129,0.2621557294368744,170
1733405890858895000,-3.19393632631898,2.9576375071942804,-2.0261223810017106,6.6812406819403165,1.42494833946079,7.035690079671144,-0.3833516240119934,-1.2782707214355469,-0.9731999039649964,-0.7430734959965978,-0.2825090920230081,0.2479279346737602,-0.5536805288981359,-1.2185899019241333,0.3217012584209442,0.571800947189331,0.0350134521722793,-0.0358762443065643,0.0494176149368286,0.0339938439428806,-0.2935401797294616,0.3233737663896754,0.539572536945343,0.030724105356587,0.5800526353180409,171
1733405890898658300,-1.7957073592185973,0.838419932257384,0.42695583101511,6.997709016323089,1.5801725111812353,6.686217885830998,0.3458329439163208,-1.7333430051803589,-0.3455998301506042,-0.742098656903961,-0.2996611438237993,0.263250772473721,-0.538694552748596,-1.2873311042785645,0.4709343016147613,0.6571351885795593,0.057638019323349,-0.0596682205796241,0.0453752875328063,0.1236626729369163,-0.31113001704216,0.4385161761557683,0.598170280456543,0.041685703719384,0.583587056521885,172
1733405890938658300,-0.4084247335463762,1.3809747576996685,0.7908890964061022,7.580255222022533,1.9314029468655585,5.914371928068995,1.1360833644866943,-3.162494421005249,-0.8770306706428528,-0.7296087438970488,-0.3398183658871899,0.2880528455657961,-0.518864194226684,-0.9253459572792052,0.7323445081710815,1.3419753313064575,0.0591509193181991,-0.1517934650182724,0.0709804892539978,0.1534746438264846,-0.2523910105228424,0.3923509661018848,0.6188035607337952,-0.0136326579026877,0.4980979902088642,173
1733405890978658300,-0.7733668837189674,1.274561963160336,0.5356295562237501,8.19718768144846,2.607186823710799,4.709467438502609,1.3818548917770386,-3.607891798019409,-1.485615611076355,-0.710589821330358,-0.4014765231604383,0.3141664900557045,-0.4849517544986932,-1.9112842082977293,1.3168710470199585,2.7058751583099365,0.092928946018219,-0.3706155121326446,0.3263057470321655,0.168191909790039,-0.2842161059379577,0.4928390467673539,0.6821587681770325,0.0833327285293489,0.6561807662308216,174
1733405891018658000,-4.513515535074472,-2.2640262972354885,-2.1815186944186684,8.678528598123789,3.150330116565525,3.3058953568086027,0.2811161577701568,-3.5612146854400635,-0.3763647377490997,-0.6887090759483456,-0.4571543194902012,0.3499373820021265,-0.4407193890421849,-3.3182196617126465,1.5812933444976809,3.6876068115234375,0.2463886588811874,-0.4417625069618225,0.6027061343193054,0.1901078224182129,-0.2941337823867798,0.2893874352335929,0.7577941417694092,-0.0223990249432623,0.8331962062597275,175
1733405891058658000,0.5669885710835456,1.0493582462847233,0.181049225589633,8.90267812977135,3.1695243541181086,2.6204659920006987,-0.7039486765861511,-0.8043306469917297,-0.1745790392160415,-0.6778478931339286,-0.4718255869549055,0.3791754594797771,-0.4172875908291295,-3.489474534988404,1.9836466312408447,4.701656341552734,0.1793327927589416,-0.5046911835670471,0.4718921780586242,0.1554742902517318,-0.2564087510108948,0.2052759043514728,0.8308205008506775,-0.1013482046261429,0.7784899258211254,176
1733405891098658300,0.8257698556512594,1.2315750543490052,1.954606712320447,8.842614998474717,3.3201012845546005,2.637322141994536,0.5052971839904785,0.5851715207099915,-0.7617394924163818,-0.6843932385514735,-0.4721796484727929,0.3775981630202854,-0.4075192011876254,-3.0778040885925293,2.404092311859131,5.293436050415039,0.1895940005779266,-0.3265594244003296,0.2810839414596557,0.0578767135739326,-0.2480611503124237,0.2248492043495178,0.9569087028503418,-0.1976529351923614,0.8977613251507282,177
1733405891138658300,-2.0594021347910165,-0.7184989829778671,-0.6468555962637067,8.625649240851402,3.620121465222537,2.943343901164829,0.5724256038665771,1.7020080089569092,-0.3594078421592712,-0.6912349318533415,-0.477050754103154,0.3497910855570771,-0.4150457992739527,-1.8983678817749023,3.250027894973755,5.437375545501709,0.2209277153015136,-0.2865307331085205,0.222108244895935,-0.0397208556532859,-0.2397135645151138,0.2574853995382786,1.082996845245361,-0.2966287846639752,1.0093255111038684,178
1733405891178658300,-1.4784306310623885,0.503012650257349,-1.7736659155413508,8.359215395703911,3.669182725511491,3.582036356978118,0.0068529844284057,2.242321491241455,0.2276060134172439,-0.7021983902564228,-0.4642635170400516,0.3191024287723331,-0.4353737827276978,-2.2898685932159424,2.813441276550293,5.056234836578369,0.6628187298774719,0.4071062803268432,-0.1285377144813537,-0.1206342801451683,-0.1937345564365387,0.2647299638390541,1.2044979333877563,-0.4144146946761757,1.0495046690180898,179
1733405891218658300,-1.1566156749546528,0.7107251341059804,-2.006454972979426,8.055507758694887,3.483018348865211,4.375816790911555,-0.5975515842437744,2.179921388626098,0.6161434054374695,-0.714840587998559,-0.4371437937510799,0.2929176366259234,-0.4605513477372275,-2.327863931655884,3.0419843196868896,5.331705093383789,0.1971645355224609,0.2826354205608368,-0.1238860487937927,-0.1483188867568969,-0.2017147690057754,0.3952735755503177,1.20639169216156,-0.4197865239076316,1.0159092734083532,180
1733405891258658000,-0.3510609243363142,0.4115259144321084,-3.132525287544727,7.856883128926158,3.147603906472027,4.953015790364146,-1.0695345401763916,0.6294478178024292,0.3220144212245941,-0.7254454712212672,-0.4079158904840577,0.2847298899343581,-0.4756704435033489,-2.6571273803710938,2.940119743347168,4.849306583404541,0.4094401597976684,0.1350816041231155,0.0178056061267852,-0.1473424583673477,-0.2555295825004577,0.4603630105763673,1.1758297681808472,-0.5035334957936778,1.035499524541199,181
1733405891298658000,-0.7257920625954866,0.3184475255012512,-1.9859955377966163,7.903459002140164,2.881253355693817,5.040248668137193,-1.1686674356460571,-0.7512888312339783,0.0008796940674073,-0.7329811933102955,-0.3917716044589194,0.2992220657021833,-0.4687427937777617,-1.9942076206207275,2.4688565731048584,4.7669854164123535,0.5138068795204163,0.3919823765754699,-0.112622857093811,-0.232046976685524,-0.1639866828918457,0.1523252354085445,1.2196848392486572,-0.6229954127267002,1.0683569612652062,182
1733405891338658300,-1.281437986409664,-0.6822764537349343,-2.524987263929844,8.126759223482011,2.6371418169915675,4.813694413435459,-0.7816440463066101,-1.323243498802185,0.4174418449401855,-0.7320717162189597,-0.3864683165644416,0.3243641964155536,-0.4577129855794238,-2.200319528579712,2.1118459701538086,4.425660610198975,0.5151575207710266,0.5891749858856201,-0.290745735168457,-0.316751480102539,-0.0724437907338142,-0.1334153677552938,1.2635399103164673,-0.739993314166367,1.093007126136124,183
1733405891378658300,-0.3460059790343046,-0.834722685174644,-4.117199756994843,8.460852061882614,2.290546786022931,4.397470696575939,-1.3474125862121582,-1.6308683156967163,0.5427157878875732,-0.7247397143091173,-0.3825662063381527,0.3597700596892783,-0.4460502826142972,-2.5362441539764404,1.1865776777267456,3.303927183151245,0.3621401786804199,0.6909055709838867,-0.2242853045463562,-0.4062193036079407,0.0965705141425132,0.4827414311230182,1.325027585029602,-0.6736873429574072,0.9528913839593528,184
1733405891418658300,-0.3298731748789548,-1.89754071701318,-4.035485934904218,8.736813029310106,1.7929441781155764,4.077234826353192,-2.1389756202697754,-0.973273515701294,0.6319420337677002,-0.7222956975616555,-0.364793153995649,0.3988042617178946,-0.4314743579729588,-1.6857764720916748,0.5723569393157959,1.6397908926010132,0.2189875245094299,1.0004063844680786,-0.353258728981018,-0.506284773349762,0.0767395719885826,1.5170944159775972,1.3006569147109983,-0.2095105097139254,0.6262900703579187,185
1733405891458658300,-2.833121485209465,-2.981598228496313,-4.6118344550073145,8.8509473580122,1.0810511692740024,4.08196740783304,-3.404942035675049,-0.1196804046630859,0.934725821018219,-0.7310141604971981,-0.3225328409054819,0.433416827713581,-0.4168223093950765,-0.0921179577708244,0.4200194776058197,0.1982387006282806,0.2584273219108581,1.0329091548919678,-0.3785296678543091,-0.5315408706665039,-0.1509572565555572,1.564396849900484,1.041541337966919,0.4844679991872981,0.0813113057043403,186
1733405891498658300,-5.522148972260951,-4.540550256994367,-4.868540102344751,8.886002304780483,-0.0561673157347599,4.148035332502425,-4.6664814949035645,-0.0903248339891433,1.9174835681915283,-0.7430104438224006,-0.2512627000182396,0.4747379359205398,-0.3992824923606146,0.8350216150283813,-0.0191434603184461,-1.3992507457733154,0.2035481333732605,0.8598966598510742,-0.2408112287521362,-0.5247909426689148,-0.420346736907959,0.6270312441140413,0.5859524011611938,0.6934354150004685,-0.2825529130384326,187
1733405891538658000,-2.571867088526487,-7.648594014233351,-4.0976825710982085,8.818339219874144,-1.8129919637575744,3.888489201042056,-5.540224075317383,-0.5046187043190002,2.998603343963623,-0.7415612304065167,-0.1498332546513139,0.5284810446692151,-0.3851555272664504,1.3215662240982056,-0.2956618368625641,-2.388445854187012,0.0429129600524902,0.6561574339866638,-0.1767583489418029,-0.5286983251571655,-0.3534147143363952,-0.5306143584102392,0.1856340765953064,0.495331959561631,-0.2572721951790154,188
1733405891578658300,1.8056740419596435,-9.563106616574526,-4.198025690335035,8.647111131075023,-3.5859985386073587,2.9220658430755138,-5.176393508911133,-1.668933391571045,2.805645704269409,-0.7177815136783854,-0.0462516116258639,0.5906580206910272,-0.365750724269505,1.991159200668335,-0.499770849943161,-2.6568603515625,0.010175883769989,0.4798634648323059,-0.173615276813507,-0.5017973184585571,-0.1920530349016189,-0.5724035818696022,-0.0846535861492157,0.6762840814523399,-0.0225925016887485,189
1733405891618658300,2.716703429484367,-11.226647731316088,-3.8511990425676106,8.353636134266853,-4.944838329127431,1.3913067666217684,-4.636624336242676,-2.303483724594116,2.786574363708496,-0.6730462198395193,0.0410071108960336,0.6537442258503634,-0.3434323311936572,2.254765510559082,-0.6576130390167236,-2.5011727809906006,0.0666226744651794,0.3907599747180938,-0.0925090238451957,-0.4535147845745086,-0.0274128317832946,-0.6610539252251386,-0.258277028799057,0.71787339842543,0.1743062541354447,190
1733405891658658300,2.941306550118327,-10.81613917723298,-2.9791479127347467,7.76706023465991,-5.976791267102956,-0.3480447913855314,-4.624933242797852,-2.049100637435913,3.0361135005950928,-0.6154041932389968,0.1246460525929891,0.7086668520327359,-0.321764533806233,1.753265380859375,-1.0693166255950928,-2.5147392749786377,0.2971949577331543,0.2132707983255386,-0.0027374029159545,-0.4399631023406982,0.0886124223470687,-0.4755208322197198,-0.347354382276535,0.7129916907984764,0.3072432272566482,191
1733405891698658300,3.726395435813069,-8.863536790472269,-0.9980793099462986,6.880666106697917,-6.700869511517882,-1.981204357997328,-4.3135480880737305,-1.3391194343566897,3.3026936054229736,-0.5563239564034922,0.2133433659760703,0.7453173274140522,-0.2991493963718591,1.6163901090621948,-1.273046374320984,-2.698366165161133,0.4019515514373779,0.1697385460138321,0.0992315411567688,-0.4844533503055572,0.0814407169818878,-0.5878776298552751,-0.2493583858013153,0.7637061981871723,0.5149171326605603,192
1733405891738658300,5.606213741391897,-5.447858578169345,0.4650622743085026,5.905855444136262,-7.053165530607104,-3.397660617314279,-3.88578200340271,-0.929824948310852,2.7518625259399414,-0.500708129418486,0.2968979150606137,0.7649079043101273,-0.2757876543425515,1.4084882736206057,-1.21225106716156,-2.644336462020874,0.3048608899116516,0.0312242060899734,0.1594335436820984,-0.5289435982704163,0.0742690116167068,-0.6989233448922634,-0.1513623744249344,0.8123411958880722,0.722982192806527,193
1733405891778658000,5.713691534814238,-3.606929098433256,1.899574853189289,5.154935370025038,-6.948806161466241,-4.616394894790649,-3.684239149093628,-0.532998263835907,1.8045868873596191,-0.4527074833491229,0.3634497961313052,0.7767077194487252,-0.2443056213499579,1.263211011886597,-1.3079229593276978,-2.642810583114624,0.2314449548721313,-0.0504278838634491,0.2274589538574218,-0.5424904823303223,0.062893271446228,-0.9220306740105152,0.0005578398704528,0.8128948111828416,0.9165344146817922,194
1733405891818658000,4.47026120749861,-3.790635560533404,3.606009645500779,4.678732400760055,-6.491264638051391,-5.669512785869837,-3.628764152526856,-0.1518831700086593,1.2747520208358765,-0.4119709210267106,0.4167990392383754,0.7844381849293738,-0.2030157304179336,1.3681401014328003,-1.3468786478042605,-2.415080547332764,0.1632004380226135,-0.1315737068653106,0.3317746818065643,-0.4980494081974029,0.0792584270238876,-0.7643190693885088,0.1629094630479812,0.9003602556027471,1.055668890736252,195
1733405891858658300,3.52478682179749,-4.251908671692013,5.181166374346613,4.377126704466343,-5.843392850482464,-6.547208059069514,-3.3727054595947266,-0.0364889316260814,1.112539291381836,-0.376032646378108,0.462719155532757,0.7872138767641084,-0.1574319284287777,1.164033055305481,-0.9995976090431212,-1.9752229452133176,0.1830659508705139,-0.233882874250412,0.3964629173278808,-0.4099532961845398,0.1279257386922836,-0.4786842646867036,0.3088768124580383,1.0275358521856366,1.0984873111128806,196
1733405891898658300,3.241869167099893,-4.233946898543834,6.395958928459883,4.11416608838737,-5.171375048172473,-7.245750880211591,-2.831039905548096,-0.1561692953109741,1.1191588640213013,-0.3418181661345026,0.5020089940459511,0.7857591605123303,-0.1171745330796458,1.0939191579818726,-0.5370911955833435,-1.5270246267318726,0.1216073632240295,-0.2470200359821319,0.4117431640625,-0.2967119812965393,0.1690362840890884,0.5109299992531537,0.4405409693717956,1.2121703889161348,0.9981417807232588,197
1733405891938658300,4.164297900517284,-4.882673257115483,7.121957327282428,3.840415490485728,-4.599711471015215,-7.763004237267374,-2.1809303760528564,-0.1433480829000473,1.0756547451019287,-0.3107774641376695,0.5355004711083067,0.7804116264719816,-0.0872597778177852,0.7893404364585876,-0.0150388879701495,-0.7648777961730957,0.1917259097099304,-0.3235065937042236,0.546155571937561,-0.1862617135047912,0.1467028558254242,1.1595289320528506,0.447180300951004,1.35863813046813,0.7284921153344214,198
1733405891978658300,4.506354849664866,-5.480240506336092,8.112113443014024,3.61357978849411,-4.134274518175423,-8.125280967622995,-0.8737571239471436,-0.0405628196895122,0.9692052602767944,-0.2858323234867898,0.5664611548875771,0.7703218712886042,-0.0634493650303024,0.940018892288208,0.7252270579338074,0.221240758895874,0.2330778837203979,-0.3255869150161743,0.4940084815025329,0.0017534345388412,0.2167250216007232,1.171417522767186,0.4191055595874786,1.0212811026398092,0.7493460297275334,199
1733405892018658000,4.801239713270962,-3.1329072725996374,7.975179838004708,3.3953108393177387,-4.1834746024131775,-8.193951183745265,0.1808743625879287,-0.4223513901233673,0.8685014843940735,-0.2787879775143151,0.5819326685014964,0.7610056624340026,-0.0670980686280293,0.9942802786827089,1.1961932182312012,1.1181517839431765,0.1744551658630371,-0.3438787162303924,0.4646698832511902,0.1847251653671264,0.2610523700714111,0.9603454993575812,0.4104005098342895,0.6987892701838165,0.7186594342365861,200
1733405892058658000,6.292384572216868,-2.7654239135116336,8.005528214517236,3.1159295420527457,-4.425560188245773,-8.177759342879057,0.6728665232658386,-0.4206590056419372,0.5295568704605103,-0.2758416258585571,0.5898330906197733,0.754351784878484,-0.083436207671237,0.6148368120193481,1.5319669246673584,1.0789856910705566,0.2400805950164795,-0.436135470867157,0.4645349383354187,0.3148339390754699,0.3042316734790802,0.3631459144055843,0.3700659871101379,0.0546075464715948,0.4943288469336926,201
1733405892098658300,7.441506676545739,-2.262469130921364,9.13476079250574,3.0415052924484014,-4.746856088915467,-8.02415108192265,1.2798104286193848,0.2338515520095825,-0.3016859591007232,-0.2844036713793339,0.5867727367676255,0.7515421526635861,-0.0999837304721703,-0.0641046985983848,1.6041319370269775,1.1960632801055908,0.2600373029708862,-0.5351196527481079,0.4199694991111755,0.3485455513000488,0.4608086347579956,0.0202916774004697,0.267245888710022,-0.6104270961198955,0.1971628501204773,202
1733405892138658300,7.440482594195008,-3.3679560916632414,8.739262760549783,3.4061493364572524,-5.219297659820318,-7.571492069852352,2.6403703689575195,0.7852286100387573,-1.5876573324203491,-0.3169080179420279,0.5627465394896864,0.7545561572487219,-0.1163216699634067,-1.0776183605194092,1.5025779008865356,1.825527906417847,0.2664453983306885,-0.5532216429710388,0.2629270255565643,0.3669255971908569,0.5186970829963684,0.0858177502781152,0.1088075339794159,-0.7546684668593108,0.2120259083346463,203
1733405892178658300,6.44950697877407,-5.851310784000158,5.749120575591921,4.064779833927751,-5.864415764766931,-6.72730159136951,4.2440690994262695,0.1546812206506729,-2.947065114974976,-0.3678696078290426,0.5062449445764514,0.7659719108908448,-0.1472245560128385,-2.139529228210449,1.4014561176300049,2.1871490478515625,0.2307769060134887,-0.5949029922485352,0.1378540694713592,0.4157562851905823,0.3369846642017364,-0.0888075797438621,-0.0965976268053054,-0.5839479987887666,0.2394069229415617,204
1733405892218658300,4.6274154704988,-8.729541577002406,2.6674954542011022,4.867090488058328,-6.425455072057247,-5.585277920868992,5.451373100280762,-0.8256500959396362,-4.175371646881104,-0.4196782814023157,0.4108183467580426,0.7848555258780641,-0.1977376701164726,-2.839228868484497,1.2886459827423096,2.4454667568206787,0.288540780544281,-0.4228224754333496,0.0502471327781677,0.448366641998291,0.1086126863956451,-0.4666641565471887,-0.2900790870189667,-0.4025661437112838,0.2498675997446291,205
1733405892258658000,1.9307611418306827,-9.879378551602365,0.2957914570569991,5.846204400771856,-6.587941051474213,-4.311765466761589,5.977296352386475,-1.2497005462646484,-4.82548189163208,-0.4631540836000913,0.2826825368155423,0.7999558954068942,-0.2562215539114616,-3.663687944412232,0.608223557472229,2.7691266536712646,0.2560789585113525,-0.2152676582336425,-0.0463362336158752,0.4572353363037109,-0.1186944842338562,-0.7425415373444557,-0.3461925983428955,-0.2940066194668412,0.4986901108831167,206
1733405892298658000,-0.8063935395300388,-9.606444823041558,-2.312749703872204,6.915647988229989,-6.216684311327338,-3.114007634079456,5.620709896087647,-1.4233556985855105,-4.8477559089660645,-0.4957560456356872,0.1412455413827348,0.799262098986678,-0.3089591804514959,-3.559601306915283,0.0339998118579387,2.9128317832946777,0.2455179095268249,0.0220113731920719,-0.0264868065714836,0.4322745501995086,-0.1892330646514892,-0.8268512211471796,-0.2804432213306427,-0.2979719429012388,0.4628690385805443,207
1733405892338658300,-2.3593495424836872,-7.910732208013534,-3.5205092906087634,7.786853314888477,-5.366012654131651,-2.596375506839156,4.620392322540283,-3.2629973888397217,-4.789985179901123,-0.4988915066189137,-0.0008406758957893,0.7952217363518199,-0.3445704426805004,-2.75648832321167,-0.1400375515222549,3.200453042984009,0.2805824875831604,0.3030514121055603,0.04533052444458,0.4073137938976288,-0.2597716450691223,-0.909182882875204,-0.2146938443183899,-0.3001653612922877,0.4286984368987381,208
1733405892378658300,-4.495393018406629,-6.589225246065855,-2.12406516109854,8.320879527568817,-4.318608172263205,-2.878020657382905,3.460526466369629,-3.0546114444732666,-4.286509990692139,-0.4724501141181362,-0.1386158456342411,0.7921640351403628,-0.3606283456906256,-2.061832904815674,0.0769850462675094,2.906719923019409,0.2345165610313415,0.53803950548172,-0.0242722481489181,0.3498456478118896,-0.2544797360897064,-0.7890852618545293,-0.15105602145195,-0.3582143397549167,0.4077809192175045,209
1733405892418658300,-5.404948241725564,-5.928920677903294,-1.6832646368652582,8.580106802338362,-3.371654361659288,-3.3442589897334574,1.7339688539505005,-2.1209940910339355,-3.149883270263672,-0.449810253221945,-0.2387707049502536,0.7832613309327522,-0.3565962449094025,-1.6025495529174805,0.0038857469335198,2.2415850162506104,0.1881565451622009,0.7399042844772339,-0.0075777918100357,0.3141942322254181,-0.1380911469459533,-0.4369295280188321,-0.0588244870305061,-0.4642488755663856,0.4995412112871185,210
1733405892458658300,-5.9750283490836615,-6.750505356824398,-0.6805898158222436,8.652495162200927,-2.70584359729588,-3.739406308555602,0.9684860706329346,-0.909788966178894,-1.8067909479141235,-0.4350214287838269,-0.3002117920486153,0.7749384157781548,-0.346554236176046,-1.8719007968902588,-0.1066072657704353,1.1748627424240112,0.1136756539344787,0.8400551080703735,0.0373331159353256,0.2703269720077514,-0.0131161361932754,0.4250269087791443,0.0434135571122169,-0.7111874909207224,0.3728128470150754,211
1733405892498658300,-7.553195950183272,-7.115355152538418,-0.472113069602847,8.740122592249513,-2.371819001825899,-3.76233242611289,0.3160659968852997,0.1793032735586166,-0.6396690011024475,-0.4359578949832619,-0.3258900071234681,0.7652589618714203,-0.3436790012367398,-1.8007917404174805,-0.0037925189826637,0.5415254235267639,0.0208652019500732,0.9258091449737548,0.0601994544267654,0.2155421525239944,0.1496627926826477,0.6882815393686295,0.1101807802915573,-0.7231703357897699,0.1621440158451907,212
1733405892538658000,-8.893241608384251,-7.574193730026483,0.4549193582177162,8.801364119675755,-2.3481262838102874,-3.63217401432693,0.4565653204917907,0.3413254916667938,0.1665356159210205,-0.4395987551452466,-0.3298171620861201,0.7592166903903445,-0.3486597931485002,-0.799247682094574,0.128722533583641,-0.0001351025421172,0.0663816928863525,0.9972976446151732,0.063406303524971,0.1402612328529358,0.1847482621669769,1.976754246720672,0.1509405523538589,-0.3104174368459731,0.1190096065882593,213
1733405892578658300,-10.502172596538069,-8.72516935326755,-0.1267702306523919,8.733307651537656,-2.736023923765123,-3.523340130120516,1.122049331665039,-0.2643435299396515,1.5603337287902832,-0.4301633296912851,-0.3239815589266994,0.758074076838658,-0.3678576872735781,-0.1432498395442962,0.4836409986019134,-0.8954018354415894,0.0635774135589599,0.9982120394706726,0.0039131194353103,0.0465600118041038,0.0236565470695495,1.411620948114991,0.1365206241607666,0.2572915209339931,0.1794446034045889,214
1733405892618658300,-7.461531227442622,-8.01993492553234,-1.5928648194938897,8.355614740863443,-3.702973935954272,-3.555565406420827,1.2880312204360962,-0.7434200048446655,2.94146728515625,-0.3956676678790632,-0.3038866674892345,0.7674218414606332,-0.4026954180646848,0.7040561437606812,0.4304506480693817,-1.9385606050491333,0.2630058526992798,0.9259304404258728,-0.0606566667556762,-0.047141209244728,-0.1374351680278778,0.8471002284497022,0.122100681066513,0.8249009638622402,0.239805585136637,215
1733405892658658300,-3.590818506109714,-5.656572640275955,-1.809057546918094,7.71722682095468,-4.888988723872601,-3.565476851843297,0.8103193640708923,-0.3577108979225158,3.417879819869995,-0.353509879783859,-0.2666379954202855,0.7814684271473246,-0.439593211178292,1.6954667568206787,0.2471541166305542,-3.0122740268707275,0.2592406272888183,0.7265872955322266,-0.0786855220794677,-0.1302341818809509,-0.1964185535907745,0.0664981327801942,0.0069802775979042,0.7728149489246309,0.0323977833230048,216
1733405892698658300,-1.0583446858167649,-4.460405876177549,-2.206688206988573,6.957059026026726,-5.986992343121766,-3.4533541552245617,0.2643339931964874,0.3438731431961059,3.505988121032715,-0.3187867801761048,-0.2158896293491234,0.7933875026574155,-0.4714901963541277,3.014144897460937,0.0983999446034431,-3.7225730419158936,0.3025355339050293,0.5073240399360657,-0.0740473717451095,-0.1981528997421264,-0.1411703377962112,-0.3161994543135166,-0.1526923179626464,0.680640523096174,-0.0637777313729748,217
1733405892738658300,0.7589052276462316,-4.304947018918395,-3.096016050314903,6.171710028091073,-6.857419671145081,-3.3250831646204,-0.7607037425041199,0.9951761960983276,3.338597297668457,-0.2976172765570861,-0.1534374822926251,0.8037344127380875,-0.4918250967801743,4.647983074188232,-0.0517940782010555,-3.940678596496582,0.5055137276649475,0.3002566993236542,0.0171685218811035,-0.2645891606807709,-0.0044130086898803,-0.8162246131926775,-0.3148654103279114,0.6709811527386307,-0.1764420971203595,218
1733405892778658000,1.0120148963183164,-3.264886762332916,-1.5446698206454514,5.371224835821986,-7.473555427235365,-3.386187913924456,-1.646405816078186,1.617179274559021,3.551830530166626,-0.288197691961809,-0.0780206207260727,0.816431456622624,-0.4942615261649021,6.098419189453125,-0.4884473383426666,-3.846648931503296,0.5690204501152039,-0.0119978934526443,0.141910046339035,-0.3276752531528473,0.0786507427692413,-0.9946464128881692,-0.3817213177680969,0.6871179024167359,-0.0321776377663016,219
1733405892818658000,2.582447811512649,-1.42533090903759,-0.5230357398495078,4.485384542350471,-7.944077428254484,-3.597684884747862,-1.9026590585708616,1.647689700126648,3.637239456176758,-0.2821004217259727,0.0092570805476259,0.8266469547500994,-0.4868145820947568,4.718021392822266,-0.6776521801948547,-3.2157559394836426,0.3972171545028686,-0.2201144099235534,0.3286545276641845,-0.3607950806617737,0.1520880162715912,-1.1774673243254423,-0.3146803081035614,0.6921574309539049,0.2043225856820121,220
1733405892858658300,4.092917548653484,-0.9134066380500792,0.290112826898694,3.5701740697488185,-8.201170613604784,-4.020578288629651,-2.060194730758667,1.143968939781189,3.2943553924560547,-0.2694971719622893,0.0910121688556837,0.8346910943544359,-0.4715706370561812,2.7599990367889404,-0.945347249507904,-2.467816114425659,0.2413563132286071,-0.2388095557689666,0.3760083317756653,-0.3740212023258209,0.1680226624011993,-1.0772019464999436,-0.180255725979805,0.8202963926762342,0.3109918757330626,221
1733405892898658300,5.119245632484555,-1.0616513261467218,1.3464160700157284,2.72715146600157,-8.23862443820834,-4.567066215737164,-2.0502233505249023,0.9716759324073792,2.918954372406006,-0.2529902905009826,0.1632066944203938,0.8403684633583874,-0.4507109202604989,1.411661148071289,-1.1813790798187256,-1.82144296169281,0.1482908725738525,-0.3130637109279632,0.4709144830703735,-0.3479413688182831,0.1650955080986023,-0.7446569220632314,-0.0668018162250518,0.8700674086697399,0.2954777879979461,222
1733405892938658300,5.782832291057706,-0.9815069453299043,2.544644150558114,2.0080499870859083,-8.110325390553474,-5.134272521224617,-1.9229037761688232,0.8947443962097168,2.595369577407837,-0.2366540939813286,0.2273277098559276,0.8426726261725218,-0.4268721597847918,0.5435221195220947,-1.1852002143859863,-1.1572269201278689,0.0603318810462951,-0.3260816931724548,0.507370114326477,-0.3218615353107452,0.1621683686971664,-0.4118056081563234,0.0466521009802818,0.9195083159260452,0.2806613271381706,223
1733405892978658300,6.571732843995094,-0.2555868724405765,3.5539211463451386,1.3988639040030535,-7.910587831106781,-5.624606891694665,-1.4334429502487185,0.6167119741439819,2.2629828453063965,-0.220969818357272,0.2823543351990442,0.8408633526173164,-0.4054593803094269,-0.0247056242078542,-0.963014841079712,-0.6183748841285706,0.0815286636352539,-0.3238155543804168,0.5674760341644287,-0.2413163632154464,0.0829071030020713,0.6160673670291901,0.0733028203248977,1.0185963205352424,0.2287276532180607,224
1733405893018658000,8.1241697915107,-0.1017997477859258,3.7889188197433934,0.8766821506343782,-7.74639504777193,-5.949388296392559,-0.7804678678512573,0.4025727808475494,1.7651318311691284,-0.2062787638258878,0.3250369846896864,0.8352756010355388,-0.392574617953681,-0.3155741989612579,-0.3637514412403106,0.0844888985157013,0.1567785739898681,-0.4207427203655243,0.639676570892334,-0.1075091063976287,-0.0363033339381217,0.8804735057413577,0.0571642443537712,1.026455363472551,0.2239041420517489,225
1733405893058658000,8.816763348859547,0.8907739504814147,3.539655305105448,0.5450144570214673,-7.668161469012499,-6.0887324696749445,-0.2879948318004608,0.5152062773704529,1.084850549697876,-0.199212684699406,0.3541227125385577,0.8276690607148451,-0.3871374702705517,-0.4790579378604889,0.3863542973995209,0.710029661655426,0.2435975670814514,-0.4296893775463104,0.5828940868377686,0.0295694768428802,-0.0159027632325887,2.394064882034064,0.0320380926132202,0.7114300675049424,0.1962187011381611,226
1733405893098658300,9.733420513138174,-0.4286141196161508,2.9083547131091354,0.4630355177212506,-7.636255341663956,-6.1354404448360205,-0.0850666090846061,0.5492684245109558,0.3378333151340484,-0.2013128354600282,0.3704377115333087,0.8219466497472065,-0.382952829361348,-0.6595520973205566,1.052154541015625,1.1154491901397705,0.2416908740997314,-0.4971417486667633,0.5175295472145081,0.0916472002863884,-0.107195146381855,1.6607810023784637,0.181518942117691,0.2845770027445629,0.2974524490717798,227
1733405893138658300,10.233015463906526,-1.86914610491693,3.081578944161534,0.6157108086764812,-7.652593313002586,-6.101563894197344,0.2654184401035309,0.6368133425712585,-0.5715243220329285,-0.2112716886073407,0.3732466746509434,0.8196219211110671,-0.3798302913970669,-1.0109413862228394,1.4867792129516602,1.6780672073364258,0.4732396006584167,-0.5225479006767273,0.4810213446617126,0.072030983865261,0.0685859993100166,0.1767985824078321,0.2340437918901443,-0.5133490796262398,-0.0902263605006039,228
1733405893287221200,1.9435510652989147,-5.177469857916235,2.321519870305061,3.9478313245877614,-7.618191277185082,-4.748491873423755,2.345130205154419,-1.119959592819214,-4.628276824951172,-0.3039390831246724,0.1402382480667856,0.8499640809264557,-0.4068357332560576,-3.497501850128174,0.8375734090805054,2.4684085845947266,0.307280957698822,-0.2058397084474563,-0.0075989812612533,0.4422483444213867,-0.0907552540302276,-1.0926719028323888,-0.1505779027938842,-0.074298321669735,0.1468074949003756,229
1733405893446284800,-3.562427693405747,-5.090692907217145,-0.4501058204561471,7.304116559940576,-5.345333438718319,-3.774612938754261,0.3445269465446472,-0.7814047932624817,-2.186002492904663,-0.3575777851488881,-0.1964181972846256,0.8086232702183174,-0.4238944675272204,-1.4451558589935305,-0.1034116223454475,2.631862163543701,0.2136040925979614,0.5752499103546143,-0.0593889206647872,0.1808939129114151,-0.3244932889938354,-0.4696167592750861,-0.0191641729325056,-0.2512315450415946,0.1453013555205892,230
1733405893486050000,-2.8144968642383814,-5.086792392647266,0.3159799663439392,7.633724361881613,-4.7871939445227385,-3.870321676188707,-0.3277414739131927,0.2878821492195129,-1.729462504386902,-0.3683136281672916,-0.2285095502854289,0.80319043248434,-0.4086728806848599,-1.4747055768966677,-0.1270059645175933,1.8475903272628784,0.136476993560791,0.7604982256889343,-0.074983537197113,0.1102225333452224,-0.2274699807167053,-0.6876867883458733,0.1117249056696891,-0.6605075433887541,0.3967026219727471,231
1733405893526050000,-5.689333923149109,-6.175999834239483,0.7400415372222662,8.104184988102316,-4.131337003418803,-3.663960022427141,-0.0530146993696689,1.10679292678833,-2.069427728652954,-0.3984373987740409,-0.2505007001061207,0.7899742815683838,-0.3929854612388852,-1.696364402770996,-0.0632757097482681,1.2264070510864258,0.0086846351623535,0.8719919323921204,-0.0589444041252136,0.0295499563217163,-0.0428654253482818,0.685794398728013,0.0353222414851188,-0.488897834860906,0.1846266456849873,232
1733405893566050000,-10.776514438331128,-7.416467512357235,-0.5801701242178678,8.47628460881412,-3.6026956986472007,-3.368018343244493,0.4083296954631805,0.3530437350273132,-1.090315341949463,-0.4225112684159978,-0.2730513715252272,0.772763928605044,-0.3869922382213414,-1.1686707735061646,-0.0304663684219121,0.2601795494556427,0.048366367816925,1.0007998943328855,-0.0440891832113266,-0.0511226207017898,0.141739159822464,2.0597037480860947,-0.041080430150032,-0.3173091325884685,-0.0274742823809385,233
1733405893606050300,-9.206043821474909,-7.345775435018539,-0.7292854576691985,8.549283209529518,-3.5349727002471685,-3.2533187818750737,0.1330077946186065,0.3822984099388122,0.300666868686676,-0.4264842485328011,-0.2789608399075985,0.7668467530867811,-0.3901768584457643,-0.2306505292654037,0.1629826575517654,-0.6371073722839355,-0.0101402401924133,1.0409977436065674,-0.037784919142723,-0.1134419739246368,0.1343745738267898,1.7698726607382296,-0.0699861496686935,0.1445867135783657,0.0551235194699838,234
1733405893646050300,-7.777917728760838,-8.384316519212723,-0.9172694509580732,8.510544605812429,-3.7990278335645793,-3.0509710399299856,-0.439437985420227,0.8532041311264038,1.540469527244568,-0.4310874083076113,-0.2592868178814434,0.7670244953023955,-0.3982555889384002,0.7866000533103943,0.2917020618915558,-1.7113572359085083,0.2576138973236084,0.9826130867004396,-0.0402298867702484,-0.1529262959957122,0.0203453749418258,0.9858324073135852,-0.1557096987962722,0.3321236572194844,-0.1434482476003468,235
1733405893686050300,-6.5412009276092045,-6.373012937158346,0.1688593138411641,8.218338021504879,-4.532725262457132,-2.843182568235695,-0.3322729468345642,0.6995079517364502,3.0594427585601807,-0.4270372756579947,-0.2124576427028529,0.7744828757509189,-0.4155443834479801,1.6933828592300415,0.1494186520576477,-2.900658130645752,0.2354066371917724,0.7832382321357727,-0.0083404183387756,-0.1924106031656265,-0.0936838164925575,0.2020885064870119,-0.2414332330226898,0.5193369218641892,-0.3421796987444162,236
