time_imu,phone_acc_x,phone_acc_y,phone_acc_z,phone_gravity_x,phone_gravity_y,phone_gravity_z,phone_gyro_x,phone_gyro_y,phone_gyro_z,phone_ori_w,phone_ori_x,phone_ori_y,phone_ori_z,watch_gyro_x,watch_gyro_y,watch_gyro_z,watch_acc_x,watch_acc_y,watch_acc_z,headphone_gyro_x,headphone_gyro_y,headphone_gyro_z,headphone_acc_x,headphone_acc_y,headphone_acc_z,frame_imu
1724756579226551600,0.194310109304171,23.88636544148921,-4.639939436507225,0.2562488069480285,9.643380761250851,-1.7635026873148976,-0.1647063344717025,-0.0788083747029304,0.3101415932178497,0.4417542369817729,0.5444143442313885,0.5417809848394215,0.4636158129148447,-0.288914144039154,-0.50506192445755,0.5379043221473694,10.9434433686316,-9.97778398077488,5.490661362585425,-0.1193941682577133,-0.0889596790075302,16.808718380576373,0.9995604157447816,2.634662275135517,-0.4184625452948733,0
1724756579266319000,2.7682383864104745,17.10118858425617,-6.485983482778072,0.363975862423703,9.700701900362969,-1.3907907799236476,-1.604318618774414,-0.1537801176309585,0.1653217077255249,0.4497983254226088,0.5390639052698614,0.5294532105001489,0.4762047137222471,0.0201355777680873,0.3914012610912323,-0.2573933601379394,18.871949718266723,-17.541983555531502,4.274358403909206,-0.0866476148366928,-0.0193391125649213,14.409378773009776,0.4795621335506439,1.6498958896182476,-1.1993003859490154,1
1724756579345852000,-0.87278528932631,-7.8559344498991965,-1.8409388320863245,-0.0512270874201785,9.797034030392766,-0.4311586164671927,-0.8015143871307373,-0.2625194489955902,-0.7406706809997559,0.4928506180313285,0.5123607872984315,0.5093813847590286,0.4848869817101889,0.6568084359169006,0.4762477278709411,-1.2251306772232056,6.407177072566747,-8.807382941573858,-0.5338277674987912,-0.1618129462003708,-1.6772584915161133,-6.229976339098811,0.4675876498222351,-0.3351536360325292,1.2814010154001414,2
1724756579385618400,-1.4757842082068324,-15.27609380251169,-0.7341916421502828,-0.1712770607736893,9.802500479105117,0.2281173940989188,-2.3066039085388184,0.6653948426246643,-0.0816109329462051,0.5103700460823454,0.4900030299649854,0.4982632642623852,0.5011518918880807,-0.0137787135317921,0.8654195070266724,-0.9316464066505432,-2.7223563406795264,-0.3307154709219932,-4.262549892693758,0.0045662601478397,0.4189606308937073,-11.724562181651592,0.4807304143905639,-3.850121476463973,0.1965029797059483,3
1724756579425382100,-1.8980664944529533,-13.679696717238423,5.682502031302452,-0.1325157063686754,9.77520272233486,0.7734626722436397,-0.0628617256879806,-0.0073802140541374,0.3050388097763061,0.518014678994363,0.4720839219174625,0.4875460487702814,0.5206692663029483,1.5164794921875,0.9541524052619934,-0.9673361778259276,-8.779133583167194,7.959433987340331,-1.4757500136762856,0.0022864486090838,-0.1828161180019378,-7.512392230629921,0.2823554277420044,-1.2386729036554691,0.0092486895019334,4
1724756579465148700,0.2789789635417983,-12.221246797931194,-0.0756966806929558,-0.0277374679283471,9.793077986243366,0.5150330141251906,0.8279776573181152,-0.327457994222641,0.1689770668745041,0.5120350873507126,0.4844311370129319,0.4889448820128579,0.513886699280215,0.7649384140968323,0.1833923161029815,0.1486566960811615,-11.485053168308736,8.205381509298086,-5.269034042891859,0.1886611878871917,-0.1742819845676422,-9.407494030058384,0.0146262794733047,-2.0567251706667244,-0.5370586391787976,5
1724756579504915200,0.6279782426405698,-10.751747076821326,-1.9370313081413504,0.0326716866272501,9.803194891110062,0.2582472324899397,0.5076318383216858,-0.1426418572664261,0.1520464420318603,0.5060926993471301,0.4945792561888349,0.4921629961480723,0.5069882905367782,-0.7483783960342407,0.1800896823406219,0.5135606527328491,-8.23802997944653,9.313041722425815,-5.598211636722088,0.2490609884262085,-0.1538260877132415,-9.765292738217116,-0.1537504345178604,-2.3446803811401127,-0.7288511579051613,6
1724756579544682800,0.5245039492385462,-9.96099651210308,-1.8490309531271456,0.0911050795638933,9.805373988714814,0.1293954737226013,0.1702595502138137,0.011186153627932,0.0968352109193801,0.5019568529644003,0.499982300086387,0.4933764954448667,0.5046154218646386,-0.2511449456214905,-0.2211298197507858,0.4937564432621002,-8.76619869827032,6.150665486496687,-3.658140522493422,0.1536257416009903,-0.0446801446378231,-10.016756393247842,-0.1591149866580963,-2.377762128139287,-0.4525126258695497,7
1724756579624215800,0.5901609184868634,-8.883065082284809,0.6738309892117976,0.0947303847884293,9.806179459878802,-0.0163232258606469,0.507394015789032,0.1127668917179107,-0.1059434711933136,0.4967466864294121,0.502412195313402,0.4984117162415953,0.5024047508883998,-0.1119138076901435,-0.2671109437942505,0.174132689833641,-6.950808148938417,6.335297831270099,-3.2930680239394303,0.032432559877634,-0.1695663034915924,-9.385200365185735,-0.2211598306894302,-1.8900056453332303,0.2436433366686105,8
1724756579663982000,0.8158481810957193,-4.076695897170901,-0.7946785518169402,0.042323572364659,9.803774152302742,-0.2336313534811138,0.4509283602237701,-0.085097961127758,-0.218158483505249,0.4926691168562934,0.5067348813420492,0.5051055769475016,0.4953434810275844,-0.2365297675132751,-0.252421498298645,0.2243478596210479,-6.97905750734508,6.057547642338276,-3.494435522675514,0.1210325956344604,1.7204866409301758,-6.758022308325767,-0.4405114948749542,-2.8816774263247846,-0.5796353962866589,9
1724756579703750000,-0.1929199518537148,8.662090089020133,-0.3379027886101975,-0.0592193922151811,9.798103120929005,-0.4050478044591843,0.4427612423896789,-0.0263564959168434,-0.057577695697546,0.4903047331880821,0.5079036191825477,0.5125286367370351,0.4888247661083995,-0.4578166306018829,-0.3502390086650848,0.3098607659339905,-5.486279201978444,4.801605331712961,-1.6727075870156287,0.1725529134273529,1.2683066129684448,3.7004800733119247,-0.5270342230796814,0.1500850552663206,-0.3541157453296706,10
1724756579743516400,-0.6468774427693337,11.18804122954607,-1.6199743602156638,-0.0616565425344975,9.798484813722968,-0.3953455448079854,-0.2566862106323242,0.2424303740262985,0.0199817735701799,0.4879752037965631,0.5048293678084718,0.5150770056318775,0.4916536434299362,-0.7250621318817139,-0.9234387278556824,0.5261833071708679,-1.4569383457005023,-0.4038058415740728,0.4929961370252072,-0.1738103777170181,1.2059893608093262,6.2519105230093,0.4266973435878753,0.5537946333916858,0.9847743496280162,11
1724756579783283000,-0.1083496717528905,13.107239359354972,3.598551730710268,-0.0882741121879778,9.798836695900558,-0.3813436517341062,0.5590436458587646,-0.0767727270722389,-0.051194854080677,0.4896050652872346,0.5044119634270688,0.5147928574294314,0.4907585097548803,0.2697360813617706,-0.3042240142822265,-0.2772858142852783,13.099107490825652,-8.831133819517493,2.819073962895572,-0.4654459059238434,-0.462839663028717,17.37291995128989,0.4328254461288452,3.626375264920294,-0.6220372352190315,12
1724756579823049200,0.5070753696516156,7.386870830994844,-0.159116137657687,-0.0544215269467793,9.77267115803063,-0.8138271235968917,1.0146855115890503,-0.1225995346903801,0.1516431272029876,0.4784561313985822,0.5170477263985904,0.5235983985778657,0.4791513931207498,-0.3329846858978271,-0.2247700989246368,0.0739826560020446,9.976734179461,-6.870118409198522,3.062953446407616,-0.3869119584560394,-0.5491238236427307,5.867268231588602,0.3250923454761505,1.0880000385638326,-0.2076946559309959,13
1724756579862817000,0.6497605239249765,-0.4321989923655986,-2.189837609952688,-0.017541525884025,9.763151050013304,-0.922474545320496,-0.2340241521596908,0.0244829095900058,0.022745594382286,0.4752535014555765,0.5213328270928912,0.5246381575903382,0.4765511388450772,-0.5458061099052429,-0.0247299969196319,0.649056613445282,8.292884436184167,-9.725997085139154,2.490328038480878,-0.3563933968544006,-0.7762373685836792,-2.2126761953569947,0.2535079717636108,-0.2408680084700696,-0.1126972451036796,14
1724756579942349800,0.0258823301645112,-7.88966428554356,0.4961702370166778,-0.0321672625027596,9.77330244167149,-0.8074163797717541,0.1982934474945068,-0.0145373875275254,-0.0180153716355562,0.4763769940114335,0.5156311834983499,0.5246820586218011,0.4815581289825265,0.2400532960891723,0.2468624114990234,-0.1162567883729934,-1.92108788907826,2.5570342610538006,-1.6261866588592528,-0.0632011815905571,0.2592351734638214,-6.818298790112137,-0.0630185380578041,-1.9755960165962576,-1.5817714708104729,15
1724756579982117600,1.4008783125653863,-2.786123002669215,-0.3368132763404399,-0.0481545298407319,9.764473823049665,-0.907273615187779,0.2727711498737335,-0.1628325581550598,-0.0420984104275703,0.4748554961017416,0.5184302902045269,0.526771407846352,0.4777597011083934,0.1791366785764694,0.3022454082965851,-0.0778554081916809,-4.654132212510705,4.648724800509214,-2.190775767585635,0.0741056203842163,1.0645817518234253,-2.211753819815069,-0.13026924431324,-0.5710282749284058,-0.8314342380885035,16
1724756580021884000,1.5090107705041764,17.38586477305889,3.2573405847370624,-0.0111383249028818,9.744331198731064,-1.1037564836874605,1.048669457435608,-0.3082008063793182,-0.0144305862486362,0.4706779877971073,0.526398665368977,0.5283752126249391,0.4713664788240159,-0.0954855605959892,0.0101481974124908,0.1439065486192703,-6.539256807804107,4.274055037048459,-2.005247058494389,-0.0736961364746093,0.0346944779157638,12.42427580013871,0.2868483066558838,3.590748655743897,0.1552734359559603,17
1724756580061622300,-0.3139223762270063,30.75339172989129,-7.861455843669176,-0.0401202992998762,9.69903893558681,-1.4482478203751146,-0.312109500169754,-0.4094506502151489,-0.0139993764460086,0.4674119003178769,0.5401944047164139,0.5310650594223003,0.4557258656057311,-0.7679182887077332,-0.7735756039619446,1.1937239170074463,0.6878717895239591,-3.1539141125321386,2.061787568622828,0.175341248512268,0.0030021860729902,25.93291452444792,0.5598084330558777,5.285548539841175,0.6803516962174326,18
1724756580101387800,-0.0810384709791745,18.729534466975927,-7.553156787216663,-0.0558798770955065,9.753982824173567,-1.0134462442956864,-1.5699083805084229,-0.2188107371330261,0.135421335697174,0.4807412642244175,0.5303071509425165,0.5200439449961924,0.4660648121242767,-0.5977275967597961,0.379605770111084,-0.3623518943786621,22.80804413557053,-17.28748506284952,6.262067759886383,-0.0553580187261104,-0.51316899061203,17.55899431156516,0.0541625581681728,3.493800731903314,-0.6936089449364692,19
1724756580141154300,0.8157955741256475,-5.34105941466093,-4.943967976033687,-0.030946458853397,9.806395148456096,-0.0636547899798955,-2.9046998023986816,-0.2852072715759277,-0.092250183224678,0.507253179327732,0.5089996664200809,0.4941303781051551,0.4893350457224632,1.0689154863357544,0.3819659054279327,-1.2194122076034546,19.25547440383434,-21.48158393512964,6.365594185334444,-0.2634567618370056,-1.5156091451644895,-3.0690657918080686,0.2955050468444824,-0.5160183353681117,1.1075851751301438,20
1724756580180919800,-1.4453160047069191,-18.45947717063427,3.393372272470593,-0.020234638567164,9.765981889525056,0.8919494970668107,-1.9301440715789795,0.2174979746341705,0.2449553906917572,0.532183036451218,0.4848230282129993,0.4684761060876912,0.512111312188242,1.4232012033462524,1.150271773338318,-1.637463927268982,5.09170822173953,-7.969776517656445,1.5634487553954124,-0.2337508201599121,1.1105966567993164,-12.423845592027902,0.4744874238967895,-4.997577401146293,0.5090906915294006,21
1724756580220685300,0.3628429859362542,-17.86566021385789,5.907565170663595,0.0757446662868373,9.722681092458965,1.2783316909573972,0.2766748070716858,0.0373364649713039,0.2431768029928207,0.5368960587458982,0.4745093600035393,0.4578909107081923,0.526231407982888,1.6091969013214111,2.5400216579437256,-1.2412456274032593,-8.072889101606608,7.020563237687945,-4.6420425462663175,-0.0052663041278719,-0.611981987953186,-5.502618926882744,-0.0613306872546672,0.053724571358296,-0.0582821981300367,22
1724756580260451800,0.3465165589049458,-13.701238686960934,0.3464326800137758,0.1182577470413409,9.77175521222949,0.8180472985751926,1.6377151012420654,-0.1218499988317489,-0.0765592530369758,0.5254441524890809,0.4889983278107951,0.4681579131922433,0.5153807094222705,0.7765074372291565,0.1592093259096145,0.3207969069480896,-19.172154315590856,11.212245111954212,-9.0171549883008,0.1308441311120987,-0.24749056994915,-9.46132265087962,-0.1291473507881164,-2.152207113607973,-0.018316929561668,23
1724756580341842700,-0.4784554243668913,-8.889534570559858,-3.0843817266225813,0.1251608866264578,9.805017430362104,-0.1278890968807972,0.5808051228523254,-0.1896898299455642,0.1602057218551635,0.5064446528989344,0.5193463661805953,0.4866208801749055,0.4868195651595325,-1.1846261024475098,-0.75880366563797,0.9181681275367736,-8.349908053654431,6.77194912686944,-4.251854311156273,0.0338710434734821,-0.001754552591592,-9.737513919931647,-0.1675190329551696,-2.594059338851273,-0.4971179661955684,24
1724756580382235400,-0.4944856449306011,-9.029449237206578,-1.3992051186561585,0.1839876353953965,9.802027016374469,-0.2382794715479016,0.0684797763824462,0.1237484589219093,0.0997366607189178,0.5021441048486057,0.5237418041890674,0.4876919051963497,0.4854918436609519,-0.845190703868866,-0.3781734406948089,0.5723962187767029,-5.134111193183064,4.680865321135521,-3.0480808714464307,0.0690454319119453,0.0100370673462748,-9.6106592258662,-0.20634725689888,-2.39717059296444,-0.4397579198451712,25
1724756580421995500,0.6331701121952384,-7.998682294145226,1.0201286446690558,0.1934279744410887,9.800469850060344,-0.2894485177710652,0.3532674312591553,-0.0077466429211199,-0.040079653263092,0.4997317464569262,0.5244687197728719,0.4895817903816578,0.4852942333351367,-0.0650773271918296,-0.0373657383024692,0.3403731882572174,-5.452278732699155,5.321578469121456,-2.908684675715864,0.0888654291629791,-0.0342543348670005,-9.109355133092404,-0.2910500168800354,-2.3622642608866093,-0.4274588486338034,26
1724756580461761000,0.9070276045374572,-3.755635558822751,-0.2342740352988243,0.1372930311725474,9.792166132095456,-0.5148116264594719,0.6039408445358276,-0.0094338534399867,-0.3659377694129944,0.4955682451816038,0.529310322942767,0.4960631707277756,0.4776652571577458,-0.2252970784902572,-0.0387325771152973,0.3489774167537689,-5.813021093094348,6.546675559628009,-3.1642709636345505,0.0560083352029323,2.312808990478516,-1.026808780020103,-0.5405884981155396,-0.8609604114979506,-0.155935297398176,27
1724756580541293000,-0.3349368149440735,13.291583534836768,-3.613495617341995,-0.0852454485491849,9.746472302412986,-1.0813839814249426,0.1427317708730697,0.2066573947668075,0.0445422008633613,0.4847344530000823,0.5369918140936562,0.5165026924370246,0.4581454230632776,-1.052288055419922,-1.0338406562805176,0.8949927091598511,0.8703063319921494,-1.8111381525844328,0.619030893009901,0.3393211960792541,1.651893973350525,17.078280002355573,0.5410353541374207,2.7230717954725026,1.631969626174867,28
1724756580581058600,-0.7293799310196191,13.618185140699149,1.3622726875782012,-0.0683381026576506,9.73710183199942,-1.1638526404708622,0.6840017437934875,-0.0855457633733749,0.2483902722597122,0.4810693130599824,0.5383629817701618,0.5191389690712244,0.4574191798286188,-0.0857120305299758,-0.4974274933338165,0.1297204345464706,11.773528749394416,-12.593823388504982,4.588557039794326,0.0226696711033582,-0.4510999917984009,10.596673419487477,0.2588409185409546,3.284666690818965,-0.3373540321536362,29
1724756580620824000,0.070661079412233,3.689443715512752,-2.401750175839662,0.0891518814031966,9.717337393343447,-1.317492465609312,-0.1193926483392715,0.4406339228153229,0.3343744277954101,0.4718187689006501,0.5448947895316572,0.5198683358747672,0.4584905633861705,-0.0691974982619285,-0.2591859996318817,0.6129537224769592,11.216694492578506,-12.215931155866384,4.274911946138739,-0.0433533936738967,-1.1039557456970217,-1.3812893766067922,0.364275187253952,-0.2010561677645891,-0.5930008911531418,30
1724756580660589600,1.4957985299706458,-3.7842730397641655,-0.6116518156092614,0.1271708382093813,9.73191829188168,-1.2016564475558698,-0.3090583086013794,0.0436904542148113,-0.2198027968406677,0.4712525401045574,0.5398474815432406,0.5194536786299183,0.4654606763266786,0.0814335495233535,0.0265285558998584,0.3173168897628784,6.138773973172903,-6.229518073937297,1.9275047703832384,-0.0145751954987645,-0.3385500013828277,-5.358676904416084,0.0199548564851284,-1.3075775130555032,-1.8230849032267928,31
1724756580700356000,0.1068793982709292,-7.245376786202192,0.3763210377991199,0.0095385724016668,9.74208020493388,-1.1234611549802125,-0.0700453370809555,-0.2408787161111831,-0.2687712013721466,0.4778106763315431,0.5365870728681259,0.5189941135676164,0.4630511483133172,0.548656702041626,0.3905132114887237,-0.1331846415996551,-0.5879349130004644,2.712574366855621,-1.197851940706372,-0.0858593955636024,-0.0498350448906421,-6.215138250929117,-0.2679874897003174,-1.4783669181764123,-1.261464727308601,32
1724756580779886800,0.2337723511206917,-5.163360668542981,0.3237910784862935,-0.046875166687835,9.730001644605398,-1.222813363483548,0.2299196869134903,0.146221324801445,0.1286213099956512,0.4758188929099513,0.5368430342828492,0.5235892350111729,0.4596197884619677,-0.0947902128100395,-0.1997516602277755,-0.0553628131747245,-5.655420547631382,4.337168203565478,-2.740557183280587,0.101826012134552,0.3915332555770874,-2.362552576308697,-0.009904820472002,-0.9804981336135415,-0.4355350049205124,33
1724756580819653400,1.5239539264835416,7.551575655505061,2.056944220244884,0.0126746881742845,9.701340782788396,-1.4332549800351262,0.8968296647071838,0.1327420771121978,0.1145229637622833,0.4672446037204218,0.5420367364562068,0.5284617727559956,0.4567349852803834,0.0222962014377117,-0.3066290020942688,0.1592078655958175,-5.81971503777504,4.124304036042094,-1.7528507987886666,0.2746272087097168,0.8091560006141663,6.306488500893115,-0.2311268001794815,1.3148045416995882,-0.5584893305465579,34
1724756580859419000,-0.8887707939654588,23.12476615245342,-5.343171876770258,0.0576834102529799,9.655895374909043,-1.7119417191646993,-0.0247383136302232,-0.2036187648773193,0.341376781463623,0.4586093139852207,0.5502649310920303,0.5333790790138538,0.4498808391929113,-0.2889847159385681,-0.6320850849151611,0.424994021654129,-2.7294980291277167,1.1461994948804377,0.1205997253239154,0.2024354934692382,0.8166499733924866,16.794798576295374,0.082816869020462,3.5722166814923284,1.1494096160333602,35
1724756580899184400,0.1100395702017471,29.95129208816289,-5.167983652168512,0.241908201705385,9.717935359236597,-1.2936669149942694,-1.6423282623291016,-0.0508421063423156,0.6076481938362122,0.467133951316826,0.5464550206804634,0.5170547029567765,0.4645719818322022,-0.1818188428878784,-0.1550981700420379,-0.0544348359107971,13.240453067058324,-11.95103168067932,4.857302084493637,0.2453656494617462,0.3318165242671966,20.673713893306253,0.4639285206794739,4.7681850004091855,-0.0873855019183363,36
1724756580938950700,2.3189522117741403,14.80229204916954,-5.153623118382692,0.3790136378839612,9.781370597314837,-0.5929097057383507,-1.956720232963562,-0.247871845960617,-0.0626621842384338,0.4847099659439707,0.5345052605273184,0.4945039015313862,0.484588844692048,1.0363134145736694,0.3396571278572082,-0.6042375564575195,19.64649382907152,-20.380110886204243,9.448097258603571,-0.1068992912769317,-0.8115653991699219,10.19561541531682,0.2907745838165283,2.9428885586127635,0.32049536140915,37
1724756580978716400,0.4172404196213931,-6.70866937161386,-1.9862568190813064,0.2437087300550192,9.802426829347016,0.153046279692091,-2.119171142578125,-0.1439139544963836,-0.3906903564929962,0.5102467280172533,0.5143618232445699,0.4771045232208893,0.497444984654208,1.0488710403442385,1.1903270483016968,-1.0487231016159058,16.281649147427082,-19.238541973733906,3.144729520079493,-0.227575272321701,-1.1107945442199707,-8.268283078891038,0.5201117396354675,-2.596269416116178,1.2866532368399202,38
1724756581018481700,-0.1229367351704277,-17.714660674095153,2.310253795403242,0.2167595492604188,9.744512400516866,1.080683724201098,-2.0739569664001465,0.0196020863950252,0.0989939048886299,0.5347829537673924,0.4889759497973659,0.4536551390706995,0.5187549536349033,0.869198203086853,1.6617658138275146,-1.4020999670028689,3.978572207549214,-3.979408073851466,-2.286592349308729,-0.1919735670089721,0.5018748044967651,-8.29785988650918,0.1602586209774017,-2.3980644730642435,0.4158944849051534,39
1724756581058248200,-0.6075177480118349,-17.616366304081676,4.576180957823992,0.198109227592498,9.71071359128952,1.3539569869145751,0.6421518325805664,-0.0814816504716873,-0.1648995280265808,0.5427807419988548,0.4815658509826309,0.4461633487638648,0.5238528273989803,2.1411452293396,1.3693788051605225,-1.4954948425292969,-8.725290933820604,7.910584908497333,-2.4552923809349534,-0.0635937973856926,-0.2958789467811584,-8.321547636088729,0.0535461790859699,-2.083876650834084,0.109350893817842,40
1724756581098013700,-0.1681879356519319,-14.584204594039916,-0.8699772461682558,0.1174606144474353,9.76153426246643,0.9322261240061372,1.2180649042129517,0.1330441385507583,-0.1754898130893707,0.5341195793929093,0.4911107574811174,0.4596519553438347,0.5121002338204265,-0.0689982920885086,-0.243863508105278,-0.1516666412353515,-17.37243479812145,11.689884836024046,-9.41022608537078,0.0670930370688438,-0.0236049499362707,-9.820660989695789,-0.1016169562935829,-2.7143416687890887,-0.6070937504461035,41
1724756581137750500,0.3403350207258016,-10.804376258724927,-2.3182968166053293,0.1106726804735138,9.794772515201569,0.4696737866919487,1.0998636484146118,0.1272826194763183,0.1355047523975372,0.5214057201445375,0.5023796039439691,0.4729355509063451,0.5020785791293424,-0.8755600452423096,-0.1939189732074737,0.7098086476325989,-10.972379540258643,9.628007835552095,-7.259998016750812,0.080158807337284,0.1195705756545066,-9.407554235813022,-0.1928823888301849,-2.325867836381495,-0.4269510087095201,42
1724756581177515000,0.2352627358089201,-8.755113825154304,-3.1052818913102147,0.1582841803455725,9.80497125313282,0.0887372818534728,0.8129964470863342,-0.1286025643348693,0.0495710931718349,0.5102882583076973,0.5135290545293545,0.4814182877038006,0.4940954057637835,-0.6895076036453247,-0.5878170132637024,0.9319745898246764,-9.425856785222887,6.415547426027059,-4.179572918799519,0.1466252505779266,-0.1046928688883781,-9.678142278030514,-0.2351624220609665,-2.4692352738305923,-0.5867933052172885,43
1724756581217280500,-0.203536513338238,-8.55657336653769,-2.2997230490386484,0.1370974446683656,9.805148947787284,-0.1031581583912484,0.1480406522750854,0.1786123663187027,-0.135944128036499,0.5060295611228323,0.5182333727070128,0.4865118434776733,0.4885432165166632,-0.6843559741973877,-0.4796631634235382,0.6459156274795532,-6.334692266592383,5.533784464997053,-3.840870540776848,0.2329305559396743,-0.068604864180088,-9.853615164792537,-0.313822478055954,-2.717533742828667,-0.2242552022454328,44
1724756581257044700,0.3467911380626261,-7.518952904319763,0.4857622402489185,0.0756357305862242,9.804965992435813,-0.1652382555334828,0.3367465138435364,0.2409791648387909,-0.1511405557394027,0.503333910678867,0.5157013465713888,0.4924194634196115,0.4880882412370154,-0.5415117740631104,-0.2366439551115036,0.3270578384399414,-5.093195829948782,6.077529523137211,-3.653329030558466,0.2994224727153778,-0.0113367652520537,-9.595458734124898,-0.2611503899097442,-2.42130915505141,0.463316380489245,45
1724756581296809200,0.5968984100483358,-3.3823861835539337,-0.1873053633749485,0.0050938040204084,9.80183938484788,-0.3070967679906636,0.1433296501636505,0.284915417432785,-0.2421127259731292,0.4992877579120446,0.5154355947831828,0.4999837248431749,0.484823840678433,-0.242835059762001,-0.2249619960784912,0.1935344189405441,-5.425559068077803,5.551107355719805,-3.190806503860652,0.6660070419311523,1.4146907329559326,6.207502641484141,-0.7629698514938354,3.9591687111601233,0.3035808322915807,46
1724756581336574500,-0.2922637578548863,8.933180820062756,3.342196796506644,-0.0703080784232122,9.797555423918366,-0.416332401398383,0.7642091512680054,0.4655343890190124,-0.1198746562004089,0.4933259782458403,0.5110878372961537,0.5099179026593064,0.4851828113360011,-0.2277402579784393,-0.2483445405960083,0.117512360215187,-4.482905877277255,4.805791677486896,-1.5766729786276816,0.7693759202957153,0.8565462231636047,13.329363522654772,-0.668864905834198,4.241016398538648,0.2850796002381481,47
1724756581377581000,-0.7613252944000065,10.881482879281045,-3.221771258705854,-0.1092659646139014,9.776886145377158,-0.7555965414896607,0.5116530656814575,-0.4513829350471496,-0.1201286688446998,0.4845020255619588,0.517607514156099,0.5201991574054056,0.4761649028359089,-0.6230041980743408,-1.332558035850525,0.7853806614875793,0.3823702548354863,-1.7721341759294271,0.9702968383990228,0.3910699188709259,2.038490056991577,12.44320846414566,0.121936947107315,1.840264878347516,0.5560401107635349,48
1724756581417342500,-1.1191037634883074,12.9604869556427,1.5225813229560852,-0.161644706287235,9.77589888790548,-0.758980192578584,-0.0114527344703674,0.4080696702003479,-0.0272670220583677,0.4870436892313308,0.5177874999817927,0.5201858576724948,0.4733827146866011,-0.4083319008350372,-0.3351028561592102,-0.0256562512367963,11.113297246468068,-8.564638599571586,3.564121930103004,-0.2369312196969986,-0.1034540757536888,12.629787851333615,0.2577497363090515,3.062027271473408,-0.2032512301234528,49
1724756581457107700,0.2932184099649079,7.6586285015136,-0.4012146560370921,-0.1332558663446456,9.768764798241854,-0.8508034668818115,0.3624231219291687,0.3124334514141083,-0.067411258816719,0.4792389209414381,0.515650826164512,0.5267666748160301,0.476393950997673,-0.2340825796127319,-0.2063126862049102,0.0725431516766548,10.21832876690626,-8.66875363856256,2.7404087147206067,-0.4045530259609222,-0.3674960434436798,7.167458264741301,0.2931396067142486,2.021617324667424,0.3142399542761966,50
1724756581496872200,0.9910632937043904,2.945904983824492,0.1662041231572628,-0.1732935699615627,9.755334823304414,-0.9868170344367624,0.2958502173423767,0.4179900288581848,-0.1660144627094268,0.4734832336485399,0.5143742940657245,0.5345397582904556,0.4748684034177377,0.0041403658688068,-0.008983951061964,0.189599797129631,7.821662177941203,-7.777052636364102,1.4051707490622996,-0.4381715953350067,-0.3245584368705749,0.0025854539116931,0.3696468770503998,0.0451668055671034,0.0870825643158517,51
1724756581536636700,0.8348160625465214,0.3339455388844013,-0.2750420259516686,-0.2181592965231276,9.74639105387032,-1.0633169212713838,0.0681394338607788,0.5000938773155212,-0.169556438922882,0.4683262896683213,0.5101801743677699,0.5421533597984386,0.475874319346286,-0.1904062032699585,0.2852558195590973,0.1780285686254501,2.6482033092319965,-3.2889433452248573,1.2099695178709924,-0.3737763464450836,0.0716200992465019,-3.0664170308649537,0.0961710140109062,-0.7165421498216689,-0.3029877800355665,52
1724756581576402200,1.1628891292009502,-2.369115149694681,-1.0963795251786708,-0.2908014484836719,9.745500827032329,-1.0540618939310311,-0.1129816249012947,0.1054377034306526,-0.3407765030860901,0.4659744077026341,0.5029318321081304,0.5484539848584965,0.4786707815540414,0.0613453313708305,0.2779510021209717,0.0303734634071588,0.7090496021091938,-0.3670604575008154,0.8236069785289466,-0.2850247621536255,0.2684996426105499,-2.972532001726329,-0.0839196369051933,-0.3115788818407803,0.157177771739941,53
1724756581616166700,-1.1413187371015547,-4.624814932611584,-1.4818261187195778,-0.3031329058609903,9.753344526270032,-0.9750734051510692,-0.2590139210224151,-0.4883456826210022,0.4210119843482971,0.4724678202327262,0.5054246142317541,0.5424581713916299,0.4765073691122261,0.179870918393135,0.3793555200099945,-0.2481188774108886,-0.6225999836683273,0.7357721893399953,-0.2894938182175159,-0.2033269703388214,0.212746113538742,-1.3998498463004827,-0.0726238191127777,0.0874897477441001,0.336366263225302,54
1724756581655931000,0.6635317135155201,-1.6040128209739923,1.5296739115655422,-0.1245368273108266,9.7719814222008,-0.8144063847895712,-0.5990946888923645,1.351871371269226,-0.0173156056553125,0.4678763555259558,0.5016682912737886,0.5383791357370589,0.4894573987606894,-0.4741186201572418,0.4057812392711639,-0.5156988501548767,-2.9120921460717915,2.8204776922136543,0.2055253490678966,-0.2234127819538116,0.2010153830051422,-1.005828462768346,-0.0592100918292999,0.0067797997581714,0.1801132781800813,55
1724756581735460900,0.2522370505560189,0.2129822409451007,1.918943278265,-0.1542242556965909,9.770089324843884,-0.8318262330807745,0.8324158191680908,-0.0498292110860347,0.1864290237426757,0.4545608378408771,0.4862313115723099,0.5531640305569689,0.50096209466319,-0.1524412482976913,0.201005071401596,-0.1191504523158073,0.2848942154675722,2.395671148186922,0.2478511636219918,-0.2381869852542877,0.2120549976825714,-0.6513148406948894,-0.1413536220788955,-0.1118486563171725,0.1310626123503781,56
1724756581775225000,0.4568291008291766,-0.4138274693727493,0.0626293285228311,-0.0743551892563933,9.748668935674427,-1.0622077179204672,0.3167786598205566,1.2461837530136108,0.000591654155869,0.4404056032222993,0.4867150997849992,0.5632636440923335,0.5018817076963734,-0.9747835397720336,0.0191311463713645,-0.09078299254179,-0.0682937840253114,1.411480078339577,0.7415957809269428,-0.2102363109588623,0.2542197108268738,-0.2284703357224352,-0.2130667120218277,0.1306212069921195,0.2391959288056939,57
1724756581814990600,1.2134501995936036,-0.3242167565524578,-1.7954374562360345,-0.1585050382883288,9.742109431028366,-1.1120212578814477,-0.1719618588685989,1.2149856090545654,-0.588390588760376,0.4285160875652374,0.4708513422368304,0.5787886635541264,0.5095849236879595,-0.9353480339050292,-0.0802905187010765,-0.2316219955682754,-0.3152846775561571,-0.6711053636401891,1.0691098254591227,-0.200116366147995,0.2458890974521637,0.2993786678940057,-0.2091798633337021,0.2379079713543876,0.5375508431425318,58
1724756581854754800,-0.6656975132472813,-0.1329156015396118,0.5933529194612056,-0.2595117177341133,9.753715113148091,-0.983906480752304,-0.3047331869602203,1.2089602947235107,-0.0639933496713638,0.4220215091442248,0.4512201530087011,0.5886982625920402,0.5212797185084833,-0.5342631936073303,0.0288995150476694,-0.056115623563528,0.142098440426588,0.972158686748147,-0.7634107223719357,-0.1810253709554672,0.2333843857049942,-0.0002990725656534,-0.1070654690265655,0.2951656715751625,0.7031666815504432,59
1724756581894519300,0.0533271193061955,0.2520417471796274,2.0523570385850967,-0.0831048106581438,9.743449739721417,-1.108443399394676,0.8603136539459229,-0.0532739870250225,0.6657852530479431,0.406489382308251,0.4502965293532927,0.5947671138441352,0.5274954060623712,-0.3007636368274688,0.0484184622764587,-0.0064191739074885,0.0889776756137609,0.6597194617509842,-0.1087082120001316,-0.1437735259532928,0.1038901507854461,0.0889141362577211,-0.048785276710987,0.4736533578474074,0.5647612504228949,60
1724756581934284800,0.2157595419050194,-0.0173562084704637,-1.128079462430626,0.1563890325150452,9.708636785015464,-1.3741612782925368,0.2236603200435638,0.1244260668754577,0.5987607836723328,0.3945473604976087,0.4639695873809658,0.595646666033557,0.5237076905431464,-0.1552919000387191,-0.1828596740961074,0.0015080582816153,0.0773451054871082,-0.5731921018987893,0.9540807398743928,-0.0678342580795288,0.0989814400672912,-0.1562320335887372,-0.1264931261539459,0.1862383186653256,0.0228415673792595,61
1724756581974049300,1.6908542152114212,0.1484334886670112,0.4245476008296012,0.3081545699479058,9.708345108592509,-1.3503556014217435,-0.0177942551672458,0.4314628839492798,0.0674845203757286,0.3872145842463504,0.4638706226601828,0.5947041426071613,0.5302979240600717,-1.293253779411316,-0.2367234826087951,-0.0871604904532432,-0.0088391400158405,0.5726765535920858,0.1744926435530185,-0.0110756056383252,0.109614685177803,-0.0985028342655394,-0.2927022576332092,0.2770382412701845,-0.0375524535392876,62
1724756582013813800,1.092549153235555,0.5918038633882999,-0.1327764853298664,0.29623744725883,9.69353741556108,-1.4553276956334709,0.4447476863861084,0.761884331703186,-0.2656920254230499,0.3784164571490874,0.4580919636789505,0.6036164461504435,0.5316013440458417,0.264286994934082,-0.1213629022240638,0.2421187311410904,0.2448047816634178,-1.3664578643083571,-0.8236761713076383,-0.0007039797492325,0.0902053043246269,0.0035609256182797,-0.3544360101222992,0.2849484664054587,0.0901239321725908,63
1724756582053579000,-0.1859731283904984,-0.0307148717373609,-1.0525791080273688,0.2696205854248255,9.67740344236195,-1.5638348321035502,0.1339495927095413,0.8641780614852905,-0.1309234946966171,0.3678051012343785,0.4492799815556889,0.6147201690707058,0.5338409180564312,-0.5566267967224121,-0.1241298243403434,0.1927782148122787,-0.5269762941688299,0.7393892107933759,-0.0024235008198767,-0.0184329077601432,0.0902458056807518,-0.0093618886732438,-0.3013194799423218,0.2731484672900289,0.2103732822894118,64
1724756582093343500,0.2172095580502413,0.3598386895537376,-0.9817863467931748,0.2354440837251953,9.68338836199045,-1.5319756126366555,-0.18604077398777,0.581626832485199,-0.2461255937814712,0.3625485115060142,0.4396047889412919,0.6203681550491049,0.5389337521122767,-0.6709136962890625,-0.055994763970375,0.1297135055065155,0.201711489868164,-0.6725654993206263,-0.7516191622912883,-0.0230046845972538,0.0458000339567661,-0.0576606184658594,-0.281625360250473,0.2419771022231318,0.090005803951947,65
1724756582133108000,0.3544216329410672,0.3802846807330846,-1.4815864647448065,0.2589426308755763,9.692570616355535,-1.4688181685864925,-0.0851766243577003,2.1489696502685547,0.0512439310550689,0.3505454596562285,0.4245756640047101,0.6281913662566773,0.5497536735692894,-0.3313193917274475,0.010649618692696,-0.0672023668885231,0.2910188358277082,-0.4019482310086488,-0.3073562226444483,0.0421090051531791,0.0137695828452706,-0.0558624099374748,-0.3068363070487976,0.2672527420486323,0.0568320449874969,66
1724756582172873200,-0.1223777678471058,0.2259516126334667,-0.0788050950370728,0.5132311158023775,9.694272744098305,-1.3885408090397715,-0.1088659688830375,2.5571813583374023,0.4718702137470245,0.316511091001001,0.399464763166668,0.6412673231802123,0.5736068490496652,0.2437801212072372,0.0341963283717632,-0.0374107137322425,0.7141308508962393,-0.4735580077141523,0.0226490541815757,0.1107391417026519,-0.0615967102348804,0.1281419208643958,-0.3447731733322143,0.4191730316517874,0.0526161260592052,67
1724756582212685800,0.2942874822348356,0.0903121390879154,0.5241081913866102,0.761256174686551,9.685960258305071,-1.3315521167524158,0.0520274341106414,2.6949710845947266,0.5116612911224365,0.2872342518053473,0.3813822477297712,0.6499521849989266,0.5912750073959299,-0.2315504550933838,-0.0977622345089912,-0.0796939209103584,-0.4588227953970432,0.1928553987175226,1.3230775722652672,0.1687580347061157,-0.1139635220170021,-0.0389716544211376,-0.3332679569721222,0.2686126139586791,0.1251363184407819,68
1724756582252452000,-0.79638082569018,-0.2080254953205585,-0.2166821183763444,1.1426420946598053,9.657938863435389,-1.260540452070534,0.1098096370697021,3.3098928928375244,0.6481053829193115,0.240018550504757,0.3534606480129442,0.6628236932605884,0.614915741372762,-0.2599677145481109,-0.0706739500164985,-0.0484516471624374,-0.2166904478132724,-0.7124971122145652,-0.5509072048544883,0.2039643377065658,-0.0419040098786354,-0.1393412872055545,-0.3048384487628937,0.1875982088416814,0.091145849965699,69
1724756582331985400,0.0584666558854281,-0.0361351432204246,-1.942584850615263,1.993812933549285,9.581966799867152,-0.6172653446421027,-0.7819738984107971,3.122145891189575,0.7737290859222412,0.1357056220173838,0.2870685899953458,0.6701219269960187,0.6709040516836549,-0.2173262387514114,-0.0846149548888206,-0.0434836521744728,-0.4793652326881885,-0.0425321507811546,0.192028300243616,0.2151551097631454,0.0110191358253359,-0.1276931085178163,-0.2961163818836212,0.2288837936278432,-0.0011777202761732,70
1724756582372993800,0.138237965606153,-0.0729079998224973,-0.5998135668426752,2.373728634839505,9.51369581219554,0.1594300076461397,-1.0216110944747925,2.723562240600586,0.7102476358413696,0.0803623676783843,0.2454148459353776,0.6569953463656059,0.708287149064309,-0.3701757192611694,0.0232484471052885,-0.1471730321645736,0.2216308268249034,-0.3483101643234491,-0.7201561025351285,0.2219474911689758,-0.048295434564352,-0.0334573799451114,-0.3722287714481354,0.2315528849729336,-0.1212117562750354,71
1724756582412761000,0.714994774249196,-0.3466670732915401,0.6343511386733501,2.550995565411448,9.435055406200885,0.8015711608748882,-1.0406861305236816,1.9099700450897217,0.3650487661361694,0.0474794187231454,0.2187130037700607,0.6413235271505082,0.7339034953799957,-0.3474102318286896,0.0252624358981847,-0.238120436668396,0.1299585052996874,0.5367950928717852,-0.3183616373160853,0.2435416877269745,-0.0155755467712879,-0.1203488010364584,-0.4270246624946594,0.1331020366229582,-0.0212280906009022,72
1724756582452520200,0.7433022925838828,-0.4571498937487602,1.5117431180775165,2.54288912358433,9.38123730677366,1.3024910035714503,-0.6096157431602478,1.8235530853271484,0.0614302083849906,0.0237923859560774,0.1922765010395308,0.6297786794690781,0.7522250306578094,-0.3512116074562073,0.0210344549268484,-0.2364484369754791,0.148357500821352,-0.0698942049592733,-0.3546697624832391,0.2279819995164871,-0.0641345456242561,-0.0441145109020406,-0.4356282949447632,0.218782561254315,-0.0458139123981818,73
1724756582492286200,-0.353702086494863,-0.362307125493884,1.7863890573836865,2.465687225960195,9.358072119763492,1.586592315095663,-0.2257179021835327,0.7623384594917297,-0.0872295871376991,0.0102836189515763,0.1733765648474318,0.6237362179288797,0.762094515810136,-0.1180404052138328,-0.0537256971001625,-0.2259910851716995,-0.2027472626566887,0.1727607051938772,0.4374029907494783,0.1877052634954452,-0.058030892163515,-0.1082250315930694,-0.4069912433624267,0.2117760800257325,0.0144898524040472,74
1724756582532053500,0.0450403342097997,-0.3935691097199916,2.217925494187325,2.37968725098297,9.367634897878766,1.6597829312518235,0.2425597012042999,0.935354709625244,-0.0352746061980724,0.0011206037835009,0.1595983159197941,0.6244221318328324,0.7646071416617269,0.0320652090013027,-0.0671537220478057,-0.1326931565999984,-0.21561317397058,-0.2406459084182977,-0.145725983273983,0.1436920166015625,-0.0593682900071144,-0.0632989942455897,-0.3708338737487793,0.1778894463844597,-0.0724815591379301,75
1724756582571819500,-0.2378431259572505,-0.5383066664785147,0.5509267863377928,2.3323203735217453,9.386825336039063,1.6180701340295374,0.2808105647563934,0.528710663318634,0.0165113508701324,-0.0091939468913286,0.1482428669718573,0.6289081292466239,0.763160499928244,0.1771326512098312,-0.0001898203336168,-0.0313476249575614,-0.0067477206945419,0.2866460275709629,-0.5787427217632531,0.114886350929737,-0.0081419805064797,-0.1659623502906412,-0.3577931821346283,0.0573417617750354,-0.0648354054660536,76
1724756582611585800,-0.0876775528006255,-0.2154576911479234,0.5037051625661552,2.3180258907094595,9.401409741708637,1.5526144960395991,0.3866513669490814,0.2559090852737427,0.0290997345000505,-0.0176446300162897,0.1406535323162114,0.633289248197274,0.7608217983136442,0.1877442896366119,0.0477969348430633,0.0341319143772125,0.1570546020179986,0.4511304873287677,-0.1447252635325305,0.1096740365028381,0.0148957232013344,-0.0237033627072116,-0.3360661566257477,0.2128174240385182,0.0862174079870339,77
1724756582651353000,-0.1972301066704094,-0.2264560550242662,-0.3808184953488409,2.302930320647359,9.43605143150091,1.351966251488775,0.4725048840045929,-0.4376478791236877,-0.1212008073925972,-0.0134450243685345,0.1442741136285339,0.6405106445343801,0.7541553240961547,-0.0167148485779762,0.1203637048602104,0.0925857052206993,0.0396709161311388,0.4742319614529609,-0.4392097479104995,0.1227514892816543,0.0073249898850917,-0.0530214097913121,-0.2832904756069183,0.2139151561473496,0.1296996351677924,78
1724756582691119000,0.3132750912994146,0.1916875239819288,-0.7691437130659818,2.305382828366011,9.45619697842896,1.1983042145185172,0.2151879966259002,0.0915942341089248,0.065950833261013,-0.0121243649723156,0.1464796769101227,0.6461015354216755,0.7489656416397111,-0.1185107231140136,0.0554277934134006,-0.0108318980783224,-0.4126490732431411,-0.2083575037539005,0.1228214930266141,0.1193296164274215,-0.0039825779385864,-0.0573770248846616,-0.25052610039711,0.1839762920174747,0.0790057321757078,79
1724756582730885600,0.2643992705799639,0.1642465593487024,-0.5927203937113285,2.3216377975963054,9.45490752314031,1.1769052334632724,0.0449483580887317,0.2220845371484756,0.0823019668459892,-0.0153543031504254,0.1449279256655864,0.6472946995297905,0.7481775804986579,-0.0408777073025703,0.0432268939912319,-0.0102882143110036,-0.126837158408761,-0.0824713624596595,-0.113211368638277,0.1174536198377609,0.0055608134716749,-0.0747632951332488,-0.2526676952838897,0.1683587621741928,0.0191643173383548,80
1724756582770652400,-0.1295915716834366,0.0125140291363,0.2750502092581242,2.335698617783189,9.451165998524427,1.1791283163402229,0.0767004266381263,0.0458115376532077,0.0528015308082103,-0.0179611385380492,0.1436225165484647,0.64749807804523,0.7481952505871365,-0.0545658245682716,0.0712509155273437,0.0549264065921306,-0.1384732356667518,0.1711322272092104,0.137381933298707,0.1117457970976829,0.0100447498261928,-0.0204746921174461,-0.2419363409280777,0.1998588477388024,0.0212252410566899,81
1724756582810419000,-0.1364070969171822,-0.1382148769915104,0.2279566688455641,2.360471093859524,9.447919563949108,1.1555926155172287,0.0652115494012832,0.1126873642206192,0.0874936431646347,-0.0201011648559458,0.1435980356277572,0.6484294692917794,0.7473385122207581,0.0631813108921051,0.1175802201032638,0.1358677297830581,0.1598001013338565,0.0104255324244499,-0.4572837127288803,0.0838047713041305,0.0167253278195858,-0.0341566987373284,-0.2304403483867645,0.2086711728129535,0.0244331839522579,82
1724756582850185000,-0.1187371463224291,-0.1648977167338133,0.5458060823231935,2.4041522685453294,9.441830599424245,1.1145727689951657,0.1748540252447128,-0.0493546836078166,0.1474515348672866,-0.022186719032796,0.1450133265713727,0.6497258953785632,0.7458787947500921,-0.0451286472380161,0.1483445763587951,0.0824748128652572,0.1790174275010824,-0.1308101536929607,-0.1640197831218131,0.0691986083984375,0.0054120826534926,-0.0590992044681916,-0.2235288172960281,0.216576959235128,-0.0178950805705389,83
1724756582889952300,0.2149630394987761,-0.2468698974996805,0.1857389908410608,2.4491851501010355,9.4397076159209,1.0314137895975262,0.2825342714786529,-0.1551353931427002,0.0824442952871322,-0.0232906893498754,0.1476168261222111,0.6523969693248645,0.7429973715430511,0.126005545258522,0.0751781687140464,0.0417024828493595,0.0179828159362077,-0.1705097113966941,0.0371509691994637,0.0545248165726661,0.0235257055610418,-0.1030902990531176,-0.2083314508199691,0.1979717553505673,0.0457208135875174,84
1724756582929718300,0.3807549285933375,0.1710463024914264,-0.3142126644104719,2.462359542842209,9.44646176635623,0.9335626333069056,0.2066757380962371,-0.0989558398723602,0.0120604457333683,-0.0230242417431084,0.1493232595902355,0.6558232368215808,0.7396407043259324,0.0937227085232734,0.0721064284443855,-0.0011160876601934,0.0173971250027418,-0.2808709513008594,-0.2126490634679794,0.0389057844877243,0.0097770560532808,-0.0315992967389407,-0.1490420550107956,0.2133344153836369,0.1083008459087926,85
1724756582969484500,0.1210822481438517,0.0118745621889829,-0.247227040374279,2.4805171308234333,9.446119821050765,0.8878254028741269,0.0966192707419395,0.0516737625002861,0.0836111530661583,-0.0231384769420177,0.1507506668723313,0.6572729549110664,0.7380589745528779,0.041175615042448,0.0394510105252265,-0.0259352177381515,-0.2333393847972154,0.0982604677438735,0.1813695435851812,0.0256728678941726,0.0022779442369937,-0.0425200995837571,-0.1031808778643608,0.2354341103204525,0.0581943828492658,86
1724756583009251800,0.0504459926456212,0.0651473026931285,-0.5111947876691818,2.5125468845516443,9.437439086467029,0.8900767619974911,-0.0349744409322738,0.1715299040079116,0.0963313430547714,-0.0267824248342533,0.1497220802625906,0.6574207286765767,0.7380135382478544,0.0386711806058883,0.0773446559906005,-0.01035972032696,0.1627998676717281,0.4081406559079885,-0.3432686630249023,0.0218728221952915,-0.0035753739066421,-0.0583400155647657,-0.0920921564102172,0.1959645619803108,0.0991463654666207,87
1724756583049017900,-0.1376899763345718,-0.0565367107361555,-0.0509790766090154,2.5537387266397475,9.422952880474924,0.9256107244543732,-0.0796545594930648,0.2564233839511871,0.1755647361278534,-0.0317146129014141,0.1480100132478857,0.6564297543308304,0.7390447761159813,0.278301864862442,0.0120720649138093,-0.0603871345520019,-0.2507148824900388,-0.3458434819489717,0.1813946414938196,0.0309936199337244,0.006664749700576,-0.0942793530852999,-0.1007619276642799,0.1680937545624561,0.1367862232947256,88
1724756583088784000,0.1360749423533677,-0.0697638565778732,0.314190890970081,2.625486742772162,9.399966557163,0.95802794313021,-0.0525382533669471,0.0869848355650901,0.1938331425189972,-0.0364554628169077,0.1486372962055141,0.6550275734026778,0.7399437479674034,0.4006656110286712,-0.0011413677129894,-0.0331127718091011,0.0188134215414524,-0.0638274522662162,-0.1406559134680777,0.0465067625045776,-0.0022833063267171,0.0167474106560461,-0.1328505128622055,0.2618784833980724,0.095378866159264,89
1724756583128551200,0.3084577541455626,-0.0684369918882846,0.0772403299383819,2.680852071641385,9.385321361216905,0.9482260224968194,0.0705149695277214,-0.0605000853538513,0.1152335107326507,-0.0394428884318138,0.1499021882311886,0.6551207999521352,0.7394526261701221,0.3175470232963562,0.0027685787063091,-0.0310223884880542,0.0556447303324937,0.0794376938521862,0.2536849112767726,0.061499997973442,0.0001592026092112,-0.0048305271414545,-0.1529123485088348,0.2712078363499604,0.1206702332768589,90
1724756583168317400,-0.2212783601254224,-0.3296037102878093,0.5927279924958944,2.7426719834774733,9.367714977377652,0.94554650108926,0.0298732668161392,0.4324295818805694,0.2849396169185638,-0.0437383339860632,0.1504280238341919,0.6551045358817863,0.7391187044247934,0.4337130188941955,-0.0031429997179657,-0.0428173281252384,-0.0394032051056623,-0.0410071331709623,-0.1299678576499223,0.0406644456088542,-0.0237743537873029,-0.0246663556706043,-0.1362204998731613,0.2248057122676633,0.1063580412779469,91
1724756583247886300,0.437746689620614,0.1726362020313739,0.0741629683196544,2.837371543869376,9.340574456995723,0.9345440455596894,0.0774984434247016,-0.2214810252189636,-0.0990047454833984,-0.0517322528080103,0.1500207723032585,0.6556258714117669,0.7382223656939545,0.0126664759591221,-0.0359987393021583,0.0620409063994884,-0.2188853275090456,-0.0232651402533054,-0.0745978526055812,0.0192617028951644,-0.0089956540614366,-0.094435173834674,-0.1175211444497108,0.1768423850169405,0.1406788102864753,92
1724756583287654000,-0.3417062360137701,0.0462134696424007,0.2791734266679734,2.8274858174100514,9.34578956129551,0.9120913907330482,0.1143022626638412,0.3961867988109588,0.1047971844673156,-0.0520072220707694,0.1491795163021961,0.6566899978477625,0.7374272010813767,-0.1938105225563049,0.020006101578474,0.0600153766572475,-0.0729161831289529,-0.2095358998835086,-0.0493085130482912,0.0309291742742061,0.0320194773375988,-0.0109843501923664,-0.1355624496936798,0.215993350660894,0.1031501029489561,93
1724756583327422700,-0.260384628111124,-0.2360790388941764,-0.8129166576884687,2.8742545828476547,9.328958838003873,0.9378645682845264,-0.0107986619696021,0.4452879428863525,0.1939136981964111,-0.0604653751093561,0.1448349668475807,0.656662048167644,0.737673243500565,-0.5454723834991455,0.1419407278299331,0.0328189097344875,0.5729460181832313,0.182419929420948,-0.9264426452338697,0.0530971623957157,0.0029157772660255,0.0097384406428551,-0.1457364559173584,0.1925309342698194,0.227396240217518,94
1724756583367190000,-0.3763391579777002,-0.5880500638127326,-0.6739186674952506,2.9469632607057688,9.299502441895008,1.0025226992212235,0.0168462805449962,0.8334991335868835,0.3975529670715332,-0.0716339601693933,0.139822959765252,0.6552366795091643,0.7389066758817585,-0.3874055743217468,0.0522462241351604,-0.0389522835612297,-0.9807464823514224,-0.0321551336735487,0.4663971031088382,0.0633255392313003,0.0220096614211797,-0.0188004867113544,-0.1177036315202713,0.1498854684404563,0.2514155415726825,95
1724756583406957600,-0.1819976123556494,-0.5274316367208958,-0.9121867408663034,3.1086098666891453,9.23289851065278,1.1227272146824747,0.0180722679942846,1.1672441959381104,0.6479040384292603,-0.094033232718236,0.1311926118381361,0.6523383641123045,0.7405409592521384,-0.5650226473808289,0.163125604391098,0.0169639810919761,-0.0642804567307233,-0.3208393890738487,-1.2607207770735025,0.0928524807095527,0.0407696440815925,-0.0079794059267005,-0.1062826141715049,0.2175415299509651,0.3118444009091705,96
1724756583446722000,-0.0499465186908841,-0.4491214855939149,-1.3170875380702316,3.278826440358162,9.159076903116702,1.2373304030053316,-0.0659244954586029,0.5952305793762207,0.5028978586196899,-0.1141743443178766,0.1255003046943539,0.6489710148863148,0.7416538926689078,-0.6740604639053345,0.0736995860934257,0.0878969356417656,-0.7539572498500346,0.5118161344379186,0.5088550196100026,0.1354338526725769,-0.0117254927754402,0.0258980528900283,-0.1441695392131805,0.2550067527313716,0.1818740042422898,97
1724756583526257200,-0.4375944216683506,-0.4267477412223815,-0.5710796397894621,3.3529838557198643,9.092560650157928,1.5010770548954606,-0.1242124438285827,0.4978313148021698,0.0076400870457291,-0.1299201664885267,0.1173588543653329,0.6400728598369481,0.748100566673936,-0.5167750120162964,-0.0633666068315506,0.1658190339803695,-0.8659183261662721,0.1494715995430946,0.6600958938479423,0.1686311960220337,0.0113354614004492,-0.0478068854468408,-0.1880471259355545,0.1334859122408553,0.2871125856367871,98
1724756583566025700,-1.6189271892502903,-0.8286375200420617,0.1986350050322711,3.422658864970505,9.05301891336441,1.5807055951446294,-0.050255924463272,0.5609256625175476,0.6422291994094849,-0.1390401642014897,0.1146388201345144,0.6373887224715297,0.7491737846503136,-0.3534531891345978,-0.1019502729177475,0.2184875011444091,-0.4739093053698539,-0.1438350549608469,0.098830376586318,0.18221215903759,0.0426689945161342,0.019248709969467,-0.1974706500768661,0.1855346273753792,0.1728167279637418,99
1724756583605793300,-3.1630791235014795,-1.1874871985584496,0.3859742706768214,3.8168452298060056,8.876315023502707,1.6772288638323545,0.1492546647787094,0.838560938835144,1.8692562580108645,-0.1679350089075709,0.1183188977408331,0.6328394451374003,0.7465337424346382,-0.721535861492157,-0.1184262931346893,0.1191003322601318,-0.0295838218808174,0.0621972207158803,0.3905997385203838,0.1613480001688003,0.0154571551829576,0.0493022522708633,-0.2220809310674667,0.3114565341027453,0.1266237439869437,100
1724756583645560800,-2.5329408532828093,-1.7859207092195748,0.8940303219288587,4.551402490398288,8.502254916372895,1.779544890577346,0.2473038583993911,1.476193904876709,2.7721076011657715,-0.2153384493414371,0.1318119966957279,0.6260144210062412,0.7378081572869232,-0.7295684814453125,-0.0962294787168502,0.1230713054537773,-0.1859972033858299,0.3829413327217101,-0.1387818997571245,0.1116774082183837,-0.0127901574596762,-0.0720781203030375,-0.2082593590021133,0.1237698249937035,0.0959244899438228,101
1724756583685329400,-1.1138397785454988,-1.4750345588833094,0.2308218490183353,5.416968349865079,7.911547031527757,2.05773566288352,0.1487346589565277,1.8009270429611206,3.130568265914917,-0.2813644055944098,0.1434325392961032,0.611973679868745,0.7250858170080788,-0.4360801577568054,-0.0888748466968536,0.1159711852669715,0.0276823721736669,-0.3589350187122822,0.3531493479829281,0.1023870408535003,0.0318895354866981,-0.1821138408801518,-0.2325804531574249,0.0585003480924759,0.1204061298474203,102
1724756583725097000,0.8078402312070131,-0.235469967085123,0.2164455331414937,6.119632634851336,7.283401104170084,2.381712034808844,0.1356541514396667,1.328848958015442,2.3163745403289795,-0.3410768899875568,0.1530186805616119,0.5959461109121359,0.7107039453856098,-0.5431951284408569,-0.0596734918653965,0.2093895524740219,-0.0283171629458665,0.1663800642460584,0.2313233687996864,0.128676176071167,0.0576900839805603,-0.0932883144876454,-0.245729848742485,0.1966090156299993,0.1198604877965524,103
1724756583764864500,-0.4215817367613315,-0.4915314713001251,0.2898930466681718,6.614633243566751,6.755361564683914,2.604247847649455,-0.2399190664291381,0.620351254940033,1.9174681901931765,-0.3791981757320159,0.1662926069779584,0.582723843357254,0.6992770931400926,-0.2051633149385452,-0.0890391543507576,0.2478311508893966,0.3621417057991027,-0.0608469751507043,0.1294143884856254,0.1348664164543151,0.0419537872076034,-0.0694166414422448,-0.2749641239643097,0.2268129056379199,0.0529324893988436,104
1724756583844400600,-0.3869640123665332,-0.6156447577029466,2.278032026234269,7.258921327430009,5.451483198407292,3.7094177052661776,0.1487122923135757,3.1989521980285645,2.9430925846099854,-0.4841636969085603,0.1668722320433892,0.5320018716868501,0.6743242439589836,0.0910872444510459,-0.2287603169679641,0.3846812844276428,0.0518611201405525,0.4156476705372333,0.4606790907882154,0.0533413514494895,0.0387153588235378,-0.0229479389467393,-0.2963553965091705,0.3167062347918749,-0.0529977183884708,105
1724756583884168200,-0.3044429655462503,0.1737181520491838,0.8167214567989111,7.380356919056177,4.580417864741385,4.55197649089396,0.5733481049537659,2.4602835178375244,3.2697455883026123,-0.5597164790277877,0.1540861510893965,0.494136877234695,0.6471504043396747,0.0216288119554519,-0.1780113875865936,0.4995471537113189,0.2337269228100776,0.6671972502857446,0.17674655995965,0.0078611858189105,0.0644402131438255,-0.1442722134022507,-0.2808172404766083,0.2100266060099005,-0.0772671814126893,106
1724756583923936500,1.8228700914323328,0.8027946382552384,0.3506616958856582,7.538458399778604,3.880563084217906,4.927804776740074,0.2658464014530182,1.098754644393921,2.086409568786621,-0.6095771154782862,0.1547026905387544,0.4741507716335325,0.6161687146214503,-0.1221595183014869,-0.2207966148853302,0.5247118473052979,0.184739896801114,0.1905827776104211,0.0330512787956744,-0.0214928798377513,0.0477500222623348,-0.0555507593055721,-0.2332917600870132,0.2497554628733545,0.0490468618708429,107
1724756584003473000,1.8104466631889344,0.9018164457604289,1.973154176402092,7.440898189258575,2.7937834542945024,5.74440523750782,0.4347312748432159,1.8992805480957031,1.8916929960250848,-0.682679894433595,0.1508990386556336,0.4293556995015071,0.5716916179825737,0.2446816116571426,-0.1884105950593948,0.420943409204483,0.558224249869585,-0.3575076162576675,0.3366179729640484,-0.0133832935243844,0.0840495452284812,-0.0536528304294915,-0.1766058802604675,0.185275337118376,0.0055507026336767,108
1724756584043240200,2.3841011219024657,1.3626695779412985,0.8388988018155098,7.165471474838256,2.435880993500352,6.236416016757488,0.3159811794757843,1.7354025840759275,1.2040969133377075,-0.7169718964706271,0.1373671451877673,0.4039325810501205,0.5512894058493295,0.1667031794786453,-0.0789063051342964,0.2589446008205414,0.8509194944769144,-0.4152782527029514,0.107424674995616,-0.0350101478397846,0.0758905112743377,-0.0813085657579824,-0.1583947241306305,0.1972664748917333,-0.116752621441707,109
1724756584083007700,2.42538473392725,0.9551159281410276,0.4927689041405916,6.864416982686519,2.2752606618247926,6.623696255466341,0.1138489991426467,1.2312405109405518,0.3346254825592041,-0.7367613506546132,0.1248518392134985,0.3830110966725606,0.5430443767289833,-0.0157236196100711,-0.0369413904845714,0.2105993628501892,0.6183785665810108,-0.1048176343023777,0.0123414490483701,-0.0554773099720478,0.073686197400093,0.0077245378289546,-0.1235703006386756,0.2194980343136005,0.0017762421501043,110
1724756584122776300,1.840456017005444,0.7952909846268594,0.0708171650230884,6.505880607903003,2.2811086572006345,6.974270273068547,0.1284993141889572,1.6023280620574951,0.0085410857573151,-0.7486258571395371,0.1088610151857355,0.3640885126675626,0.5432754282118332,-0.1503290981054306,0.0764459446072578,0.119920328259468,0.6539765341848135,-0.4114484652817249,-0.0946282487213611,-0.0437445044517517,0.0655796080827713,-0.1107026372203603,-0.0684421136975288,0.140487936490029,0.0568041705998824,111
1724756584162543900,0.2128524770855903,0.2405998773194849,-1.1206453669071197,6.095569622218608,2.259994265240431,7.342128018426894,-0.2143231630325317,1.1096400022506714,0.0562717467546463,-0.7625659221534039,0.0918543827514529,0.3423717618500455,0.5411446938892012,-0.0247014015913009,0.0983585938811302,0.0709064453840255,0.3366056980043649,-0.2876011363387107,-0.1646481258869171,-0.0180567614734172,0.0501296855509281,-0.028682269931212,-0.06538637727499,0.2178731182591989,0.0510938620951026,112
1724756584202311200,1.0050210919082163,-0.3527408402472734,0.2306242806196212,5.787628293162584,2.191188440039754,7.607393404316902,-0.1001827344298362,1.1430763006210327,0.0540825687348842,-0.7768251305608557,0.0794983533788674,0.32528584478356,0.5333027640227557,0.1231178864836692,0.0928486734628677,0.0743001773953437,0.0928098011225461,-0.319449396020174,-0.0199180948477238,0.0053996951319277,0.0523000285029411,-0.0019696035895147,-0.0531061850488185,0.1947394223658368,0.057033449311112,113
1724756584242080000,0.1606488271176815,-0.2937387623108923,-1.2804752788573504,5.646936212402582,2.2361843505859373,7.6994789828181265,0.1350011527538299,-0.3336367905139923,-0.3573630154132843,-0.7846569196142793,0.0695032828115509,0.3203203179838942,0.5261917419947906,0.0892438068985939,0.0324714519083499,0.0899517685174942,0.0365706120282411,-0.1083393786877393,0.4400152190744876,-0.0043396614491939,-0.0011575387325137,0.0449466417440911,-0.0530125722289085,0.2815176882391795,0.0759298546945909,114
1724756584281847600,-0.8934183275103569,-1.2375716644153,-0.710856359270215,5.700975261104107,2.299699375902116,7.64072342698872,-0.1520117074251175,0.0337136425077915,-0.0436453893780708,-0.7862799278005131,0.0665662517573831,0.3255771196840957,0.5208957766990657,0.0498061217367649,0.0096313320100307,0.1467073261737823,-0.2478232527017593,0.4102139550507068,0.0730874480426311,0.0098574385046958,-0.0073631629347801,0.0154166700840054,-0.0414465479552745,0.2103569522091187,0.1168748595818877,115
1724756584321619000,-0.1747989330232143,-0.3826854582644999,-0.3137321874171495,5.608738875955343,2.205870022473484,7.736056609109044,-0.2009419798851013,0.5433126091957092,0.2002720385789871,-0.7954015783546639,0.0635618880474978,0.3186389347528339,0.5116301866188071,0.4809484481811523,-0.1006195992231369,0.1356279104948043,-0.1679302162975073,-0.4099982664734125,0.5297440053164959,0.0138278221711516,-0.0041678668931126,-0.0111682245675125,-0.0449355505406856,0.1842384683513082,0.1038277921479661,116
1724756584361386800,-0.199794258069992,0.4705813299909234,-1.051615085300803,5.434716188001633,2.0744548886246976,7.894991033524274,-0.4162773191928863,0.6012458205223083,0.1976013779640197,-0.8065097389882233,0.0596295518791085,0.3064503294185068,0.5020702102202841,0.4084114134311676,-0.1351170092821121,0.1381824761629104,-0.1862584846705198,-0.3228226718455553,0.1776724426329135,0.0179196018725633,-0.0048036966472864,0.0071012456983036,-0.0638218745589256,0.2544925926641561,0.0173465901171031,117
1724756584402396400,0.536616229173541,0.6365661113090813,-0.5869745435357093,5.28533402030766,1.895900694721192,8.039974673998355,-0.5275238156318665,0.3961073160171509,-0.0389141514897346,-0.8150674591162986,0.0601775876262505,0.2940306785800928,0.495570154088027,0.2357741296291351,-0.1073765680193901,0.1728009134531021,-0.2527192080497741,0.0655073681771755,0.2112134777069091,0.0085420254617929,-0.0134206935763359,-0.0840896935096476,-0.0922250747680664,0.2071099696445278,0.0730661495262756,118
1724756584442157000,0.3403735261052846,-0.0292861541084945,-0.4568073639214038,5.155815659990907,1.7270742602363227,8.161198668700456,-0.6448590755462646,0.3128065466880798,-0.1534143686294555,-0.8203266057406761,0.0626498275924108,0.282789106734168,0.4931222575030873,0.3694469630718231,-0.075366698205471,0.2897835969924927,-0.1193643383100628,-0.0197398887366056,0.0680278996307402,0.0254936348646879,0.0083524603396654,-0.0812486887969076,-0.0759546607732772,0.1537724020095542,0.1459337442731484,119
1724756584481924900,-0.2164607307106256,-0.6965291432321071,0.5690630392700433,5.1048219703346485,1.5741536892831325,8.223941832861303,-0.3902420103549957,0.1771308183670044,-0.0343878529965877,-0.8239100036952772,0.0669064527749215,0.2760782279236137,0.4903841913100816,0.6241636872291565,-0.0556360371410846,0.4086095094680786,0.0222784673035144,-0.1613245344221592,0.1533060996720567,0.0554769299924373,0.017309620976448,0.0018904876384302,-0.0729919523000717,0.2104206468287855,0.1161902109191287,120
1724756584521692200,-0.3788824127197265,-0.6915231516383588,-0.1989320882827043,5.036053554534912,1.4575181914150714,8.287592759516835,-0.2130943685770034,-0.1300830543041229,0.1436584889888763,-0.8301480973369718,0.0675936820334027,0.2699656549063285,0.4831188996962064,0.4874577522277832,-0.0342105291783809,0.4916255176067352,-0.0154407302379608,0.2676017198830843,0.4118178831160068,0.0592289231717586,-0.0017771588172763,0.0452582878094166,-0.0687087550759315,0.2640204090639017,0.0681446807110914,121
1724756584561461000,0.6613748277425766,0.1050933825038373,0.1444318518102169,5.089946472764015,1.3647967992283403,8.270438795620203,-0.3666666150093078,-0.0350175350904464,-0.0438214018940925,-0.8335543704665773,0.0711791268335691,0.2706630903146969,0.4763004128991992,0.3103354275226593,-0.0144082773476839,0.5052942037582397,0.4728296934396028,0.8221762150734663,-0.3572738075017929,0.0462868548929691,0.0080015743151307,0.0333464440836571,-0.0690141543745994,0.2576048064005561,0.0349639371667173,122
1724756584601228800,0.0917184987545013,-0.2283392384223639,0.304473360684514,5.11671757531166,1.2484187832526863,8.272305174013972,-0.2786158621311188,-0.2640946805477142,-0.0190960094332695,-0.835375369649018,0.0762395724099069,0.2691046844991633,0.4731998865997835,0.0853268280625343,-0.1071773096919059,0.3462698459625244,0.054135494813323,-0.641771132606268,0.5572597887516021,0.0083896191790699,0.0434660948812961,-0.0789630894772242,-0.1004346907138824,0.129671258456679,-0.0354221703621908,123
1724756584640996400,-0.0031757074266672,-0.3459538835208863,0.1845353141397237,5.272064788889884,1.2153482152346522,8.179158688282966,-0.0123640652745962,-0.5361450910568237,-0.0190123934298753,-0.8365614796242803,0.0800763418134517,0.2767069427020431,0.4660320257842692,0.3898997604846954,-0.1475028991699218,0.3905281126499176,-0.2456345104858279,-0.368995224955678,-0.06542436606884,-0.0132063450291752,0.0582801885902881,-0.1561042607569135,-0.1223767548799514,0.1369861206478439,0.0157340768865484,124
1724756584720532700,-1.1684382146954535,-0.309634835100919,-0.2857569697767496,5.597561648380756,1.1907009729731828,7.9636624186903235,0.0023261941969394,-0.6163212656974792,0.1897806525230407,-0.8394962661632129,0.0850695899703361,0.2944985170586991,0.4486421844673592,1.3707941770553589,-0.1172180101275444,0.579650342464447,0.2184907752335071,-0.1294523093432188,-0.2306453234076499,-0.0033463612198829,0.0556448362767696,-0.0945430181233212,-0.1124765202403068,0.2029637549515813,0.0112819186416338,125
1724756584760301300,-0.8247405126035213,0.1248909927770495,-0.514146623212099,5.822337202972173,1.132962631362304,7.809428134790062,-0.1029807925224304,-0.7032692432403564,0.2773145139217376,-0.8409190877983616,0.0903722799959149,0.3060438140371826,0.4370641946902991,0.9337103366851808,-0.0024703915696591,0.6165580749511719,0.5076961318984627,1.2261737798273562,-0.5931769053071737,0.011184805072844,0.0672345086932182,-0.1911604131015948,-0.1323404610157013,0.1637519076995551,-0.0929486798702739,126
1724756584800068900,0.2581500009268522,0.3866798616629093,-0.2525736620992422,6.002239012092352,0.9920811655100434,7.69150785780847,-0.2878537178039551,-0.3829724788665771,0.3191667795181274,-0.8434268567242776,0.0980309578682677,0.3134201198655247,0.4251928907584953,0.8332934975624084,0.0427078455686569,0.5049934983253479,0.4713315638363361,-0.371766443234682,-0.1532948110930621,0.011960600502789,0.0779878199100494,-0.2723735921937041,-0.1456632316112518,0.0831270681557245,-0.10348641309808,127
1724756584839836700,0.257450912746787,0.0570410069964826,-0.2207043596297502,6.144793379592895,0.8261199842631817,7.597987862589955,-0.378456562757492,-0.5243719220161438,0.2110630422830581,-0.8455764065662963,0.1064522589726512,0.3182426021715681,0.4151987002055324,0.6675093173980713,0.1226458251476287,0.4647669792175293,0.6067258304491638,0.0668786565303802,-0.3801842890985309,-0.004638893995434,0.0522099360823631,-0.0621521257654065,-0.1302133351564407,0.1976560587312094,-0.0932998770612757,128
1724756584879605200,0.4790910919219255,-0.0883954918116331,0.3573912964016199,6.268517374417185,0.6739273622583597,7.511450565865635,-0.3061570525169372,-0.2261883616447448,0.2270024418830871,-0.847361941296855,0.1140354099907643,0.3225190152996236,0.4061465988124735,0.3558650910854339,0.1107068210840225,0.4662801325321197,-0.2172512965664267,-0.009313771790266,-0.4983838214129209,-0.015698354691267,0.0293339435011148,-0.0980634199349675,-0.0817477405071258,0.210288782343734,-0.0524451214404311,129
1724756584919373000,0.2855693382501602,-0.3474927835259586,0.2242904014229774,6.372854531726241,0.5490545992577448,7.433413970983028,-0.185741052031517,-0.520923912525177,0.1279502511024475,-0.8492695877529262,0.119766226484876,0.3265844593387263,0.3971646663081877,0.6230646371841431,0.0388358756899833,0.4792667627334595,-0.1254883741483092,-0.3427449314117431,0.0513660300999879,0.0038252170197665,0.0281707849353551,-0.1069503902810625,-0.0595023483037948,0.1822905308876186,-0.0134359491621435,130
1724756584959140600,-0.219229610902071,-0.1226066081669181,0.2900274867027997,6.535731556287407,0.4767986701358109,7.295701198294759,-0.1034689471125602,-0.4580628573894501,0.1843670904636383,-0.8494565808630106,0.1245230559413366,0.3354351975898673,0.3878152844131515,0.1257437616586685,-0.0812582522630691,0.3263996541500091,0.3140264941886067,-0.0411298827677965,-0.0023339959055185,0.0191762894392013,0.0272642187774181,-0.0557346371056512,-0.0395834520459175,0.2180005257648415,0.0497245556364301,131
1724756585038677000,1.3205705578804017,0.4142753592707217,0.4848720134109258,6.550966534820199,0.1679647213553078,7.295684831681847,-0.2882944643497467,0.2729452848434448,0.2521312534809112,-0.8584558786286034,0.1323243962754644,0.3324362174504989,0.3674643954693898,0.0888973250985145,-0.057365383952856,0.2184837162494659,0.3466906002976,-0.0541314031600952,-0.1168652149707078,0.0146582825109362,0.0084142023697495,0.0935570210269652,-0.0270008407533168,0.2951917558644898,0.1885121636151336,132
1724756585078445600,0.6439385397732258,0.1586134853651747,0.2898854478836059,6.54121027995944,0.0710802729386836,7.306018009647727,-0.1587975770235061,-0.1459419876337051,0.0683559402823448,-0.8617690779439201,0.1341647921077582,0.3309026225219078,0.3603572361945142,-0.1601167470216751,-0.036982350051403,0.064254991710186,0.6110797878749669,0.3230997352212667,0.0667699354588985,0.0181917659938335,0.0430741347372531,0.0302174915582989,-0.0787055790424346,0.18080767191872,0.0896337192365434,133
1724756585118213000,0.1722597699344158,0.0453445230544544,0.5145142874807119,6.618593963891267,0.0327662376094842,7.236264674463868,-0.0282949656248092,-0.37874636054039,-0.013316904194653,-0.8624721114795242,0.1356925422889482,0.3356198977677591,0.3536788116211234,-0.2362400144338607,-0.0086014680564403,0.0357332751154899,0.41199367807433,-0.1442079799264669,-0.3572948502898216,0.0258652009069919,0.0260095428675413,0.0418737919036997,-0.1009084284305572,0.28572765235072,0.1370294300666079,134
1724756585157981000,-0.0021118775874376,0.0006420470634708,0.2813461675971746,6.723533763268589,0.0544246230861637,7.138733105516433,0.0566841103136539,-0.3237141966819763,-0.052345473319292,-0.8621833528513783,0.1350294883769493,0.3432097566092648,0.3472950817810514,-0.3591955006122589,0.0018148474628105,0.1163871735334396,-0.0874666865289211,0.4042845650017261,0.0234422503858804,0.0196415334939956,0.0140448985621333,-0.038220589458663,-0.0828677043318748,0.1843658758569508,0.1024584856892935,135
1724756585197749500,0.0095148473203182,0.1462029166033491,-0.0218231247514486,6.802437788635492,0.0680783466097666,7.063469482478499,-0.0041294409893453,-0.1673508286476135,0.0020785187371075,-0.8625519221125489,0.1339358121203532,0.3491768735987207,0.3407946825424726,-0.4589543342590332,-0.0578553527593612,0.1769704967737198,-0.1317230307541787,0.4089484651595353,0.4932264386497437,-0.0043176673352718,0.0252320803701877,-0.0556068642738275,-0.058339849114418,0.1687483642799779,0.0426170662853633,136
1724756585277286000,-0.1464706641614437,-0.0328864664556691,-0.0344043739050626,6.854274943378568,0.0093934254558233,7.013501628738641,-0.1469040364027023,-0.1968534439802169,0.0282677412033081,-0.8645920694409874,0.1347135820251916,0.3525098244620725,0.3317672812914987,-0.2587431967258453,0.0231445301324129,0.2191707491874694,0.121244891359657,-0.0454641125798225,-0.1636282813198864,-0.0202016085386276,0.0687848478555679,-0.0368181775981211,-0.0266886707395315,0.1056281195682007,0.0674251890638144,137
1724756585317053400,0.1947591865122318,-0.1265494275085628,0.4222469226717948,6.857810716289282,-0.0370045738655608,7.009953580868244,-0.0276756472885608,0.1999187618494033,0.2229650169610977,-0.8670659825592654,0.1344302295550873,0.3528744072186904,0.3249687950532322,-0.2358903437852859,0.0140619268640875,0.1668362915515899,-0.021901596815139,-0.0837859521895647,0.171229842364788,-0.0220026057213544,0.078051820397377,-0.0448699323792243,-0.0158778727054595,0.1148937596341129,0.0934012185439001,138
1724756585356821000,0.3354968599796294,0.1242833274737931,-0.1025619643300771,6.8022162548393,-0.0925601920093409,7.063403431504964,0.0101514952257275,0.0579882077872753,0.1777954399585724,-0.8719169767758566,0.1322233517278744,0.349833746308847,0.3160602136344178,-0.1350292414426803,-0.0335313193500041,0.1108390092849731,0.0344109497763216,-0.1687216589361429,0.2862332089863717,-0.013233033940196,0.0685296729207038,-0.0495371935378992,-0.0178989674896001,0.1024521746795158,0.0504924941018922,139
1724756585396481800,0.1956996822327375,-0.0992310480753891,0.0202075062483549,6.850584856688976,-0.1131046933934092,7.016200950825214,-0.0281647369265556,-0.2631310820579529,0.0020023970864713,-0.8727982060800932,0.1320073465660688,0.3533374836285768,0.3097577978000377,-0.2501931190490722,-0.0695787444710731,0.0697474926710128,-0.0087171210713684,-0.0243856687158346,0.1459660756401717,-0.0148172965273261,0.0715839192271232,-0.024886405329185,-0.0278381779789924,0.0889128667492419,-0.0358984529542969,140
1724756585436242400,-0.0816822579085826,-0.0695124482332263,0.2467722823441028,6.872386354130506,-0.1253156205304432,6.994640276402235,0.050835408270359,0.0534976124763488,0.1325691491365432,-0.8743853224200008,0.1306419715691937,0.3553945347568029,0.3034433384638305,-0.0387109592556953,-0.0826020911335945,0.1103609055280685,0.0105554424144327,-0.0555254878669977,-0.0431103159952908,-0.0269525591284036,0.0390603020787239,0.0116843516878841,-0.0178594049066305,0.1454235205955337,0.0506106131893815,141
1724756585515770400,-0.0842524006575346,0.1327849060983397,-0.1434066004157066,6.869270267936587,-0.1799206599511206,6.996508992883562,0.0511222295463085,-0.1156845390796661,0.1280933320522308,-0.8791392339595311,0.1277822888636141,0.3562990177095615,0.2895461889764375,0.1775670200586319,-0.2589219808578491,0.3062598407268524,-0.4136930293381214,0.1368897658675908,0.3273661604940891,0.0022907825186848,0.0086311409249901,0.0941522652400657,-0.0080755315721035,0.2196936299509368,0.1697269269885495,142
1724756585555534000,-0.1884218001842498,0.0475871691484004,0.0863017344027757,6.896974851942062,-0.1943816401704214,6.968812007662653,0.1603475213050842,-0.0708727315068245,0.2410016804933548,-0.8811232062658768,0.1257178095961869,0.3590048661354889,0.2809493224566765,0.9831034541130066,-0.4281558096408844,0.5121647715568542,-0.3868669817328453,-0.303298471686244,0.7572101141661405,0.0133210131898522,0.0370288081467151,-0.0035041442257672,-0.0034101277124136,0.1345938186838291,0.2157115197785198,143
1724756585595298600,0.0148036013782024,0.3336875090027227,-0.4386638044655322,6.8980041949898,-0.2240030906478874,6.966904128214717,0.0088275028392672,0.0602796673774719,0.2121080309152603,-0.8839734942234477,0.1235271051522417,0.3598997268009785,0.2716693015653528,0.8848432302474976,-0.4205986261367798,0.6403855085372925,-0.0095374975435435,0.2133954979211091,-0.5673772781401872,0.0313702747225761,0.0337774530053138,0.0403591769565129,-0.0230221282690763,0.2024511840532533,0.159203121821396,144
1724756585635062300,-0.3501221821814775,-0.0698366295531392,-0.3690636140167713,6.877613733389973,-0.3156299107972532,6.98349461300969,-0.2004072070121765,0.0870368331670761,0.2931423783302307,-0.8864276477310323,0.1252753240591857,0.3581158652369594,0.265151235502898,0.5985131859779358,-0.4246589243412018,0.5995476841926575,0.2865736929871141,0.2783335417777299,-0.1619762763291597,0.0283011496067047,0.0096651948988437,0.009135074772092,-0.0529706068336963,0.2043946645375341,0.106462223171629,145
1724756585674826000,0.5110866511195897,0.1558377735741436,0.3012970687359571,6.859313522067666,-0.4233898456292226,6.995780678609013,-0.0955131500959396,-0.0438479259610176,0.1280871629714965,-0.8888351040397218,0.1277953633631043,0.356346453573553,0.258181690209288,1.225905179977417,-0.2720653116703033,0.4742785990238189,0.3161967508997768,-0.8422510348528623,0.0042342765688896,0.0224490500986576,0.0153576331213116,-0.038248639659502,-0.0598836354911327,0.1438623265602625,0.0992435787633992,146
1724756585714590500,-0.0230804313361644,-0.0272493510512635,0.0930190599590539,6.8796250732123845,-0.4737372367385775,6.972569314369559,-0.0086553506553173,-0.0583280101418495,0.199341595172882,-0.8900936608341531,0.1282340146619065,0.3578462574136943,0.2514666701674176,1.0584708452224731,-0.0281651560217142,0.3238461017608642,0.4318828390885144,0.3296013722002506,-1.1931529692351817,0.021991042420268,-0.0033343452960252,0.0466887498707976,-0.064403124153614,0.2257861929386854,0.0363262818783521,147
1724756585754354000,0.2882230676293373,-0.2528280387191102,0.2455383566349744,6.873731923520564,-0.5417474545821547,6.973428561547398,-0.0285366475582122,0.0682683289051055,0.2266223430633545,-0.8922610258343282,0.1286575075325113,0.3576329586684025,0.243754507582972,0.5798119306564331,0.0609172098338604,0.2407522052526474,0.3074316259682178,-0.2744049701571464,-0.3884071969121694,0.0262906588613986,-0.0067664058879017,-0.0213099099657265,-0.0692135319113731,0.1625949196841567,0.0342583827132475,148
1724756585833882400,-0.0324450565308332,-0.1344707220271229,-0.2324304532587528,6.903205270764231,-0.613417802368477,6.938290028148889,0.0212136022746562,-0.2014163434505462,0.1597309857606887,-0.895116215984974,0.1272698294477789,0.3606217568986524,0.2291755343281509,-1.7679262161254885,0.2238382250070572,-0.0922227576375007,-0.1870275693468749,1.245614977878332,0.9879939692616462,0.0253184661269187,-0.013412170112133,-0.054771646425547,-0.0534458383917808,0.2060122558020055,0.0295839269120944,149
1724756585873645800,0.4305149848014116,0.1266737845405936,-0.1796732610613107,6.922078313538432,-0.6490585131354629,6.916208544722199,-0.0025906655937433,0.0360869280993938,0.1311663538217544,-0.8962409321671042,0.1267679310767853,0.3623553313971325,0.2222178801817691,-1.6842901706695557,-0.0683187022805213,0.0913749635219574,-0.5824609385687858,-0.924962635809183,0.2441293666198849,0.0259826518595218,-0.0260112229734659,-0.099677750663273,-0.0478282272815704,0.2167680796267464,-0.0199490425418363,150
1724756585913410300,0.1031172601252794,0.1858650283735245,-0.510625463348627,6.915484906622767,-0.695830055052042,6.91825729394555,-0.1499437689781189,0.0051821800880134,0.0783203244209289,-0.8974815710170735,0.1272279392846881,0.3620498558791115,0.2173934645594402,-0.0597946755588054,-0.2704961895942688,-0.0420486070215702,-0.76780669230856,-0.5500117173194885,1.0722175822161135,0.0267698913812637,-0.0139466021209955,-0.1191738846387248,-0.0446301437914371,0.1933722073995508,-0.038831510731508,151
1724756585953174000,0.3616670740246772,0.1513367358278483,0.0237812730818986,6.9069795286059374,-0.7545259165834635,6.920600642201304,-0.1576363146305084,0.1020578369498252,0.0276657473295927,-0.898366058635754,0.128882655839863,0.3612988027558642,0.2139882175939171,0.0459096506237983,0.0219865348190069,0.2317753434181213,0.4671311895370483,-0.4210205957472324,-2.0250218724139035,0.0203326679766178,-0.023770673200488,-0.0303764015971915,-0.0489257611334323,0.2909773347735405,-0.0425920505751157,152
1724756585992938800,0.1555780997246503,-0.2046495160814374,0.1959983729183674,6.883972747027873,-0.7840062050245702,6.940218950384855,-0.0927742198109626,0.1353832483291626,0.0191158186644315,-0.8994916232187514,0.1290833697277497,0.3598399501473624,0.2115835640921476,-0.6577526330947876,-0.1269100606441497,-0.0449935942888259,0.6157202340919524,1.6048521944075822,2.1903160411193965,0.0312350131571292,-0.0444593355059623,-0.1129402692124713,-0.011732280254364,0.1819617921235971,0.1048706065986305,153
1724756586032702200,0.195724816673994,0.0731945616789162,0.0890507408499717,6.868217544013262,-0.7951960728850215,6.954540905725955,-0.0236095301806926,-0.0042028492316603,-0.022533431649208,-0.9005723524338325,0.1282411623975608,0.3591257584425414,0.2086921563912798,-0.4405337870121002,-0.350080132484436,-0.0354652069509029,0.2410718787454068,-1.4986878216713666,-0.3017157325394451,0.0651430636644363,0.0235096234828233,-0.0785953338770661,-0.0093000158667564,0.1931810870079323,-0.0367775464769219,154
1724756586072466000,0.036029929280281,-0.0355415612414479,-0.0406283629864454,6.877077142295241,-0.8001845288220792,6.94520667566955,-0.086121380329132,0.0163852255791425,-0.0265312958508729,-0.9007534075149382,0.127907211456438,0.359906580779645,0.2067614313159149,1.8241499662399288,-0.0130306240171194,0.076270043849945,0.9662737203627824,-1.203715864303708,-1.2109985686577855,0.0430524833500385,-0.0039970427751541,-0.0579523405545856,-0.0038687943015247,0.2363435715818777,-0.0387133870774414,155
1724756586112230700,0.0344499666124582,-0.1193445376310497,-0.0161924253880977,6.858306975373625,-0.8209782374605537,6.961321944168209,-0.0423792228102684,0.0634243488311767,0.002955030882731,-0.9016725405214672,0.1278849112771987,0.3587712290076675,0.2047323385432993,2.077081680297852,-0.0415617600083351,0.2638003230094909,0.20945874299407,-0.5622036748945712,-0.9622063247933984,0.0064372238703072,0.0098240720108151,-0.099677750663273,0.0042956164106726,0.2167680796267464,-0.0199490425418363,156
1724756586151994000,0.1262017831146717,0.0033062750037759,-0.2834288190901279,6.872498582333326,-0.8177837522681802,6.947688555613159,-0.0398055464029312,-0.1177167445421218,-0.0685184076428413,-0.9017135251314582,0.1272184077659625,0.3599749185460715,0.2028452162283026,0.4457089602947235,0.5620816946029663,0.1062686219811439,0.2931835395809263,2.022725724300742,0.2206821477979421,-0.0223961640149354,0.0340051129460334,-0.0484900499719893,0.0144031606614589,0.2119745434735901,0.0399965678889304,157
1724756586191757600,0.0684971976429223,-0.0973913567591458,-0.2717939108759165,6.905812238392233,-0.8246755576085298,6.913758228960633,-0.1437809467315673,-0.0891900286078453,-0.1005778089165687,-0.9008839939305232,0.1279723448271577,0.3621042841467594,0.2022662749253579,-1.919635891914368,-0.260341465473175,-0.3220714926719665,-1.5424026063658296,-0.1034884315252304,0.3568514904364943,-0.031139675527811,0.0420777313411235,-0.1132519107112195,0.0063796029426157,0.1994590712988749,0.1126557805821299,158
1724756586231522300,0.0447147555172443,0.0934828780785202,-0.1944897219210863,6.919568961066007,-0.8488535749230534,6.897057269528508,-0.1998760402202606,0.0236511789262294,-0.0608378909528255,-0.9003783016798085,0.129605955497,0.3626985497100479,0.2024130036479199,-1.2235451936721802,-0.4481323063373565,0.0181620698422193,-0.3217027279049158,-0.4922317285239696,-0.637787323667109,0.0070541258901357,0.0245467144995927,-0.0048305271414545,-0.0001060223439708,0.2712078363499604,0.1206702332768589,159
1724756586271286000,0.1757078645616769,0.1282135613285005,-0.0843102683246135,6.9177131040662525,-0.8924128767948597,6.893419205287098,-0.2530986368656158,0.0240637939423322,-0.1048225313425064,-0.9000544242261157,0.1323487812242371,0.3619630175315595,0.2033929128349087,0.1540411859750747,-0.2398652583360672,0.2548964023590088,0.3277269566304981,0.5988257248491049,-2.055852625615895,0.0221020244061946,0.0288179814815521,-0.0383764102080371,0.0110896304249763,0.1931145063114352,0.1063510726810433,160
1724756586311050500,0.0169400288850069,0.1000813264954835,0.1955523827165365,6.919809784084558,-0.9177011203736066,6.887992504063249,-0.1915595084428787,0.0437210947275161,-0.1080482229590416,-0.899477162354862,0.1345218826828435,0.361543898841128,0.2052575843151978,-0.2064554840326309,-0.1756622493267059,-0.094795636832714,1.1595890647422522,1.2174269942700862,0.9310574455529452,0.0055897398851811,0.0563367903232574,-0.010049408571457,0.0306215956807136,0.1635015131350606,0.0797945718653034,161
1724756586350814200,0.0053302551120519,0.1763154020007699,0.0603214899718761,6.908824279689789,-0.9453029746569692,6.895283830115199,-0.2110160440206527,0.0759018585085868,-0.0569254271686077,-0.8994077569158634,0.1363097446722173,0.3603582001927483,0.2064640244360006,0.9401631951332092,-0.1561437845230102,0.1108508557081222,0.1340078537557274,-2.01512109451592,-0.6615478462219238,-0.0151888625696301,0.0539268366992473,0.0732455931798322,-0.0028844180051237,0.2114011457661166,0.0461584560861112,162
1724756586430333400,0.0536059179812669,-0.014456906832382,-0.0965706149607896,6.863990866228938,-1.0169948766879735,6.929771790650486,-0.2462948113679886,0.0955707356333732,-0.0898188278079032,-0.8994606738472731,0.1409677801798361,0.3561011832476607,0.2104532902143478,1.5616463422775269,0.2529991865158081,-0.0700512826442718,0.1999724641811102,-0.0717009621202945,0.2482464465498924,-0.0394325591623783,0.0396918691694736,0.0358041234510601,-0.018362695351243,0.3520238145517185,0.1291539931169245,163
1724756586470209300,0.1415267780184745,-0.1474015883360058,-0.0827449187040328,6.848494606411457,-1.050896269506961,6.940037164077163,-0.1947666257619857,0.0394845679402351,-0.0904537290334701,-0.8993630048095655,0.1431778336975296,0.3544808513777348,0.2121075065672025,1.143965482711792,0.1559594571590423,0.0564294308423996,-0.1379093181736767,0.7758873421072959,-0.758401077516377,-0.0478296726942062,0.0431041046977043,-0.0361026086407131,-0.0029263840988278,0.2557785956203937,0.2012188109803944,164
1724756586509978000,0.3449655300706625,0.073255498085916,-0.2273538806468248,6.87415102571547,-1.065352811013162,6.912413828614354,-0.2202152609825134,-0.1279715746641159,-0.191182941198349,-0.8980562465299182,0.145341103925682,0.3555853452284483,0.2143131325650876,-0.6038931012153625,0.0348457694053649,0.0360574461519718,-0.421193066237308,2.1150702459990978,1.2446364882349967,-0.0353016220033168,0.0674126297235488,-0.0103049542351043,-0.017795018851757,0.2620059091700241,0.0940095505674369,165
1724756586549746000,0.127364981675148,-0.0175705818735063,-0.0730552993386983,6.908595147109032,-1.066404219762236,6.87782533031404,-0.2198587954044342,-0.0764845237135887,-0.2453231662511825,-0.8961274952596818,0.1476426298514523,0.3571136414081518,0.2182362305694985,1.3906009197235107,-0.1830065548419952,0.135840505361557,-0.3826569993549957,-1.5142437027215956,0.0745624890312552,-0.0268091708421707,0.06161879748106,-0.0190080536309862,-0.0385840088129043,0.2657625582898035,0.1323410347883589,166
1724756586589513700,0.0104787239164113,0.067871174699068,-0.1313502519190311,6.952907167044281,-1.0731365236919372,6.831971926155686,-0.2393857687711715,-0.1809732764959335,-0.1506303697824478,-0.894091981458267,0.1501040712751458,0.3593537650773377,0.2212085071219732,2.2265005111694336,-0.16866996884346,0.1730605065822601,0.0538305935826152,-0.0937380218833684,-0.2651201322004199,-0.0080410568043589,0.0475971475243568,0.0932453703950624,-0.0213209223002195,0.3126889985071495,0.196297337598633,167
1724756586629282600,0.5031985282182693,0.0097584468178451,-0.1692068121045827,7.014594684672355,-1.090590785709396,6.76583093625009,-0.3247950673103332,-0.1887171864509582,-0.3238956332206726,-0.8910891899650547,0.1541539288663113,0.3623191812605217,0.225658057316629,2.26851487159729,-0.2403038293123245,0.1851368844509124,0.2209414928538724,-0.6446785444855689,-0.5892641157776117,0.0033542495220899,0.0407344475388526,0.0073929660745634,-0.0244785323739051,0.2601261415717192,0.1460657914212904,168
1724756586669050000,0.220934076732397,0.0918194749109446,-0.2077086844563484,7.099786412006616,-1.066409115133062,6.68028323508501,-0.3207183182239532,-0.2991312444210052,-0.4677723348140716,-0.8867990417904568,0.1576028405370201,0.3668264919858093,0.2327812053515544,3.792757987976074,-0.439613789319992,0.0024224547669291,0.1060510850874707,-0.8625994108766317,-0.117525140184164,-0.0063411169685423,0.0400561206042766,0.0034051014439726,-0.0350394658744335,0.2936971151262522,0.0940165191643405,169
1724756586708819200,0.180416772904992,-0.1427810889285057,-0.2649947522550821,7.193574118250608,-0.9802491272885352,6.592570464840531,-0.2401102930307388,-0.2280604392290115,-0.6603635549545288,-0.8816434853949862,0.1590964063717727,0.3722375490904901,0.2425534799197218,4.203886032104492,-0.5231958627700806,-0.0517268665134906,0.4098034014884382,-1.1224176372766494,0.0739969641029834,-0.0231312867254018,0.0190414432436227,0.0589963971142657,-0.0088842250406742,0.3362151643168181,0.0713665379675803,170
1724756586748587000,0.0736357295751571,0.1117751983553171,-0.3716530459880828,7.267883801564574,-0.8364701864290982,6.530586594614386,-0.1767450273036956,0.0961418375372886,-0.7019265294075012,-0.8754237183309322,0.1596288201219677,0.3762331474285635,0.2580706772284703,3.6776649951934814,-0.4610682725906372,0.0730281844735145,0.4999279090497642,-0.2577402510821819,-1.4046820887625218,-0.025430966168642,0.0138267986476421,0.0159682932094438,0.0340172350406646,0.3056216904694214,0.1148418011180125,171
1724756586788355600,0.4717664481222629,-0.2053169670142233,-0.1155120467960834,6.964923183530568,-0.6337010772667825,6.874492971020937,0.3616344332695007,2.6236281394958496,-0.6598246097564697,-0.8799220832350484,0.1487138580933307,0.3569069948769977,0.2761135125748878,1.900156021118164,-0.3162772953510284,0.1997464448213577,-0.022568390160799,0.8013190127447247,-1.596243940538168,-0.0287835579365491,0.0015871529467403,0.0887619870364666,0.0714735686779022,0.3320023323947563,0.1527109285241924,172
1724756586828123400,-0.598301408714056,2.749023106069863,-1.527888781714439,6.608496348246931,-0.6226726105131208,7.218756490302085,-1.2277165651321411,-0.0665594115853309,-0.4468661546707153,-0.8831752182601414,0.1474823580026404,0.3319560155800705,0.2967420111685281,1.0676835775375366,-0.1181027665734291,0.3046735227108001,0.0615734627943485,0.3146823277488351,-0.8890326597720384,-0.0422300286591053,-0.0037713854108005,0.1112268894233275,0.0949984118342399,0.2528084389694966,0.2373534975430928,173
1724756586867891200,-0.2444219198256731,0.2630794201530516,0.1578957290172576,6.652801938441395,-0.7335401194389909,7.167463525438309,-0.2466816157102584,-0.4443077743053436,-0.2024962157011032,-0.8772416191735063,0.1592756789696024,0.3304426268498013,0.3096547172105044,0.2232599407434463,-0.1150364056229591,0.3953670561313629,-0.1575820599582046,0.4972694304302334,0.3240267869383096,-0.0291771180927753,-0.0424595512449741,0.2681028195393272,0.101754605770111,0.3469799021003767,0.3618428689830005,174
1724756586907660000,0.061571197772026,-0.2187672540873289,0.4949859956681728,6.743498108410835,-0.7377163091450929,7.081765017625689,-0.2994640171527862,0.1860953569412231,-0.2353748381137848,-0.8726425600552418,0.164112213897031,0.3346605218869268,0.3155383768133728,-0.4584296941757202,-0.1632792055606842,0.5450806617736816,-0.1966368169523775,0.6966869641423225,0.167022453802824,0.0020839518401771,-0.0883684083819389,0.3023518019532785,0.0799776762723922,0.3234537728233262,0.4867736457811668,175
1724756586947427800,0.26471885792315,0.4825489772908389,-1.9991531255334607,6.594968173632025,-0.8529018274005502,7.207589199599623,-1.2412312030792236,0.6244478225708008,-0.7657680511474609,-0.8696671053269035,0.1728309087491567,0.3203821028389815,0.3334127045173967,-0.7695238590240479,0.0495238862931728,0.6429852247238159,0.0117007399920374,0.5174611545875668,-0.954679728680849,0.0351967588067054,-0.0528145693242549,0.2099859452059492,0.1524067521095276,0.21580098816026,0.5600966196127235,176
1724756587026964500,-1.0389151782035828,0.6802022778093815,-0.0047626843571662,6.207098152336478,-1.282194211604446,7.483200622937082,-2.073838710784912,0.6034202575683594,-0.7114447951316833,-0.8459965655955032,0.2089304705067564,0.2735160198760595,0.4072183716142684,-1.118858814239502,0.4413313567638397,1.5144652128219604,-0.7143520924314856,1.0102420414268969,-1.1207909128576516,-0.02729182690382,-0.0093247089534997,0.0827995715007186,0.2709143757820129,0.0595404317299369,0.6470262766554952,177
1724756587066732300,-1.4305056813269852,0.6752510851427912,2.676758957108856,6.257665141013264,-1.670041874937713,7.363624979963898,-0.3597621321678161,-0.6952067017555237,0.3237141966819763,-0.8383567068157723,0.2329511622188136,0.2651289627377414,0.4154496398064314,-1.3890202045440674,0.8396149277687073,1.8287981748580933,-0.2508818000221625,2.8374358412772414,-2.858328407180309,-0.0212400387972593,-0.0992256328463554,0.4977599904261529,0.2960562407970428,0.2157620809219777,0.5010193575482815,178
1724756587106500900,0.5200175610721111,1.1212729972861706,2.033781955844164,6.627122722783684,-1.497013020326942,7.071815870541334,1.1989890336990356,-2.3010098934173584,-0.7198655009269714,-0.8325190556281242,0.2345207543793938,0.2905817649959365,0.4092361907231091,-1.9279934167861936,1.2432781457901,2.617706060409546,-0.2462866177190095,3.0897733565330503,-2.8802602530032395,-0.0036347941495478,-0.1151298433542251,0.4992702488586306,0.3397923707962036,0.1109029729648958,0.5953829274514689,179
1724756587146268700,-0.9123860628306864,0.9848322172950952,2.4903110873460768,7.409201320746541,-0.7555872622046619,6.37990620380342,1.978314757347107,-2.4754903316497803,-1.0159165859222412,-0.813833205733368,0.2227708525281868,0.353678455760433,0.4036833040139118,-1.6607619524002075,1.565540075302124,3.277959108352661,-0.8372643324814736,2.8281571408003567,-1.938395582231879,-0.0104686105623841,-0.1038667112588882,0.6720096920687705,0.4779061377048492,0.0737811111289076,0.6621680970121174,180
1724756587186037500,-1.8774895703703165,0.1909133064727299,0.7241641691327094,7.836956193184852,-0.14826671726536,5.893259581935405,1.6001713275909424,-0.9760478734970092,-0.0258359592407941,-0.8045808001337149,0.2029285631921988,0.3979288492932458,0.3913084640999282,-0.4283926784992218,1.7471942901611328,3.9217026233673096,-1.709727696377039,0.3949339683324098,-0.551170824226737,-0.0677040889859199,-0.1636537015438079,0.554097963719815,0.601836621761322,-0.014102184243733,0.5722288098245859,181
1724756587225805300,-0.3657768474310636,1.2532330516666172,-0.4737386249780654,7.911850982910394,0.0911112444431986,5.793505660763382,0.6710280776023865,0.1676542162895202,0.0921947211027145,-0.8069128322886495,0.1879287555405629,0.4114562103196715,0.3798399472730409,-0.7583194375038147,2.030068874359131,4.172279357910156,-1.0908186761811376,2.292370348188281,-1.007390743649006,-0.1380242556333542,-0.1839586645364761,0.3485880679493769,0.7207952737808228,0.051582737024012,0.8876044535998254,182
1724756587265573000,-0.1329535954624414,1.160084958500415,0.0207476044744253,7.78242731513977,0.1157250776254106,5.965804009142517,-0.0456236153841018,1.0881752967834473,0.0571519471704959,-0.8128020115727292,0.18096610581667,0.4038315578185819,0.3788459540117637,-1.3180274963378906,2.4175891876220703,4.603421688079834,-1.5931015508592128,1.597664913251996,-0.7295388479083776,-0.1881983578205108,-0.2511102557182312,0.1625019441710785,0.7968160510063171,-0.0676123502329457,0.9359942443680016,183
1724756587345109800,-0.7172025134265423,0.3477179340513422,0.6322066009253263,7.280157592204213,0.5397825842499733,6.5481538154870265,1.301972270011902,-0.0831277519464492,-0.5413593053817749,-0.8244564700667298,0.1475505167884306,0.3799551368324177,0.3925995880504001,-4.184395790100098,2.9104034900665283,5.192893981933594,-3.817466284313798,0.6103656482562423,0.001695113480091,-0.1771625578403473,-0.2831186950206756,0.2339730065256357,0.7406998872756958,-0.0291188529838807,1.1350786736682057,184
1724756587384878300,-0.2954804914116859,0.0790722215406596,2.1175918734312056,7.23297849240005,1.2733525873705744,6.498690988659859,2.451400756835937,0.609067440032959,-0.7975067496299744,-0.824015751371765,0.108787440409554,0.39601042591171,0.3903065902450708,-5.629399299621582,2.2105815410614014,5.118649959564209,-6.36752193852663,-0.4835054012328386,0.0322036489903926,-0.169746533036232,-0.2897601723670959,0.2434508828364312,0.7758572101593018,-0.2647542580300941,1.1938215161465109,185
1724756587424644400,-0.3968482775211334,-0.0073499243713915,-1.0136164862960575,7.04509737496376,1.915977560327202,6.547215073332191,2.383505582809448,1.0792545080184937,-0.5992961525917053,-0.8272015055846617,0.0696829168607452,0.4016580949255655,0.3867206601573674,-4.847653388977051,0.8543809652328491,4.660782814025879,-7.031386829519271,-3.672912559689581,1.0263970574140548,-0.2143692821264267,-0.2766697704792022,0.6361901176035404,0.8376544713973999,-0.0410778283535735,1.225180750202015,186
1724756587464413200,-1.7384370735108852,0.4596623149611055,-4.0922137842983,6.731693688848615,2.3925799041733145,6.717904817470908,0.4112565815448761,0.7560252547264099,0.1574317514896392,-0.8356262452466422,0.0337305120620178,0.395404141289324,0.3797980653016058,-2.667921543121338,-0.1594535708427429,3.692326068878174,-5.355474308982491,-5.951809970581532,-0.0450268902063369,-0.2581665515899658,-0.3364816904067993,0.5295388746658339,0.8784530162811279,-0.1280545622413512,1.1807776179172098,187
1724756587504181000,-1.6099842965990303,0.0709226712241768,-2.109720701664686,6.533211097899079,2.228857660959661,6.96561058127284,-0.5212081670761108,0.7998395562171936,0.4022229313850403,-0.843353396248542,0.0356912917634897,0.3789179778889879,0.3793445944449609,-0.4211840331554413,-0.2039029896259308,2.504044532775879,-2.9050258609473705,-7.3289581557303665,0.0308954890012741,-0.3280004858970642,-0.2438205778598785,0.7614018667675554,0.8466708660125732,-0.2167486260076053,1.0124161705955863,188
1724756587543869400,-2.112839710468054,-0.4744324524611234,-1.5778396843194962,6.586704787677526,2.030513893958926,6.975866602349281,-0.0777382776141166,-1.0008594989776611,0.5348831415176392,-0.8443638332147331,0.0461105598390825,0.3770989295919056,0.3777827855912694,-0.0164677053689956,-0.0051608234643936,1.353285789489746,-1.5727625271856784,-7.187629530632496,0.1444533329896628,-0.3850487172603607,-0.1522410362958908,0.8347708351653069,0.8754621744155884,-0.2427352453803643,1.16800442638807,189
1724756587623400200,-4.552158277201652,-2.72145383888185,-4.596257531169057,7.939953626322746,1.360499832686782,5.592544697001576,-0.4306196272373199,-3.696249723434448,2.426377058029175,-0.8185537264499178,0.1026168368379029,0.452028047394104,0.3392788971896046,-0.3950866758823395,0.3373906016349792,0.0971688032150268,-0.2904413282006979,-8.373065641880036,1.4504630122065545,-0.3639118671417236,0.1271679997444152,0.5847505473433062,0.7322772741317749,-0.088179547506012,0.7635071684837341,190
1724756587663166000,-2.497511227983236,-4.355881379602849,-2.172844974097609,8.829426431077719,0.3466411351326853,4.253406509034336,-0.1684649884700775,-4.132678031921387,3.164386034011841,-0.7959979349539997,0.1615674129260866,0.5069838160059044,0.2885321028863227,0.4064193665981293,0.3402020335197449,-0.3867936134338379,-0.0365752882033586,-8.658839562791586,1.986949477520585,-0.3626774251461029,0.1478133350610733,0.4897281482052057,0.6290408372879028,0.201896892905049,0.390490980916284,191
1724756587702931000,-2.636594119980931,-6.058364219418167,-1.8338798534855243,9.307737186276912,-0.9527562863375992,2.937456888952851,-0.1446795016527176,-2.990874767303467,3.84584641456604,-0.7750231704288452,0.2197898087208283,0.5494759555137745,0.2216023105622106,0.8013893365859985,0.2512950301170349,-1.1695762872695925,-0.9601818332284688,-7.910759680542349,2.302215450376272,-0.4220167100429535,0.108638197183609,-0.0507912258867174,0.5278236865997314,0.4473420913638546,0.2413195516298525,192
1724756587742695700,-1.517255159497261,-6.703047440078854,-2.56287246568799,9.27476839813292,-2.466295713247358,2.0165457204915582,-0.9703839421272278,-1.7695839405059814,4.013011455535889,-0.7605469470384582,0.2811433138050566,0.5640418620043429,0.156152596861339,0.7048137784004211,-0.0225360319018363,-2.110437631607056,-1.385149120774865,-6.388356636762619,1.93727446924746,-0.4241628646850586,-0.032124925404787,-0.1267051569263916,0.3210265636444092,0.7204353578679263,0.0250456236120429,193
1724756587782461700,-0.7581769133716821,-8.158818495565653,-2.449952335081249,8.831423742374778,-4.048616342373192,1.3360500126935542,-2.3497560024261475,-0.9145488739013672,4.126766681671143,-0.7460877084440847,0.3559783709611839,0.5524127159363522,0.1071103244178784,0.8635155558586121,-0.1001485884189605,-2.854620218276977,-1.5837579684525729,-5.169100088977814,1.4046470174491406,-0.3445957899093628,-0.0420500785112381,-0.6015364085799083,0.0788503587245941,0.549633093265444,0.0129340320885705,194
1724756587822226200,0.624989509153366,-9.654563834044335,-0.3989847050279378,8.044713977479935,-5.583781544831395,0.5237825761614368,-2.9079651832580566,-0.7360547780990601,4.371634483337402,-0.7225066724957298,0.4438562648985181,0.5256292761922666,0.0684807264015966,1.5881611108779907,-0.1695364564657211,-3.24649715423584,-2.92093479321897,-3.8134535415411,0.935762846764922,-0.2132760882377624,0.0114664528518915,-0.4457394419401884,-0.2376678586006164,0.6182797823816537,-0.111552157588629,195
1724756587861992400,2.973538256159425,-9.526012857455015,1.3042623971581455,6.955066975426673,-6.90389734468162,-0.3655861106319353,-2.7209722995758057,-0.4135293960571289,4.327149391174316,-0.6931081389041454,0.5296873186180254,0.4879252488486297,0.0310084280796588,2.1004605293273926,-0.5632692575454712,-3.427065372467041,-4.644989705634117,-2.055130448821187,-0.028713468787074,-0.1234652698040008,0.0701361522078514,-0.52280083511509,-0.5037679076194763,0.5589697710072621,0.065786098353588,196
1724756587901757200,4.205405863714218,-7.531879605910182,2.661357389837504,5.68534046959877,-7.908775813248753,-1.1395430326659233,-1.9449200630187988,-0.2270298600196838,4.188935279846191,-0.6647308300774414,0.6028360205050906,0.4412360574427518,-0.0056923014196119,2.2701544761657715,-0.8146162033081055,-3.461216688156128,-5.326593082413077,-0.3595211480371654,-0.95253760208562,-0.1237741485238075,0.211748868227005,-0.8807711735136806,-0.5154697895050049,0.5169280706241727,0.5700526348292827,197
1724756587941523200,5.584515119802951,-4.172827536192536,2.7523990122437474,4.353815971505641,-8.627023451814054,-1.6700706626407802,-0.8564676642417908,-0.5266783237457275,3.696608304977417,-0.6423282186386288,0.6555820516292786,0.3941599649747838,-0.0475870768380453,2.04103422164917,-1.0617187023162842,-3.397199869155884,-5.731307271003723,1.1714601928651331,-1.977271840853989,-0.2189188003540039,0.2559767961502075,-0.8743936013057827,-0.2760055065155029,0.5835341938234865,0.9860858706180006,198
1724756587981288000,6.259349733099341,-1.634534800487757,2.2391339941717683,3.1024273786619303,-9.10615253765881,-1.9034962644167244,-0.0638429597020149,-0.6162188053131104,3.10784912109375,-0.6277923789681082,0.6864755163823363,0.354686716081833,-0.0939434063382154,1.2405458688735962,-1.1599901914596558,-3.270528554916382,-4.555297159749269,2.8190841920286416,-3.020342969693244,-0.3024359047412872,0.2606014609336853,-0.738504098521918,-0.0486453734338283,0.7360380737345665,0.860824729354307,199
1724756588021052700,6.783870450809598,-0.3017711159884929,1.6383423760771751,2.028736947414279,-9.39384778202176,-1.9519833780795333,-0.1216223835945129,0.0706555545330047,2.5792574882507324,-0.6189153855892233,0.7061066035595267,0.3177057075168226,-0.1319859487583744,0.3437290787696838,-1.0599266290664673,-3.0872182846069336,-2.90181975838244,3.952865811623633,-3.640189270739257,-0.334385335445404,0.196996122598648,-0.8025584914118051,0.1180567070841789,0.8100386910993606,0.9275582783255726,200
1724756588060818700,7.054450309720635,0.8377502163022756,1.6935319099880757,1.1919283958762883,-9.517179562658072,-2.0427862232938407,-0.4978970885276794,0.9180259108543396,2.085856437683105,-0.6111264582985653,0.7261750030677547,0.2771695802615963,-0.1495703236636984,-0.3515208065509796,-0.7559522390365601,-2.7233693599700928,-1.5752274559944868,5.06078584473133,-3.944379138307273,-0.2750353515148163,0.1852207779884338,-0.4028146385796368,0.261185884475708,0.9149271256156264,0.9434373999807985,201
1724756588100583400,7.23933809055984,1.6974749485254286,2.1612413378044963,0.5792265962900593,-9.536391628128287,-2.211819140136242,-0.5295940041542053,1.2543275356292725,1.640769124031067,-0.6036781826398996,0.7464874444825669,0.2356435562872413,-0.1510012477118647,-0.6320035457611084,-0.4969506859779358,-2.24741268157959,-0.8046171775072812,5.797127942913771,-3.9465588204339146,-0.1894036829471588,0.033004954457283,0.2734470666441135,0.3646456003189087,1.2070056265641005,0.7381657334130257,202
1724756588140349200,7.867444270429015,1.965348471087217,2.038608937609196,0.1597150533989071,-9.519503621691465,-2.350304650762677,-0.2721744775772095,0.8783705830574036,1.0837849378585815,-0.5986675927235562,0.7611577677655667,0.2011741555758225,-0.1475295273860532,-0.5013616681098938,-0.0747265368700027,-1.5263729095458984,-0.2387146480947732,5.871880109298229,-3.542792434087396,-0.1044194102287292,-0.1507395505905151,1.3576720619149505,0.2854249477386474,1.4991928485840558,0.2426809396435506,203
1724756588180114000,8.320526476347446,1.6489941184729338,1.959743198426068,-0.0924034762108232,-9.508408811703324,-2.398330430524051,-0.0038114562630653,0.2954917252063751,0.5405339598655701,-0.5967814104207855,0.7677873556226466,0.1810618604785613,-0.1468708983719944,-0.231622889637947,0.1811562627553939,-0.5076425075531006,-0.9024041825205088,5.980767769518494,-3.591782382705808,0.0386049710214138,-0.412723034620285,1.7471346130989491,0.2377734035253524,1.7184551927119494,0.4723217439174652,204
1724756588219880000,8.767109967896342,1.6853794370621442,1.98917825948596,-0.1797074007929302,-9.518310027992724,-2.3536953161142766,0.2294729202985763,0.0613307915627956,-0.0209782570600509,-0.5985615074508308,0.7679876420510255,0.1737816002366962,-0.1473741211324199,-0.2421362549066543,0.4678669571876526,0.6592363119125366,-1.7068097631037231,5.850005546620488,-3.504398113763332,0.2554460763931274,-0.512446939945221,1.948216719022393,0.2838683724403381,1.4404539516285062,0.4925833549732342,205
1724756588259644700,9.216739987534284,1.2986065633535384,1.6577081708043813,-0.032432872902695,-9.55127180187404,-2.223188821543008,0.4748772382736206,0.108014591038227,-0.7164424657821655,-0.6054063491036697,0.7631080814985487,0.1761168464145617,-0.1418879918961635,-0.4751268923282623,0.6995182633399963,1.890834093093872,-2.6556442728877068,5.189630835831165,-3.106059597684443,0.3456097543239593,-0.5026830434799194,1.106990497172624,0.4478949606418609,0.646694925809279,0.8292013644699007,206
1724756588299409700,8.728647843033075,1.1482248632282015,0.8011810655787587,0.3676725980497896,-9.597361352875827,-1.9813722619101404,0.7553274035453796,-0.1447589248418808,-1.3526804447174072,-0.6181006233060312,0.751960133307764,0.1886208574812778,-0.1301140585504809,-0.6838193535804749,0.7872481346130371,2.8748600482940674,-3.383788451567292,4.300677086514234,-2.175673621652275,0.2607475519180298,-0.2916420102119446,-1.955200440429896,0.8463644981384277,-0.9544646976906804,1.0301970342189073,207
1724756588339175400,8.071257116490601,1.8846429492563008,0.2048728765085339,1.006058910523355,-9.607288288128377,-1.690624351978302,0.7907674312591553,-0.8422535061836243,-2.24596905708313,-0.6325501533415346,0.7342773009962693,0.2168748449207654,-0.1169714572699468,-0.946971356868744,0.6217440962791443,3.658890008926392,-4.854315762159228,3.108122083172202,-1.3238131930634378,0.2322137057781219,0.1726390719413757,-0.8259218313425779,0.6585227847099304,-0.7713146273642778,-0.2315662376448511,208
1724756588378940400,7.418120540261268,-0.674084087190032,0.3042344373621046,1.996927704568952,-9.486458261179925,-1.4797874524988233,0.7031576633453369,-1.7361854314804075,-3.354632616043091,-0.643472236211678,0.7085134422196127,0.2710292735988088,-0.1024466552649187,-2.144893884658813,0.5008818507194519,3.908900499343872,-3.3905765042722225,3.006994243298471,-2.0280437044531108,0.2656201422214508,0.3123944401741028,0.0978670662458054,0.445136696100235,-0.4938136639531701,0.0299408140583662,209
1724756588418704400,5.716352278456092,-4.053545907729864,1.036483713272959,3.269385535056889,-9.12892784856856,-1.464298060813546,0.5111309885978699,-2.095131158828736,-3.985478401184082,-0.6467571894806345,0.674840053597676,0.345324960703361,-0.0839445259030567,-2.030477523803711,0.5489592552185059,3.740446329116821,-3.6002509358435866,0.2933037318944931,1.949368373275548,0.2969797253608703,0.2600318193435669,-0.1304555772347841,0.3749207258224487,-0.4355754830613732,0.1255248976332601,210
1724756588458469000,3.382368063375353,-5.2356140038490295,1.871231386758387,4.5735628842800855,-8.525207921937108,-1.6042773171290754,0.523049533367157,-1.9729244709014893,-4.0414204597473145,-0.6438465467095127,0.6354264797882844,0.4219343214818649,-0.0605485296571243,-1.209944725036621,0.2094306200742721,3.424896001815796,-3.846031869062781,-1.889469492629916,2.95077580473125,0.3290349841117859,0.0721527636051178,-0.3334436903094873,0.1704542338848114,-0.1567284936024807,0.0090401710217643,211
1724756588538000000,-0.3664145608127117,-5.702154826277494,2.399486907082796,6.77105363933444,-6.79587653042376,-2.0345209376432,0.9885756969451904,-1.8350342512130733,-3.9424569606781006,-0.6292819061807877,0.5358543874517815,0.5626648888593535,-0.0165103826014714,-1.319261908531189,-0.2792205512523651,2.3379056453704834,-1.0885264735907316,-3.135200936494768,0.8547119455624371,0.3818128108978271,-0.2956974804401397,-1.5536733574427664,0.0827787518501281,-0.3003975808792747,0.6600755817122756,212
1724756588577764900,-2.761337520980834,-4.982338915482163,2.204585389490425,7.563655969399213,-5.817904188960791,-2.2612983335763213,0.7693618535995483,-1.3304930925369265,-3.3935837745666504,-0.620241643261976,0.480724356749812,0.6198372550455901,0.0024759656570235,-0.9510063529014589,-0.397735983133316,1.9186757802963257,-1.1138894629061222,-4.704510400617123,0.5488513683032245,0.4409205913543701,-0.3086105287075043,-1.46511595306769,0.1622694432735443,-0.3155544709408656,0.6505629263490438,213
1724756588617633300,-3.926032457494736,-4.969717334318161,2.2895587978988883,8.122770446106792,-4.908609662404656,-2.4691245069324967,0.4010670781135559,-0.8050745725631714,-2.7620718479156494,-0.6112006764969713,0.4346866866145538,0.6610127126516256,0.0233147410089418,-0.5789680480957031,-0.4859892725944519,1.6465685367584229,-0.0013753800064325,-5.46871899536848,0.2025081932038068,0.380848228931427,-0.2881597876548767,-1.3940008280113338,0.2525867819786072,-0.427336025971733,0.5747790422966703,214
1724756588657402000,-4.451348709496855,-5.429157384830713,2.566543555416166,8.505479723638295,-4.125352960573137,-2.6093396178305146,0.29007089138031,-0.449900209903717,-2.194424152374268,-0.6039941237736562,0.4010156349626634,0.6871868391745318,0.0463871328751215,-0.1952885836362838,-0.2790223658084869,1.3372451066970823,0.8411316754341125,-6.166430626383423,0.0272445652782917,0.2736625373363495,-0.1030125245451927,-0.3926755949463695,0.3307878673076629,-0.3916716420682147,0.4875837200550362,215
1724756588697171700,-5.089929521629214,-6.561344720971584,2.2636408050492403,8.771911815220117,-3.461681254065037,-2.6908561637833714,-0.0198637936264276,-0.1157233044505119,-1.7622398138046265,-0.5984883108583983,0.3749076506055989,0.7047267119987902,0.0679429682307843,-0.0235176272690296,-0.2489655464887619,1.0502679347991943,0.630692689231038,-6.61743427246213,-0.2655553087472915,0.0958923995494842,0.1103312373161315,1.9472903979577123,0.4058762192726135,-0.2087999868243932,0.7592855322007089,216
1724756588736940000,-7.016420731055736,-8.230912256395817,1.883217884889245,9.017672290173172,-2.8675588846012947,-2.5746923750802875,-0.852776050567627,1.2409441471099854,-1.2998732328414917,-0.5993089780562347,0.3595246995971755,0.7085300070813599,0.097753886366362,-0.0963913053274154,0.0253090411424636,0.6756604909896851,0.6158037476569413,-7.082084751099347,-0.5624537041328848,0.0161198154091835,0.2798380255699157,2.133032457538694,0.5578029155731201,-0.3007467413768172,0.8320032701481134,217
1724756588776710000,-11.52536179782152,-8.89781140051782,1.4941522240683436,9.281398045405744,-2.5205855218395588,-1.916429541878402,-1.5516899824142456,2.9161593914031982,0.379843145608902,-0.6185221489863967,0.3627775876643404,0.6827174628538691,0.1404268755013719,-0.1395315825939178,0.27677983045578,0.1993439048528671,-1.5927578519880772,-7.382214529621601,-0.185705088571459,-0.0267728753387928,0.4903521537780761,2.2551002095885573,0.1726039201021194,-0.0552099784773075,-0.3511176594922319,218
1724756588816478500,-10.24608186622858,-8.376999474197625,0.5320936371825635,9.279124255254864,-3.0205978212371467,-0.971728990093991,-1.438176512718201,2.69331431388855,2.567779779434204,-0.6506101832391393,0.3955346624316435,0.6269742576580437,0.1648094068698937,-0.943373680114746,0.0869247391819953,-0.6579592823982239,-3.224757581040263,-6.699315267813206,-0.7737035683274268,-0.0727232545614242,0.5409747958183289,0.3176561924604699,-0.2313046008348465,0.3458980616804212,-0.0814105739608872,219
1724756588856248000,-6.244764742907881,-6.654767685556411,0.0898011938910931,8.890508384028077,-4.112705952706933,-0.4635954896915704,-0.7337728142738342,0.8441904187202454,3.448448896408081,-0.6727904597934927,0.4426963325407768,0.5724130927812656,0.1540010712733336,-0.9253909587860109,0.3089805841445923,-1.790299892425537,-2.0519331140846013,-6.572521948546171,0.1960112323999404,-0.0794358626008033,0.2131639719009399,0.2974546410288661,-0.1881937831640243,1.2515917142003774,0.8038495541356504,220
1724756588896017000,-2.411345687180757,-6.277026844087243,-0.0218821614623069,8.218781089097261,-5.330212441954016,-0.4592024788970127,0.1451885402202606,-0.2562779784202575,3.626408576965332,-0.6813312082303029,0.4863276960740277,0.5356287735714751,0.1112431581965682,0.2919646799564361,0.6204075217247009,-2.731536865234375,-0.8654366801291704,-5.824796286562084,1.365105865177512,-0.0624940954148769,-0.1491510272026062,0.4243604076944291,-0.1913118660449981,0.9769183023653925,0.0125714116045448,221
1724756588935785500,-0.2784060224920511,-5.947697859087586,-1.186026478356123,7.357610834240913,-6.463543687433004,-0.5084697100868448,-0.1321427971124649,-0.1244787275791168,3.630949258804321,-0.6858901211789814,0.5244650964407888,0.5008603620739762,0.0602491618546048,1.9182668924331665,0.6474797129631042,-3.1064107418060303,-2.160152081263065,-4.675126485222577,0.8432498366318643,-0.0758311301469802,-0.1297179460525512,0.0086444913724641,-0.4653094410896301,0.6909093305889517,-0.3744060710232704,222
1724756588975554800,1.1190998910307883,-5.248747626188397,-0.7867804189782589,6.342728273531794,-7.453090146833658,-0.6257988527748733,-0.8758729696273804,0.4033358693122864,3.714480876922608,-0.6839320722306845,0.5677721440336375,0.4577572006798856,0.0181662711767082,2.835681676864624,0.3164353668689728,-3.123741626739502,-4.152180469483137,-3.468906821404397,0.608801833005622,-0.06026192009449,-0.0933753997087478,-1.0778063421338795,-0.5859647989273071,0.3534306126097217,-0.1070784645069856,223
1724756589015323600,2.55013456466794,-3.666159870558977,0.4102596208233386,5.187475703623891,-8.283000171029567,-0.8076975348006934,-1.312516689300537,1.0890066623687744,3.732975959777832,-0.6772711794625311,0.6170055300519122,0.4006061544372579,-0.0110717701814745,3.0245025157928467,-0.4194107353687286,-3.154568910598755,-5.4936061838656665,-1.1188829603444783,-0.3319341990619898,-0.0686810165643692,0.0207377392798662,-1.632659654265642,-0.5599194765090942,0.2895424613985233,0.1321073356303386,224
1724756589055093200,4.041098221828043,-2.345178978312016,0.8318363160833716,3.987558647081256,-8.894253415775298,-1.0779910510510209,-1.608908772468567,1.341560125350952,3.490905523300171,-0.6663820943332842,0.6647748076977662,0.3362093157696638,-0.0311909404199037,2.5340209007263184,-0.6931296586990356,-3.3840866088867188,-3.6887902200400826,0.8702265447542071,-0.722723322674632,-0.1234519109129905,0.0849752351641655,-2.1089530782930552,-0.3414671123027801,0.2668704282001592,0.5645421643121168,225
1724756589134631700,6.544503476285934,-0.8017857534736395,2.507295247633755,1.7542483906269073,-9.416366487821936,-2.103572408168018,-1.6285171508789062,0.7699859738349915,2.985100269317627,-0.6237440390822433,0.7486394835812024,0.2163129001588166,-0.060753019934629,1.5724726915359497,-0.7938433885574341,-3.291630506515503,-2.5014222639471293,3.33192616238296,-2.4817747296690937,-0.2602615356445312,0.128086432814598,-1.4487667296826838,0.1414853036403656,0.6179837220445275,0.4144374910298735,226
1724756589174400300,8.5300880951941,0.1467132407456636,2.9588053819298743,0.7621078230798244,-9.420354096153378,-2.616584474392236,-1.2697389125823977,0.5504270792007446,2.57312560081482,-0.6003897811219491,0.7783304571367837,0.1661637358753994,-0.078252525494979,1.1500548124313354,-0.7410423755645752,-2.893472194671631,-1.6624685170739888,4.325156863254309,-3.136271196074784,-0.2285863161087036,0.10915207862854,0.2654668815451674,0.2039243727922439,1.0601135221201925,0.0784049715372733,227
1724756589214169900,10.482215850180388,0.1516466054946184,3.070803283125162,-0.0240438832405721,-9.325778454402087,-3.033094899238646,-1.005205154418945,0.551766037940979,1.9244872331619265,-0.580455034037626,0.7994918447703028,0.1243285787776432,-0.0917996184091331,0.6816437840461731,-0.6373730301856995,-2.200358390808105,-1.174185233914852,5.508605015555024,-3.665956164680421,-0.1823793202638626,-0.0440831258893013,2.390948649709672,0.14678455889225,1.5962990317262709,0.0657964690505527,228
1724756589253938400,11.312593491888046,0.3637222529888153,3.718457336290181,-0.5416790655210614,-9.206256587442756,-3.3349361578539014,-0.5429745316505432,0.5572948455810547,1.2818516492843628,-0.5659118575347775,0.8132784169321895,0.0928043043359295,-0.0985357550300224,0.4199908375740051,-0.3411037921905517,-1.2297024726867676,-0.9530214400798082,5.869542606261372,-3.933096696792543,-0.1369317471981048,-0.395456999540329,2.123457988985628,0.1478581577539444,1.6396249632336195,0.2640125728173181,229
1724756589293707000,12.170704359173774,1.955890906912088,3.9370588784217833,-0.7678705513250083,-9.154507110983133,-3.431582468399405,0.093264490365982,0.7877302169799805,0.2985462546348572,-0.5619067141508153,0.8185050670674054,0.0707917384804455,-0.0964305014522349,0.0292872637510299,-0.115552045404911,0.065094955265522,-3.24938173468709,5.549257928460836,-4.292053927336633,-0.051396545022726,-0.6436477303504944,3.06786927549988,0.0802176743745803,1.6448840528056023,0.3606824834341183,230
1724756589333476900,11.750082407355308,2.2926935887932776,3.4042335659638043,-0.4920975076850503,-9.22495368912816,-3.2906586247101424,0.8401147127151489,0.7309182286262512,-1.1441210508346558,-0.5709587199848616,0.8142901843528714,0.068617778132476,-0.0789250693317459,-1.6403733491897583,-0.3870088458061218,0.987647294998169,-4.064190051341057,6.781676740157604,-5.156837988775968,0.0608027167618274,-0.3801195919513702,-0.40656080283802,0.0162751022726297,-0.0788466326238587,0.2551798625422641,231
1724756589373245400,9.98516649224162,1.583468045595288,1.6469664120376108,0.18600105757704,-9.375546986177564,-2.869654980097711,1.378461241722107,-0.0192686207592487,-2.1736323833465576,-0.5922450791198794,0.798983608862878,0.0890891418655593,-0.0541678083807749,-2.2931456565856934,0.3295254409313202,1.6515815258026123,-2.686076820552349,6.022889001411199,-3.53705827434957,0.0680371224880218,-0.187262088060379,-0.0551325384600786,0.1016356274485588,-0.445035093063116,0.2440467846366576,232
1724756589413650000,8.874435201105475,-0.0421101259768009,0.6568192102648317,1.1230025975577531,-9.455986550548673,-2.3438329705305394,1.4341397285461426,-1.2379683256149292,-3.179359674453736,-0.6158000195819446,0.7748674397229814,0.1381400612363166,-0.0358893071787527,-2.1719400882720947,0.5593092441558838,2.296138286590576,-2.7811872998327014,5.518464146268367,-2.328689615803957,0.1124232187867164,0.0883135721087455,0.277080034585297,-0.1377781182527542,-0.4554823258627206,-0.4260192808173597,233
1724756589454024700,7.866960286304354,-3.3889690690755843,0.7632011712744832,2.37453629796058,-9.304638635739684,-1.988883075931668,1.0374220609664917,-1.926843523979187,-4.197157859802246,-0.6310298304112509,0.7449982836636398,0.2153656736580609,-0.0199121338114892,-0.8881890177726746,0.4811249375343323,3.043787240982056,-3.884505684363842,3.4304894124656915,-0.5134878670424222,0.1968254446983337,0.0980997309088707,-0.0273409976903581,-0.3159460425376892,-0.4685424811070784,-0.1732375837243162,234
1724756589493793500,5.773189433443546,-6.113875094237923,1.830076954071224,3.8679616690590977,-8.807987921729683,-1.904896632733941,0.7141749262809753,-1.5655416250228882,-4.713163375854492,-0.6347086147010609,0.709818512261849,0.3054183620489258,0.0047328875169615,-0.7358615398406982,0.5463992357254028,3.574206590652466,-3.773532450041175,2.5278090433523057,-0.4551939373753965,0.2209775894880294,-0.0352463573217392,-1.0401342716697604,-0.4379163980484009,-0.3892363046800717,-0.2506529414360411,235
1724756589533563100,3.0229233415752645,-6.7547261893898245,2.2328528680756685,5.387307955616712,-7.975448718073964,-1.8813541368439792,0.6477410197257996,-0.6617938280105591,-4.811436176300049,-0.634161557473743,0.6679344958735691,0.3870218022627276,0.0437796089014733,-0.5723453164100647,0.4021113514900207,3.7213001251220703,-3.6019349434077736,0.5042147195234894,0.6556009205162525,0.2374132126569748,-0.0909835323691368,-1.4806522526346146,-0.4833785891532898,-0.438923295651935,0.0083153410456667,236
1724756589573331700,0.8132277694642543,-7.55892368018031,2.000227038375288,6.789408795714378,-6.852822991004586,-1.7643975903280078,0.8373039364814758,-0.2497939020395279,-4.82204008102417,-0.6337686214812752,0.6173081734845521,0.4570447056327718,0.0915311389734325,-0.5361174941062927,0.2185808718204498,3.5630640983581543,-2.007739752092957,-0.9241947201766072,0.955007572395727,0.22862508893013,-0.1268902122974395,-1.8273342312343417,-0.3863144516944885,-0.4395548350211232,0.5613330295398831,237
