frame,pose_x,pose_y,pose_z,ori_x,ori_y,ori_z,ori_w,phone_acc_x,phone_acc_y,phone_acc_z,phone_gravity_x,phone_gravity_y,phone_gravity_z,phone_gyro_x,phone_gyro_y,phone_gyro_z,phone_ori_w,phone_ori_x,phone_ori_y,phone_ori_z,watch_gyro_x,watch_gyro_y,watch_gyro_z,watch_acc_x,watch_acc_y,watch_acc_z,headphone_gyro_x,headphone_gyro_y,headphone_gyro_z,headphone_acc_x,headphone_acc_y,headphone_acc_z
0,0.018101,0.270355,0.276001,0.001732,0.057353,-0.708905,0.702966,-0.255840719337482,22.669902908337114,-9.087013537424802,-0.1567100994292646,9.606779169562458,-1.963573862630129,-1.6687252521514893,0.1792384833097458,0.098753422498703,0.2832613356159522,0.3356628198292782,0.6981725248134834,0.5653747722654362,0.9204148054122924,0.5238840579986572,-1.077152967453003,17.69549420133233,-15.540300034737584,9.597501638129351,0.0372752770781517,-0.1168780103325843,17.544292416995763,0.7860054969787598,1.0947370917338877,1.5169237355858087
1,0.019933,0.263789,0.275767,-0.000915,0.053179,-0.711421,0.70075,1.1815081241488457,15.176592979317904,-4.894829558855295,-0.169509119519405,9.722206460684538,-1.2729329006537795,-1.698271870613098,-0.0614699274301528,-0.2171692103147506,0.2935786606113655,0.3227322156120966,0.6787823139998981,0.5906861273926707,1.1953903436660769,0.7545515894889832,-1.458549737930298,11.498726304352283,-13.153407236289976,4.310581225413084,0.0956590473651886,-0.44258514046669,14.939632481414078,0.2862845361232757,1.0467182531699537,0.860858339362964
2,0.023294,0.243402,0.275698,-0.010942,0.043258,-0.712618,0.700132,0.7656647849090397,1.853409606602788,-0.9857365457236766,-0.3121133175110444,9.779417709681391,-0.6602765111118555,-1.2823147773742676,-0.1691589206457138,-0.3607041537761688,0.3099487156988473,0.3106365718817753,0.661188062962793,0.6084957716093196,0.918204128742218,1.0798677206039429,-1.3066034317016602,3.114799076718092,-4.488964446663856,-0.5019891524285077,-0.0151839889585971,-1.3075230121612549,5.451872489985823,0.046991016715765,0.8999251521211117,0.8816610350254923
3,0.026415,0.168537,0.271979,-0.03758,0.017345,-0.710004,0.70298,-1.4734968279220162,-9.556175940528512,-0.9457844745635986,-0.3103333387590944,9.801133866927026,-0.1090106198796536,-1.8887039422988887,0.2485484778881073,0.2857230305671692,0.3181865405900642,0.3015157997958358,0.6439302890394752,0.6270562061130254,1.9668240547180176,1.0830293893814087,-0.9890363216400146,-4.912119716352224,1.9062649984776967,-1.5542553951144218,0.0127943353727459,-1.2594470977783203,-8.673183145442605,0.3382484316825866,-1.6277096306428311,-0.6707900871459395
4,0.027552,0.120379,0.271952,-0.04565,0.006503,-0.70953,0.703165,-0.0850695439930073,-13.744195200634,1.9209364979088304,-0.2209393008967861,9.78747709749639,0.5717268516518176,-1.1774708032608032,0.1357256919145584,0.1623494029045105,0.3216014252051227,0.2894006594411584,0.6221714407040149,0.6524741602100198,1.499690055847168,0.7335057258605957,-0.7701871991157532,-9.956600907492636,6.241281576967239,-8.097063173398375,-0.2624854445457458,0.3119477331638336,-10.181951631623503,0.1772298216819763,-2.3550934924744067,-2.2771856385380027
5,0.027333,0.071718,0.272563,-0.049935,0.003277,-0.708766,0.703667,-0.0843838267511688,-14.776187301576137,1.1899907058119774,-0.1800258556249551,9.77440075830221,0.7740024782087653,0.0745370537042617,-0.2803268134593963,0.0583297759294509,0.3250241282825259,0.289050345570806,0.6139924693567607,0.6586520506537813,0.0203566439449787,0.3438688218593597,-0.0876291245222091,-11.1343447106719,6.380096173417567,-10.164368044137952,-0.2356995046138763,-0.1885259747505188,-7.77535927644968,-0.3949547410011291,-0.9741839820306748,-1.066950893859565
6,0.025775,0.031484,0.27237,-0.057105,-0.003113,-0.706552,0.705346,-0.2420829554840922,-14.489278239154816,-1.4857541058182715,-0.149967502434412,9.782127553161978,0.676663655354455,0.2873933315277099,-0.152838259935379,0.1248468309640884,0.3253831587496427,0.2942539628409393,0.6155602004557104,0.6546953717350501,-0.2103636562824249,0.2612414956092834,0.3634474277496338,-10.740299800133704,4.737659806025028,-9.13737302083075,-0.1703136414289474,-0.2698414921760559,-9.50197965543866,-0.0112519236281514,-1.1215823554962874,-0.5927350798238068
7,0.02477,0.005787,0.27533,-0.060036,-0.010579,-0.702658,0.708912,-0.6226536866169422,-12.88663144583702,-0.6562398760069161,-0.0682229381456505,9.79002912006676,0.5666069513548165,0.5010837316513062,0.0020545583683997,0.231105774641037,0.3219941986693543,0.2996017782659322,0.6175353106481128,0.6520801939195572,-0.2986280024051666,0.103901021182537,0.561659574508667,-8.781638843986391,4.845281391832232,-8.031825854334235,-0.3312674760818481,-0.3871424496173858,-9.90470939221382,0.0808330178260803,-1.5896851665444671,-1.2532184386193752
8,0.024068,-0.004291,0.274675,-0.07219,-0.028057,-0.703807,0.706156,0.2727941374270245,-11.079539938294888,0.5797299792349339,-0.0384615723074181,9.804327694532274,0.2099074731422588,1.1330314874649048,-0.0062034525908529,-0.0599339008331298,0.3155153528836191,0.3063681384253379,0.6288372292823364,0.6412116056541193,-0.7457786202430725,0.0164951663464307,0.7721861004829407,-7.800445202389359,5.015552033776045,-8.364548573425411,-0.3522567451000213,-0.5136075019836426,-9.37357597836554,-0.1561796218156814,-1.7528849933192132,-1.3128316341914237
9,0.026158,0.001416,0.277112,-0.076139,-0.024526,-0.709046,0.700611,0.7326533266671001,-9.7397099686712,-0.3075929540097713,-0.0627256559036206,9.804052969244122,-0.2167373922275379,1.0706217288970947,0.0439631976187229,-0.0530063994228839,0.3089902644424417,0.311787128495986,0.6433034419738918,0.6272753564271685,-0.6940554976463318,-0.0894189104437828,0.7731244564056396,-6.973484675648808,4.369644824278354,-5.416252310550212,-0.0513742826879024,-0.3979717195034027,-9.651876202395558,-0.2108231782913208,-2.176617186112702,-1.0784740122623742
10,0.026783,0.008367,0.281552,-0.071534,-0.013704,-0.71124,0.699166,1.323244161003828,-5.721529388833045,-0.7032452266793697,-0.0710764598466688,9.787930101960898,-0.6014455154260621,0.7008830308914185,-0.1179099306464195,0.0421374700963497,0.3041425531326915,0.3186561724853083,0.6550751343790349,0.6138664483149383,-0.6916362643241882,-0.1484076678752899,0.3701831698417663,-4.985933725103736,3.8230005375653504,-2.090748290169239,0.1099138855934143,-0.1407519429922104,-9.790654558488724,-0.196254163980484,-2.293156091738492,-0.8927912085879594
11,0.026832,0.009917,0.285299,-0.067685,-0.006415,-0.711727,0.699158,0.8684981135264038,2.864880313041806,1.1057517491579054,-0.0794591110995504,9.77874901663959,-0.7349496209107339,0.5287065505981445,0.0764139965176582,-0.0169036854058504,0.3021564331122166,0.3203697247220927,0.6594203841788285,0.6092861120070348,-0.809264063835144,-0.5232893824577332,0.60416579246521,-0.2144482218444347,-0.2790016502976417,1.4586451496183872,0.271991103887558,-0.4462296366691589,2.6439102882131933,-0.4829137325286865,1.637185168866068,0.8322445315580814
12,0.027336,0.002095,0.287362,-0.069422,-0.004007,-0.711526,0.69921,1.632832965005934,11.6738537386775,-2.0241561954952774,-0.127628555381624,9.759339382770657,-0.9536316078674048,0.2772884666919708,0.0275122541934251,-0.3171158134937286,0.2996498721544269,0.3216573202774392,0.6672018042579112,0.6013222081086259,-0.395547866821289,-0.5694172978401184,0.4687226712703705,8.551508484363556,-6.9325178744882345,4.783246083679795,0.7559251189231873,0.8367586731910706,15.570757132321596,0.0794520452618599,3.4820354753077027,2.95239785297513
13,0.023977,-0.038936,0.287223,-0.081368,-0.008316,-0.711763,0.697642,-0.0413652989588677,13.885354898905751,-1.2576000147044657,-0.248931816731859,9.738232881855964,-1.129269914324209,0.4735319018363952,-0.3953716456890106,-0.2573072910308838,0.3035403974847101,0.3236710065132673,0.6729144244419061,0.5918501108549101,-0.9813439846038818,-0.5202196836471558,0.5835394263267517,8.824877097210287,-6.723174866828322,6.000053484746814,0.7111955285072327,1.1039663553237915,15.544425590234994,0.50068199634552,2.419502690151333,4.043517557929456
14,0.021904,-0.067634,0.28811,-0.083843,-0.008732,-0.713629,0.695434,-1.4089724794328211,12.221377730834485,-0.2456909168481826,-0.2379390058134682,9.7063676710397,-1.3784763650126757,0.7323295474052429,0.0763738080859184,0.3559281229972839,0.3011965813100696,0.3304379220939978,0.6790386687675503,0.5822352695460153,-0.070879265666008,-0.3048518002033233,0.5979445576667786,8.029202520093321,-10.775212123560904,7.259331661796569,0.2178362905979156,-0.0293937548995018,12.310955710428953,0.132410928606987,1.7438472619913516,1.6863437520496547
15,0.018905,-0.08974,0.286695,-0.090776,-0.012097,-0.713766,0.694372,-0.2500236122902483,4.0258565212935205,-3.192501909601688,-0.0464085035907337,9.687832481917738,-1.5212325386956334,-0.1141168028116226,0.3326365351676941,0.408556580543518,0.289653333483311,0.3354218459540828,0.6819482820563861,0.5818417030505885,0.7798156142234802,0.1525509506464004,0.1464459598064422,4.444851748692989,-3.355486486190557,2.057445155504346,0.0478522442281246,-0.4367860853672027,1.953956577848643,-0.1126794815063476,0.2746791839886456,0.0027879542138514
16,0.015919,-0.09088,0.284314,-0.098531,-0.022407,-0.712008,0.694863,1.0670789041534066,-2.650160288518668,-1.100841765284538,0.0426335698955925,9.717394676488638,-1.3193971301868557,-0.7318615913391113,0.2472495883703231,0.0096763018518686,0.2869835965452375,0.3315523317071815,0.6762718255439302,0.5919205179677727,0.601188600063324,0.1720183491706848,-0.0779860168695449,-1.611728509917855,3.5078017847269773,-1.937981740733981,0.0012229542480781,-0.2548470795154571,-3.82990432560444,-0.1303208917379379,-0.3166686427278444,-0.8552873342975974
17,0.014202,-0.062985,0.285914,-0.090679,-0.011849,-0.71139,0.696823,0.235749989602901,-6.468305202746391,2.312111405968666,0.04586779344331,9.741328509783743,-1.129076802904904,-0.1803565472364425,0.1055400967597961,-0.0302944015711545,0.2881944126126637,0.3266918905833759,0.6714456828758744,0.5994807539328132,0.0978378504514694,-0.1376987099647522,-0.0900283679366111,-4.7161967467576265,3.97686423458755,-3.466743798151612,-0.0638686046004295,-0.1353652477264404,-5.553064919528365,-0.0413952320814132,-0.7664335042592137,-0.8794361985828727
18,0.01331,-0.009148,0.289285,-0.073549,0.001768,-0.711723,0.698597,0.8392425006866454,-8.071804813501238,2.3900679213523865,0.0463129844941198,9.740263510900736,-1.1382003128200768,0.2609555721282959,0.3591987490653991,-0.0299799609929323,0.2855820813854107,0.3241004604630709,0.6730460291269145,0.6003422227659385,-0.2232981026172638,-0.361249029636383,0.2457686215639114,-6.082229079130292,4.487245367786288,-3.861973534560204,-0.0630159080028534,-0.2484511286020279,-5.709241569668055,0.0987325012683868,-0.8118247707985341,-0.4773710266636684
19,0.012996,0.128991,0.300472,-0.03451,0.047497,-0.711153,0.700582,0.5765361881623045,-7.805950814068317,1.2970096495509147,0.0603214077734854,9.72041431657076,-1.2962617537930607,0.3264647424221039,0.0313256308436393,0.1240168735384941,0.2798871751982507,0.323908706115073,0.6790980074878487,0.5962987569774618,-0.0355889126658439,-0.2818107903003692,0.3562425374984741,-5.598656457880139,5.18124879193306,-1.4573027950987218,0.0418175421655178,-0.0918711945414543,-7.130734507977962,0.2575609087944031,-1.536717546466738,-0.8606737035110592
20,0.01492,0.187034,0.305433,-0.013797,0.069492,-0.714568,0.69597,0.4299245080949738,-3.096613431686163,0.477254085753113,0.1270267809630371,9.710894208553432,-1.3611626805096864,0.1040700748562812,0.1313072293996811,0.1674221158027649,0.2766325755882297,0.3270310371835636,0.6800372676815712,0.5950414557022933,0.0605245716869831,-0.2299320250749588,0.387431800365448,-3.3990134932279585,3.56717868732512,-0.4641314231991768,-0.0023027658462524,0.684310257434845,-4.237011546811461,0.1123968809843063,-1.7812861812867222,-1.6559775476194918
21,0.016261,0.229652,0.308435,0.004908,0.080313,-0.71253,0.697013,1.3351663617268203,9.854157601106166,0.5160078870393335,0.1821590134624391,9.694349316465852,-1.4686011648349464,0.6594347357749939,0.0494624599814415,-0.0062264292500913,0.2708091121570774,0.3278176307390005,0.6836764010030227,0.593114297187555,-0.3936844766139984,-0.7961568236351013,0.672041118144989,1.5121154585212468,-3.376150504034757,2.2365929313868285,0.1330312937498092,1.3210294246673584,7.7469000746846195,0.1628997325897216,0.8649133138421923,1.217152049786225
22,0.019054,0.255253,0.307427,0.007547,0.072898,-0.710755,0.699612,-0.3166447138629853,23.28712762870789,-5.636341168630123,0.1640143762943335,9.64691185798645,-1.7551574682958424,0.1108618900179863,-0.0004468502593226,-0.0829993709921836,0.2675779541423312,0.3324581165248142,0.6920691636637404,0.5821631271708605,-0.3475694358348846,-0.0278807114809751,-0.3067167997360229,17.733659973597526,-13.243477383315565,7.842468819126486,-0.0035096437204629,1.2939671277999878,13.467037132376433,0.53597092628479,1.1769970764651894,2.3704652491293845
23,0.021326,0.265637,0.306624,0.00789,0.067525,-0.71056,0.700345,0.3699031701134517,24.843917510735988,-5.795733273684978,0.1034003239835146,9.702317518866062,-1.42293407702893,-1.219752073287964,-0.0772589147090911,-0.1619999259710312,0.2741176899808408,0.3245518340762681,0.6835316758570197,0.5935571854195414,0.8900955319404602,0.1854673027992248,-0.8044591546058655,17.954616262161732,-15.689334411907195,12.342502356815338,-0.1217250227928161,-0.1421080827713012,21.46814226975441,0.520733654499054,2.085511996950954,2.722268954657018
24,0.025931,0.244561,0.305117,-0.003126,0.052424,-0.705958,0.706304,0.6637506900284439,14.699692090916631,-3.842568576866388,0.0326625306398374,9.766506205660104,-0.8858302835341543,-1.7034968137741089,-0.2218696922063827,-0.2514463663101196,0.2876463270127825,0.3171483195265608,0.6667696143647283,0.6099958418534441,0.6895533800125122,0.6150436401367188,-1.244480013847351,12.651410485076903,-10.971228032135963,7.790939707419276,-0.1446861922740936,-0.7351486086845398,14.195614441776277,0.4292799532413482,1.8457146681860088,2.6402307229176163
25,0.027204,0.215844,0.303616,-0.011693,0.0383,-0.703153,0.70991,-1.3840274232685563,-1.1695306861072778,0.2938005755007267,-0.0640157185470452,9.804667886272073,-0.1865106875996105,-1.7654591798782349,0.4947539865970611,-0.0374609716236591,0.2997237048898836,0.3012607870059691,0.6471099882278122,0.6329742138968404,1.4121509790420532,1.2692736387252808,-1.3859728574752808,3.755792210689187,-3.757755035194754,0.5212865580946207,-0.146261915564537,-1.405996561050415,-0.3149017426531761,0.2253036201000213,0.2808252489956095,0.4871881813988089
26,0.028698,0.175562,0.303078,-0.019823,0.025729,-0.703366,0.710085,-0.4259017553849145,-12.549912935107946,-0.8133885129839181,0.0126027154916839,9.793438636249304,0.5087259133376181,-1.8125874996185305,-0.0944613218307495,0.1186905279755592,0.3048797471616978,0.2902573249366991,0.6243499672607846,0.6580168815505626,2.5181427001953125,0.91640043258667,-0.760147213935852,-7.223267830246686,5.633349585598707,-4.715408226728439,-0.3569362759590149,-0.41725954413414,-12.469442975598572,0.1792965233325958,-2.6331112463012336,-2.120891791759431
27,0.031295,0.125165,0.305715,-0.025279,0.017078,-0.704974,0.708577,0.1863711147321388,-14.37371358538866,2.003381410752982,-0.0497519779328955,9.753201902928948,1.021243547108397,-0.3988571763038635,-0.3813730776309967,-0.31419837474823,0.31833954701431,0.2836589478561399,0.6061919427299196,0.6713633573184237,0.1685306578874588,0.2240619510412216,-0.7494370341300964,-11.53558274758458,6.947887877577543,-11.10877655417323,-0.2479065209627151,0.0892634242773056,-5.716780148479342,-0.0013717885594815,-0.0098608043639105,-0.2538075147431343
28,0.031889,0.074601,0.308802,-0.027034,0.014116,-0.702367,0.711162,-0.5218561746761202,-14.523720606982709,-1.3005407462865113,-0.1039282659809105,9.761952780139444,0.929439269766584,0.3616356253623962,-0.3708245754241943,-0.0389601588249206,0.3244347072048173,0.2885605174834711,0.6077372894497133,0.6649288136875339,-0.6022850871086121,-0.0371783412992954,-0.1256145238876342,-10.812289516067503,4.696922429706156,-10.492456673687697,0.0267217885702848,-0.4501583576202392,-9.508944818276166,-0.0451036617159843,-1.4134898107267917,-1.821868951565772
29,0.033108,0.01265,0.312843,-0.03628,-0.008576,-0.702852,0.710358,0.1233956396527588,-12.978551020121571,-1.397257491719723,-0.1189064019421115,9.767477681040765,0.867540593605861,0.230620339512825,-0.0143033880740404,-0.0988891199231147,0.3260130616841412,0.2909481351295697,0.6091936652427068,0.6617762050118363,-0.2030447572469711,-0.2096196115016937,0.2089057266712188,-9.344637468650935,4.19640334983021,-7.96066499044001,-0.0421576052904129,-0.0487032793462276,-10.049853191685676,-0.372475266456604,-1.88549372086674,-2.431991584846377
30,0.033162,0.005698,0.316986,-0.031138,-0.001866,-0.702795,0.710708,0.8696943375736474,-11.2788455360651,-0.2290196949671953,-0.1961757205129601,9.783518130737544,0.6439646240625531,0.8392734527587891,-0.139519527554512,-0.2903029918670654,0.326085600297935,0.2930111986754108,0.6175041531724422,0.6530707197747726,-0.7524484992027283,-0.2219967693090438,0.4140063524246216,-8.629132406792044,4.706704403530061,-7.734271479257941,-0.0918843820691108,-0.0462123975157737,-9.659371526587009,-0.3338470160961151,-1.5713145203344523,-1.543862303654849
31,0.033476,0.010668,0.316347,-0.040675,-0.005782,-0.705141,0.707876,0.5534902070850134,-10.698126545792816,-0.636763533577323,-0.2964127672931179,9.798055774655936,0.2839183196401223,0.9671114087104796,-0.2316285669803619,-0.1826502829790115,0.3265537294714481,0.2983277303189939,0.6297021194186228,0.6386222635468276,-0.9703134298324584,-0.4043527245521545,0.5047267079353333,-7.691213843297958,4.536657633469998,-5.952469311273098,0.090787149965763,-0.3127335608005523,-9.128453801316022,-0.233388602733612,-1.3178377719156444,-0.8906640603661536
32,0.033991,0.019643,0.315138,-0.047806,-0.008711,-0.708208,0.70433,0.1218192937141284,-10.380554634082316,-1.6263257750689983,-0.2946508539208211,9.802055073425173,-0.0573965561356162,0.6990478038787842,-0.1355077028274536,0.1854142099618911,0.3236393343939785,0.3064615832232601,0.6395371044141946,0.6263635005984701,-0.6468061804771423,-0.5255482196807861,0.564532995223999,-7.420053554150462,3.6659552878975865,-4.76065080551207,0.3872437179088592,-0.4884383380413055,-9.403745491179825,-0.2482795119285583,-1.8904213865272697,-0.8635551041662692
33,0.033261,0.026395,0.315926,-0.04429,-0.002455,-0.709624,0.703183,0.7185688333436846,-7.637079517528414,-1.7123486925303937,-0.2415243717532604,9.800990074542163,-0.2294979800034314,0.532925546169281,-0.1755283921957016,0.0495325736701488,0.3204345222543919,0.3122631911676473,0.6435781539515812,0.6209836685684385,-0.7209816575050354,-0.2032154649496078,0.3247815370559692,-5.603870977658033,3.2826071279406546,-2.498904728168249,0.3233231604099273,0.6129103899002075,-9.807575882673262,-0.2220491170883178,-3.012089812871813,-1.5631215692676603
34,0.030952,0.016177,0.312294,-0.05228,0.003271,-0.708118,0.704148,0.7052345738656819,6.03926204406321,0.5548982837846502,-0.3134836194835603,9.796288180461524,-0.3238584446340799,0.376041442155838,-0.1779702305793762,-0.1270264983177185,0.3220655401552786,0.3123407364825966,0.6472676802009272,0.6162481412459908,-2.0762925148010254,-1.3136204481124878,0.9330334067344666,3.0624247463583942,-3.420342696982622,4.356556794646382,0.3048306405544281,0.5186801552772522,1.041124013359472,-0.1697619557380676,-0.2334203045463189,0.3071154361585155
35,0.029906,-0.004404,0.306926,-0.065856,-0.003838,-0.706707,0.704424,0.9534392271004616,15.047996994543077,-0.4912941554129123,-0.2963805089913308,9.779874221277236,-0.6607657559335232,0.8587602376937866,-0.2289535701274871,0.1254522055387497,0.3197803108387356,0.3223947308206381,0.6555542050561526,0.6033663334319888,-0.2936180531978607,-0.1064824759960174,-0.1560122370719909,10.569254666686058,-10.296247872889042,6.273233881545067,0.106561355292797,-0.5431291460990906,8.395708266320824,-0.5346806049346924,2.552655023056269,-0.99503687351048
36,0.02935,-0.03465,0.300718,-0.080888,-0.016814,-0.706796,0.702577,0.4717568035110831,14.671262115246057,-2.6625977452874183,-0.2920419500640593,9.780269942596554,-0.6568131458502262,-0.6608566641807556,0.0974765121936798,-0.0726292878389358,0.321601523620799,0.3245277538891644,0.6543469170997305,0.6025647046631517,-0.0337992683053016,-0.1361843943595886,0.2657378017902374,11.605006412422656,-8.079612856903672,6.64059653686285,0.1979228258132934,-0.0490482784807682,18.36767333168387,-0.4899123907089233,4.0407758580058815,0.7954401107739657
37,0.028523,-0.066064,0.294334,-0.093495,-0.03399,-0.703555,0.703644,-0.6675601653140038,10.934318981933592,4.361784173905849,-0.2480724416898563,9.78091233215332,-0.665286375163123,0.7929571866989136,0.2816697657108307,0.2837802767753601,0.317752437479197,0.3235853885153966,0.6551432364968051,0.6042460271250899,0.2048109024763107,0.1956552267074585,0.1588236689567566,6.966735201388597,-6.860494256284833,4.561752034977078,-0.1827685087919235,-0.5210735201835632,7.29625707861185,-0.0707324668765068,1.2334883406244217,1.3131957913286982
38,0.028788,-0.082986,0.289152,-0.09821,-0.049919,-0.703039,0.702566,1.0606504054758696,1.0454431186676023,-1.5064076022684574,-0.1242181715494021,9.764825120705366,-0.8961733983721584,0.0061712688766419,0.1381497234106063,0.2210152149200439,0.3074574799054966,0.3285751510620512,0.6616120431380081,0.5998147043157941,0.7426365613937378,0.4388763904571533,-0.1647310256958007,1.4908511366963386,1.596042280486226,1.2910121627017854,-0.2669254839420318,-0.3206748068332672,-0.1770071653909049,0.0695092529058456,0.0041924604208907,0.1484221909548621
39,0.026145,-0.016082,0.290246,-0.062184,-0.036203,-0.709605,0.700916,0.7649705920998007,-5.230331679531932,0.2647603589773178,-0.0826230276237241,9.77736954497993,-0.7527277811203151,-0.4577287435531616,0.1671196818351745,0.0180382058024406,0.3071363915487193,0.3261473662748594,0.6572718861907929,0.6060435671172115,0.2612488865852356,0.0580112934112548,0.3386019766330719,-5.207080567803978,4.345453216829895,-2.9476845607176423,-0.1769115477800369,-0.3652527928352356,-4.498473741026222,-0.0886461660265922,-0.6178881527155637,-0.5349169144423678
40,0.027806,0.055343,0.295751,-0.051685,-0.009342,-0.712137,0.700073,-0.1379790680747945,-8.088748934039472,2.501062782984972,-0.0870760432435199,9.781449507769942,-0.6971818349871785,0.1956259161233902,0.3362608850002289,-0.0806036219000816,0.3050229986711067,0.3216981629492921,0.657310181365972,0.6094379837484821,-0.091043122112751,-0.1035718992352485,0.5373995900154114,-6.056435297182202,4.677532377320528,-4.519183643838763,-0.0544773004949092,-0.1057420969009399,-5.27569233173728,-0.0779265165328979,-0.8518486650858074,-0.2051312169174663
41,0.030089,0.127127,0.306228,-0.02592,0.022092,-0.716601,0.696651,0.0130536524383351,-9.250961406087876,2.662224820321798,-0.1145080482521559,9.76466729979515,-0.8991949381504207,0.8435338139533997,0.3073399662971496,-0.0581983588635921,0.2984887092355976,0.319446673690005,0.6661831614172408,0.6042005817853755,-0.6744463443756104,-0.3630909323692322,0.8745734095573425,-6.372052567693591,5.888538983154296,-4.806979425966739,0.0101763559505343,-0.1911264061927795,-6.232347744405269,0.1066004708409309,-1.1355319703936575,0.1821015659204684
42,0.033914,0.186555,0.313417,0.001189,0.035661,-0.719816,0.693248,-0.4253171604299917,-8.649534558829664,1.61654540868029,-0.0710309265047777,9.71824749392569,-1.3118841242082415,1.1745871305465698,0.0744300410151481,0.1697746217250824,0.2880877198382149,0.3246325144513951,0.6793387996176299,0.5917078165379073,-0.7884882092475891,-0.4801914989948272,0.8741676211357117,-5.615730926799774,5.318452446055412,-3.1473364877074954,0.0924970731139183,0.0277124270796775,-7.221982466611266,0.2651208043098449,-1.977743988410384,-0.4385903008379042
43,0.037545,0.230008,0.316837,0.01898,0.044468,-0.717463,0.694917,0.9463024340230972,2.138067090705037,-0.1508640768148005,-0.08468923943853,9.64215443432629,-1.7866437627971172,1.249164342880249,-0.4148170948028564,-0.1626527160406112,0.2814207798351095,0.3322781832330619,0.693314277295392,0.5742028956659223,-1.673048734664917,-0.6240944266319275,0.7621258497238159,-0.7018728423476219,1.9494038829803464,0.6865601224035024,-0.0403953306376934,1.1724486351013184,-0.957460226244852,0.2066776603460312,-1.133812087798491,-1.2834729993686078
44,0.046281,0.273898,0.306145,0.005416,0.029038,-0.716067,0.697406,-0.7580813440427183,22.607810317039487,-4.782690203362703,-0.0881193052187561,9.572804419246316,-2.126976080109179,0.5268080830574036,-0.0669964030385017,0.3516356348991394,0.2807940937966887,0.3435966735000559,0.7002763193374384,0.5592039592237398,-0.4997270107269287,0.7067532539367676,-0.1614743918180465,22.30522905371189,-16.62178711121082,10.00849709894657,-0.1318720430135727,0.6317865252494812,13.80378486919999,0.8112087845802307,3.1181247140094634,1.3905315444655717
45,0.049636,0.276149,0.301857,0.001326,0.021449,-0.716271,0.697491,3.567289454223215,31.291963184785843,-13.854785573118924,0.0561851482189726,9.626740007573366,-1.868984192353487,-1.954517245292664,-0.828774094581604,-0.0144444685429334,0.2868390119779491,0.3518954361156142,0.6866303757065616,0.5678306776546076,0.0592931248247623,0.1086142286658287,-1.03099524974823,21.72724445683956,-18.38970396170616,10.613477254772183,0.4990687966346741,-0.2285015434026718,28.938837046861646,0.4505015909671783,5.423129210582375,2.2585781148321926
46,0.052055,0.266494,0.29877,-0.002966,0.016649,-0.716141,0.697751,-4.596386710506677,20.193056867241857,-3.3949639255762096,-0.0474666069420753,9.720697225165368,-1.2946788685157895,-1.322163224220276,0.7753909230232239,0.0594070143997669,0.3013057759561367,0.3408251787418153,0.6707074231240023,0.5858366977735459,1.5647505521774292,1.3547157049179075,-1.3700717687606812,14.096446796059608,-22.952993873775004,3.576855739469826,-0.1693413406610489,-0.4763150811195373,16.918837628418206,0.0314587093889713,2.5865008862957355,1.956092859224975
47,0.053825,0.244912,0.296577,-0.009217,0.014754,-0.715264,0.698638,1.9432314779557287,-3.4475106898933645,-4.02149423443079,0.0414119145795702,9.79618647365272,-0.4510235198229551,-2.39837384223938,0.1395598948001861,0.2154800444841385,0.3051959087763359,0.3223100686525679,0.6473886159633944,0.6195641913145469,2.411923408508301,0.916461169719696,-0.5507505536079407,-1.10870884539783,-0.6707347767621278,-1.5545079085707665,0.0627264007925987,-1.40655255317688,2.266698877445608,0.25706747174263,1.1606065712217242,1.6762075579605995
48,0.054199,0.213297,0.295018,-0.016679,0.019276,-0.713009,0.700691,-0.9865212663605808,-13.417473183262349,2.122437559896708,0.1451089930199552,9.801330850803852,0.2885232926849275,-1.566835641860962,-0.6564013361930847,0.0560881160199642,0.3189020342400747,0.3188573263297627,0.6193701732152406,0.6426601836479995,0.6819937229156494,0.5596998333930969,-0.6892939209938049,-9.295670900908112,9.90154362165928,-7.522803734529018,-0.0304674226790666,-0.5346341133117676,-12.010664603865148,0.4105145335197449,-2.8376442233309147,-0.8888676054034381
49,0.053118,0.172181,0.293943,-0.024747,0.025034,-0.707932,0.705403,-0.8063704509153962,-13.852579587507249,5.166787720382214,0.0800296409965027,9.778396549940108,0.7395576992280781,-0.4034007489681244,-0.1010417118668556,-0.2402136027812957,0.3335424792605505,0.3142146335228485,0.6029612058169797,0.6530362684208222,-0.1616464555263519,0.0508429668843746,-0.3612417876720428,-8.967970978415012,8.989448066207766,-9.213546159929036,0.0498498305678367,0.02217279933393,-5.602785520508885,-0.0410477891564369,-0.3572009614612907,-0.5288604274149984
50,0.049208,0.076691,0.297734,-0.034455,0.025028,-0.693355,0.719337,-0.3614711495937779,-12.38360125992298,2.439870939919353,0.0372062909997184,9.790530639848113,0.5608121474709361,0.9216631054878236,-0.0246774591505527,-0.009454883635044,0.3321531115780163,0.3159903307588282,0.6095544676188546,0.6467362641864352,-0.4972438812255859,-0.1826206594705581,0.1769526004791259,-8.929634525758027,5.972860357394814,-6.1420864587217565,0.1080104410648346,-0.1732208728790283,-9.459772498828173,-0.068526804447174,-2.016589559633285,-1.2419554324574769
51,0.049113,0.039576,0.296767,-0.042863,0.01792,-0.689764,0.722542,0.8143335387490689,-11.992386604374646,-2.4439830514132974,0.0435387477075448,9.802739548557996,0.2734896819431334,0.486698180437088,-0.1647232919931411,0.0146225746721029,0.3288997577292216,0.3225999417127576,0.6180494999021193,0.6370000817533785,-0.6543253660202026,0.0108155496418476,0.4213983416557312,-8.423004269525409,5.778272435796261,-4.474673763243854,0.0290048662573099,0.0315897986292839,-10.00001451728344,-0.2551342248916626,-2.6943513124227523,-1.884401103324443
52,0.050939,0.015927,0.298316,-0.03982,0.012988,-0.692636,0.72007,0.7527674555435776,-10.709144783413407,-1.0648106669604778,0.0492900595095707,9.805784323081374,0.120746860443335,0.365870714187622,-0.0122595354914665,-0.0062378086149692,0.3274199285699983,0.3265449363174706,0.6222636324142862,0.6316270283073718,-0.5837928652763367,0.1196133494377136,0.6245103478431702,-8.071255947446822,4.73202326144278,-4.632859707379341,-0.0120749985799193,0.1431524753570556,-9.571823006993531,-0.4380609691143036,-2.393427314782888,-1.742499500644207
53,0.053175,0.006833,0.298874,-0.03633,0.017874,-0.695696,0.717195,0.9162759829413144,-10.12004374924302,-0.8027391086757183,0.0313790187514969,9.806552969366312,-0.0302937556818826,0.2811193764209747,0.2652560472488403,-0.0850366204977035,0.3240186054590938,0.3270327550235049,0.6281672777651625,0.6272697976957264,-0.3939888477325439,-0.0259010773152112,0.5730329751968384,-7.274568978416919,5.553585144010186,-5.075404737192392,0.0471262075006961,0.1143300309777259,-9.51995954876542,-0.5097028613090515,-2.201808472122997,-1.2757516113363203
54,0.055163,0.00966,0.294609,-0.048354,0.006317,-0.695017,0.717337,0.9364915994308888,-9.444227139171955,-0.4613163657784461,-0.0307352957541705,9.806200502666831,-0.0887514839087612,0.0592853277921676,0.6351262331008911,-0.2854214012622833,0.3190901812407219,0.3200052147841072,0.6341306874890579,0.6274204380675454,-0.5427314639091492,-0.352196991443634,0.4723230004310608,-6.884273775801062,5.285868273314834,-5.009470668035745,0.1077577546238899,0.1719070971012115,-9.952857629311085,-0.5235510468482971,-2.468912325486541,-1.1875528842058032
55,0.058823,0.029649,0.287004,-0.053887,-0.011777,-0.698052,0.713919,1.5128483028404414,-7.728651885810494,-0.3835106570422649,-0.1931945310113951,9.803677706190944,-0.1448605712168384,0.2955838143825531,0.4028794169425964,-0.5122483968734741,0.3163182483219508,0.3084352812488108,0.6420697089455246,0.6265437113085648,-1.0142452716827393,-0.5693636536598206,0.2199337482452392,-5.712590295574069,5.503265992614627,-3.791141171967983,0.1279413253068924,0.2620128095149994,-9.538212998336553,-0.5547307729721069,-2.4833289733737707,-1.2092373311389235
56,0.060518,0.040127,0.286272,-0.054471,0.013782,-0.703485,0.708486,0.957422159256786,-1.7087141354203224,-1.074185229027271,-0.3997228465767577,9.794531692183018,-0.2788380024348385,0.0853312909603118,0.089871235191822,-0.6621498465538025,0.3181482091145831,0.3010377901270241,0.6508402499285595,0.6201329925736327,-1.0706424713134766,-0.9852473139762878,-0.002696722280234,-2.0838170296013354,1.231075580394268,0.4052987104803323,0.8366872072219849,2.494142770767212,3.6473470335394143,-0.4876370728015899,0.5405212372554465,0.0621299550327938
57,0.060041,0.046326,0.285873,-0.056057,0.037996,-0.701914,0.709035,-3.638165655957162,10.681332062858342,2.146492973744869,-0.6242615602049976,9.779216049629447,-0.3842113161249086,0.8502980470657349,0.0716578215360641,-0.1844452619552612,0.3220349219514212,0.2935652663621909,0.6583378766325862,0.6137623422430558,-0.8593722581863403,0.0075924862176179,-0.0531051009893417,13.883870213305949,-9.84592519481182,5.155321154472231,0.2366471588611602,1.296879768371582,11.666290025424956,-0.1174174323678016,2.014107533559203,1.45366999155432
58,0.058779,0.050512,0.28349,-0.062009,0.035845,-0.699342,0.71119,-1.3747554447934032,11.412160950577258,-3.773919988054037,-0.5771177143773064,9.773981071585416,-0.5537487484233453,-0.3887025713920593,-0.3982572257518768,0.2330201566219329,0.3209566979855944,0.3011562142462355,0.6614667520257338,0.6072508603727514,0.1262947916984558,-0.1344448626041412,-0.0617969259619712,8.680492591673135,-6.067729429134726,5.5796694333374495,0.0697266235947609,1.266980528831482,11.645574569654464,0.5279024839401245,1.163294202870503,2.5875243841245767
59,0.058311,0.051509,0.280597,-0.071878,0.020336,-0.699378,0.710837,-1.250872752276063,13.072955981481076,3.4811142688095567,-0.4880658044835552,9.78643314140141,-0.3973827862566337,0.2616188824176788,0.2771011590957641,0.1974758952856063,0.3210144246894492,0.302046431928155,0.6550029284274138,0.6137498653105421,-0.2162170112133026,0.0389860942959785,0.3002116978168487,7.646432452285289,-10.625070661932227,2.2859996441125867,-0.2978846728801727,-0.3994344174861908,13.991230517828464,0.2835938930511474,1.5380666229881346,0.7552883523233235
60,0.05821,0.04698,0.277669,-0.09281,0.028245,-0.701218,0.706316,0.9013985126093028,8.088037570899724,0.8177309261023997,-0.4936360423639416,9.762531456810237,-0.7872050741311162,1.1802220344543457,-0.5905444622039795,-0.2051561176776886,0.3156629366536349,0.3088213182225746,0.6669075516546342,0.6001838332865961,-0.5991175174713135,0.5930034518241882,0.1883579194545745,5.811380924671888,-2.8716444003492594,2.92840410618633,-0.3816180825233459,0.0288416855037212,5.546913995683193,0.3203141987323761,0.2481826240660622,0.8187671372823416
61,0.057794,0.045137,0.275596,-0.106192,0.04264,-0.701152,0.703769,-1.1180805579204112,1.9039912083268165,-0.6467557891510427,-0.5232940985247493,9.73736428232789,-1.0393605108182875,0.2292121946811676,-0.0913151502609252,0.4290410876274109,0.3181040901538138,0.3182016941294475,0.6721163004563042,0.5880621463823236,0.3208576440811157,0.1788646280765533,-0.1069460958242416,1.2789268803715703,-2.1600427756696936,1.9610896445989607,-0.4898291528224945,-0.2383241504430771,0.8665072319701314,0.3111159205436706,0.1835859957919456,0.4467276857925579
62,0.058206,0.043195,0.273493,-0.120677,0.040993,-0.700583,0.702097,0.9278307385914027,-2.4563410132050514,-1.9862696785628795,-0.2366545006945729,9.764940271517634,-0.8719585561785846,-1.2045248746871948,1.1478341817855835,0.6340556144714355,0.3058983656557162,0.3183880590491097,0.6656474713811691,0.6016383033512485,1.851674199104309,0.129389226436615,-0.2068571746349334,-2.5565228044003248,-0.1614905386388301,-0.0547384291425347,-0.4322031736373901,-0.0693565383553505,-2.7797847395583988,0.2690326571464538,-0.2096768792567774,-0.1583783979676663
63,0.058211,0.042779,0.27333,-0.130318,0.048171,-0.698847,0.701648,2.317797927172482,-2.0727385862261056,0.838689542979002,-0.1805240509380586,9.79523604106009,-0.4372112675696611,-0.6296745538711548,0.8530033826828003,-0.2104404866695404,0.2957300053654405,0.2971332039484403,0.6587893673446473,0.6247017006176205,0.3396105468273163,-0.0129210446029901,-0.1657639294862747,-2.7914877445727586,3.634968613481521,-1.4340125204041598,-0.328844279050827,0.1001022383570671,-2.925291819384694,0.2532015442848205,0.0094720676245167,0.1914709220891818
64,0.057767,0.043526,0.274473,-0.13091,0.044955,-0.698465,0.702132,0.8615667068280279,-2.6422762572705745,1.0786977380156515,-0.2450597245388664,9.790464588874578,-0.5070818724576384,0.8359706997871399,-0.1420736759901046,-0.1065109744668006,0.2932285868057045,0.2922894117263524,0.6636421328540101,0.623027275190475,-0.2072149962186813,-0.0686663314700126,-0.1083909943699836,-2.506818570032716,1.0673556752681732,-1.7318910128682852,-0.2206136435270309,0.1758105605840683,-2.015928465376049,0.2642041146755218,0.105131394692976,0.3191774106783792
65,0.055488,0.046866,0.277612,-0.125563,0.045027,-0.695649,0.705889,-0.5689706848114728,-2.6808850971281526,-0.6291712518174201,-0.2007653681244701,9.76203695129156,-0.9125445413280278,1.0539714097976685,-0.4058587253093719,0.4149365127086639,0.28870840649931,0.3031491667656521,0.6742606367902759,0.6083755110327069,-0.5872515439987183,-0.0309069696813821,-0.0706109255552291,-1.2608154696196316,0.847721575218439,-1.6431424698352812,-0.1421961933374405,0.3919612765312195,-0.8886884494442492,0.152323380112648,-0.1364944829396903,0.1298291706984397
66,0.05476,0.047981,0.278865,-0.129662,0.05172,-0.694261,0.706056,0.4018386331543326,0.6662894877910613,-0.3581318125706166,0.0397419446738902,9.740705993971227,-1.1346529225368052,-0.0750603526830673,1.3049964904785156,-0.0754202008247375,0.2734585747051918,0.3099364557009563,0.6795517594028242,0.6061098247356358,-0.3148594200611114,-0.2173200994729995,0.1886633932590484,-2.156528630068898,0.2686065130114555,-1.5601330549761652,-0.0795425102114677,0.275296002626419,0.4219532004222273,-0.1303199827671051,0.1241988640607334,0.1147366511099506
67,0.055288,0.048276,0.278583,-0.144278,0.065311,-0.69318,0.70315,-0.4858137512404471,-0.064260582986474,2.924082443594932,0.04243741713583,9.760776722097397,-0.9464717992406336,0.0263153333216905,1.1403579711914062,0.1387985944747924,0.2581288361982444,0.2873388953480262,0.682417021353914,0.6205745917666472,0.6692323684692383,-0.2106606513261795,0.1026629284024238,1.020188265901804,1.2691957599520682,2.3302865296065804,0.0342732407152652,0.053842693567276,0.3366605699967592,-0.3654281198978424,0.230535122765135,0.2021913275406695
68,0.056175,0.048828,0.277601,-0.161187,0.076348,-0.697144,0.694392,0.3160477708831429,0.3638531858921051,-0.9688485392868518,0.1213428261756431,9.734739779043196,-1.1791993357498198,0.5930644869804382,0.6301082968711853,0.0580322034657001,0.2444218255970787,0.2844637213823617,0.6922447737623879,0.6165513575882821,-0.2988783121109009,0.0114775579422712,0.1915923953056335,0.9873708689272404,0.3080886285722256,-0.7302455348730087,0.1012792065739631,0.0380028039216995,-0.1496431475845631,-0.4020851552486419,-0.0134322411014058,0.1420063234300352
69,0.056482,0.049715,0.27759,-0.171529,0.083147,-0.698875,0.689375,1.929331985810399,1.0736813711583613,-1.634143316952139,0.0969105966380331,9.725815298831462,-1.2528145339936017,0.1054003909230232,0.4907800555229187,-0.3291386365890503,0.2348250633527937,0.2739918466503209,0.6991453593685948,0.6172370478804495,-0.0560329332947731,0.0133484825491905,0.0320000723004341,-0.1803501374095678,-0.8558335700035095,0.1722603544563055,0.1206821501255035,0.0929325520992279,-0.4429152878975495,-0.3898336291313171,0.1250367305238265,0.0546707387677626
70,0.056053,0.052595,0.279664,-0.165184,0.088442,-0.697691,0.691462,1.0320668466787786,0.5202244818210602,-0.4543943114303052,0.0213818837899714,9.717380647963283,-1.3200085400834678,0.1089894026517868,-0.3305477797985077,-0.0390612706542015,0.2372749433007856,0.27323051965662,0.7018880175226568,0.6135134995090802,-0.2306545525789261,-0.2642170786857605,-0.2096038311719894,0.0819774414628744,0.0113496615320444,1.8488669947370888,0.122921846807003,0.1417575180530548,-0.3807226337589323,-0.2704089283943176,0.219654174723383,0.1743675010696984
71,0.056075,0.054128,0.280117,-0.154528,0.079472,-0.699409,0.693276,0.3874322509327903,0.3129886755734682,-0.286221518548578,-0.0413204688698751,9.720062434393167,-1.299637075445056,-0.1139297410845756,0.0697558000683784,-0.3766400218009949,0.2418111770662531,0.2733165535797286,0.701114192572821,0.6125881818815541,-0.3098854422569275,-0.209776684641838,-0.1065356358885765,-0.3932797713845968,0.4488087663829326,-0.7210618192031979,0.1242373958230018,0.2088768035173416,-0.0878138833982404,-0.1505884379148483,0.2058109428099356,0.1465211796391289
72,0.053927,0.05596,0.280296,-0.139197,0.062571,-0.699287,0.69836,-0.7364845023278147,-0.48318566775918,0.6925333515942096,-0.125727270071255,9.72734791522622,-1.23826140024513,-0.0904506519436836,0.4916845560073852,-0.0898642167448997,0.2428933949034609,0.2667272157103,0.7014202412911611,0.6147105634664265,0.0772726535797119,-0.146194577217102,-0.1129256933927536,0.451900302657485,-0.3381839071065187,0.7856342446178197,0.1101186126470565,0.2717956006526947,-0.1117018043255433,-0.1232464462518692,0.0483382797766476,-0.065989374973881
73,0.052037,0.0581,0.281066,-0.121854,0.036788,-0.694691,0.707957,-1.1605325561374424,-1.0779442892998456,0.2604943720959127,-0.1251537262333091,9.728196056488157,-1.231642566627264,0.1505020558834076,1.3897433280944824,0.1154863387346267,0.2314204727879748,0.2535022732137123,0.7060686174275934,0.6193935348473403,-1.913468837738037,-0.505563497543335,-0.2391993403434753,0.1184060146719217,-0.1181120001614093,-0.7788166735574603,0.1434209197759628,0.2042297273874282,0.0885338043037801,-0.237975612282753,0.1324751094968058,-0.1292648330802563
74,0.05045,0.060182,0.280538,-0.117604,0.013239,-0.688117,0.715884,0.0805737030116375,-0.5249228687703609,-0.0082464348196983,0.1135062873310875,9.720154204329848,-1.2946481811165809,0.1525654047727584,0.9359095096588136,0.4398939907550812,0.2066844173709134,0.2443613734199489,0.7115449420958607,0.6255180985004688,0.3172562420368194,0.1017646342515945,-0.0304553154855966,0.8814414739906787,-2.380281271353364,-1.259203358247876,0.1528709530830383,0.2078424841165542,-0.1388862917133607,-0.2479667961597442,-0.0904176726884674,0.0562860924093751
75,0.050193,0.061626,0.279708,-0.123688,0.008489,-0.684479,0.718414,1.45614047332108,0.2023907043039798,-0.5930440727077424,0.2518232455907389,9.713643215000628,-1.3236637015901505,-0.0512031242251396,0.579288899898529,0.0297859590500593,0.1923175259163703,0.2388873335075239,0.714437478058169,0.6289084428969215,-0.6929899454116821,0.1332855373620987,0.018554039299488,0.0262058698803186,1.214329612776637,-0.2385825461477041,0.1353286355733871,0.2309589236974716,-0.0515473277839133,-0.2008382529020309,0.0049180963978753,0.0811290536057669
76,0.052125,0.06145,0.279268,-0.123027,0.01,-0.689525,0.713666,0.3566914775691926,-0.1989016931444406,-0.2180477076411247,0.2188145455614663,9.725131408220529,-1.2427150186531244,-0.2549901306629181,0.2677066326141357,-0.2553624808788299,0.1888088820668089,0.2305893973446554,0.7142754132431403,0.6332380465249434,0.1116135865449905,0.2223562896251678,-0.2085568755865097,0.4546194984883069,-0.7598767030268907,0.1235455695174634,0.0693984553217887,0.1193558946251869,0.1129608644759282,-0.1309761703014373,0.1334425480231642,0.0580306573546491
77,0.05685,0.060849,0.280213,-0.117264,0.003957,-0.693313,0.711021,-0.5484079353846609,0.2622843242526054,-0.3683668639242649,0.2087306661815382,9.736201083767414,-1.154645032468811,-0.1438180953264236,1.6265878677368164,0.1075403615832328,0.1796885726978971,0.2176314002535776,0.7151972354331665,0.6394071482728952,0.1211671382188797,0.1536092907190323,-0.1409000605344772,0.2107803469866514,0.5581856714248656,0.2876943675801158,-0.0132747357711195,0.0354452729225158,0.0570778547084191,-0.0886997506022453,0.0852909499250352,-0.0480385707442881
78,0.059386,0.060685,0.280958,-0.114578,-0.00288,-0.696804,0.708045,-1.5201275000631809,0.237200736400485,-0.9366236283127218,0.3623815059043467,9.740932203942537,-1.073907288868725,-0.1478444635868072,1.528635025024414,0.3488101661205292,0.1529906330419959,0.1976052347478671,0.7181268720715528,0.6494918981303186,-0.2929048538208008,0.0384794548153877,-0.0748105943202972,-0.5571066440165042,-0.0198906953841447,0.1493488499462604,-0.065589889883995,-0.0259232595562934,-0.0259572471478022,-0.1115007326006889,0.1270225066467188,-0.1451547135915141
79,0.061894,0.060919,0.282242,-0.110121,-0.007962,-0.699661,0.705893,-1.6347469819337128,0.0613321283191442,0.1301321083009242,0.6987636242859065,9.72870809766352,-1.0170343319155275,0.0437352135777473,2.4617221355438232,0.9313935041427612,0.1184734393134819,0.1835106145201751,0.7198459374111933,0.6588700734448878,-1.1544172763824463,0.0788925513625145,-0.1384969651699066,-0.0638899961084127,0.4394172531813383,-0.9951064316153526,-0.129343569278717,-0.080946534872055,0.0026334292307758,-0.1458807289600372,0.0625395176477963,-0.0462069074708735
80,0.065322,0.060206,0.282073,-0.108979,-0.007169,-0.70184,0.703913,-1.2721066789627071,-0.3590799801409244,-2.3699463398218152,1.2017770051956176,9.69541840700209,-0.8514516285922378,-0.4425320029258728,1.9707762002944944,1.0569690465927124,0.0698738728608609,0.1658432826417725,0.7182673310359007,0.6720904962460322,-1.0523988008499146,0.0681370571255683,-0.1571406871080398,-0.1470803204923868,-0.608241787970066,-0.2587307234242558,-0.1098086908459663,-0.1418601423501968,0.0767659904249012,-0.1761564463376999,0.2040761183739639,0.1098854938848875
81,0.066848,0.060787,0.282393,-0.108823,-0.006254,-0.703255,0.702532,1.1763334979899227,-0.3064841159850359,-1.982719146474451,1.5295631446674465,9.672599256950615,-0.5211668407050892,-1.1213843822479248,0.7744869589805603,0.3917024731636047,0.0453102733750178,0.160295010517106,0.7077270821261734,0.6865673597583895,-0.1527578830718994,0.0323908291757106,-0.1400733590126037,-0.145649410906434,-0.814599057817459,0.6214440916314721,-0.0563266277313232,-0.2435387372970581,0.1275984251048416,-0.1898277103900909,0.387542689037323,0.1943684701615944
82,0.068422,0.058808,0.284024,-0.111181,-0.012347,-0.703522,0.701814,1.6729114390246569,-0.7414993348151445,0.4096498914271593,1.5936774510510263,9.67606138010323,0.0664974066944094,-1.3968312740325928,1.4839527606964111,0.0068247164599597,0.0330633105503074,0.1468030741431732,0.6892448282691161,0.7087293614116206,-0.0546134710311889,-0.0581635721027851,0.0121577903628349,-0.4788660509943961,0.7499456761211156,0.3014537206023931,4.27879858762e-05,-0.3197583854198456,0.0231131554288323,-0.1976710706949234,0.3893514189597219,0.1154362050808966
83,0.068072,0.057565,0.283376,-0.115998,-0.018518,-0.702113,0.70231,0.2474276775129139,-1.6006892295092343,1.860008858737349,1.6080786091081798,9.650444123765826,0.6733554075893015,-1.178507685661316,2.1214373111724854,0.2840900421142578,0.0111239107451906,0.1223937892070796,0.671333142054927,0.7308952579310731,-0.0050243469886481,0.0775919184088707,0.0215504933148622,0.3440910853236913,-0.269963188317418,-0.226566529661417,-0.0070692971348762,-0.2660329043865204,-0.101060236263927,-0.2494963258504867,0.2723749804331921,-0.1214201200623996
84,0.067179,0.056725,0.283214,-0.117446,-0.025929,-0.699289,0.704648,-0.0802002026572823,-1.1215420234858988,2.748299175709486,1.717983775807917,9.56723684824705,1.2987993094466626,-1.1514989137649536,2.9402506351470947,0.7977073788642883,-0.0294253202728923,0.0909674148661465,0.6523071299288381,0.7519005215079987,-0.0836802795529365,0.2158576399087906,0.0035734907723963,0.4849152680307626,0.0035287586480379,-0.2093443228341639,-0.0461507476866245,-0.1305499821901321,-0.2136614919135347,-0.3382678627967834,0.1388078744485974,-0.3205254277538508
85,0.066653,0.053932,0.28324,-0.114773,-0.035268,-0.695123,0.708793,-0.1349041450083255,-1.0254133070737124,1.678622948539257,1.889105773884058,9.442977431371808,1.85252507885322,-0.7128063440322876,2.0206456184387207,0.8112300634384155,-0.0744842792760554,0.0640138459110774,0.6336006085443744,0.7674012277646144,-0.0473113469779491,0.2706867158412933,-0.0103638963773846,0.1885989103168249,-0.0745581051170826,-0.0471206476151943,-0.0830612927675247,-0.0151717513799667,-0.20560973941572,-0.4757817685604095,0.1295422252495307,-0.3465014709336683
86,0.065457,0.052267,0.283043,-0.11178,-0.056659,-0.694022,0.708963,1.0110077651023863,0.3601134148418903,-0.2404566694565117,1.91395832945928,9.385034945490956,2.1043423696272074,-0.264824628829956,0.1398416459560394,-0.2566672265529632,-0.0909051908962726,0.0527408475618302,0.6244411887338335,0.7739688515050179,0.148264542222023,0.1742907017469406,0.0137063525617122,-0.5094792159229516,-0.3991740901201963,0.3644990825802087,-0.1112991198897361,0.1256328821182251,-0.2310439856027253,-0.553899884223938,-0.0013108228744851,-0.1241102815949823
87,0.065988,0.050706,0.284726,-0.112546,-0.0641,-0.694984,0.707264,-0.3854398715391754,0.01551671808362,0.4493351283445954,1.790237695635855,9.404770158052443,2.1250303528688845,0.1642155051231384,0.2396728843450546,-0.1015606895089149,-0.0870026274873585,0.0477191820121539,0.6240003855938162,0.7750981059710744,0.0358216203749179,0.0989605337381362,0.0766625478863716,-0.6562976706087589,0.0768751498878002,0.2794492479346692,-0.1076783090829849,0.1375607252120971,-0.0845054164373781,-0.5377623438835144,0.1262274381457362,0.2077110042775981
88,0.065761,0.050079,0.284445,-0.116406,-0.067281,-0.696058,0.705285,-0.0313034852802753,0.5147247153609991,0.0750470576778054,1.842516895058006,9.401608479151127,2.094099646423757,0.1729024350643158,1.0504498481750488,0.6364002823829651,-0.1007978803636051,0.0399560171302064,0.625806798022731,0.7724047005695961,-0.0481547713279724,0.0192776918411254,0.1677322685718536,-0.6578700344920158,0.0064420157462358,0.1961684687882661,-0.0665521696209907,0.0984721332788467,0.0570180736454669,-0.4469455480575561,0.1546834524398669,0.3614745836598798
89,0.065748,0.049697,0.28442,-0.12006,-0.065369,-0.697474,0.703451,-0.0025640052691102,0.2274327911019325,-0.5148778600960969,2.066515327797085,9.337851754033563,2.1689720781870183,-0.2109179198741912,1.0286656618118286,0.9156453013420104,-0.1257500841136329,0.0350289580544675,0.6230458856152925,0.7712157905320591,-0.0419935472309589,0.0139897717162966,0.1728222370147705,-0.4003782052129507,-0.1629664564102888,0.0205213945031166,-0.0445200465619564,0.1370221525430679,-0.1360091105755418,-0.3461147546768188,-0.0396173090806463,0.2720878523211926
90,0.065835,0.048968,0.28728,-0.119056,-0.058541,-0.69927,0.702439,0.0958363093368709,0.2000941177994012,-0.5583955147832632,2.2617041378982363,9.245330706724523,2.361977845160663,-0.3755410313606262,0.5653851628303528,0.5512049794197083,-0.1465752711974927,0.0324792433137571,0.6152379578978294,0.7739141242064486,0.0179920233786106,-0.0486162453889846,0.0863882154226303,-0.1309311497241258,-0.0538601850032806,0.1606907665632665,-0.0451107509434223,0.181911751627922,-0.1275977401182521,-0.2827157974243164,-0.0490075208077207,0.1050371862040367
91,0.065452,0.049424,0.293324,-0.09553,-0.040825,-0.703074,0.703488,0.1599155444070696,0.0780272425323724,0.0910930603325367,2.398288929469884,9.169875945028664,2.516342185181379,-0.1897650957107544,0.4851681590080261,0.4752410650253296,-0.1616471902261172,0.0307372648951715,0.6088985737629059,0.7759948322710926,-0.1708002686500549,-0.0737200528383255,-0.0113676423206925,0.3701742056071758,0.4538590355098247,0.0486924269765615,-0.0760328024625778,0.1940097659826278,-0.0818084415715187,-0.2587172389030456,-0.0051267244758986,0.0082475245191977
92,0.065015,0.048299,0.297444,-0.08344,-0.032086,-0.705039,0.703511,0.1295452483236789,-0.1876519848555326,0.3664928867459296,2.5049741112098096,9.111889035484197,2.620872234714031,-0.1291484832763672,0.5917732119560242,0.4444612562656402,-0.1747867800612378,0.0283786084740067,0.6046216602355364,0.7765802692310996,0.0228845160454511,-0.1234536245465278,-0.0328073538839817,0.1844482203781604,-0.1986842510014772,-0.1164386601217091,-0.0862717404961586,0.1498375684022903,0.0290905516212922,-0.2649019360542297,0.1379102132228203,-0.0260523484025965
93,0.064608,0.047956,0.299713,-0.079807,-0.027019,-0.705209,0.703975,-0.0310939341828227,-0.5094055661648511,0.5345204259380698,2.598725869357586,9.053863547495007,2.728477453908324,-0.1151545569300651,0.5043840408325195,0.3728325068950653,-0.1881079786705314,0.0252176360175212,0.6002086597673809,0.7770001256864519,0.038574531674385,-0.1390270590782165,-0.0679427087306976,0.1481844823420047,-0.0627209523290395,-0.0645588352806866,-0.0524453110992908,0.1041037365794181,-0.016127205531625,-0.3273332715034485,0.166163316222839,-0.0678001370231621
94,0.06377,0.047617,0.300569,-0.084083,-0.027432,-0.701289,0.707369,0.1065501571834087,-0.2667155846983194,0.5212862658336759,2.656508196240664,9.023656625279784,2.77253637586534,0.055663127452135,0.1045353040099144,0.1375858634710312,-0.1958619201845424,0.0234884969923967,0.598404773213787,0.7765294790742194,0.0219438876956701,-0.0960782989859581,-0.1122066378593444,0.147878192871809,-0.2062386119037866,-0.386850615119934,0.0064698839560151,0.0824260935187339,-0.014221148148016,-0.3829171359539032,0.1653175678473897,0.0284229865240748
95,0.062916,0.045162,0.300839,-0.097757,-0.035667,-0.698861,0.707647,0.27880905033499,-0.2421381928026676,0.5340764815628528,2.682818403278291,9.033497051292658,2.7145558960616585,0.2560257017612457,-0.130793422460556,0.0009251874289475,-0.1965215290203404,0.02415502200914,0.6008433291112026,0.774456700767962,0.2368458062410354,-0.0149675775319337,-0.115297831594944,0.2060895588219165,-0.286002468970418,-0.2617880651682615,0.0499257072806358,0.0952922701835632,-0.0855843799136579,-0.4135239124298095,0.1007027006636839,-0.0412645374315557
96,0.061686,0.04319,0.300479,-0.108486,-0.048821,-0.698416,0.705736,0.2287318910017609,0.1029401499927043,0.006368950510025,2.686358560103178,9.06864785965085,2.5910402832910417,0.3086088895797729,-0.0772498399019241,-0.019941933453083,-0.1948016094846051,0.0245290194668521,0.6060462344643408,0.7708168557805922,0.1146144345402717,-0.047485414892435,-0.0853998586535453,-0.266194191172719,0.0667863020718097,0.1042205451920628,0.068459928035736,0.08551637083292,-0.049141394586768,-0.4002921283245086,0.2064655525274574,0.0523520226297667
97,0.061205,0.041737,0.302952,-0.105721,-0.044778,-0.699432,0.705417,0.1874310355812311,0.0897808086901903,-0.5374436199083924,2.695786313661933,9.085397334399818,2.5216382457628845,0.1064971461892128,0.2401973605155944,0.1165136247873306,-0.1968302787855828,0.0228811309007231,0.6090227327150429,0.7680009771532543,0.1892101019620895,-0.0326321125030517,-0.077647864818573,-0.1849000557988881,-0.3007680764257908,0.007357377025485,0.0960938334465026,0.0358239971101284,0.0262576776993693,-0.3520338237285614,0.2548821765036322,0.0407993356391787
98,0.061216,0.040556,0.304854,-0.101412,-0.046805,-0.703886,0.701477,-0.2646943080037832,0.0269476281583309,-0.4385425161734223,2.733565424697101,9.06353796929121,2.559356566521525,-0.0790717005729675,0.4253194034099579,0.3057113289833069,-0.2040656439719849,0.0200617880410082,0.6075414884881858,0.7673644763296884,-0.0975446924567222,-0.0450663566589355,-0.0681764557957649,-0.1743418369054794,0.0698234778106212,-0.1481248611092567,0.0960230380296707,0.0693230256438255,-0.1203488010364584,-0.3006616234779358,0.1331020366229582,-0.0212280906009022
99,0.060297,0.039109,0.30473,-0.106457,-0.057528,-0.704765,0.699045,0.1057955394238233,-0.0287181449621915,0.1593076416417956,2.814830918498337,9.020740445572136,2.6217063474506137,-0.0029819072224199,0.278098464012146,0.290850430727005,-0.2135570522394426,0.0186764940480532,0.6049639316970472,0.7668527823267473,0.0167802851647138,0.059533342719078,-0.1454568654298782,0.202338097333908,-0.4259931234627961,-0.4345056618727743,0.0786412805318832,0.1169649288058281,-0.1382305951504502,-0.2494764178991317,0.1032268853790592,-0.072606646822323
100,0.056852,0.036561,0.303664,-0.113252,-0.080653,-0.701141,0.699335,0.2722968919619917,-0.1559212140738964,0.2886076830327511,2.874432277502119,9.00249634835124,2.619749075902998,0.1667814254760742,0.0224217772483825,0.1429988145828247,-0.2192911347734095,0.0181271081062483,0.6050631229721092,0.765167588061476,-0.354792445898056,0.1509602963924408,-0.2209551483392715,0.1779430762678384,0.3214958071559667,-0.5534259096771479,0.0488878116011619,0.1316011548042297,-0.1336992353311274,-0.243690475821495,0.1012862727052997,-0.1623097095346078
101,0.052157,0.032778,0.305308,-0.117433,-0.103961,-0.695543,0.701157,-0.1268970719024539,-0.3130465432405471,0.4013824138194322,2.91299961630553,9.002951106381415,2.575208800169825,0.1506198793649673,0.2610630989074707,0.2717189490795135,-0.2230090771404436,0.0172613566499536,0.6069620580375229,0.7626048344282186,-0.4257252216339111,0.0409235432744026,-0.18953338265419,0.0145411510497331,0.2659662276357412,-0.1131175528749823,0.0632323697209358,0.1201148927211761,-0.0323666164331836,-0.2575664222240448,0.1703123987263068,-0.1484598743504379
102,0.050111,0.030684,0.307449,-0.122169,-0.102359,-0.696348,0.699783,-0.0619254180371761,-0.0982715736597776,0.0747170950710773,2.9990123046338555,8.98315393449962,2.5454373467624185,0.2001565843820572,0.3248819410800934,0.3254545331001282,-0.2321796902477629,0.015392936237347,0.60826134800021,0.7588634766051912,-0.3578814566135406,0.0651301890611648,-0.0972782894968986,-0.2286298919320106,-0.073065236210823,-0.1646056019194424,0.0961680859327316,0.1203763261437416,-0.0889208947920706,-0.3084084391593933,0.1397826468980405,-0.1056692644293419
103,0.048533,0.028243,0.310063,-0.129269,-0.096047,-0.698908,0.696845,-0.144248896458745,-0.1845411593586206,-0.3057879504144191,3.060386810790002,8.977396393886208,2.4921432712092995,0.2723730802536011,0.0232993979007005,0.1246765181422233,-0.2380506986849755,0.0141695158179936,0.6105204999697397,0.7552455631089338,-0.5835537314414978,-0.0113591011613607,-0.3098812401294708,0.0017255086183547,-0.2700274857252836,0.0351220206551253,0.1191656440496444,0.1276216804981231,-0.1271539692729711,-0.339016705751419,0.0723785691209137,-0.0263927730378345
104,0.04586,0.026257,0.3131,-0.133858,-0.093502,-0.697303,0.697931,-0.7499918533504009,-0.2189952176243066,0.0746104198262095,3.139105542717874,8.958129383358358,2.4633926852822303,0.2177976965904235,0.8777761459350586,0.6420117020606995,-0.2490472336020077,0.0102344642877782,0.6117983180702944,0.7507152696371683,-0.1737140268087387,0.2853591740131378,-0.08779177069664,0.4564385306090116,0.3406207788646221,-1.1378424392931163,0.161134198307991,0.1696553081274032,-0.1290519027156289,-0.3719375729560852,0.1368586948758922,0.0171033913367311
105,0.042891,0.023721,0.317092,-0.141503,-0.093056,-0.693931,0.699841,-0.0842526929184794,0.0865519097715616,0.2496954763144254,3.3454546292588114,8.877339105853437,2.4841838366374374,0.263073205947876,0.9741017818450928,0.8987249135971069,-0.2712652340758388,0.0064978779559633,0.6109825266088396,0.7436889857186506,-0.495784729719162,0.2548092007637024,-0.1473628878593444,-0.1763566838592291,-0.253545722001791,-0.5407384236700833,0.2028312236070633,0.1550111323595047,-0.0893883661733474,-0.4844078719615936,0.1660285656609572,-0.0939915034540928
106,0.040171,0.021728,0.321319,-0.145777,-0.090652,-0.693217,0.699986,0.5210948349148035,-0.1470025790810585,0.2911298949867487,3.5322888679906725,8.79096839786768,2.532232412752509,0.2935824692249298,1.3724076747894287,0.8516367673873901,-0.2972130917272635,-0.0012354258403306,0.609007843173075,0.7353722412456072,-0.4804076254367828,0.1443551182746887,-0.1493480801582336,-0.1840764644563198,-0.0354471609562635,2.092537365543097,0.2408691942691803,0.2134060859680175,-0.2136577107875607,-0.5888188481330872,0.0143067052563303,-0.0642688667576294
107,0.036299,0.017548,0.333209,-0.147009,-0.080199,-0.696349,0.697893,-0.2386076805889606,0.3229296393513679,-0.1402101424619555,3.733842536948621,8.706202786991,2.535907594133913,0.5968156456947327,1.042362928390503,0.9708983898162842,-0.3241854028306945,-0.0096464933961764,0.6087788087754389,0.7240159345690647,0.0427644811570644,-0.023880697786808,0.1158038228750228,-1.0858879417806864,0.5265525157988071,-0.1923598702855408,0.2373714298009872,0.2261419296264648,-0.1014042913280893,-0.6073758602142334,0.0612331614566966,-0.0003125588099559
108,0.034766,0.015212,0.338036,-0.147576,-0.081306,-0.696203,0.697791,-0.4669567097529769,-0.4429050952970981,-1.5874544848829506,3.973115403448045,8.595012110525369,2.5515695659071205,0.2398799359798431,1.049380660057068,0.9938880801200868,-0.3512766152411902,-0.0154596245189776,0.60800259181064,0.7118276622561717,-0.1073437929153442,0.0689879357814788,-0.0737715661525726,0.1090577560901641,-0.8000964852124453,-0.3920908538609743,0.2451240718364715,0.2420235425233841,-0.1180594297239556,-0.5523017644882202,-0.015500276122184,0.0536725626098457
109,0.033358,0.012457,0.341703,-0.148439,-0.087217,-0.695063,0.69803,-0.7836798956796527,-0.0750526106357574,-1.0052338578760622,4.244797670643031,8.440094520536064,2.629999544021487,0.2739896178245544,0.6354056596755981,1.1063640117645264,-0.3769963032838104,-0.016448925236715,0.6046790696671411,0.7014032465394088,0.1357064098119735,0.1357573717832565,-0.0025130973663181,-0.3906412395745515,0.076155603441596,-0.3476819494225084,0.1961381286382675,0.2601337432861328,-0.0571296031619654,-0.4821256697177887,0.0218375140364049,-0.0749285230317851
110,0.032607,0.008661,0.343339,-0.152443,-0.091225,-0.69306,0.698647,-0.8032435510665178,-0.9558125321030616,-0.700787092937529,4.5833886972457165,8.276233161112666,2.5820307551443573,0.4688537716865539,0.3251965641975403,1.1305705308914185,-0.3979609232393705,-0.0113393365857987,0.6068150325392289,0.687949069109516,-0.1717725843191146,0.0797351226210594,0.0493865199387073,-0.4263806614756584,0.1220335575193166,-0.3289573752082884,0.1683129072189331,0.1862987279891967,-0.0005753190948569,-0.4305272698402405,0.0523672749978257,-0.1177191283863037
111,0.031227,0.005841,0.344184,-0.159093,-0.088492,-0.689462,0.701071,-1.391094877436757,-1.6885393623977898,-0.3692582598060369,4.948728906825185,8.100211408296227,2.4631372492164374,0.6513878703117371,0.348439484834671,1.3896143436431885,-0.4191889035167427,-0.0062190053094522,0.6118629504481768,0.6707203224663913,-0.1953836381435394,0.0479753278195858,0.0328187942504882,-0.1501724412888288,-0.4351631028681993,0.0921929843984544,0.1409286558628082,0.1902505010366439,-0.0827515037084463,-0.3301487267017364,-0.0162692740335711,-0.1081162191900424
112,0.029707,0.000984,0.345671,-0.161971,-0.080801,-0.683958,0.706709,-0.5833470006883144,-1.3240765201747418,-0.4689151503443717,5.391651537778973,7.859498864382505,2.308410067232698,0.7580147385597229,0.4236125946044922,1.5760313272476196,-0.4432753975357323,0.0012602690763536,0.6183059528842578,0.6490016453448317,0.0283850077539682,0.0615534000098705,0.0090741831809282,-0.0478156441420316,-0.058009121376276,0.1851804801754653,0.1044699996709823,0.1804074496030807,-0.150858012400195,-0.2494501024484634,-0.053339188769902,-0.239581000866834
113,0.029681,-0.000905,0.347258,-0.154665,-0.078008,-0.680097,0.712363,-0.868734552630782,-1.870231562066078,1.821570407010615,5.826378002795576,7.539103711944818,2.3206981786586343,1.2207543849945068,1.9663538932800293,2.016934871673584,-0.4809345108220372,-9.46956808412e-05,0.6178003808077002,0.6221132089861794,0.1871733218431472,0.1062743216753006,0.0511462017893791,0.2842728686988353,0.078033672273159,-0.1646301518388092,0.0727990940213203,0.1565356403589248,-0.0692053961446275,-0.1838044375181198,-0.039463826418831,-0.2439359446733258
114,0.030889,-0.003327,0.348088,-0.152137,-0.072457,-0.679472,0.714088,0.3198047853291034,-0.6600064619988203,1.1507406454414129,6.235968272989988,7.1940820677727455,2.3512280492179096,1.923112273216248,2.3729140758514404,2.107552289962769,-0.533588631900802,-0.0187925657659301,0.616252844475303,0.5789321963325332,-0.2597455680370331,0.0558003894984722,0.0951536074280738,0.1561293038666248,0.9212895002543926,-0.0678466247797012,0.0435607135295867,0.1353586614131927,-0.1101236408891622,-0.159936711192131,-0.0622789578823139,-0.2414196327371522
115,0.032351,-0.007219,0.347968,-0.151272,-0.073905,-0.678992,0.71458,0.6010667817741632,-0.4867582655489444,-2.0628601662904025,6.559391248816252,6.808498111587762,2.605596047388017,0.197348266839981,1.9919915199279783,1.81588101387024,-0.5814447706866902,-0.0320240458573346,0.6050834944051465,0.542927702937451,-0.3242667615413666,-0.0577442310750484,0.1043335273861885,0.3531868304491042,0.3562690143734216,-0.2158925754338502,0.0254347883164882,0.1103916317224502,-0.0683701828629244,-0.1662549078464508,-0.0021999206262495,-0.2569690840465948
116,0.034388,-0.011067,0.347536,-0.150885,-0.078114,-0.678959,0.714245,-1.3698200342178344,-1.009037926334143,0.9894380305901168,6.853139801868796,6.228396960952877,3.226751092945039,0.097533643245697,2.650407552719116,2.6176323890686035,-0.6322245835942322,-0.0315448918396981,0.5783479936514611,0.5145974515163402,-0.0493156425654888,-0.0483089163899421,0.1083826571702957,0.5652285756736993,0.9089636871665716,0.5059782220646739,0.0252066142857074,0.1152930483222007,-0.2254499101890251,-0.1620257645845413,-0.1049954750873148,-0.2442763738751411
117,0.041675,-0.018575,0.347638,-0.143309,-0.07843,-0.688305,0.706787,-0.2058124954462051,0.6034118835955858,-0.19978870511204,7.097371752080321,5.460052873831987,3.9981896389499294,-0.1478195786476135,2.518350124359131,2.713613510131836,-0.6904660841482092,-0.0280823300413254,0.5434707416038685,0.4765579841662815,-0.1345682293176651,-0.1549764573574066,0.1044192090630531,0.436866399654746,0.7471721197545528,0.5899526825636625,-0.0041483417153358,0.1223698407411575,-0.1981856172969564,-0.1528692543506622,-0.0328644235872197,-0.2403698496895842
118,0.044575,-0.021187,0.348511,-0.139077,-0.078594,-0.691418,0.704572,0.0813186852931976,0.1265714932098984,1.036187799066305,7.215010874032973,4.695949200759828,4.697027351385355,0.0667730942368507,2.324545621871948,2.5340096950531006,-0.7390960978995773,-0.0206348205769232,0.50999260698674,0.439566506795827,0.1747936159372329,-0.2942778766155243,0.1959682404994964,-0.0913467428326606,0.7210387305885553,1.1190521063663066,-0.0281825363636016,0.1338334381580352,-0.2298055298489518,-0.1412938088178634,-0.1349343300840351,-0.2949702768672257
119,0.046678,-0.022668,0.349899,-0.133947,-0.077443,-0.693377,0.703768,0.202015441250801,-0.1879883772030472,1.1763193233340978,7.219560792422294,4.053277319921553,5.255404161468148,0.6487851142883301,1.867661595344544,2.3783822059631348,-0.7812705398017855,-0.0199785385710424,0.481300122609244,0.3969477324329467,-0.0213750917464494,-0.2636528313159942,0.1697111278772354,0.3412701826840639,0.5233084193110465,0.0118524964876472,-0.0674015432596206,0.1713847368955612,-0.2057780269210226,-0.1373201459646225,-0.113479088796908,-0.3657908759564161
120,0.047242,-0.022756,0.352358,-0.126509,-0.073933,-0.695922,0.703009,2.005938255628944,0.9831383459240196,0.6179536191672086,7.125995204496383,3.669094462706149,5.650514655411243,0.60163813829422,1.8393595218658447,1.267751693725586,-0.8113270346600897,-0.0264640144816688,0.4595689045657635,0.3603393888392819,-0.1966129541397094,-0.1262274235486984,0.2939508557319641,0.4316431120485067,-0.1548930400699377,-0.20290786004588,-0.1192977055907249,0.1614133566617965,-0.117891799805779,-0.106013685464859,-0.1110141508549451,-0.2264436887330375
121,0.048365,-0.023285,0.354061,-0.120795,-0.07206,-0.697179,0.702963,-0.6500234126448631,1.062650566317141,-0.0588590162038803,6.779179662644863,3.375750398801267,6.230362708067894,-0.094857208430767,2.382503032684326,1.5488446950912476,-0.8399747373183009,-0.0352783529085063,0.4255530021168052,0.3348171688960599,-0.1305415332317352,-0.0153101133182644,0.322440505027771,0.2022211929559707,0.4329571172565221,-0.1196184592016041,-0.1396842896938324,0.0985265150666236,-0.1134601557675749,-0.1190183833241462,-0.023199013931246,-0.3058243551683612
122,0.051141,-0.025459,0.356918,-0.114577,-0.062903,-0.700908,0.701173,1.996718591862917,1.385326523168385,1.2938275123834608,6.319391237086057,2.923488277094066,6.905714623236656,-0.2602035701274872,2.57620906829834,1.1208513975143433,-0.8691210184445717,-0.0344369849153712,0.3830413083538583,0.311001739852849,-0.3254947662353515,-0.0274394806474447,0.3533787131309509,0.2764607336431741,-0.3158043175160884,0.5058687703408301,-0.1057355776429176,0.0251945629715919,0.0612975730289937,-0.15847809612751,0.1008476164265535,-0.1299564594730734
123,0.051941,-0.026838,0.357908,-0.111325,-0.061882,-0.703073,0.699619,1.533916955962777,0.9678086748450994,1.6196265696913004,5.69462676886022,2.7262948491722345,7.503927769145369,0.2815905511379242,1.9447097778320312,0.7135776281356812,-0.8923138449931868,-0.0438535407925192,0.3398279417747246,0.2938876313216862,0.2474968433380127,0.0069697322323918,0.3755297362804413,4.0916532278e-05,-0.5014554839432239,0.2529617846339941,-0.0722179040312767,0.0450446605682373,-0.2035241470470093,-0.168851152062416,-0.0276841668385313,-0.1344187452447135
124,0.052718,-0.028657,0.358274,-0.109951,-0.062488,-0.705247,0.697591,2.667064077046513,0.6060515844494104,1.148375669875741,5.327174681693315,2.7368524835437533,7.765386748489737,0.518700361251831,1.1477394104003906,0.1897320002317428,-0.9038344082204676,-0.0555587325346698,0.3177871637211351,0.2810835695689708,-0.2009861320257187,0.0901609659194946,0.323527991771698,0.3047977703332901,0.0356529126614332,-0.2710625278614461,-0.0576337352395057,0.029968287795782,-0.0818882379426155,-0.1704354137182235,0.0614981827681651,-0.1179344607705716
125,0.054776,-0.030771,0.358409,-0.110194,-0.06365,-0.707885,0.69477,2.3366613253355024,0.4382996473282575,0.6517664569199085,4.889189214880764,2.9376743310958147,7.977235601490736,0.6646963953971863,1.638821721076965,-0.1239857375621795,-0.9114328124773576,-0.0747582648231044,0.2961171732419451,0.2757103804313355,0.3017864823341369,0.101166270673275,0.2146744728088379,0.1967699418127536,-0.4199450754702091,0.3248948019444942,-0.0128656728193163,0.0529641471803188,-0.1682560872510075,-0.1071773096919059,0.0178085176735825,-0.0231987696193624
126,0.057085,-0.033442,0.360344,-0.095103,-0.074723,-0.708093,0.695684,1.100276824878156,0.1577694722890854,-0.6864917333424091,4.351918613451719,3.1128596330881115,8.218350880986451,0.2329079210758209,1.5921651124954224,-0.2031374424695968,-0.9189387287310032,-0.0927666662555071,0.2690261254154192,0.2730767820757359,0.4045298993587494,0.0158893521875143,0.1359933912754058,0.0304483297556638,-0.2398755085676908,-0.0317396116752177,-0.0096653662621974,0.0460617914795875,-0.1073262652555946,-0.0890831127762794,0.0551463066905271,-0.1517998506944161
127,0.063764,-0.040601,0.36182,-0.087449,-0.070205,-0.724715,0.679861,-0.0100227968424558,-0.2996633300542831,-0.9378454982578752,3.857654210056365,3.223282832312584,8.420174599057436,0.2221103459596634,0.7488128542900085,-0.3428910672664642,-0.9240174373818988,-0.1052504769892292,0.2441575523672248,0.2747750704485658,0.0814130678772926,0.0294782370328903,0.0835763812065124,0.1341407594203948,0.14123685516119,-0.2594610835254192,0.010879342444241,0.0527174994349479,-0.1803237608592957,-0.0596083737909793,0.0201415717225405,-0.0524869193221209
128,0.064881,-0.041711,0.363293,-0.082662,-0.066133,-0.726093,0.679399,-0.1240536651700735,-0.493652116715908,-1.0599363389223813,3.732863755044341,3.3099814570784565,8.442756433221698,0.09273711591959,-0.0237923003733158,-0.2762254476547241,-0.9234693795785446,-0.1104899302509331,0.2394393528602993,0.2786844093863965,0.2433574944734573,-0.0940848737955093,0.131799504160881,-0.3114157271683216,-0.2901981670945883,0.4525822935722768,0.0414143241941928,0.0494902357459068,-0.0817324171932414,-0.0704566538333892,0.0527495431805262,-0.1218270568954758
129,0.064877,-0.041495,0.364631,-0.078382,-0.066017,-0.723579,0.682591,0.1445730138465762,-0.6551227816104889,-0.1046937156617641,3.681510876686871,3.403067737054825,8.428284840276836,0.1537533104419708,0.1595586985349655,-0.3051717281341553,-0.9214396395638612,-0.1146189853618452,0.2390387835918326,0.2840279480668402,0.067817099392414,-0.198332130908966,0.2028629630804062,-0.4310229343235492,-0.1000736546456813,0.3470446744322776,0.0598833262920379,0.0128072714433074,-0.0339292032745201,-0.0666341930627822,0.0696632457476109,0.0070033028908073
130,0.066401,-0.041868,0.366286,-0.073487,-0.062854,-0.722052,0.685048,-0.7189025953426956,-0.0882563756018877,-0.586212326991558,3.579524666418135,3.4551024601966143,8.45101514300108,-0.0419648550450801,0.2046052515506744,-0.0638254135847091,-0.9213696509052428,-0.1182329574241217,0.2348171990907869,0.2862862664128183,0.0970546156167984,-0.0529191642999649,0.2225760221481323,0.3765226978510618,-0.2305909628719091,-0.3258348592735827,0.0916301161050796,0.0126356724649667,-0.1592413349399343,-0.0809584856033325,-0.0034454186129849,-0.0693154278237838
131,0.068166,-0.044247,0.368509,-0.059519,-0.069929,-0.723247,0.684457,-0.3587757364973425,-0.041742461708188,-0.5962111584365367,3.5488998110517858,3.4250486827164885,8.476127372425793,-0.1229566484689712,-0.1159859895706176,-0.0509240962564945,-0.9217122392215168,-0.1168801413424157,0.2327591111981094,0.2874174218119484,0.0635768175125122,-0.011400326155126,0.2567066848278045,0.0530319174855947,0.1934422586947679,0.0416261418521404,0.0766766741871833,0.0297497976571321,-0.1336275583344046,-0.135875791311264,-0.0289730261888471,-0.1758469990377314
132,0.071308,-0.049438,0.372685,-0.055071,-0.035561,-0.723684,0.687011,-0.3972568583220243,0.155519063013792,-0.5228139137923717,3.632122576400637,3.348993617039919,8.471264150303602,-0.3231017589569092,-0.1891669780015945,0.1444184184074401,-0.921291305614954,-0.111507968551049,0.2359061480801575,0.2883342860158049,-0.5911149978637695,-0.2121241092681884,0.080983392894268,0.2504617845118045,-0.4203180004358291,-0.4386873314715921,0.0728276818990707,0.022723376750946,-0.1388102673350833,-0.1477841138839721,-0.032541406744509,-0.0737884815846104
133,0.071961,-0.054156,0.373752,-0.055285,-0.033575,-0.719466,0.69151,0.6693316319659351,0.1219049627035856,0.4816963059842586,3.668662208768725,3.23910525534451,8.498205933243035,-0.1767036020755767,-0.0266821216791868,0.055974755436182,-0.9223042443473688,-0.1055886781410022,0.2357183159285749,0.287476674565718,-0.1876892298460006,0.2383491545915603,0.3140262961387634,0.1137421145141124,0.3404506829947233,-2.0152363914586604,0.0606769174337387,0.0167275909334421,-0.1154341227216646,-0.1496088206768036,-0.01659514727036,-0.1322536304995417
134,0.070622,-0.057803,0.37455,-0.051542,-0.034497,-0.709357,0.702115,0.7363730778425932,0.1091059791460633,-0.2960357872068881,3.704422381196916,3.1832205787763,8.503807991033792,-0.2423843592405319,-0.0492458418011665,-0.131086528301239,-0.9219212986757546,-0.1017654524815856,0.2367915886561864,0.2891967194713272,0.5769871473312378,0.0599299930036067,0.2362302392721176,-0.0472317067742347,-0.7692828292757272,0.5312082326501607,0.0550008751451969,0.0204176623374223,-0.09179430393707,-0.1406617015600204,-0.0355188881853362,-0.0652144679115153
135,0.066657,-0.061448,0.373867,-0.051025,-0.037911,-0.696616,0.714622,-0.3808095813900232,0.0598272767141461,0.1182926174253225,3.6831618587642905,3.1063547812387347,8.541385149756074,-0.2671818435192108,0.0665521398186683,0.0078648524358868,-0.9221489353503256,-0.0975515431825104,0.2345085147387042,0.2917717743531394,-0.2365196198225021,-0.0938458815217018,0.1875097751617431,0.0009726444244384,0.2573375155001878,0.3750700148247182,0.0665868520736694,0.0087917624041438,-0.1353179317072965,-0.1545246690511703,-0.0803699879999272,-0.0132763415785739
136,0.063653,-0.066386,0.373748,-0.051728,-0.040012,-0.686407,0.724272,-0.0345426133319735,0.3320388284802437,-0.4273761022537946,3.694378833827376,3.0011385030075908,8.574095579224824,-0.3299862742424011,-0.1854182183742523,0.0155635550618171,-0.9228249130212134,-0.0918869077528556,0.2332371677216865,0.2924917780107886,0.1103997156023979,-0.1855913549661636,0.1816648691892624,-0.2967904049664736,-0.6992793187230825,0.2895360499240458,0.0569656006991863,0.0316040031611919,-0.050232838518708,-0.190502181649208,-0.070829147721827,-0.2198055110938847
137,0.062437,-0.072315,0.3749,-0.049527,-0.03994,-0.681955,0.728622,0.5978013502374291,-0.2195060897558927,-1.1900175938189028,3.863494168256223,2.907596003696322,8.531687347084283,-0.2682970762252807,-0.7399911284446716,-0.2078793942928314,-0.9203865853452468,-0.0834739302057154,0.2409089475476439,0.2964516388342865,0.6243493556976318,-0.1990016549825668,0.3413062691688537,0.1844511429876089,-1.8265449805527925,2.0599936709433795,0.0226305685937404,0.0289779547601938,-0.1304749212560709,-0.1685651838779449,-0.099807888982119,-0.1107645874075125
138,0.066754,-0.086684,0.381883,-0.038453,-0.029005,-0.692994,0.719333,0.8820835712864995,0.1254638242289424,-0.8897124587297439,4.044584894900024,2.8642954988911744,8.462122812470794,-0.2889299988746643,-0.5822626948356628,-0.2599131166934967,-0.916126343350506,-0.0764256433968174,0.2504214750445757,0.3035797453414566,0.5908856391906738,-0.1952625662088394,0.4208404123783111,-0.7928723791778087,0.3512520629942417,-0.8803408192723989,0.0042415210045874,0.0137783586978912,-0.0736008591911755,-0.1257836371660232,-0.023141016116715,-0.0216210902401711
139,0.070199,-0.093999,0.386479,-0.024059,-0.016567,-0.703765,0.709832,0.0225482241556048,-0.3879293502673506,-1.3537503584265709,4.227309360225498,2.739185018144548,8.414102001145482,-0.5922960042953491,-0.6550366878509521,-0.115438088774681,-0.9127294034086622,-0.0653574919176793,0.2583187975932657,0.3097175576005065,0.443603515625,-0.3275474309921264,0.1373342126607895,-0.1566220558196306,0.129528297188878,-0.1054614851638674,0.015755046159029,0.0071566868573427,-0.0470159633980132,-0.1012522205710411,0.0029774848657601,-0.0085740159563836
140,0.073167,-0.10051,0.390062,-0.009105,-0.004264,-0.712826,0.701269,-0.996261739130318,-0.5434899143353105,0.3384294063001871,4.423710760986805,2.5615026386395097,8.368982756480575,-0.5391017198562622,-0.499375969171524,-0.0582757554948329,-0.9093610581175182,-0.0512827444546794,0.2658396244110512,0.3158511975328521,1.0759273767471311,-0.2780555188655853,0.4366809725761413,-0.3888181158006191,-0.3855857097506523,-0.3921168650850653,0.0163067337125539,-0.0050277351401746,-0.0328103872784646,-0.1150632202625274,0.0489263179308269,-0.0170299151085666
141,0.074358,-0.105108,0.391734,-0.003663,0.000494,-0.715786,0.69831,-1.4988821751996877,-0.7468722600251436,1.000555344671011,4.5522374799177046,2.4015647362701595,8.347454815283417,-0.2162689864635467,-0.3440876007080078,0.3208823204040527,-0.908836866752807,-0.0410840463101952,0.2696485523888445,0.3156220530195307,-0.0835409983992576,-0.3077395856380462,0.4680871665477752,-0.1807125409811735,1.1138140595823525,-0.5073176539748907,0.0113314883783459,0.0096920635551214,-0.0266846161408582,-0.1323912739753723,0.0636372451900504,-0.0027246848566923
142,0.073103,-0.107008,0.390448,-0.00832,-0.004984,-0.711735,0.702381,-0.6049000763267278,0.0820090056449174,0.4885340430498123,4.74656967318952,2.323265983320028,8.260926286387443,0.0097533036023378,-0.6867530345916748,0.2404813468456268,-0.9081353417026474,-0.0351731798188392,0.2785189915471643,0.31061290119331,0.6118018627166748,-0.3051422536373138,0.3525067865848541,0.0410778603196144,-0.6762327896565199,0.3635124096304178,0.0094913365319371,-0.0093975570052862,-0.0020257049901316,-0.1410344690084457,0.1137323237724602,0.0506036445924779
143,0.070808,-0.112848,0.38404,-0.034545,-0.025178,-0.708407,0.704508,-0.6002542963474988,-0.0104122345514595,-0.118649760299921,5.018454184958339,2.282060697228461,8.110345264297724,-0.0087375985458493,-0.7705806493759155,0.1885397136211395,-0.904839460354592,-0.0290179311435553,0.2926523977272007,0.3078606205389065,0.8903834223747253,-0.1306709498167038,0.5025804042816162,0.5437608402311802,0.2683656899929046,-0.5862970826655626,0.0375016406178474,-0.0170102100819349,-0.0632472503586206,-0.1478384882211685,0.0707609778564423,0.0504855255049886
144,0.070414,-0.114337,0.38189,-0.041265,-0.033619,-0.708392,0.70381,-0.6870236482620239,0.3636702305406332,-0.4493687383532523,5.260248094367981,2.221768141090125,7.972698542582989,-0.0916175097227096,-0.6006494164466858,0.368125706911087,-0.9025715735116148,-0.0231175816237432,0.3049116056235507,0.3030825289500247,0.4675565361976623,0.1880787461996078,0.5340239405632019,0.7928837773546576,0.4558826502919196,-1.1513280899405478,0.0640418380498886,0.0065115564502775,-0.1515211524840444,-0.132175326347351,0.0279170508625102,0.0489980999588267
145,0.069882,-0.114267,0.380468,-0.048786,-0.040009,-0.710055,0.701314,-0.1482984641104936,0.3769838856220245,-0.5437579176217318,5.490809831145405,2.082309986039251,7.854003774097562,-0.2494664937257766,-0.5690260529518127,0.3835723102092743,-0.9010089468505638,-0.0136780798270122,0.3152303439129232,0.2977003824570352,0.524603545665741,0.329836905002594,0.4164009392261505,0.7753694557130336,-0.1829337241619825,-0.372473422460258,0.1085416823625564,0.0298192258924245,-0.114646881334111,-0.122511051595211,0.003296040733307,-0.0119972889529308
146,0.069963,-0.114655,0.380293,-0.051318,-0.041317,-0.711112,0.699986,0.3556611116081476,0.5354072917751967,-0.4936965403795242,5.639419260901212,1.8791450824923808,7.79975254395008,-0.5105254650115967,-0.268768846988678,0.4186584651470184,-0.9010734145760826,-0.0023807063801312,0.3198712602414544,0.2928194987688528,0.6700763702392578,0.2647650241851806,0.3231621384620666,0.2539128017485141,-0.3862216695666313,0.1417985806971788,0.1089084148406982,0.0230536609888076,-0.1296116463570855,-0.1173562631011009,-0.0220404298970941,-0.1205828289880417
147,0.069955,-0.11498,0.380277,-0.053074,-0.042059,-0.711382,0.699535,0.5141384399056435,0.0447410590022802,0.1362450382232665,5.719164997789264,1.5785276665836572,7.80831462059021,-0.7023410797119141,0.0463869385421276,0.4845074117183685,-0.9025826842448106,0.0129128963600333,0.3189357294626468,0.2888903942930437,0.3337132334709167,0.1701998263597488,0.2869223952293396,0.1622191451743245,0.1631459046304225,-0.0145166011303663,0.0794645994901657,-0.0516610369086265,0.0335658087556483,-0.1252596378326416,0.0549624928225297,-0.1221852226833812
148,0.068795,-0.114106,0.380093,-0.056104,-0.042408,-0.709327,0.701363,1.0055325485616922,0.1520199688516557,0.8276765660554171,5.679677037009596,1.278665160695463,7.891556967422366,-0.5240827202796936,0.224959522485733,0.4060521721839905,-0.9062961751970924,0.0258479613414138,0.3114072236675047,0.2845781322583342,-0.6120237112045288,-0.039636705070734,0.2417482435703277,0.0552057543933391,0.7306605454146862,0.4690460832476615,0.0925526022911071,-0.0341534651815891,-0.09724067797577,-0.0943320617079734,-0.0042172734892723,-0.0886602528281975
149,0.068856,-0.11397,0.380469,-0.059154,-0.038263,-0.709545,0.70113,-0.2007370918780565,-0.3368570424169301,0.9528490061223508,5.707101050508022,1.0741215161412954,7.902255471569299,-0.2291301786899566,-0.1550208330154419,0.2769325375556946,-0.9078687753699198,0.0353296883015939,0.3095947396771689,0.2804946789946916,-0.031866081058979,-0.1389451771974563,0.3151482343673706,0.0407937826812267,-0.4229512715488672,0.2137213688746094,0.0988871157169342,-0.0510982535779476,-0.0930209687883499,-0.1059219986200332,0.0113393935830681,-0.1705781369904056
150,0.069521,-0.114105,0.381207,-0.058561,-0.038108,-0.710421,0.7003,0.3672895900815725,-0.1743831187639385,1.190644201284647,5.720267406073212,1.0065179063372314,7.901635878366231,0.1085805371403694,0.1047250777482986,0.2230321615934372,-0.9089962297515128,0.0377355587963581,0.3093618038621453,0.2767620627681501,-0.1623442023992538,-0.1148493215441703,0.2835958302021026,-0.0744803637057542,0.4885562548816203,-0.5286757915630936,0.0934271663427352,-0.0448209419846534,-0.1254598421735689,-0.0232917498797178,-0.0007256359769846,0.0672931373490951
151,0.0701,-0.11399,0.381481,-0.058135,-0.039199,-0.711014,0.699673,0.3495902672618627,0.2746680050075054,0.0395317999213933,5.710881738090515,1.0002443790256976,7.909217711797356,0.1314252912998199,-0.0178959984332323,0.2209086865186691,-0.9107843620612815,0.0361078215922875,0.3089309818796711,0.2715322014788375,-0.5703085064888,-0.1324901133775711,0.2179601490497589,0.1239449440985918,-0.0636509266555309,-0.1342670161485672,0.0927947685122489,-0.0330157540738582,-0.0977361972745973,-0.0306935850530862,-0.018474908018799,-0.0801973805125337
152,0.07029,-0.113914,0.381518,-0.058175,-0.041129,-0.710681,0.699898,1.1560095257550478,0.4659194025944918,-0.3912263459861278,5.744079074293374,0.9936456383477896,7.885974783375858,-0.0001721959561109,-0.0980356633663177,-0.0151883959770202,-0.910858852448566,0.0362070274716877,0.3108315072640439,0.2690889344472456,-0.1811487823724746,-0.1389516741037368,0.194520816206932,0.0987564345672726,-0.4133768029958009,0.1484969092920422,0.0779709815979003,-0.0143492855131626,-0.1188747190290596,-0.0414010137319564,-0.0758950208432273,-0.0697986721629276
153,0.070112,-0.11522,0.38026,-0.058153,-0.043349,-0.709603,0.700859,0.8986217413723468,0.3202519445747137,-0.288967748516798,5.731820481222868,0.9959604180961846,7.894598234814405,-0.1179788708686828,0.0949484482407569,-0.1176309287548065,-0.9105201920526572,0.0365363928134549,0.3100848268498368,0.2710450995440528,-0.1489961743354797,-0.2096981257200241,0.2673002779483795,-0.3881175663158297,0.0880295811086893,0.2434288171350956,0.0697213113307952,-0.016217702999711,-0.1315656847679987,-0.0514066889882087,-0.0385674027354922,-0.0835164693321101
154,0.06975,-0.115057,0.380832,-0.059007,-0.041504,-0.708973,0.701536,0.0785118111789226,-0.0402656671538949,0.0018581950873136,5.722489173775911,0.9873221344146876,7.9024489483147855,-0.1032506898045539,-0.0221966430544853,-0.0940766930580139,-0.909883070169344,0.037782185124432,0.3092890737886805,0.2739081252067246,-0.013768570497632,-0.2650575637817383,0.3716576993465423,-0.3755067988067865,-0.0127940151214599,0.3947305547147989,0.0713894739747047,-0.022964859381318,-0.2056340153404511,-0.0633410066366195,-0.0354624978060019,-0.0934597985970322
155,0.068738,-0.116126,0.380749,-0.060947,-0.038403,-0.708359,0.702167,-0.1994464675456285,-0.1379613406218588,0.2095405760586261,5.739478887021542,0.980720398062095,7.890941465872526,-0.0388503074645996,-0.0483003295958042,-0.0191553458571434,-0.909112373751516,0.0389330892553403,0.3100938165527201,0.27539206665651,0.1181276738643646,-0.5190641283988953,0.5263784527778625,-0.7007303943142295,0.2004804867684841,0.3228644651606678,0.0728629007935524,0.0028903284110128,-0.2099615779496729,-0.0598525889217853,-0.0248978149224771,-0.1409387946632225
156,0.068403,-0.115766,0.381736,-0.065183,-0.02952,-0.710097,0.700458,-0.1531178470909595,-0.1693237164825201,-0.0391734880030155,5.759889222365618,0.961804539059475,7.878388273769617,-0.0452557131648063,-0.051935888826847,0.0697707906365394,-0.9089088449434112,0.0401022432449972,0.3109755793359979,0.2749015471022811,1.490203619003296,-0.5167875289916992,0.662642240524292,-0.4736541615650057,-0.9624830959081648,0.5654664760828018,0.0690270066261291,0.0256700236350297,-0.2347482652144506,-0.0422622635960578,-0.0257406977706938,-0.187159634761326
157,0.068746,-0.114504,0.383823,-0.053936,-0.034574,-0.709705,0.70158,0.3241927911549806,-0.0651538785643875,-0.0115899000287055,5.775934348237514,0.9417310344543308,7.869060473453998,-0.0166980847716331,-0.0572998523712158,-0.0043144654482603,-0.9087720195816734,0.0412774307810981,0.3115858607950058,0.2744883702640891,2.711552619934082,-0.2899625599384308,0.7416723370552063,0.0231529120504856,-1.6455477774113416,0.1086243331089615,0.0568086206912994,0.0491011142730712,-0.2405343378026038,-0.0358011350035667,-0.0174453571917954,-0.2060351434872485
158,0.066578,-0.116354,0.381096,-0.064968,-0.035519,-0.709108,0.701202,0.0510480501919984,0.0475585275758057,-0.0202653739154338,5.784369583627582,0.9349620517760516,7.863669428065418,-0.0366797223687171,-0.0274691712111234,0.0033064561430364,-0.9085649355443628,0.0418406154050895,0.3119515881525836,0.2746731129149785,3.2213358879089355,0.0828585848212242,0.8129146099090576,0.3537672606855631,-0.2488654552310705,-1.4821803389847277,0.0495915338397026,0.0563628822565078,-0.2096499181846156,-0.0220566038042306,-0.0423950940977549,-0.1487239686467219
159,0.065144,-0.116365,0.381186,-0.063885,-0.038905,-0.706262,0.703988,-0.134192781868577,0.0467267529267817,0.066931263500452,5.796928620949387,0.9093080436248332,7.857427318805455,-0.0385691188275814,-0.0367387495934963,0.0474483557045459,-0.908452362303462,0.0433081542504603,0.3122612541609413,0.2744663399648695,1.7888667583465576,0.2820395827293396,0.4676305055618286,0.5076797652855515,0.1216384207218885,-1.5463859769135713,0.0443286187946796,0.049732681363821,-0.1212201953098177,-0.0363044254481792,-0.0082998061206395,-0.1511291300923097
160,0.064846,-0.115979,0.380947,-0.064104,-0.037566,-0.706244,0.704059,-0.1583551632225513,0.0613623773269355,0.0819943925976753,5.814208257052302,0.8927270573105662,7.846554042613506,0.0009825411252677,-0.0427054725587368,0.1057893186807632,-0.9084646564624022,0.044109373898905,0.3130358594288481,0.2734134656185862,-0.7791538834571838,-0.0068646436557173,0.1094411984086036,0.571269901664555,0.5829156235337257,-0.4602046051442623,0.0330661498010158,0.0540755726397037,-0.2079557910852134,-0.0320232957601547,-0.1154992969123646,-0.0550380605430807
161,0.064904,-0.115514,0.381691,-0.063072,-0.034983,-0.707126,0.703399,0.0850818372189998,0.1381304866436868,-0.077653148522973,5.82081510797143,0.8705766003008931,7.844144058862328,-0.0462162904441356,-0.0085108391940593,0.0690839439630508,-0.90880486344462,0.0448929952532323,0.3131206984059531,0.272054923471504,-2.283717393875122,-0.1450779736042022,-0.093810848891735,0.6066276307716966,0.7916518974721432,0.8868862953931093,0.0379549525678157,0.0383208766579628,-0.086923245568294,-0.0441684909164905,-0.0144532261711079,-0.1594878022479824
162,0.064902,-0.115136,0.382287,-0.062207,-0.033238,-0.707929,0.702754,-0.0406681104749441,0.0613389233861118,0.1434837573051452,5.815781205457449,0.8511513304714113,7.850007397937774,0.0148324221372604,0.0142081417143344,0.0869713798165321,-0.9093303019678248,0.0453768020988101,0.3125731125478451,0.2708458828244894,-1.993960976600647,-0.3088632822036743,0.0558456815779209,0.2825005983293056,-0.1806394757449626,0.6078273619502782,0.0548079125583171,0.0054860268719494,-0.0982036686558742,-0.0485010147094726,0.0077710153106949,-0.0685196195372846
163,0.064444,-0.115489,0.383128,-0.06072,-0.035743,-0.704594,0.706104,0.6679623894393444,-0.154581928294152,0.0659761547327041,5.788301077857613,0.8491995388165116,7.870502488955855,0.0770360231399536,0.1339412331581115,0.0700232088565826,-0.9104621620685877,0.0443334889472335,0.3110475675388834,0.268965584925786,0.6129230260848999,-0.3175340294837951,-0.0344869419932365,-0.7331976626768708,-1.2836737826377154,0.5554711517691612,0.0852109491825103,-0.0189884211868047,-0.1004693485655356,-0.0221038442105054,0.0087413210767525,-0.0236680858978535
164,0.063841,-0.115565,0.381855,-0.066947,-0.035512,-0.70262,0.707519,0.2088911722391843,0.0342171807698905,-0.2673883693933487,5.804594625532626,0.8909921963419765,7.8538652424097055,0.0831188485026359,-0.1593213677406311,-0.1024011597037315,-0.9099687053933116,0.0425244432825502,0.3126595228359752,0.26905904236565,1.2443963289260864,0.1912095546722412,0.3578807115554809,0.5567977241978049,0.5987082359492778,-2.4091019999071954,0.0752035081386566,-0.0110724195837974,-0.1299513449065387,-0.0065620932728052,-0.0450467000185046,-0.1160125527972821
165,0.065411,-0.11514,0.3821,-0.06856,-0.034642,-0.705772,0.704262,-0.3626695290654897,-0.1168064705207943,0.1519534794867038,5.818157286939025,0.8979149082772433,7.843034051793813,0.0177780836820602,0.0857253819704055,0.1183441951870918,-0.9098302346886276,0.0422233125666084,0.3135821247862874,0.2685005225930347,0.0427018962800502,-0.408268004655838,0.2072945237159729,-1.08845516192019,1.8722540078043937,0.1910737759977579,0.054655622690916,-0.0136559745296835,-0.1376633988549001,0.0070495172403752,-0.0127747806980274,-0.0946068040745332
166,0.066315,-0.114238,0.383506,-0.063903,-0.032704,-0.707497,0.703062,0.0406786318689584,0.2124519334606826,0.0520160184413194,5.8091036273896695,0.8846908311754464,7.851243077212572,0.0377084426581859,-0.0291609019041061,0.0575772710144519,-0.9105869617914876,0.0421198939425983,0.3129279742869199,0.266708361221717,-0.4303404688835144,-0.3932773768901825,0.0537543669342994,0.5994245675250888,-1.1829606610447168,0.0885974441245198,0.0305635873228311,5.10208774358e-05,-0.0400830268962541,0.0304538421332836,0.0144487646251218,-0.0105168274370953
167,0.065965,-0.113755,0.38449,-0.062164,-0.030496,-0.707013,0.703803,0.3841939631313085,0.0447929353199899,0.0844189893960952,5.822624203220009,0.8959786795176565,7.839939592909812,0.0980822443962097,-0.0315911248326301,0.0195984411984682,-0.9106427661368122,0.041345602596001,0.3139504069381847,0.2654345131656073,0.8019310235977173,0.046796079725027,0.1375213116407394,0.5559849465101957,-0.7425432909101247,-0.7247329089313745,0.0113448463380336,0.0245311502367258,-0.1278894622069783,0.029909498989582,-0.0546410834150156,-0.0236820185250835
168,0.065797,-0.114443,0.385026,-0.062434,-0.030948,-0.705675,0.7051,0.234101016819477,0.1394385735675692,-0.3100643125593662,5.83280599001646,0.9219410229656844,7.829353901487589,0.0130602428689599,-0.0562630929052829,-0.0381444096565246,-0.9104003770761228,0.0401344747050843,0.3149654956087302,0.2652492123276351,0.6629515886306763,0.1041151955723762,-0.1563572585582733,0.1600531993120908,-0.4387000448226928,-0.3810422211021185,0.0143837109208107,0.0168703198432922,-0.0790472332298755,0.0055780448019504,0.0081606008626375,-0.045066870590276
169,0.065944,-0.115035,0.384498,-0.064158,-0.035181,-0.706297,0.704124,0.0705821872234344,-0.0618984569650143,0.014371639701724,5.848482867097855,0.9306944574594496,7.81661307785809,0.0183735191822052,-0.0274582561105489,-0.0291447415947914,-0.9098807198712712,0.0401598833742237,0.3159918062518714,0.2658072540719666,0.2772257328033447,0.4876838326454162,-0.3307003676891327,0.927732392783463,0.5738420902401209,-0.5230220035851001,-0.004755965899676,0.0132348844781517,-0.0573134763954672,0.0132687212899327,-0.0099173979559331,-0.0742508338327752
170,0.066174,-0.115275,0.385066,-0.064582,-0.03298,-0.706091,0.704398,0.0684580346763134,-0.2363035683650523,-0.2019827080249786,5.905823295432329,0.9470822592891752,7.771400894212722,-0.0326748602092266,-0.0887878388166427,-0.0351162515580654,-0.9085179611803056,0.0404646297153509,0.3195800868398531,0.2661323449253919,-1.4174411296844482,-0.3284570574760437,-0.4190119206905365,-1.6132167026489972,0.9504173950612544,2.250934760472178,-0.0408544912934303,0.0197375956922769,-0.0722981699616182,0.052492719143629,-0.0121230296578723,-0.0463319951552664
171,0.067789,-0.115042,0.386646,-0.058086,-0.034936,-0.708877,0.702067,-0.2250841821491718,-0.0817782656289637,-0.1126321074455976,5.8935062501728535,0.9329168827492744,7.782456541234255,-0.0984978750348091,0.1282600909471511,-0.0098935645073652,-0.908487662189105,0.041374632705766,0.3185800913506265,0.2672918629250109,1.085649490356445,-0.1850283592939376,0.1202360615134239,-0.0864674463585019,-0.4525613969147205,-1.3045093576565383,-0.0393452271819114,0.0169597696512937,-0.1062273732361383,0.0494795329868793,0.0575402160897385,-0.0393286876978818
172,0.068529,-0.114121,0.387463,-0.056209,-0.032858,-0.711028,0.700144,-0.0087368486851453,0.0067801616594195,0.0041927755147218,5.85343201393783,0.9106479869917036,7.81526984655559,-0.0044222404249012,0.1477101147174835,-0.0088692251592874,-0.9093728114286492,0.0418318233422394,0.315883271677738,0.267411593292809,-0.9880964159965516,-0.0079405074939131,0.045278925448656,0.2759852250859141,2.303520687755942,-0.6627510845318436,-0.022608833387494,0.0123786935582757,-0.1168845041930675,0.0304357893764972,0.0447699015042744,0.0360691470458172
173,0.067408,-0.113874,0.386741,-0.056621,-0.033506,-0.707702,0.703441,0.0649415509879589,0.2603252260740846,-0.208099145078659,5.823298156958818,0.903555982904136,7.838569473600387,-0.1187006086111068,0.0858638659119606,-0.0599613934755325,-0.9096940969329044,0.0420406060360446,0.3139693874579645,0.268537730964792,-0.2166210114955902,0.1611897200345993,-0.025798313319683,0.0959182885318994,-0.9861018719047308,-0.6857721868962049,-0.0359217002987861,0.0567621402442455,-0.0714910045974655,0.0296929758042097,-0.0153626782993786,-0.0625800368878524
174,0.065375,-0.115002,0.385611,-0.063436,-0.036027,-0.705991,0.704453,0.0628910481989383,0.0318026669740676,0.2168015069723129,5.797066568115353,0.8788916433773935,7.860785397061705,-0.0664543509483337,0.0278503727167844,-0.0455762483179569,-0.9098077690899922,0.0434171197873206,0.3119718519005973,0.2702559012693917,0.8967342376708984,0.2874670922756195,-0.0397488176822662,-0.2244116897150874,-0.2523766782224178,-0.4105389492213726,-0.0499386750161647,0.0331262573599815,-0.0339572534753591,0.0292697194963693,0.029159694167634,0.0037884022439568
175,0.065424,-0.1154,0.384907,-0.063925,-0.036901,-0.706833,0.703519,0.0249585001677274,-0.003278583279252,0.0166138656705617,5.8127036977082485,0.890779211178422,7.84788967513144,-0.0136383213102817,-0.0767222121357917,-0.0607502907514572,-0.9091037426182506,0.043489883379322,0.3130137737224884,0.2714063133590176,0.2183376401662826,0.2480427473783493,-3.53413634e-06,0.4375046975582838,-0.1558820511072874,0.2285977432280778,-0.0321322046220302,0.0375371500849723,-0.0288225255019846,0.040452379733324,0.0153553603593143,0.0350193594316719
176,0.065833,-0.115297,0.385796,-0.066833,-0.030519,-0.708911,0.701461,0.1076625023394823,-0.0135629536673426,-0.0961181950181722,5.826665587565302,0.9004651042167097,7.836422524699568,-0.0235691983252763,-0.0704998970031738,-0.0673372074961662,-0.9084066329437452,0.0436836768521658,0.3139193791504691,0.2726607208384854,-0.6948198080062866,-0.2872606813907623,-0.1773902326822281,-1.0047878676742314,0.9189549198269844,0.2920271360874176,-0.0108190793544054,0.0257957074791193,-0.0424764796377392,0.0353661254048347,0.064671264412906,0.0414421909868251
177,0.06557,-0.11449,0.388007,-0.060612,-0.029255,-0.708115,0.702882,0.2043167039304971,-0.2944621812146157,-0.1364846921980381,5.842389226397872,0.9016915772717444,7.824565498167276,-0.0663396120071411,0.029029257595539,-0.0459748059511184,-0.9076684177046463,0.0443769791750347,0.3147838292904321,0.2740072771512958,-0.2350061535835266,-0.6069118976593018,-0.4767569005489349,-0.4761088612407446,-0.5299316368430853,2.6853651651516555,-0.0225541703402996,0.0142074562609195,-0.0199355505893123,0.0616932697594165,0.0433536140987183,-0.0039898077092162
178,0.064921,-0.114605,0.387607,-0.059385,-0.03029,-0.708248,0.702809,0.1447106687515973,0.0754969203371554,-0.005332008677721,5.794854737284779,0.8887677252255379,7.861306206065416,-0.091796189546585,0.1639905422925949,-0.0638783350586891,-0.9081263329926196,0.0448096592466103,0.3117323125561881,0.2759013830178899,2.0578908920288086,-0.137386754155159,0.0885170772671699,0.4278197543680667,0.3558142563432455,-0.9431833521544932,-0.0156923774629831,0.0150225721299648,-0.0913985004193615,0.0593147948384285,0.068494485096028,-0.0633549439502181
179,0.06542,-0.115267,0.386572,-0.064042,-0.035238,-0.710389,0.700003,-0.4884884503424167,0.2693690218165516,0.0606938304156065,5.790746717444062,0.8867310317661613,7.86456257751286,-0.0462764278054237,-0.1243752986192703,-0.1267578452825546,-0.9075139476679488,0.0456284054202989,0.311347007287681,0.2782076370617069,-0.9703011512756348,0.0600895695388317,-0.0239468831568956,0.6118488725513219,1.6856413028687238,-0.2653413737356662,0.0109993396326899,0.0054245428182184,-0.1076578352975193,0.0448186062276363,0.0957744322149548,-0.0075103008524078
180,0.065615,-0.114589,0.387759,-0.061795,-0.037503,-0.709812,0.700673,-0.2362345217168331,0.0510910856161266,0.0092751933455467,5.8247501093328,0.8989582067850976,7.838019438502192,-0.0195728596299886,-0.0399105660617351,-0.0188887119293212,-0.9063362030082892,0.0461277262904906,0.3134397031104197,0.2796114836890169,-0.2498316913843155,-0.0045507824979722,-0.0615714266896247,0.1158425939247012,-0.6907564050495624,-0.3889005333870649,0.0021214722655713,0.0485839247703552,-0.1293199334015138,0.091735690832138,-0.0164068718563765,0.0081363757410785
181,0.064861,-0.114912,0.387635,-0.065357,-0.037084,-0.70876,0.701436,-0.0227028301954269,0.1640912226565182,-0.0984019220411777,5.815922659754753,0.8860656266599893,7.846038494306803,-0.0583953484892845,0.0478101335465908,0.0373168624937534,-0.9065459465730086,0.0466352207780121,0.312711561732781,0.2796626531290626,0.6710901856422424,-0.0372567437589168,0.0200361534953117,-0.1042848425999283,-0.1964022775441408,0.1425210497528314,-0.0106315799057483,0.0251046568155288,0.0029450752961012,0.0677471160888671,0.0450422384725185,-0.0539920860209502
182,0.064377,-0.115412,0.387363,-0.067773,-0.038213,-0.70773,0.702186,0.3052747401952743,0.0537156619660556,-0.0597457359105348,5.800088546285033,0.8626648042630404,7.860354019907116,-0.0519544444978237,0.0063193282112479,0.0048147733323276,-0.9069684707841048,0.0475054436843048,0.3114108610707402,0.2795972025963918,0.69374680519104,0.242750346660614,-0.0203085392713546,0.6376981840789318,-0.5456973612517119,-0.8732593365788459,0.0042703822255134,0.0020896163769066,-0.0286386499851942,0.0483205989003181,0.0471102723516523,0.034341670232662
183,0.064583,-0.115241,0.386706,-0.06838,-0.039902,-0.708061,0.701699,0.517490672942996,-0.146749773363769,0.1680237397998571,5.779707437035441,0.8507944798577577,7.876643475928902,-0.0428936816751956,0.1221548542380333,-0.0192138124257326,-0.9072825805241472,0.0478853660153704,0.3100160511052746,0.2800629336298467,0.1526108235120773,0.0436588749289512,-0.2016513049602508,0.059644613623619,2.1782570622742177,1.0894424193918704,0.0273209493607282,-0.017331063747406,-0.040026926494576,0.0359920002520084,0.0954558769182302,-0.0040870284266828
184,0.065838,-0.11449,0.388268,-0.065474,-0.03695,-0.709346,0.70084,-0.0787742615073919,-0.2782086002238094,-0.1348059453308582,5.793135073885321,0.8567076494242996,7.866131434264779,0.0369830541312694,-0.2005619555711746,-0.039372731000185,-0.9067884554735796,0.0480578082749563,0.3108526118943936,0.2807060221532774,-0.4571992456912994,-0.5610017776489258,-0.3102238476276397,-0.966684639251232,-0.4380670076161623,3.022320114985108,0.0123048294335603,-0.0223961975425481,-0.0448780563201755,0.0230121202766895,0.0512593731214292,-0.0463180625280365
185,0.066732,-0.113766,0.389766,-0.061971,-0.036272,-0.709764,0.700771,-0.1487538066625595,-0.0866015941321849,0.0299047243982553,5.851143610739707,0.8756406787574291,7.820981794461607,0.0228660479187965,-0.0463944710791111,0.005349108017981,-0.9055753081592056,0.0481298343092039,0.3145225348788785,0.2805218390710794,1.444843888282776,-0.0886123925447464,-0.1285513788461685,0.3067944971084594,-0.0882096138507127,-0.093009707608819,0.004355935845524,0.026891503483057,-0.1139674842352047,0.0394248738884925,0.0493085861135274,-0.0211378390511614
186,0.067436,-0.113198,0.390584,-0.059726,-0.035757,-0.709939,0.700814,0.369357044005394,0.2381529225587844,-0.2716243995279073,5.82070229524672,0.8709609234433621,7.844184975394606,-0.1204748675227165,0.1673868745565414,-0.036192700266838,-0.9059408095068197,0.0481104606751709,0.3126391827353543,0.2814486605633898,2.179749727249145,0.0325231365859508,0.6854041814804077,-1.318096861243248,-2.169820657840371,-2.1442396418601275,0.0220580343157053,-0.0239612627774477,-0.0311399515819037,0.0217441786080598,0.1234541283743455,-0.0430961961383931
187,0.067895,-0.112685,0.391089,-0.057236,-0.036628,-0.709225,0.7017,0.4257838646262883,0.3139082746364176,-0.4381850810378789,5.802582116666436,0.8442868515294045,7.860509502729773,-0.1419184207916259,-0.080095000565052,-0.1577321141958236,-0.905619318977787,0.0499823992256385,0.3110101492252863,0.2839511064419083,-1.0217630863189695,-0.2492916136980056,0.0027294685132801,1.2074006902962922,0.8273673539757728,1.3163935644567013,0.0179679132997989,0.0051693702116608,-0.0735447587894974,0.0536083094775676,0.057866091609816,-0.0151912900881143
188,0.068288,-0.112593,0.390567,-0.057595,-0.038303,-0.709762,0.701038,0.2244353628516197,0.053071884169802,0.0440302803844213,5.832745199739933,0.8431078708779066,7.838280135264992,-0.1229414269328117,-0.0486103221774101,-0.1597494930028915,-0.903847654482302,0.0518745696976576,0.3125187169092606,0.2875771621509547,0.2921775281429291,-0.1142286509275436,0.0288362372666597,0.1008715270251035,-1.0400853910267351,-1.2925544237077236,-0.0163451228290796,0.0289329420775175,-0.0769373832027427,0.0702180415391922,0.0159389358258631,-0.0860258218045346
189,0.069231,-0.112888,0.38994,-0.055657,-0.046131,-0.708401,0.702098,0.1311456692576408,-0.0117548082668334,0.0879717134416103,5.841788922417163,0.852269301650673,7.830551002317667,-0.0979954972863197,-0.0595963858067989,-0.1744016110897064,-0.902427894546153,0.0528856878975311,0.3129794116558749,0.2913263846850732,-0.4413185715675354,0.0566356070339679,-0.286629170179367,0.8369286707863212,0.2045411603361368,-1.0010276383578778,-0.0132964728400111,-0.0059113763272762,0.0495216215094318,0.0494296364486217,0.1088142296578735,-0.0305254044467117
190,0.069331,-0.113098,0.389479,-0.055609,-0.049286,-0.709582,0.700694,0.1413210263133049,-0.1373942082583904,0.3267985897392034,5.885183827507496,0.8824399104434997,7.794632716718316,-0.0156166292726993,-0.2314497083425521,-0.226321741938591,-0.9002208036656794,0.0535001479460466,0.31578800150058,0.2949885971711873,0.440128356218338,0.3939676880836487,-0.3302523493766784,0.4378711927831172,-0.4366284992456435,-0.7392781516343355,0.0016821464523673,-0.0007080361247062,-0.0471437407964142,0.0559333153069019,0.0522296794583089,-0.001466530601072
191,0.07028,-0.113032,0.389784,-0.054558,-0.04967,-0.71079,0.699524,0.0823719937384128,-0.112549397598207,-0.1370902568757534,5.964633211797476,0.9231362971648572,7.729253358834981,-0.1314046829938888,-0.2856530249118805,-0.20684315264225,-0.8968863225128044,0.0546438788802756,0.3208298692738524,0.2994615181717586,0.8182551860809326,0.1007632240653038,-0.1664302051067352,-0.3162146518826484,-0.0238619371026754,1.3813275166600942,-0.0191705673933029,-0.0266085620969533,-0.0032804190433118,0.0478438772261142,0.1200870630940422,-0.0579749268457293
192,0.07082,-0.112716,0.390733,-0.051929,-0.048689,-0.710748,0.699836,-0.1649953318893909,-0.1225765783548355,-0.490882652002573,6.056527067118883,0.8692682211160659,7.663761188226938,-0.1713077425956726,-0.451671302318573,0.0017648300854489,-0.894519721331129,0.0598269732740215,0.3250809817540568,0.3009611685033915,0.8095716834068298,-0.2248774468898773,-0.2355246394872665,-0.4234153819292783,-0.6537649372607469,-0.0977729764878749,-0.0583537258207798,-0.0176902785897254,-0.1054202033054083,0.0453159287571907,0.0543005674482323,-0.055576733997045
193,0.071045,-0.112332,0.391817,-0.05156,-0.048852,-0.710951,0.699645,0.5929448501169681,0.2030917652454227,-0.5011790050894022,6.2731765983998775,0.8946497690014541,7.484466697350144,0.0083417100831866,-0.9588690996170044,-0.4664480984210968,-0.888330911700172,0.0643599716608306,0.3380180175679845,0.3040885170987497,2.3317413330078125,0.2151351273059845,-0.1452291756868362,0.3159983787834644,-1.0454735138058662,0.0842237590849399,-0.0653003081679344,0.008954512886703,-0.0638786664302228,0.0311989486217498,0.0421211451277369,-0.0736633984667947
194,0.071532,-0.112709,0.390787,-0.054324,-0.05217,-0.710864,0.699285,0.588862549239397,-0.3008532704912126,-0.3142880677342414,6.484806255692243,1.0939324973527342,7.274681206619739,0.073219820857048,-0.6619737148284912,-0.8208732008934021,-0.8784930893811363,0.0632846032333951,0.3536800081876972,0.3148895015435865,3.226827383041382,0.1826577186584472,-0.4224448204040527,-0.1466886908262968,-1.1167203024178742,-0.8084405351877212,-0.0742247030138969,-0.0053931521251797,-0.0484464300259714,0.0374237932264804,0.0412116975660435,0.0232443783097784
195,0.072083,-0.113846,0.38963,-0.059993,-0.056647,-0.710849,0.698488,-0.321163214200735,-0.2023614782094955,-0.5303127451151609,6.595616992929577,1.2680804921865465,7.1456409852087495,-0.1187326237559318,-0.1572308987379074,-0.4975691139698028,-0.8703923125421691,0.0620074168543905,0.363082319483698,0.3267162327670063,4.341752052307129,0.2927571833133697,-0.2283662110567093,0.1222822715833783,-1.6315116532742977,-0.2940028200745582,-0.0641683265566825,-0.0121360504999756,-0.0215498858841951,0.0448790937662124,0.0498329113817308,0.0285062740434892
196,0.072114,-0.114114,0.389136,-0.064521,-0.056025,-0.710203,0.698792,0.2384948678642511,-0.2685368087761104,0.106558925011754,6.36845366641879,1.3469747268117964,7.33476888783574,0.0299828145653009,1.507759690284729,-0.2748452425003052,-0.8731928352687008,0.0554442177176613,0.3506519709093138,0.3339211097847978,3.8558175563812256,0.5731108784675598,-0.0452343299984931,0.1452025439217686,-1.2221452549636362,-2.269253091973066,-0.0397788323462009,-0.0316765345633029,0.0256780055147362,0.0219375863671302,0.1191138889466412,0.0396175008768914
197,0.071502,-0.114063,0.389372,-0.066629,-0.053577,-0.708699,0.700311,0.2255792721897363,0.6951714450128376,-0.6935089186280965,6.073564711159468,1.3301733757451175,7.583721436828374,-0.562723696231842,0.0596477128565311,-0.1060747727751731,-0.8779681459956559,0.0517097689309331,0.3326618553342504,0.3403440999630783,1.670042634010315,0.2676271498203277,-0.0576134361326694,-0.4060246866673231,1.7582777922734618,-1.011582934641838,-0.0240072552114725,-0.0137529140338301,-0.0869630935214925,0.0398997738957405,0.0318084482608828,0.1135209460441023
198,0.07032,-0.113536,0.391612,-0.06727,-0.04971,-0.706759,0.702492,-0.6193371824800967,0.2545342215824872,0.2572463300853967,6.229848913326859,1.17330772042796,7.482159589451551,-0.3176841735839844,-1.0533989667892456,0.124632328748703,-0.874086535101472,0.064175518614941,0.3382270270275462,0.3427195178069318,1.470083236694336,0.3517357409000397,0.0309686940163373,-0.2107990516871213,-0.5757729852374642,-0.3824608557283878,0.0054284185171127,-0.0204504746943712,0.0285751060625771,0.0519560948014259,0.146783401638735,0.118914895775821
199,0.070179,-0.112434,0.393414,-0.06903,-0.040066,-0.707967,0.701721,-0.1578957290172576,0.0379705419540405,0.4355301826149225,6.662941055139899,1.097779016713053,7.111292725405097,0.0242853574454784,-1.4510314464569092,0.0284791402518749,-0.8645945349538561,0.0774848565802164,0.3625204413627084,0.3391922794480055,0.7726149559020996,0.080410823225975,0.0097016245126724,-0.0372772989928722,0.6444618329949676,0.4268529551625251,0.0191723462194204,-0.0209254249930381,-0.0820920351527165,0.0288940761238336,0.0528741102751111,0.0192476025744806
200,0.069098,-0.110068,0.399805,-0.05844,-0.024223,-0.708181,0.703191,0.9822545488268136,-0.2346402382627129,0.8543208273530006,6.894668913087249,1.2023466948423531,6.869373728311062,0.2630330324172973,-0.1836490035057068,-0.4720204472541809,-0.856972318717378,0.0789296043377966,0.3788529279213251,0.3403513545911601,0.527133584022522,-0.0352099426090717,0.1677609086036682,0.0839694920629262,0.0011455533059313,0.3669540745168924,-0.0009346937295049,-0.0067839729599654,-0.054104729782301,0.0222439020872116,0.0002548446940374,-0.0027386174839222
201,0.068622,-0.109554,0.400571,-0.05798,-0.02157,-0.708391,0.703104,0.8592518540143966,-0.0419645800262689,-0.1726923161327838,6.830025468263029,1.4617258722379802,6.883638985028862,0.1463623195886612,0.1084489822387695,-0.9613472819328308,-0.8530134708300646,0.0690089347641894,0.3798287076846114,0.3511920661703075,-0.2837827205657959,-0.1035800501704216,0.2476992756128311,-0.1876715663388371,1.1592248345397411,-0.4027735759168863,0.0121442778035998,-0.0469216629862785,0.0527023202050477,0.0189554467797279,0.0784829138780012,0.0377719095428241
202,0.067953,-0.109794,0.399718,-0.06132,-0.023122,-0.70802,0.703145,0.5329454317063093,0.4192388268969952,-1.0013356813937424,6.78388447933495,1.820985592859984,6.843486422860622,0.1480073481798172,-0.5381786823272705,-1.458937406539917,-0.8437233499997195,0.0585591895772286,0.3842526654144474,0.3702048079879276,-0.363641619682312,-0.0531106479465961,0.3553374111652374,-0.2163452876374125,0.6984837844312191,0.0541828410863876,0.0449709333479404,-0.0652847811579704,0.0114443757694156,0.0384006090462207,0.0326615100098191,0.0448584976697573
203,0.067249,-0.110263,0.398588,-0.065182,-0.025489,-0.707642,0.703097,-0.6945382616758347,0.6582509966336191,-2.486393621641397,6.980065807604789,2.3211831856966016,6.485458582121133,0.0951833873987197,-1.9834848642349243,-1.6052770614624023,-0.8210369555467336,0.0525476555355673,0.4081328122824743,0.3956824132978386,-0.5046109557151794,0.0099088493734598,0.4750780463218689,0.0854155992180109,0.970270242653042,0.1593359909534454,0.0508808717131614,-0.0732206106185913,0.006932939926692,0.033484760671854,0.0114712809010059,-0.0019428109098895
204,0.066882,-0.110479,0.398097,-0.067193,-0.025587,-0.707751,0.702794,-2.696509367239475,0.2819692679315805,-3.2330314883887765,7.451244226706027,2.6368621232673526,5.804852399685979,-0.1158363819122314,-2.496447324752808,-0.5640649795532227,-0.7919133048523128,0.062360912700277,0.4473767963516469,0.4108996822062408,0.0937003642320633,0.0061748321168124,0.5357592105865479,-0.2327837967410683,-0.8353408901382238,-0.2646604057341813,0.0133137535303831,-0.0681504383683204,-0.0617170679495437,0.0391117930412292,-0.0572289810163667,0.0083447475199529
205,0.066366,-0.109981,0.398244,-0.06505,-0.020777,-0.708217,0.702684,-2.4862054055929184,-0.4171174508288502,-2.791366164019704,7.9900249404370784,2.580577341465652,5.06660534466505,-0.444231241941452,-2.606152057647705,0.3479519486427307,-0.7690402249434792,0.0860368958720252,0.4840172076492079,0.4085364363104608,0.5403904914855957,0.3810648322105407,0.624059796333313,-0.0186509244561195,0.0339800840783864,-1.3983049549460411,-0.0246127154678106,-0.0271642412990331,-0.050768210337311,0.0608222670853138,-0.0388251038236077,0.0616661095138639
206,0.066107,-0.109971,0.397735,-0.065379,-0.019415,-0.708522,0.702385,-0.8155448142349719,-0.7101230765596032,-1.7239970447480677,8.495545189601183,2.303763848862052,4.323052584451437,-1.5629901885986328,-2.46101188659668,0.1628501564264297,-0.7431514093068661,0.1253775060554735,0.5136790266374188,0.4100493171168458,-0.730140745639801,0.6624729037284851,0.826761782169342,-0.222761876681447,2.5513983009934424,-2.8362270500093696,0.0177470985800027,-0.097869299352169,0.1185431489871349,0.0737938806414604,0.1165231326679233,0.214088229425624
207,0.065662,-0.110503,0.396347,-0.067473,-0.019813,-0.708684,0.702012,-2.429679800772667,-1.7357020955890416,-0.2372770165070891,8.877863421988486,1.9438478562884032,3.68447790979892,-1.3690825700759888,-1.8910549879074097,0.6563780307769775,-0.7180253025370743,0.169692095212181,0.532304889337556,0.4150851901306215,-1.325924038887024,1.3749289512634275,1.5188645124435425,-0.2183591116778552,1.9888576492294667,-3.714432026296854,0.0612950883805751,-0.0833125784993171,-0.0579566970692947,0.080920785665512,0.0482079998939065,0.0778239019799977
208,0.065295,-0.111416,0.393477,-0.071815,-0.021529,-0.708555,0.701662,-2.652856687995792,-1.6318657274089752,0.9981664037078618,9.138000212818383,1.3982814279399811,3.2729394281461834,-0.6854967474937439,-0.8107399344444275,1.4451452493667605,-0.708926567246975,0.2073974440432697,0.5386212301443091,0.4053350591394436,-2.1121504306793213,1.778107523918152,2.0574893951416016,-0.8013384480975568,2.517482587388158,-3.5016245573967693,0.0824779197573661,-0.0878064036369323,0.0248708355840062,0.1260577887296676,0.1223535375881474,0.0558655471760546
209,0.064768,-0.112338,0.390647,-0.076291,-0.023614,-0.7081,0.701581,-3.7363463364630936,-1.661283983464539,0.2444043841689825,9.307354908961058,0.7598670584157109,2.994352203868329,-0.0182514004409313,-1.1805837154388428,1.8146504163742063,-0.7115250570040114,0.2359626802569638,0.5400482784080037,0.3826246726941401,-2.16604995727539,2.4251084327697754,2.683168411254883,-0.646096010068059,1.1979764438688754,-4.113956245028972,0.0645420476794242,-0.1087366715073585,-0.0280153578545432,0.2034673541784286,0.0121157117178081,0.0187713199823745
210,0.065754,-0.113241,0.385306,-0.080779,-0.026623,-0.707972,0.701101,-1.8548504530608647,-1.2543689238287508,0.1304062490671873,9.562084872311353,0.0288370883168769,2.176257559020072,-0.0395417213439941,-3.1386101245880127,1.890001893043518,-0.7024027783030694,0.271945562426443,0.5613264264973689,0.342912059476423,-1.6202187538146973,2.6338112354278564,2.6063685417175293,-1.0889990595385433,-1.0633563764989375,-1.5739076055675745,0.0246443599462509,-0.1318542659282684,0.1612078492399305,0.2921490669250488,0.2717423633517697,0.055431064748927
211,0.066814,-0.114016,0.382544,-0.080278,-0.028485,-0.708731,0.700318,-1.4155571185201403,-2.046594675666093,1.936823802870512,9.755610133114455,-0.6498749440848827,0.7590471934001892,0.1616155803203582,-3.85236406326294,1.829342246055603,-0.6707258424211093,0.3164434556781769,0.6009683048479177,0.2980396840818904,-0.9139090180397034,2.770214080810547,3.187894582748413,-0.1886287209331989,-0.1186512216046452,-2.0897797373980285,0.0623329877853393,-0.2167843580245971,0.1893871563513763,0.3348848223686218,0.3145123780094087,0.1724864365634508
212,0.067804,-0.115048,0.378977,-0.080308,-0.031276,-0.709103,0.699818,0.8103308789789676,-1.9731886631935835,2.1456138528227804,9.675373397839069,-1.5093272891074418,-0.5286296508664265,0.1365621536970138,-2.491065263748169,2.60691785812378,-0.643474808439425,0.3579540612532869,0.6315231591132202,0.2428733554307179,-0.5295029878616333,3.008997678756714,2.408649444580078,0.1312099666655063,-2.754366220663488,0.0810416219174861,0.1339566111564636,-0.2589620053768158,0.0951233752945438,0.4083772301673889,0.2713397191013209,0.2893055656364187
213,0.06882,-0.116079,0.373852,-0.082484,-0.034102,-0.709126,0.69941,2.307214281576872,-1.8657883189216256,2.388281476327032,9.422579370987414,-2.542236504894495,-0.9604393151208758,-0.7863422632217407,0.2836740612983703,2.701508045196533,-0.6396383788397237,0.4018363725707393,0.6224920128597444,0.2046804949986334,-1.1035889387130735,3.2941527366638184,2.3930938243865967,-0.5093365925818681,-2.631340437236428,-0.4056950163215398,0.1711343675851822,-0.2748562693595886,0.0705080853741848,0.4973557889461517,0.0504818037445191,0.2192250443248078
214,0.069106,-0.117425,0.368276,-0.086333,-0.036312,-0.708884,0.699079,1.042336969345808,-1.832076603455841,1.6868986094534395,9.138855368342996,-3.4757188395068046,-0.7557043857783079,-0.6146957278251648,0.907785177230835,2.600187301635742,-0.6528362904392209,0.4403398962828994,0.5870527900553246,0.1878153456642537,-1.9898245334625244,3.610599994659424,2.1563990116119385,-1.3810036915332078,-0.1729620729848742,-0.8524059336423874,0.1090279147028923,-0.188630998134613,-0.0342770257649244,0.5690615177154541,-0.0169774177363491,-0.1281457019903697
215,0.068607,-0.119775,0.355233,-0.093221,-0.038942,-0.707335,0.699622,-0.1045049150913953,-1.4977534634307026,0.8170879520237445,8.737845879489184,-4.412333042404056,-0.5930808610541746,0.3177271485328674,-0.0042096404358744,2.592698574066162,-0.6665386050665396,0.4706072393988754,0.5556685479661252,0.1596482459663497,-3.2305381298065186,3.2348554134368896,2.1696956157684326,-2.8807600192189216,0.3090928371787071,-0.0894616597384214,0.0531385987997055,-0.2804490923881531,0.195808330238983,0.6345754861831665,0.1844572622011415,-0.1004320761619135
216,0.068799,-0.12086,0.348661,-0.096044,-0.039476,-0.707043,0.699505,0.3163426621764898,-1.652016681164503,-0.8449567866802216,8.253402905145286,-5.24792286580205,-0.714865156520158,0.5939199328422546,-1.254425287246704,2.266028642654419,-0.671104712090343,0.491552481453359,0.5429771056764416,0.1147628328043944,-3.1107113361358643,2.609016895294189,2.6336758136749268,-3.422466265007853,-0.0891986248880624,1.2863108531430365,-0.0383472479879856,-0.2942932844161987,-0.0596508287352742,0.7331781983375549,0.1213122027085162,-0.0158620106902206
217,0.069677,-0.122067,0.341606,-0.098222,-0.041102,-0.707333,0.698816,0.9767343241006136,-2.315451948568225,-1.1832641740359364,7.700751486971974,-5.973275367936492,-1.090329139098525,0.1622135639190673,-1.4251551628112793,2.2232627868652344,-0.663333950149318,0.5131640617345109,0.5406051817915296,0.06630878180146,-3.218634605407715,2.0184621810913086,2.7389585971832275,-4.581135365360975,-0.9892284794926642,1.4467451607272028,-0.1219745501875877,-0.2695591449737549,-0.0944912788029294,0.8596544861793518,0.0958352772904094,0.1342490147009957
