time_imu,phone_acc_x,phone_acc_y,phone_acc_z,phone_gravity_x,phone_gravity_y,phone_gravity_z,phone_gyro_x,phone_gyro_y,phone_gyro_z,phone_ori_w,phone_ori_x,phone_ori_y,phone_ori_z,watch_gyro_x,watch_gyro_y,watch_gyro_z,watch_acc_x,watch_acc_y,watch_acc_z,headphone_gyro_x,headphone_gyro_y,headphone_gyro_z,headphone_acc_x,headphone_acc_y,headphone_acc_z,frame_imu
1734065202993166600,-1.1606513602115214,12.470372365403176,-2.039523129844665,0.0427089092872804,9.753056356978416,-1.0229604340288787,-1.5095536708831787,-0.1612820923328399,0.2835621535778045,0.2360798826445528,0.2590889236719074,-0.6964405186403583,-0.6261867363181417,-0.1821834594011306,-0.3494981825351715,0.1417398154735565,0.0571876168251037,-0.0216834545135498,-0.0265238285064697,0.1974482387304306,0.1819473057985305,0.2254629523336887,-0.607295572757721,-0.1832649654103443,-0.2058959359459579,0
1734065203033166600,0.3738212934052571,10.94961825787425,-1.724464662259817,0.09185080163097,9.79973042986989,-0.3566945828417316,-1.628627061843872,-0.3252918422222137,-0.0736681893467903,0.2429300020958574,0.2456016292031582,-0.6766581137342531,-0.6502296835148779,-0.1965149939060211,-0.3285816311836242,0.223033532500267,-0.0067664980888366,-0.0156183242797851,-0.0034985467791557,0.2384214848279953,0.1618455648422241,0.5447597881406545,-0.9174039363861084,0.128347855232656,0.0675689768821001,1
1734065203073166600,0.515332581593655,4.193815379163623,-5.753466495841741,0.0613709213929949,9.802237444254756,0.287653907705564,-1.7316280603408811,-0.4606243371963501,-0.1000575944781303,0.244202161443266,0.2330353342348166,-0.6565274289809584,-0.6745602397124296,-0.0954467058181762,0.0842145234346389,0.3174194991588592,-0.1988644003868103,0.1354900002479553,-0.094476468861103,0.275501549243927,0.0618476942181587,0.6770148799449205,-0.9698944091796876,0.3467825894299894,0.5973248187668622,2
1734065203113166600,0.0449967279635136,-5.433691521129012,-7.10481388477981,0.073516208548448,9.739365100756286,1.1444484134294093,-2.708894729614258,-0.1664248704910278,0.0625459104776382,0.2483998515153213,0.2161835364865115,-0.6284218717945634,-0.7047327406475039,0.9591932892799376,0.8067483305931091,0.1663257181644439,-0.8035110235214233,0.6063001155853271,-0.4754483699798584,0.2420349419116974,0.0247433744370937,0.4420493552505969,-0.7524139881134033,0.2266186617074534,0.6293713774994015,3
1734065203153166600,0.234014726775512,-11.476254944825172,-2.5390894390404224,0.0715451642038067,9.565532966938614,2.1600572425864635,-2.3265163898468018,0.4322616457939148,0.0461342185735702,0.2627102897114096,0.2055983124860373,-0.5895736268122963,-0.7356056004645544,2.2283825874328613,1.5441840887069702,-0.7436306476593018,-1.209150314331055,0.9663599133491516,-0.1497746706008911,0.1985299289226532,-0.012833259999752,-0.2114917101263999,-0.5069619417190552,0.1099448228566907,0.1344464643687009,4
1734065203193166800,1.2843139802373944,-14.25715056823492,0.3720715636610984,0.0467123179760528,9.37836671977341,2.8660861817002297,-1.4568883180618286,0.4402990043163299,0.0325824208557605,0.2762990199506006,0.2016906775362232,-0.559634832149159,-0.7548434671760248,2.136861801147461,1.637195706367493,-1.555629014968872,-0.7318258285522461,0.6645054221153259,0.2242528200149536,0.1543513685464859,0.0142143797129392,-0.6412275272488593,-0.4111223816871643,0.0180944230845198,-0.4254337360143661,5
1734065203233166600,0.755079531878233,-14.053479760992529,2.057462398900092,-0.0037490788763214,9.266272956988216,3.210379803858697,-0.3868130147457123,0.1518469303846359,-0.0289310477674007,0.2832840279351886,0.2018779468597843,-0.5436556601453155,-0.7638284292018114,1.813273310661316,1.3044861555099487,-2.141943454742432,-0.0157420635223388,0.3372830152511596,0.4006168842315674,0.1383365541696548,-0.0105452109128236,-0.8463917879194021,-0.3482148051261902,-0.1976301571049727,-0.461689583005011,6
1734065203273166600,-1.1304823588538917,-11.119247679305076,1.877626640753448,0.0741906143784057,9.274813406318426,3.1847628397822376,0.5423824787139893,-0.4165244698524475,0.3745666444301605,0.283335128368311,0.1979212342300787,-0.5463052844837157,-0.7629540609598953,2.196998357772827,1.0461862087249756,-2.034926176071167,0.6709538698196411,0.0430081486701965,0.6265347599983215,0.1056331545114517,0.0663550868630409,-0.3985521588295698,-0.2401037812232971,-0.3243183537634089,-0.2885644284129142,7
1734065203313166600,-1.546466640934348,-5.751423591837287,0.970356898023188,0.3068688409863039,9.418442125052213,2.7146181476429105,1.9106701612472528,-0.4499114453792572,0.4931284487247467,0.2804706738603238,0.1926330657913526,-0.5696362892396253,-0.7481598061749053,1.4119967222213743,0.7735819816589355,-1.37145733833313,1.2001713514328003,-0.436208039522171,0.6202408671379089,-0.0090575590729713,0.0434447564184665,0.0964700771957635,0.0075912922620773,-0.2138633528948761,0.4504702698543668,8
1734065203353166600,0.9453907990708946,0.2151110696673393,-0.3480564818233251,0.4980135633284225,9.61757587338686,1.850567807305604,2.425572156906128,-0.1215494647622108,0.2814089655876159,0.2750183403318342,0.1961300093938622,-0.6059540579059339,-0.7202205073960377,0.1682640314102172,0.3626015782356262,-0.3806605935096741,1.3595926761627195,-0.6921952962875366,0.4138055741786957,-0.0761843621730804,-0.1385609656572342,0.6111398474991321,0.3226634860038757,0.2803090979007072,0.8849643874198198,9
1734065203393166600,-0.0092579499498009,5.420332273340225,0.1468657278936356,0.5165295362932607,9.747084296831488,0.9475837790705264,2.3401546478271484,-0.2336973845958709,-0.1027247905731201,0.2632236253628812,0.2053297490466691,-0.6399424722491973,-0.6921174397617476,-0.8828662037849426,-0.1257378011941909,0.6318621039390564,1.1457573175430298,-0.7411761283874512,0.2337734699249267,-0.0699195116758346,-0.1255339682102203,0.1566571271330118,0.3421168625354767,-0.1084623292139731,0.1979080059319734,10
1734065203433166600,0.911908654577285,6.421921637234092,-1.3949094672888516,0.4731369692904874,9.795203307834267,0.0227326065624714,2.1202738285064697,-0.0134310172870755,-0.1591744571924209,0.250459742890445,0.2177167592422969,-0.6718931257413074,-0.6621396886090893,-1.6349629163742063,-0.5998215675354004,1.3482091426849363,0.8757203221321106,-0.5090199708938599,0.4259815216064453,-0.0501268282532691,-0.0646289214491844,-0.0117488899827003,0.1234722882509231,-0.199640382682532,0.1583411346971988,11
1734065203473166600,0.0747174969298765,5.899570080256462,-1.9239643212974071,0.4171410509001463,9.77841174750924,-0.6156852358438074,1.2331985235214231,0.2601178586483001,-0.0977137461304664,0.2424718293384982,0.2289148119225147,-0.6920904696856138,-0.6401690071490415,-2.1569857597351074,-1.0035133361816406,1.5859384536743164,0.4115959405899048,-0.1696182489395141,0.3711419403553009,-0.036564365029335,0.0869085863232612,-0.1133393789321184,-0.0018890798091888,-0.2653079281237908,0.1776002541795373,12
1734065203513166600,0.8335268264535814,4.190773527249694,-1.4946037672281265,0.4126551011251285,9.75664824399054,-0.8988491934526711,0.3001576662063598,0.1438541859388351,0.0251064151525497,0.2420636123254056,0.2359943074873862,-0.7000965953618826,-0.6289488854152456,-2.4534659385681152,-1.4673019647598269,1.4176381826400757,-0.1905561685562133,0.0815146565437316,0.1039605438709259,-0.0586708784103393,0.0526198074221611,0.0860047972828149,-0.0686201602220535,-0.0697839677841402,0.1442874749034643,13
1734065203553166600,0.194199214541912,2.349929972231388,0.5850993973135948,0.4437057441554963,9.74916811736822,-0.9629345660027115,0.1928935647010803,-0.0320882499217987,0.0589319914579391,0.2427482142477406,0.2361900082098174,-0.7023605062093666,-0.6260809382788345,-1.7954905033111572,-1.3371119499206543,0.7396939396858215,-0.6330305933952332,0.5469130873680115,-0.0831527709960937,-0.0401089414954185,0.0085497386753559,0.0377186130195856,-0.0993455797433853,-0.0463908355033025,0.1008563294559717,14
1734065203593166600,0.4945617789067327,0.1509849267154931,0.1780547199487686,0.4120924622736871,9.741257782635092,-1.0528369552459569,0.2110466361045837,-0.0422985628247261,-0.1929361224174499,0.2399820166445843,0.2377015246780214,-0.7051083114962137,-0.6234812630404039,-1.313304424285889,-1.0503889322280884,0.3535948097705841,-0.6180480718612671,0.4568108320236206,-0.14781254529953,0.0030406229197978,-0.0133485421538352,-0.0375105232268571,-0.1904626488685608,-0.0210815491365268,-0.0208440505862236,15
1734065203633166600,0.1951532638637348,-0.3840045780390501,0.4817852994419634,0.3508743157230317,9.735455818358064,-1.1261245289705692,0.1982429772615432,0.0251463521271944,-0.0991550609469413,0.237068300969858,0.2407534020105771,-0.706720717686484,-0.6215964840978816,-0.4388120770454407,-0.5295208692550659,0.0662870705127716,-0.5148808360099792,0.5366715788841248,-0.2852604389190674,0.0420841351151466,-0.0118782324716448,-0.0514168835043907,-0.1772170215845108,-0.0093381390465423,0.1295724285915493,16
1734065203673166600,0.4171495630001649,-0.2873509609699249,0.4036848455429077,0.3308889277927577,9.72574281811714,-1.2127753690719605,0.2350831180810928,0.0160364862531423,-0.0283305197954177,0.2356383702533114,0.2428563663051016,-0.7091227822811973,-0.6185792015415376,-0.1444334238767624,-0.2955568730831146,-0.066493809223175,-0.3367176651954651,0.2588727474212646,-0.161043643951416,0.0543286129832267,0.0106822801753878,-0.0800929428905248,-0.0786151736974716,-0.0153278627143241,0.0975660557389259,17
1734065203713166600,0.196904527977854,0.3956277958154678,0.3728500006876886,0.3197940812719985,9.714338796049356,-1.303746410460025,0.25030317902565,0.0384783707559108,-0.0334985740482807,0.2343898497259934,0.2446427996460172,-0.7117741691752062,-0.615295772937583,-0.1455279886722564,-0.126745119690895,-0.0232119839638471,-0.0980831980705261,-0.0069144964218139,-0.0207463540136814,0.0232189297676086,0.0397773496806621,-0.1517588336974382,-0.0113029181957244,-0.0688409695792943,-0.0788353440448641,18
1734065203753166600,0.2149484081852249,1.713708874967694,-0.0229890997909009,0.2969619804074056,9.70543477410376,-1.3735793867513535,0.0904918238520622,0.0715640187263488,-0.1286676973104477,0.2334226576044512,0.2470631281900709,-0.7134373602981021,-0.6127648376086624,-0.1693507581949234,-0.1188059151172638,0.0074172317981719,0.0389508008956909,-0.0090399980545043,-0.0356805250048637,-0.033077199012041,0.1139729171991348,-0.2034317377895116,0.0300834402441978,-0.1878501743087545,-0.0177723880559206,19
1734065203793166600,0.5112920374985784,4.71454839502871,-0.5728199075855315,0.225523377284035,9.706327923551202,-1.3808489393629133,-0.1332420408725738,-0.0745898410677909,-0.2667805254459381,0.2313783407564434,0.2501286338084554,-0.7126284905249065,-0.6132376894266713,-0.1045749559998512,-0.1592025458812713,0.0244165211915969,0.0463827848434448,0.0291254520416259,-0.0477164983749389,-0.1034744381904602,0.1503769904375076,-0.2950958760082721,0.0231054928153753,-0.2231862395733594,-0.1030430258452892,20
1734065203833166600,0.1272848656436428,10.848319445347784,-1.860740095621348,0.0786165593281853,9.740916421851516,-1.130814878743887,-1.246985673904419,-0.6161900162696838,-0.3858097493648529,0.2259718333712881,0.2480448583358536,-0.7043644378172703,-0.6255247351685476,-0.0613502562046051,-0.1578196287155151,0.0937398001551628,0.0376977324485778,0.0167182683944702,-0.0462641641497612,-0.153932511806488,0.2581903040409088,-0.1144429562598466,-0.039350688457489,-0.3193538997564464,-0.0607712795659899,21
1734065203873166600,-0.0673466439348878,11.42478194721937,-1.4539046770930288,-0.0517648475586902,9.792782218167185,-0.5187682551307603,-1.7570172548294067,-0.5391283631324768,-0.1533983498811721,0.2208489761471554,0.2364870346023042,-0.6859473034971384,-0.6517483407710225,-0.0339005216956138,-0.0797709003090858,0.088778868317604,-0.0508439540863037,0.0294892787933349,-0.0348225831985473,-0.1893218010663986,0.2716806530952453,0.5673240866482258,-0.2477502673864364,-0.0510369077434763,-0.1525768720820546,22
1734065203913166600,-0.205300563868694,3.728305653348565,-3.789103528660536,-0.0582114938142709,9.8031247484833,0.2564590704315342,-2.116166830062866,0.2307788580656051,0.0581554546952247,0.2267003321571226,0.2247738805581917,-0.6606064859766215,-0.6794724974352399,0.1889626532793045,0.2154955714941024,0.0963237360119819,-0.1913717985153198,0.0824329257011413,-0.0526604689657688,-0.1919060200452804,0.1032449603080749,1.2141174313306808,-0.3244128227233886,0.3241553086888045,0.247717454239726,23
1734065203953166800,0.4862581340070813,-6.543786852449179,-4.49235058197081,-0.06442981577327,9.74752794894576,1.0732809736639262,-2.090829849243164,0.3795546293258667,-0.0477318279445171,0.2416100320146164,0.2206349048886265,-0.6297603810252965,-0.7045187721640427,0.6687729358673096,0.8108534216880798,0.1480594277381897,-0.4680533409118652,0.3215183019638061,-0.2441693544387817,-0.1705392599105835,-0.0757335275411605,0.727057552486658,-0.0042504072189331,0.2183132449758238,0.7642109328389167,24
1734065203993166600,0.3617467881973832,-13.015873911821842,-1.9235270989239213,-0.1260675440094433,9.641845806768536,1.7858609418563545,-1.4799693822860718,0.2844525277614593,-0.0764100328087806,0.252127959670731,0.2176007818838305,-0.6013288082165228,-0.7262816810465273,1.4836310148239136,1.3194433450698853,-0.3316970467567444,-1.1834590435028076,0.7595087885856628,-0.446171760559082,-0.0883675217628479,-0.1994264125823974,-0.31561493242383,0.2466448545455932,0.0941320809685625,0.2550438516050577,25
1734065204033166600,1.054403546975553,-15.262960764694212,-1.4387547464951873,-0.09956616178127,9.558178512522575,2.1912822558030487,-0.7595722675323486,-0.031848344951868,0.1621704548597335,0.2591591849424942,0.212583571619504,-0.5857336647611288,-0.7379437625837485,2.6453678607940674,1.3504209518432615,-1.1672279834747314,-0.8490116000175476,0.931186318397522,-0.046319767832756,-0.0021219849586486,-0.18742536008358,-1.0398474906176327,0.2233848869800567,-0.2206094478879123,-0.2126452640756964,26
1734065204073166600,0.5062157571475953,-13.55479140367508,0.5172469273149967,-0.0568539051928557,9.509189148426056,2.3963464170999824,-0.1965852826833725,0.0596472285687923,0.084080196917057,0.2628018230043337,0.2082533942388183,-0.5783172656675156,-0.7437169262255073,2.9740052223205566,0.9007603526115416,-1.6299692392349243,-0.0305334329605102,0.4349088072776794,0.4626671075820923,0.0658101737499237,-0.0505094528198242,-0.9000298546046018,0.1148398071527481,-0.2124684096714481,-0.3738412036821246,27
1734065204113166600,-0.5104433482473716,-8.311544128468633,3.0047213299304247,-0.0370808151562581,9.548149285939337,2.236485379359126,1.231958508491516,0.0081163933500647,0.0926467850804328,0.2635503033482833,0.2112224871975964,-0.5842568252502212,-0.7379501163441172,2.054228067398072,0.5865504741668701,-1.1646318435668943,0.8214032649993896,-0.2964584827423095,0.6872301697731018,0.0310422331094741,-0.0363720655441284,-0.4074088345021009,0.0135218575596809,-0.1117134034317918,-0.2099561711221933,28
1734065204153166600,-1.5207392022207378,-2.040508049228788,0.7712989914037287,0.0843676884671207,9.682651279887557,1.5522740120388567,2.057082414627075,-0.3054636418819427,0.4079122841358185,0.2567806532723895,0.2135657483199927,-0.6125730363809552,-0.7163852373139503,1.036661982536316,0.4629042744636535,-0.6857789754867554,1.2708656787872314,-0.5516102910041809,0.6275917887687683,-0.0306201390922069,0.0531760826706886,0.0346089565664529,0.1296174973249435,-0.1095568555855657,0.6100438689559697,29
1734065204193166800,1.525731603680551,3.81043097884953,-0.0417740989554673,0.2157509567397646,9.779954885298013,0.6901536168508231,2.411122560501098,-0.0475686527788639,0.1252316683530807,0.2507058952847025,0.2194586325706549,-0.6454842102499894,-0.6872660125699566,-0.2821942269802093,0.285837709903717,-0.0086829755455255,1.3348937034606934,-0.7836073637008667,0.5343611240386963,0.0361654348671436,-0.1546376347541809,0.438921578618884,0.0915971621870994,0.2605062999957241,0.1509489786192774,30
1734065204233166600,-0.4186483136579394,6.702914169088006,-0.6533271303653717,0.2209769294934347,9.80256243842542,-0.1770119511638768,1.9641656875610352,-0.1075391694903373,0.0117250867187976,0.2392587657077535,0.2284423650821145,-0.6758987969935323,-0.6585819755630877,-1.4201443195343018,0.0045789233408868,0.6652669906616211,1.0765821933746338,-0.7147344946861267,0.4851281940937042,0.0607108287513256,0.0069112926721572,0.3382563878208399,-0.0575674995779991,-0.01491298003681,0.2711994521141052,31
1734065204273166600,1.4066339534826575,6.103042150056361,-2.166385422694683,0.2528472000773065,9.762883338987828,-0.8902615439798682,1.5005581378936768,-0.0762669071555137,0.0491603128612041,0.230802387251028,0.2347491381681727,-0.7002025053080696,-0.63351367891363,-2.3129138946533203,-0.4249333143234253,1.2311190366744995,0.6444820761680603,-0.4650179147720337,0.3918011486530304,0.0456182658672332,-0.1121328100562095,0.218371532768011,-0.1234363988041877,0.0917049086205661,-0.0170332601264119,32
1734065204313166600,-0.1789142776538617,3.967450509554148,-2.1704536950469016,0.2701931246157735,9.72798153695464,-1.2098596277557312,0.3037456274032593,-0.2022207975387573,0.1472493708133697,0.2258103579224068,0.2359628521944635,-0.7113418342844118,-0.6223536353213932,-2.033266305923462,-0.7930375337600708,1.277459979057312,-0.0274268388748168,0.089586317539215,0.1141420006752014,-0.0355389416217803,0.0314220264554023,-0.0972182652145624,-0.0547386407852172,-0.2042350535290315,-0.0755097067534923,33
1734065204353166600,0.6134364340037107,2.381707504764199,-0.5079346168294548,0.337061478947848,9.714400170847773,-1.2989400330916046,0.1151334345340728,-0.0104792127385735,0.1460847556591034,0.2255357174248698,0.2330088457570512,-0.7154959030618472,-0.6187942290819133,-2.3854310512542725,-0.968685507774353,1.1743415594100952,-0.3921762108802795,0.1886659860610962,0.0203962922096252,-0.1278129518032074,-0.0073123164474964,0.008836217406392,-0.0140279754996299,0.039138325358089,-0.2755021177440881,34
1734065204393166600,0.7928164112068712,1.0221142655283213,0.4349545746840536,0.3505646287193522,9.713335756486654,-1.3033011509105563,0.0396885313093662,-0.0624371990561485,-0.0660317465662956,0.2258498026518805,0.2324885051862463,-0.7158204786276993,-0.6184997920413853,-1.383147120475769,-0.9144771695137024,0.3799780905246734,-0.7178998589515686,0.6657753586769104,-0.2692870795726776,-0.1586019992828369,-0.0372913628816604,-0.0821802705585956,0.0131863821297883,0.0139296680878847,-0.2052902251377701,35
1734065204433166600,0.4189061608765274,0.1753150658518076,0.3977120547436177,0.2935183610258624,9.706903093090652,-1.363922646742314,0.2046733647584915,-0.032939787954092,-0.1863328069448471,0.2224496706911162,0.2342996429575454,-0.7173871885319992,-0.617232149205084,-0.8428903222084045,-0.6207553744316101,0.2287813127040863,-0.4505801200866699,0.3646802902221679,-0.2720659971237182,-0.1185199245810508,-0.0442764796316623,-0.0703776045620441,0.0463481843471527,0.048967444525659,-0.0668707654848694,36
1734065204473166600,0.2244357647104188,-0.1364385149687528,0.3259143542505801,0.2267216106252744,9.697681675758956,-1.44011565958485,0.2022949904203415,0.0569957830011844,-0.1560796797275543,0.2196067248210442,0.2378786774956616,-0.718915295228769,-0.6150994704316206,-0.2474737912416458,-0.2763594388961792,0.0136170703917741,-0.3245939612388611,0.3388198018074035,-0.1526442170143127,-0.0525997653603553,-0.03610061109066,-0.1639835244983434,0.0753996670246124,0.0231181329980492,-0.0472077413767576,37
1734065204513166600,0.2566102972041815,0.5226420643568038,-0.1565080740511417,0.172251184769161,9.685635264134406,-1.5261667802274226,0.195897102355957,0.0356291197240352,-0.1292615383863449,0.2175527865537227,0.2417340864750028,-0.720678489007714,-0.6122564217362703,-0.0949108824133873,-0.0882173776626586,-0.0078765703365206,-0.1087396740913391,0.0812877416610717,-0.0450559854507446,-0.0341073311865329,0.0030796416103839,-0.2489168931573629,0.0628418177366256,-0.0419399205090478,-0.1448372177407145,38
1734065204553166600,0.0031316764886956,2.538386259207129,-1.048330510672182,0.1352830613233148,9.68176806731224,-1.5541666939176615,-0.1036984845995903,-0.0273607987910509,-0.0562432780861854,0.2162988352466426,0.2437357485128243,-0.7209946820363572,-0.6115343949677766,-0.1433468610048294,-0.058262676000595,-0.0367600806057453,-0.0373888611793518,-0.0081365704536437,0.0173131227493286,-0.0224696658551692,0.0486269928514957,-0.390575188601017,-0.0487345233559608,-0.1945927439041435,-0.4391384362399578,39
1734065204593166600,-0.7707299593441188,7.501571561408042,-2.364233222872018,0.1479383986264467,9.710643448662758,-1.3608445544712244,-1.0382225513458252,-0.2504639029502868,0.1472474485635757,0.2174931032455705,0.2392200548289799,-0.7156518184704085,-0.619122740284608,-0.1771687269210815,-0.1260627508163452,-0.0782643109560012,0.0322595238685607,-0.0030534267425537,-0.0002396116033196,-0.0659799575805664,0.2748195827007293,-0.5789402901619672,-0.2015692889690399,-0.5401764058731496,-0.2536404145479202,40
1734065204633166600,-0.7892612760085612,11.363056435668469,-2.282359241783619,0.2812417208420112,9.773104873272777,-0.7600722255989909,-1.990236520767212,-0.4396816492080688,0.6805859208106995,0.2238199654838291,0.2218607640926477,-0.6996647058296931,-0.641211138623984,-0.1075662225484848,-0.1220588088035583,-0.081910453736782,0.0191222429275512,0.0259971022605896,-0.0181826371699571,-0.0752129703760147,0.1581461429595947,0.8022182996720075,-0.2587053775787353,0.1356163483982905,-0.0864934575825929,41
1734065204673166600,0.6994315866753459,7.390512986889481,-2.3786294124931096,0.5741338762609288,9.78878175035417,0.1431933412575163,-2.528014659881592,0.3095166981220245,0.6470176577568054,0.2422086952447691,0.1996384792472232,-0.6729365862227059,-0.6698027912946727,0.1146223694086074,0.0424811393022537,-0.0353314317762851,-0.0983937382698059,0.1051903963088989,-0.0453453063964843,-0.0515025593340396,0.0188238769769668,0.7903753016650676,-0.2728409171104431,0.2569555121789686,0.0955225672125816,42
1734065204713166600,2.0762769894853235,-1.7298253125101326,-2.032705266523361,0.6520652206707745,9.723915018168093,1.0911857559278606,-2.162175416946411,0.8812427520751953,-0.2264565825462341,0.2631839591477242,0.193105012610847,-0.6380246584395327,-0.6974017846671052,0.6118704676628113,0.5243595242500305,0.1277058869600296,-0.3165908455848694,0.3122662901878357,-0.1745120286941528,-0.0201448835432529,-0.1013595983386039,0.5253372947901487,-0.0383388251066207,0.4387015791926533,0.4733028639093041,43
1734065204753166600,1.2382415265008806,-9.706485744461416,-2.451770636549592,0.3404352662298828,9.636904258713123,1.7845367075152694,-1.4303531646728516,0.625709593296051,-0.9141252636909484,0.2705522574517645,0.203802901201867,-0.6061999077365794,-0.7195745678334459,1.6730881929397583,1.400943160057068,0.4259455800056457,-0.9622570276260376,0.7781770825386047,-0.4597929120063782,-0.0029626190662384,-0.1179542690515518,-0.31199674192667,0.2095787674188614,0.2753853960292414,0.093347269000113,44
1734065204793166600,0.0266359432770987,-14.482882400637864,-2.1986250197812915,0.016309962236986,9.53751040302515,2.281674182128906,-1.0796681642532349,0.0722187757492065,-0.5372682213783264,0.2694334626752169,0.2115840928407743,-0.5821504672196275,-0.7373864332971523,3.0522475242614746,1.486557960510254,-0.3394467830657959,-0.9706496000289916,0.99223530292511,-0.164323017001152,-0.034154824912548,-0.0310560464859008,-0.946746013072133,0.1978300511837005,0.0304148293448612,-0.2761953607052564,45
1734065204833166600,0.1817556385596282,-14.747501305317876,-0.9619903439551593,-0.1265394906364381,9.483849539986252,2.492184772263468,-0.0737556740641594,-0.051219142973423,-0.2861260175704956,0.2648527614855452,0.2119108067956086,-0.5727370716292819,-0.74627016858134,3.168971538543701,0.8382151126861572,-1.233751654624939,-0.2915856838226318,0.3265745639801025,0.3980993628501892,-0.0006921701133251,0.0386929139494895,-0.7506412571698426,0.1283479928970337,0.0610068053549155,-0.0936339769870042,46
1734065204873166600,-1.0808568157456817,-10.519739817410708,0.1162307164594531,-0.1653250022351741,9.500407291555405,2.425962533815205,0.3885580003261566,0.2412046790122985,0.1692084372043609,0.2646573411841409,0.2156012931295682,-0.574305156165784,-0.7440739454807163,2.1227951049804688,0.413902223110199,-1.3090808391571045,0.6273433566093445,-0.3528376221656799,0.7471226453781128,0.0263505298644304,-4.58098948001e-05,-0.4313450058847665,0.0162971913814544,0.0735106053581461,0.185627785551548,47
1734065204913166600,-0.927212241366878,-3.434115786269307,2.4116133982062338,-0.090922133345576,9.598736148360372,2.006586636535078,1.879427790641785,0.0115836281329393,0.1914274841547012,0.2651863176992144,0.2210883713338671,-0.5906034900908724,-0.7293721631183389,1.058087706565857,0.0151993967592716,-1.0689125061035156,1.0421106815338137,-0.6082416772842407,0.5636237263679504,0.0203049816191196,0.0384403504431247,-0.0733037211418151,0.0744738355278968,-0.0493010055952705,0.6506716474205255,48
1734065204953166800,-0.0324573200740735,3.213187554755806,0.0952951881974935,-0.0253029479575343,9.732111184105277,1.206551891447231,2.065549373626709,0.0177458114922046,0.0686371326446533,0.2574647524477991,0.2291324170396063,-0.6212739392885913,-0.7037250964822089,-0.3339549005031585,0.0802816748619079,-0.4663903713226318,1.2305595874786377,-0.7418863773345947,0.6597180962562561,0.0357729457318782,0.0890658274292945,0.5858586912482977,0.1342872679233551,0.3341525326985866,0.5255126513570547,49
1734065204993166600,0.1161966497930698,6.182433666679263,-0.3264870395720005,-0.0722031394887715,9.794971837165953,0.4729822171201929,1.6438238620758057,0.3204738795757293,-0.2277913242578506,0.2497086329887127,0.2427083766003083,-0.6457377658843211,-0.6795300300352324,-1.2697761058807373,0.1142668053507804,0.3494360148906708,1.113417387008667,-0.6055998802185059,0.4961010217666626,0.0195802263915538,0.0364597365260124,0.1489607274115085,0.034562163054943,-0.0539341270223259,0.1366860599890351,50
1734065205033166600,0.5907179678477347,5.822089365690946,1.1577893949091431,-0.1679918468242511,9.803368494111298,-0.1900837420471012,1.7029719352722168,0.3484582901000976,-0.1660762578248977,0.2426711727331037,0.2588591387284522,-0.6653446623565397,-0.6568250636045814,-1.8943712711334229,-0.1839325129985809,0.8084668517112732,0.6250303387641907,-0.4533365964889526,0.4890544712543487,0.0370215848088264,0.0486931204795837,0.1709890193462371,-0.0400768667459487,0.1622229080339893,0.0404395624160766,51
1734065205073166600,0.5549407712195068,4.232328357431292,-1.525845293188095,-0.1845878480445593,9.780784321859478,-0.6874450154792517,0.764514148235321,0.4247709214687347,-0.0609975159168243,0.2400212804848428,0.2703531675261164,-0.6796757361283693,-0.6382318475401652,-2.385089874267578,-0.5592461824417114,1.0333921909332275,-0.0167499184608459,-0.1452527642250061,0.2231956124305725,0.0350695177912712,0.0682131722569465,-0.1282990476548671,-0.0816112756729126,-0.1869090210011229,-0.2652916893750429,52
1734065205113166600,0.2667987877360545,2.517442839899659,-0.7179565466642379,-0.1961699300929903,9.767804428777096,-0.849646771127358,0.168120265007019,0.4414040446281433,-0.0430750027298927,0.2429104888621324,0.2787103795436143,-0.6823785271672113,-0.6306144194550882,-1.9153095483779907,-0.8167307376861572,0.4746001958847046,-0.4789690375328064,0.4065863490104675,-0.0919299125671386,-0.0028866678476333,0.128207117319107,-0.1602519367545843,-0.1102451309561729,-0.1455371553041506,-0.3048883712261915,53
1734065205153166600,-0.0879224857387133,1.482110780879855,-0.13485855230093,-0.1945934014912694,9.762406953647732,-0.9099114894106984,0.1751389652490615,0.2479778230190277,-0.0081388717517256,0.2468194438895577,0.2845417087859192,-0.6822232699655074,-0.6266479209974547,-1.3621158599853516,-0.6720885038375854,0.3264510631561279,-0.5756828784942627,0.4279256463050842,-0.2431767582893371,-0.0347361899912357,0.0770385116338729,-0.0170358904749155,-0.0414481833577156,-0.0683391210043802,-0.2135679318785667,54
1734065205193166800,0.3969594828106462,0.2946083847522735,-0.4859164809625595,-0.2175440324353054,9.755501412042976,-0.9763424752388148,0.1620376408100128,0.1148914396762847,-0.1464607864618301,0.2476498297996534,0.2889606223584884,-0.6828479842865824,-0.6236103879280829,-0.7515712976455688,-0.5711122751235962,-0.0236773062497377,-0.3824114203453064,0.4937905073165893,-0.3413395881652832,-0.0264849178493022,0.0347065553069114,-0.0354687882661819,0.0212085396051406,-0.0552645262427162,-0.0602200754240155,55
1734065205233166600,0.0819139477726072,-0.0807318253159523,0.0115957452476024,-0.2750961124927736,9.74762030340433,-1.0385582545246927,0.1209465488791465,0.3193068504333496,-0.153940811753273,0.2467994865000984,0.2938669617191591,-0.683076821121029,-0.6214002615938754,-0.2016586363315582,-0.2845737040042877,0.0600273124873638,-0.2827951312065124,0.2521952986717224,-0.2514266967773437,0.024287462234497,-0.0057118870317935,-0.0411018257170915,0.042961373925209,0.0025965010329149,0.0171828977301716,56
1734065205273166600,-0.0803845462482422,-0.8008487648844719,-0.2444564066171645,-0.3175018421489745,9.741545951926708,-1.082529863524437,0.0845302864909172,0.2873823940753937,-0.1132808029651641,0.2503925897582291,0.3020905870278376,-0.6811276984986463,-0.6181504027991411,0.0747892037034034,-0.0403598435223102,0.0151144983246922,-0.1836715340614318,0.1633922457695007,-0.0932203531265258,0.0479508750140666,0.0131575316190719,-0.200967393502593,0.0091403536498546,-0.1394242436481174,-0.0390086528301239,57
1734065205313166600,-0.4392026971152052,-0.8530863171219826,-0.0908371858753264,-0.3167667693400755,9.739615860646962,-1.0999792301710694,-0.0374996103346347,0.3457607924938202,0.0666951313614845,0.2534732369919567,0.3059624142145301,-0.6800517154436294,-0.6161721538863952,0.1509952992200851,0.0824663713574409,-0.020227912813425,-0.07241952419281,0.0179994702339172,0.0296300053596496,0.044546004384756,0.0706615820527076,-0.170437230682373,-0.0652649700641632,-0.1377519630543421,-0.1074348310634493,58
1734065205353166600,-0.1692879510493949,-0.1071411088138818,0.0872819776117801,-0.2519418852680362,9.74200713969767,-1.0955397864188998,0.0230644308030605,0.3939137160778045,0.2068133652210235,0.2603404103380795,0.3088930166072655,-0.6785588325012724,-0.6134866628375456,0.0877694562077522,0.097844049334526,-0.0462161041796207,-0.0150943398475646,-0.0287824869155883,0.0194845795631408,0.0364395007491111,0.0675286650657653,-0.1152303072452545,-0.1097895801067352,-0.0510078460457734,-0.0966954103842377,59
1734065205393166600,0.843883969816938,0.3753665135532617,-0.1983702166162431,-0.1678211116335354,9.741181794789432,-1.11874004474245,0.0746904835104942,0.2349070608615875,0.1036883443593978,0.266869182550617,0.3110003732401286,-0.6784678596706608,-0.6097055646216037,0.1161622107028961,0.1341810077428817,-0.0585561245679855,0.0214374065399169,0.0076887607574462,0.0336926057934761,0.0302002914249897,0.0473296828567981,-0.0569476296246051,-0.1354736238718032,-0.0187132605190505,-0.053570262145996,60
1734065205433166600,0.5855363639587536,0.316456059423089,-0.2570902627408504,-0.1286929332101251,9.741734752497075,-1.11912685210295,-0.0905428603291511,0.4283527135848999,0.0156485214829444,0.2717467795616764,0.3137222746994864,-0.677228117316806,-0.6075312103623004,0.0284786988049745,0.11762435734272,0.1431365758180618,0.0517206788063049,-0.0547819137573242,0.007415235042572,0.0276978723704814,0.0100378431379795,0.0120171855300664,-0.0763929188251495,0.0361685112004866,0.0223196760967373,61
1734065205473166600,0.4700257784673944,-0.0334808293193578,-0.2719487361114472,-0.1180780613591894,9.747205292862652,-1.0716478195041417,-0.1235870644450187,0.2211833894252777,-0.0676506459712982,0.2768347955076814,0.3171225089021129,-0.6738487571721671,-0.6072261770182158,0.1393713951110839,0.0964198485016822,0.2552303671836853,0.0385427474975585,0.0185362696647644,0.0021763071417808,-0.0108932815492153,-0.0225874967873096,-0.0185860425263643,-0.0645908340811729,0.0730563405183143,-0.148525258603692,62
1734065205513166600,-0.498768875207752,-0.4037281001627445,0.3189582515023648,-0.1545489393400028,9.747550160777568,-1.0638545352794229,0.0906007215380668,0.3000786900520324,-0.1563893407583236,0.2785358500747859,0.3212723037188381,-0.6715843886759942,-0.6067754029822673,0.1829377859830856,0.1035924330353736,0.2134873121976852,-0.0151314735412597,0.0385172963142395,0.0098247975111007,-0.0489788949489593,0.0018021091818809,-0.1243237142831087,-0.072833202779293,0.0223454430089448,-0.112345983980596,63
1734065205553166600,-1.0580684992238878,-0.6489350328862666,0.353041869020462,-0.1487589760280214,9.736875622028112,-1.1582413764603436,0.3565461933612823,0.3018328547477722,0.0986560508608818,0.2835493397982598,0.329564365876252,-0.6711491656185429,-0.6004547823425632,0.2562402188777923,0.0796247199177742,0.1192433685064315,-0.012103796005249,0.0378301739692688,0.0008934438228607,-0.0637301206588745,0.0376763604581356,-0.132510527870059,-0.1048722565174102,0.0132821822308935,-0.0437882883220911,64
1734065205593166600,0.0907746876989025,-0.5897276416361331,0.4319698597848415,-0.0822452620862051,9.71417980609536,-1.3410175719730557,0.515178918838501,0.2189352810382843,0.1883923113346099,0.2849514133498936,0.3327283795018977,-0.6765091992562182,-0.591971127160829,0.1440899819135666,-0.012799747288227,0.0400737784802913,0.0168005228042602,0.0004463195800781,-0.0247329324483871,-0.0690782144665718,0.079314187169075,-0.0418038365066051,-0.1295454800128936,0.0461106851213611,0.0943196211636066,65
1734065205633166600,1.329341747226566,0.2400128712117671,-0.4010157724641263,0.007819726419539,9.6962227091223,-1.4675095702059566,0.0438283532857894,1.002583146095276,-0.002444204641506,0.291874153031142,0.3388259728227122,-0.6782470971217166,-0.583084290418429,0.0494580119848251,0.0210500415414571,0.0694797337055206,0.0269697904586792,-0.0411587357521057,0.0392741709947586,-0.0786870494484901,0.1187375634908676,-0.0871603970587253,-0.1389991790056228,-0.0078567413823679,0.123595692269504,66
1734065205673166600,-0.0482948835929157,-0.3446317680716514,-0.3228314396739006,0.0197141332408413,9.703715695226192,-1.4170049792408943,-0.1590925008058548,0.728996992111206,-0.0650783479213714,0.3042337666794125,0.3505254465284294,-0.6703574109087203,-0.5789600188000988,-0.0050528971478343,0.0945915356278419,0.1587422490119934,-0.0162532329559326,-0.0529795885086059,0.0669581890106201,-0.1110604405403137,0.1472906172275543,0.0070358899861574,-0.1584469377994537,0.008017377587466,0.0989639398381114,67
1734065205713166600,-0.1539073900334537,-0.0022819734573364,0.0767407098531723,0.0950997569569386,9.706579852485657,-1.394149881093204,0.0789965167641639,0.3643659651279449,0.1723630130290985,0.3138621113551824,0.3556449202227012,-0.6667822349653775,-0.5748119273467259,-0.2755272686481476,0.0255292654037475,0.2458326518535614,0.017293095588684,-0.038247525691986,-0.0289564132690429,-0.1425724625587463,0.1157141104340553,0.1241220542311668,-0.1790892481803894,0.0303722688447684,0.0137111299663782,68
1734065205753166600,0.4141004045626148,0.7522977922052144,0.1845009734787046,0.1355183953159954,9.6951004270941,-1.4686907428145408,0.2469064146280288,0.0753820985555648,-0.0092057194560766,0.3156592573443838,0.3577654892739803,-0.6684955072188311,-0.5705057816491088,-0.1522370129823684,-0.0589904114603996,0.2968967854976654,0.0924089550971984,0.0707488656044006,-0.045438528060913,-0.1512060910463333,0.0558913797140121,0.200790283370018,-0.1702727675437927,0.087562137126876,0.087464932963252,69
1734065205793166600,0.4147076862733811,0.0102601127296686,-0.257265473177284,0.1223415640225634,9.67518284370303,-1.5956966819189489,0.2984841167926788,0.0499803274869918,-0.0559484660625457,0.3138246530108874,0.3613572365309626,-0.6714006520816578,-0.5658234348990899,0.0385635569691658,-0.1079545468091964,0.3354635536670685,0.0393654108047485,0.0661139488220214,-0.0443243905901908,-0.1100444942712783,-0.0224995240569114,0.1479699628084897,-0.1425895988941192,0.0970790394069626,0.1725008852139115,70
1734065205833166600,0.7237955550160259,0.2057148802906274,-0.6189351775504648,0.0722763280225684,9.664083357539772,-1.6645346558235583,0.0612925738096237,0.099840372800827,-0.1751835495233535,0.3117548719831288,0.3650243600371565,-0.6720304039949926,-0.5638628758826835,0.1364794671535492,-0.0555081702768802,0.3267355561256408,0.0083056092262268,0.0209723711013793,-0.025763563811779,-0.0558688007295131,-0.0136153306812047,0.0036462475478649,-0.1053590774536132,0.0005001429583062,0.1911003717437386,71
1734065205873166600,0.0552010964845307,-0.0616933628469705,-0.1924177379526197,0.0333843284086324,9.666033907085655,-1.6544088369980454,-0.1060529872775077,0.2269527018070221,-0.0438505224883556,0.3126618636468679,0.3684112153506125,-0.6697944122714796,-0.5638184548753258,-0.0742082670331001,-0.0674278438091278,0.2923120856285095,-0.0338719487190246,-0.0533110499382019,0.0285290032625198,-0.0265727248042821,0.0015292726457118,-0.0173076931536197,-0.0689274817705154,0.0306517981722019,0.1400982065200805,72
1734065205913166600,0.1182784610358066,-0.1322913321614265,0.1863116761624813,0.0554508106290129,9.673484807613493,-1.609664563125372,-0.0772188231348991,0.2239697575569152,0.0770208016037941,0.3165802751690483,0.3697919002489206,-0.6673260108313495,-0.563654983848761,-0.1656071543693542,-0.091807909309864,0.1259071379899978,-0.0106597542762756,-0.0056932568550109,0.0157423093914985,-0.0290851388126611,0.0012159516336396,0.0026379472881555,-0.0656114071607589,0.0630598380277398,0.0492766566053032,73
1734065205953166800,0.3483754846446216,0.2512953127264976,-0.1516577114105224,0.1143041049115825,9.680900636827944,-1.5612443772189315,-0.1471658051013946,-0.3731884956359863,0.1787098497152328,0.3188122070024538,0.3664895080347911,-0.6672980960092112,-0.564586125422364,-0.2325981706380844,-0.1692892760038375,-0.0528122894465923,-0.0039029121398925,0.0145823955535888,-0.0155394673347473,-0.025763614103198,-0.0210220161825418,0.0402303035795688,-0.0610051974654197,0.1133483842224813,0.061567398379743,74
1734065205993166600,-0.0036252595587633,-0.2814385220557451,-0.5985550912141799,0.0856266938185784,9.686012280753255,-1.531087577755749,-0.29011070728302,-0.1347122937440872,-0.2041373997926712,0.3148778353229689,0.3626656047634927,-0.6682345381390915,-0.5681445818079912,-0.182473212480545,-0.1343124359846115,-0.1329627186059951,-0.0223341584205627,0.0464011430740356,0.0097249597311019,-0.0050470996648073,-0.0337390825152397,0.0003670797467231,-0.0555640161037445,0.1145609566163271,0.0919087606295943,75
1734065206033166600,-0.0007317300743423,-0.1513087518423795,1.5327707085371016,0.0845288612450473,9.703724463054538,-1.4145562709145247,0.0275219045579433,-0.3720124363899231,0.1077717691659927,0.3155859459334766,0.3591389146511201,-0.6656887686190556,-0.5729600408574184,-0.1591569781303405,-0.0846621170639991,-0.1526786983013153,-0.0109837651252746,0.0422820448875427,0.001973919570446,0.0282408241182565,-0.0103079676628112,-0.0652840808153152,-0.051993254572153,0.0735769485926255,0.1002449195593595,76
1734065206073166600,-0.1227601090950425,-0.340824192482233,-0.3349953401982784,0.0910368275001179,9.689732762581109,-1.507044146606326,0.0894854739308357,-0.4336598813533783,0.0958099588751792,0.3072943966647396,0.3524750793324853,-0.6727549248757153,-0.5733518312961525,-0.3637873530387878,-0.0306483060121536,-0.1700880378484726,-0.0019797682762145,0.0040535330772399,0.0038263127207756,0.0425285175442695,-0.0262599680572748,-0.018860767814517,-0.0510223172605037,0.1040808261941187,0.0253629893153905,77
1734065206113166600,0.7476703516002744,-0.2364712530821561,-1.3269056061208246,0.0726430424431106,9.692520347473025,-1.490022284656763,-0.2164843380451202,0.1188475787639617,-0.1375559568405151,0.3053284741546139,0.3508177899953572,-0.6729761290395497,-0.5751561521687016,-0.1995070576667785,0.0425124019384384,-0.1741402447223663,-0.0056796669960021,0.0094223022460937,-0.016693115234375,0.0264474265277385,-0.0049576088786125,-0.1051888057023286,-0.0439177230000495,-0.0272432158547104,-0.0262672446787357,78
1734065206153166600,0.2622132865766994,0.0801303522914648,-0.1490063201189041,0.0422992690404644,9.70990928916931,-1.3734063682720064,-0.2124419212341308,0.2308683097362518,-0.0788271054625511,0.3085975738914368,0.3524126394935613,-0.6677047022633061,-0.5785700220474576,-0.1998586058616638,-0.0119081744924187,-0.110455609858036,0.0391028523445129,-0.0645636320114135,-0.0894257351756095,0.0055858045816421,-0.0173550248146057,0.0768085143923759,-0.0235577039420604,0.1031551535834092,0.0221852360621094,79
1734065206193166800,-0.0686112524766475,0.2151420493274927,0.0132721540272235,0.0359902091912459,9.716005852478744,-1.329783645775169,-0.0700737908482551,-0.0545602366328239,0.0125397518277168,0.3105685783103302,0.3535070272253595,-0.6654568961244702,-0.5794368892266365,-0.2255469262599945,0.0271691866219043,-0.1613935530185699,-0.008671224117279,0.0199946761131286,0.0322430729866027,0.0062303431332111,-0.0137162208557128,0.0176864633381366,0.0134434476494789,0.0486860429015476,0.1497854877978563,80
1734065206233166600,0.4855838149420917,0.2069844618350267,0.1671172924794256,0.0263265508176526,9.721021050292252,-1.292841131694615,-0.1429628431797027,-0.19031722843647,-0.0808239951729774,0.3100103670853826,0.3521704915031253,-0.6647499505361404,-0.5813578952029185,0.1855495423078537,0.0091767106205224,-0.2365661412477493,0.0108246803283691,0.0742419362068176,-0.0418909788131713,0.0359229706227779,-0.0217557996511459,-0.0317249255627393,-0.0088394004851579,0.0527909026707988,0.0522772997260093,81
1734065206273166600,-0.1760692086873576,-0.1213344693392515,1.121374996355921,-0.0117259589149733,9.726122172823548,-1.2541034047603608,0.0072953235357999,-0.0178831573575735,-0.0329003445804119,0.3074082984560635,0.3503920374408045,-0.6642039571238392,-0.5844301351006732,0.1805198937654495,0.0546313822269439,-0.1504092216491699,0.0025601983070373,-0.0623674392700195,-0.0007068514823913,0.0444897152483463,-0.0482668057084083,0.0114835170447826,-0.0504828691482543,0.0891029824938625,-0.0124979547843337,82
1734065206313166600,-0.0728902723695617,-0.1696691689193248,0.9991289651297032,-0.0174909224997274,9.720140760326386,-1.29960171187073,0.2387246042490005,0.0538278855383396,-0.0066346647217869,0.3064301423772126,0.3513251358157026,-0.6654561549096601,-0.5829574724255874,0.1654930114746093,0.1918664723634719,-0.2006612718105316,-0.0211989283561706,-0.0025372505187988,0.0788596868515014,0.0263122636824846,-0.0854724198579788,0.0146241531580686,-0.048142846673727,0.054024791847309,-0.0202440388664603,83
1734065206353166600,0.4226466991117223,-0.2260223397821187,-0.2924948997296392,-0.0280523768131271,9.707510995855928,-1.3906290134906767,0.1723404228687286,0.0615543015301227,-0.1244063451886177,0.3061337379652644,0.3550420926096128,-0.6669688608242943,-0.5791199069926097,0.1383671164512634,0.2687452733516693,-0.2419711649417877,-0.0210826992988586,0.0208216309547424,0.0088424757122993,0.0273559708148241,-0.0575858950614929,-0.0738613550245761,-0.0594823285937309,0.014103901276784,-0.0282753696307539,84
1734065206393166600,0.1367175145732238,-0.0506792168796062,1.1150104297600687,-0.0820998987987637,9.690484457731246,-1.5027216072320937,0.475233644247055,0.3270101547241211,-0.1683807522058487,0.3036873707600916,0.3600853104899555,-0.6685477136720002,-0.5754620394549603,0.2015687227249145,0.2616311013698578,-0.1749567687511444,0.0051263570785522,-0.0294602513313293,-0.0185430198907852,0.0266323518007993,-0.0655516162514686,-0.0442909771472215,-0.0598515942692756,0.07423594222432,0.0285471723094582,85
1734065206433166600,-0.841425763009861,-0.1622790586680173,-0.6147651983894408,-0.0064209158759913,9.64780793004334,-1.7578889390863477,0.8478490114212036,2.647610902786255,0.2919658422470093,0.3177051544187882,0.3812672634892022,-0.6665303178626638,-0.5562698754015348,0.1684816032648086,0.2228941023349762,-0.2550279200077057,0.0140336751937866,0.0561944246292114,-0.0162580460309982,-0.0015108603984117,-0.0399783700704574,-0.1095621984809637,-0.0759413540363311,0.0039653873664792,0.00263882407099,86
1734065206473166600,-0.2132743192268535,0.1330032798230647,0.366975409565866,0.3953832464698701,9.575785480883717,-2.078082139211148,0.7758707404136658,1.8833534717559808,0.6214761137962341,0.3504549786846981,0.4075744008588977,-0.6632011854495552,-0.52079625757314,0.134786769747734,0.1568713188171386,-0.1254212409257888,0.0182418823242187,-0.0418363213539123,-0.0055124163627624,-0.0132245533168315,-0.0048372745513916,-0.0352414092510938,-0.0960777848958969,0.0680687796304002,0.0427156906545162,87
1734065206513166600,0.4848032590236514,-0.200624279153347,-0.1756000202730298,0.717385103451833,9.512423308041692,-2.273669154849648,0.4422745406627655,1.377068042755127,0.3650115728378296,0.3706260017508412,0.4207132314861924,-0.6625143324655167,-0.4967007481067647,-0.0126508958637714,0.1110801771283149,-0.0391934141516685,0.0356393456459045,-0.060052752494812,-0.009431779384613,-0.0092714559286832,-0.0223186798393726,0.003306640329957,-0.1024538427591323,0.0104036037204321,0.0127259183213114,88
1734065206553166600,0.0473504377830773,0.1291986268430948,-0.8209577791944146,0.9630028819985688,9.478584166803955,-2.3236760254256428,0.114021323621273,1.8158737421035769,0.2395833283662796,0.3915098197295088,0.4344372952268459,-0.6555446145229207,-0.4777505849438427,-0.0299121756106615,0.0109945312142372,-0.0542269572615623,0.0259203910827636,0.0065874457359313,0.0151984244585037,-0.0067239948548376,0.0087201297283172,-0.1017184992432594,-0.0972887054085731,-0.0632394460780778,0.0085369421988725,89
1734065206593166600,-0.880476720611751,0.0045277065575122,-0.2781961791336536,1.294972883026302,9.450324871525169,-2.277015542668104,0.1663654297590255,2.12335467338562,0.6253509521484375,0.4193477128027178,0.4478702726780318,-0.6445988717471185,-0.4561272159735637,-0.0475513562560081,-0.2761183381080627,0.0406044796109199,0.0827940702438354,-0.0344112515449523,-0.1632059663534164,-0.0063175116665661,0.0086658559739589,-0.0132481886297464,-0.0699149593710899,0.0099407628485001,0.013306640818715,90
1734065206633166600,-0.3844138894923031,0.0860036282390356,-0.8459963588610291,1.8109090200036764,9.386656409212948,-2.1867088104076684,0.0362583510577678,2.643768310546875,0.8442004919052124,0.45615567814227,0.460968527174721,-0.6316637879615541,-0.424771646269484,-0.0719485729932785,-0.1415517479181289,0.10206850618124,0.00714772939682,-0.0040389895439147,0.0508654713630676,-0.0092842392623424,-0.008605295792222,-0.0323345818936824,-0.0585642755031585,0.0033154355577658,-0.0066769935458898,91
1734065206673166600,0.5506758803166448,0.0558370380342006,-0.2335748009882867,2.30635488826856,9.33601693982184,-1.920907417944819,-0.1599133312702179,2.916797161102295,0.6277787089347839,0.4969970488713785,0.4732338154175224,-0.6115462199530858,-0.3937700349953694,-0.0562029033899307,-0.0431195683777332,0.0425250865519046,-0.0438475012779235,0.0116903185844421,0.0482202768325805,-0.0279316790401935,-0.0549188628792762,0.0865232681989669,-0.0157869532704353,0.06620068420358,0.1674114531204104,92
1734065206713166600,-0.879990106138587,0.118513566699624,-0.9502208495758472,2.7938547659650443,9.254037160271404,-1.6515287515170871,0.1025076508522033,2.6716365814208984,0.9463196992874146,0.536177345122835,0.4857118225465517,-0.5901597719610432,-0.3582028434243351,-0.0691559836268425,-0.0530947595834732,0.0185804702341556,0.0050931572914123,0.0155969858169555,-0.0353267937898635,-0.0348480343818664,-0.0157061628997325,-0.0977063409924507,0.0126353073865175,-0.0879448984999209,0.0963105027198791,93
1734065206753166600,-0.1849941638231277,-0.135651163983345,-0.8128383317552507,3.3252889163255688,9.13485548505187,-1.2912165992327034,-0.1091751605272293,3.3734023571014404,0.948534369468689,0.576601535995021,0.4940135042909817,-0.5672604202078746,-0.3188995303310484,-0.0441584885120391,-0.004563495516777,0.0507228262722492,0.0029102563858032,0.016560673713684,-0.0018702745437622,-0.0032771863043308,0.0078466720879077,-0.0919417861163616,-0.0094268564134836,-0.0627537677532527,0.0655424394905567,94
1734065206793166600,-1.104698732973635,-0.415265977743268,-1.0230324763517826,3.829748550520837,8.99473682026565,-0.7733671759799122,-0.1994874775409698,2.941495656967163,1.1008057594299316,0.6198939778309428,0.5001403938840597,-0.5378571724077328,-0.2762256116458568,-0.0404289960861206,-0.0173124726861715,0.0560920275747776,0.0159177780151367,0.0432286858558654,0.0171099305152893,0.0273236185312271,0.0069054262712597,-0.1120002392828464,-0.0377957746386528,-0.100235749872215,-0.0540747045367956,95
1734065206833166600,-1.5070651893943547,-0.7186375146657228,0.6371124931454658,4.342847418245673,8.79053877427876,-0.1910428328702226,-0.092909425497055,3.898581981658936,1.4954161643981934,0.6614360361436548,0.5009385565944273,-0.5087249121151579,-0.2296996279940314,0.0324007347226142,0.0386861860752105,0.0491137467324733,-0.0122987031936645,0.0486960411071777,0.0550320819020271,0.0469310916960239,-0.0156521573662757,-0.0293634571284055,-0.0554087162017822,-0.0677048142893705,-0.0174792503282427,96
1734065206873166600,-2.641825590893626,-0.8471411449819802,0.367534431688115,4.939660049706697,8.446336045274139,0.6553882276136428,-0.2123786211013794,4.286632061004639,2.2577056884765625,0.7121531781781755,0.498442013462217,-0.4670546621944119,-0.1620286497774803,0.1746894419193267,-0.017273910343647,-0.0246579460799694,0.0170304775238037,0.0665074586868286,-0.0333510637283325,0.0672049447894096,-0.0343721807003021,-0.0127156891882419,-0.078827328979969,-0.0304586136876605,-0.0283089796394109,97
1734065206913166600,-1.8943167865306136,-1.2936042250216009,1.0374906983584165,5.595602915528416,7.893371323367953,1.5982262003965677,0.0294582322239875,4.312164783477783,2.9115865230560303,0.7581196513521444,0.4844138035050202,-0.4287848047913822,-0.0821071566241892,0.2143763899803161,-0.142570748925209,0.0349834784865379,0.0748313665390014,-0.0245593786239624,-0.058940052986145,0.0625549703836441,-0.0431554317474365,-0.1321358493387699,-0.1239751577377319,-0.087960169134289,-0.1554027431577444,98
1734065206953166800,-0.542593550017476,-0.9251403304636476,0.3615560148656368,6.17764643240273,7.1997449158400295,2.4841025880947707,0.0105930231511592,3.2154812812805176,2.850215435028076,0.7916148525463175,0.4638528149948062,-0.3977267692385293,0.0002714247726283,0.1399527639150619,-0.102238230407238,-0.0122040072456002,0.0347771048545837,0.0370972752571105,0.0415955260396003,0.0407039523124694,-0.0175786074250936,-0.1563140127837657,-0.1347178071737289,-0.102672822559718,-0.1288286244869232,99
1734065206993166600,-0.4393196380257606,-1.5519319206029176,1.5754662331864238,6.546928073084354,6.5448886762112375,3.23613091570884,0.3762088418006897,3.1675288677215576,2.596651792526245,0.8121487714165592,0.4444616100175495,-0.3707521047675455,0.0735599106195079,0.1438782662153244,0.0104353204369544,-0.0086873034015297,0.021305501461029,0.0364950895309448,0.0817745998501777,0.0047293491661548,-0.017103249207139,-0.1463023218572139,-0.1440122872591018,-0.041567452201154,-0.1959364135980606,100
1734065207033166600,1.737586594161391,-2.001367878973484,0.8361839898988604,6.659476593899727,5.9769385666191575,4.012224009521305,0.3254451751708984,3.5106360912323,1.764999270439148,0.8274477949673342,0.4258637754427198,-0.3377477600773432,0.1410548875115603,0.1114058047533035,0.1119446828961372,0.0573234036564827,0.0280768275260925,-0.011037528514862,0.0441806763410568,-0.0281516797840595,-0.0264202505350112,-0.121202951914072,-0.1341653317213058,-0.017182002681028,-0.1552431686818599,101
1734065207073166300,1.9194243397802115,-1.7166291463285683,0.7032558211386203,6.223404559493065,5.716740985512733,4.975789932230114,0.5242936611175537,4.76279354095459,0.9333908557891846,0.8448381957400914,0.410860169036687,-0.2783868512686228,0.1998575045196676,-0.0143736936151981,0.178286001086235,0.0941191017627716,-0.0210776925086975,-0.0223175287246704,0.0584222674369812,-0.0533861182630062,-0.0465935096144676,-0.0339572534753591,-0.0913963615894317,0.029159694167634,0.0037884022439568,102
1734065207113166300,1.1407535044342278,0.8843909714460373,-2.0001170021295547,5.364441459292173,5.607037917256355,5.996188626012206,-0.9584186673164368,2.802572011947632,0.1147545501589775,0.8639176479210852,0.3892390399673102,-0.2068149840351996,0.243653081303782,-0.0360094830393791,0.1908476948738098,0.1045204773545265,-0.012785792350769,-0.0355483889579772,0.0190566778182983,-0.0602665692567825,-0.0519068464636802,-0.0472772994816303,-0.1332257091999054,0.0479864523979835,-0.0033440497308969,103
1734065207153166300,-1.4848177017509936,-0.0470393990725278,2.2260288672745228,5.103204013743996,5.2864504571169615,6.494700457718968,-0.3021087050437927,0.8713661432266235,1.1558012962341309,0.8731850540421014,0.3652146514433365,-0.188363185778805,0.2620789528747221,-0.0648421943187713,0.1719036251306533,0.073873683810234,0.0024108290672302,-0.0321327447891235,-0.0083541870117187,-0.048863623291254,-0.0466117709875106,-0.0773339995712041,-0.1756769120693206,0.0820748008901253,-0.0157996266782283,104
1734065207193166300,-1.321362585040927,-0.3321902196496725,1.073967202362418,5.209396443530917,4.948810155367851,6.673968645110726,0.1906149238348007,1.0324137210845947,2.0356316566467285,0.8669935406175189,0.3544285357222617,-0.1846691935326302,0.2976574526163649,-0.0898458138108253,0.2060408294200897,0.0320804342627525,-0.0345451235771179,0.0077549815177917,0.0273767113685607,-0.0321961790323257,-0.0414595082402229,-0.1157446865081787,-0.2095993757247924,0.0579231235932558,-0.037751346245408,105
1734065207233166300,-1.2217255682468413,-0.3614382337048649,-0.526049242451787,5.265382534646988,4.475873494422435,6.957922364857793,-0.3471338152885437,1.8969601392745967,2.3805086612701416,0.8580209977878385,0.3372207894547024,-0.1775579364888146,0.344318510385975,-0.0968187674880027,0.2063153386116027,0.071277841925621,-0.0135768055915832,-0.0443752408027648,-0.0149086117744445,-0.0242830850183963,-0.0032245442271232,-0.2165688672602176,-0.2152043581008911,-0.025775223378092,-0.0698603026896715,106
1734065207273166000,-1.1283373827144505,-0.5514183692470193,0.2411310615867376,4.900850718840957,3.808281107339263,7.592696770444512,-0.5410095453262329,3.127259969711304,2.696509599685669,0.8509666242490487,0.2999655825444073,-0.1513302915119057,0.4037023986249504,-0.156559333205223,0.1843070238828659,0.0849576294422149,0.0007891058921813,-0.0247673988342285,-0.0291108638048172,-0.0526869036257267,0.0280770100653171,-0.1636532696306705,-0.2295015752315521,-0.0159349617619998,-0.1367301913917064,107
1734065207313166300,-0.1270937635183334,-0.3141296623021364,0.5179202965319156,4.378148448729515,3.1889670134738086,8.175126071766018,-0.2457251846790313,2.532454252243042,2.682666063308716,0.8372579234706315,0.2615922921782913,-0.1214661674974579,0.4645585610457421,-0.1740989089012146,0.1485790312290191,0.1022996082901954,0.0119063258171081,-0.0135546326637268,-0.0321729332208633,-0.0716398730874061,0.0324547253549099,-0.0761842450141906,-0.2088316231966018,0.0066444612494669,-0.0147848966777324,108
1734065207353166300,1.7509928959622978,0.3022209055826068,1.148034309092164,3.953641472171247,2.7101336957052347,8.555365744313598,-0.0966266989707946,1.6926867961883545,2.2225775718688965,0.8188553191852564,0.2318411901495168,-0.1002367740313442,0.5154399110201108,-0.2349151223897934,0.1381555646657943,0.1384897083044052,0.0242689847946167,-0.0259162187576293,-0.0239129662513732,-0.0636899173259735,0.0151260774582624,-0.0511404046505689,-0.1940671354532241,0.0358897536246106,-0.0084288056492805,109
1734065207393166300,2.867721381686628,0.5564489107601345,1.726293046730757,3.5005554668605328,2.4364526559084654,8.830639313998818,0.1336747109889984,2.3831474781036377,1.645194411277771,0.8012255815571463,0.209029559925209,-0.077905930642299,0.5552249845802221,-0.2243298590183258,0.1536168605089187,0.1420384347438812,-0.0063945651054382,0.0054149031639099,-0.025517463684082,-0.0637314468622207,0.0147209921851754,-0.0783411307871341,-0.184230551123619,0.0451295468632131,-0.0316758257240057,110
1734065207433166300,4.927490888485313,1.5062807610183953,-0.4560100760638713,2.765527666147053,2.319503562046587,9.118231097987294,0.0825276300311088,1.7660421133041382,0.7070515155792236,0.7895741110580976,0.1821662993539995,-0.0437609693518801,0.5843569194712865,-0.1828780174255371,0.1297046691179275,0.1977909654378891,0.016493022441864,-0.0472784638404846,-0.0692566037178039,-0.063772976398468,0.0143159078434109,-0.105081838196516,-0.1743939667940139,0.0541861290220171,-0.0552729744106531,111
1734065207473166300,1.1629003081820906,0.397643519552052,0.3090443218618631,2.143043417812884,2.281019225351512,9.293799261817336,-0.3489217162132263,2.641631603240967,0.1435825079679489,0.7878327645499156,0.160762420615997,-0.0174231839379633,0.5942822182596551,-0.2053066343069076,0.1024280413985252,0.2288082689046859,-0.0131871700286865,-0.0490436553955078,-0.0174552798271179,-0.0680175870656967,0.0486098043620586,-0.2199357133448123,-0.1238076835870742,-0.0283164870924316,-0.0616010083884,112
1734065207513166000,2.0415236560121177,0.984255805646628,-1.228166414949298,1.7778265423521398,2.087205649126321,9.415587904664871,-0.542004406452179,-0.3210906684398651,-0.3815332055091858,0.789845422377909,0.1409632535888392,-0.008245748239287,0.5968297266573683,-0.280393123626709,0.0258436258882284,0.1818967014551162,-0.0156554579734802,-0.022580862045288,-0.0497494339942932,-0.0443971529603004,0.0189995504915714,0.0773638101875782,-0.1118659451603889,0.1598659331116825,-0.0506716180950403,113
1734065207553019600,1.436876677663624,-0.3599513561479747,1.3855471801817416,1.6534389690525828,1.975289142604172,9.462280682256818,-0.2408846914768219,0.9856646060943604,-0.6957022547721863,0.798344257361315,0.1322471320737042,-0.0082851033214361,0.5874422935365055,-0.3768203556537628,-0.0586586892604827,0.1400647610425949,0.0087255239486694,-0.0340111851692199,-0.0471082255244255,-0.0326531417667865,0.0116329435259103,-0.0579847495534224,-0.0549317896366119,0.0077044477431074,0.0746089996206807,114
1734065207593019600,-1.327620330261439,-0.1222578677944838,0.5458861618220806,1.2186841547243297,2.0026039966396985,9.522330369549987,0.1412026733160019,0.7226617932319641,-0.3707471489906311,0.8048683656464622,0.1200282672708178,0.0094602069438708,0.5811116094329002,-0.3347290754318237,-0.1195209696888923,0.1964612007141113,-0.009787380695343,-0.040228247642517,-0.0664781332015991,-0.0015171356499195,-0.0283321980386972,-0.0667144058793783,-0.0731404721736908,0.0609364069998264,0.0493961913317441,115
1734065207633019600,-1.350947722095996,-0.2745822264201939,0.4079448410749435,0.968324223151803,2.036565010691434,9.54385305005014,-0.0110788373276591,0.6410637497901917,-0.0159664042294025,0.8068851563580035,0.1139082315393125,0.0205868487884441,0.5792559424910849,-0.3134264647960663,-0.1147355362772941,0.2116539925336837,-0.009139597415924,0.0083990097045898,-0.0161302089691162,0.0136234853416681,-0.0266736894845962,-0.1052034187495708,-0.0799753963947296,0.046787506670691,0.0318593655973672,116
1734065207673020000,-0.1669021153587848,0.0202479843892157,0.7388309923887252,0.7805659283775835,2.0686929640971123,9.554141219830512,0.2461179047822952,0.1676550805568695,0.2107727825641632,0.8047228090643348,0.1094771948460474,0.0298180846765573,0.582706564404929,-0.2742878496646881,-0.191206619143486,0.2469523251056671,0.0266950130462646,-0.000599980354309,-0.0453715920448303,0.0102975005283951,-0.0179068259894847,-0.1047872391641139,-0.0762929767370224,0.0400863650642335,-0.024466917258501,117
1734065207713020000,0.9638127370767294,0.4525272023841738,-0.4776490764200687,0.7860494012899696,2.150269131282717,9.53566214480996,0.1061841398477554,0.1359523981809616,0.0856089517474174,0.802557772120959,0.1129885504157916,0.0324055919634398,0.5848798572950599,-0.2770532667636871,-0.2431309074163437,0.2639647126197815,0.0289658904075622,0.004175841808319,-0.0371443554759025,-0.003112724982202,-0.0034346207976341,-0.1143669684141874,-0.081349216401577,0.0410110056284815,-0.0623088643968105,118
1734065207753020000,0.6438030037600546,0.5601673467613756,-1.0314672002851963,0.7316657769344747,2.127473654367775,9.54509866619706,-0.2103889882564544,0.1093323454260826,-0.0666657611727714,0.8023943490135296,0.1103504406365918,0.0340322509553493,0.5855151906891016,-0.3163114488124847,-0.2502384185791015,0.3159769475460052,-0.0001518130302429,-0.0197932124137878,0.0067500509321689,-0.0026291161775588,0.0023212553933262,-0.0947287864863872,-0.0809260159730911,0.0456275960458442,-0.0175052615523338,119
1734065207793019600,-0.34796113169007,-0.0998481753267347,-0.2334919450104236,0.690780881903693,2.031220580923557,9.56908276837468,-0.2644996047019958,0.1159921213984489,-0.0028995599132031,0.8036925383722044,0.1051021176895187,0.0326510741166587,0.5847783929905693,-0.3469955921173095,-0.2613111138343811,0.290987491607666,0.0097934007644653,0.0294817090034484,-0.0276287198066711,0.0187437161803245,0.0064200870692729,-0.0793973618417978,-0.0700032189488411,0.0321741671675816,0.0281412218570709,120
1734065207833019600,-0.2487657942488789,-0.0075717504285275,0.1302186175405979,0.632286899619922,1.9369990133069448,9.592634324353932,-0.2240567058324813,0.2079700082540512,0.0749382078647613,0.8036011033142532,0.0993361411116961,0.032312467495408,0.5859297042080629,-0.2817694544792175,-0.3029973804950714,0.2308977246284485,0.0103269815444946,0.0549693703651428,-0.0562219619750976,0.0466693229973316,-0.0140268430113792,-0.0112163905411958,-0.059793721884489,0.0821698587624356,0.0221013571709394,121
1734065207873019600,-0.143909983360581,0.1032179440207779,-0.3459633089363574,0.5552637560961767,1.8353372126869856,9.617359600287676,-0.3316811919212341,0.1801184117794037,0.2075697481632232,0.8022649320207407,0.0926370073982619,0.0327034228103062,0.5888292731778514,-0.1838282346725464,-0.2998888492584228,0.1137551218271255,-0.0026162266731262,0.0713469386100769,-0.0270968712866306,0.0560696795582771,-0.0227073356509208,-0.0156225165456533,-0.0477907583117485,0.05776376831308,0.0067500587821006,122
1734065207913020000,0.6012935032021254,0.307566504394263,-0.061326867622137,0.5434341290274635,1.6929383280090986,9.644118427875638,-0.3639727532863617,0.0058208405971527,0.1462470293045044,0.8003748551697255,0.086217466131108,0.029212039926861,0.5925482801221031,-0.0469814389944076,-0.2487287670373916,0.0610082224011421,-0.0247352123260498,0.0341132283210754,-0.0297749061137437,0.0577922388911247,-0.0266142971813678,-0.0177688809245824,-0.0443230159580707,0.0458377316651865,-0.0007575403690338,123
1734065207953020000,0.1763198589801788,-0.4310322866737842,0.8271645248800515,0.5007902980327605,1.6080816778481006,9.66093512264192,-0.0196485146880149,0.0949917808175087,0.0697538778185844,0.7999156009012252,0.0813528752658249,0.0284798625719158,0.5938903158336941,0.0155269466340541,-0.1883994191884994,0.071419321000576,-0.0213399529457092,0.0196430683135986,0.0081712007522583,0.0660652890801429,-0.0345821268856525,-0.0448930346935987,-0.0431093014776706,0.0363783773917704,0.0270236160039901,124
1734065207993020000,0.6894681188046932,0.1215415362186729,-0.2063631150662898,0.4895265612185001,1.638346175469458,9.65642612078488,0.0491717457771301,0.0051925340667366,0.019087990745902,0.7988983871820743,0.0822157834203898,0.0299973239278661,0.5950648405215597,-0.0020025121048092,-0.0748781412839889,0.1301273703575134,-0.0016454458236694,-0.0131667852401733,0.0236860513687133,0.0940051078796386,-0.0580339878797531,-0.0192903914034366,-0.0400251485407352,0.0704280195750296,0.040608489242196,125
1734065208033020000,0.4281663393160328,0.1114905361950397,-0.3687812899440527,0.4936012633115053,1.6287947955310345,9.657834818539024,-0.0518806241452693,-0.0452608913183212,-0.0473112575709819,0.7991489677347678,0.0819563381486892,0.0295064417760576,0.5947886839811605,0.0412024855613708,-0.053208477795124,0.1717003136873245,0.0014012455940246,0.0024902820587158,-0.020735029131174,0.112703800201416,-0.0723935216665268,-0.0058382046341896,-0.0370986312627792,0.0488626324443146,0.0225713127702474,126
1734065208073019600,-0.1652761946573853,-0.1573597224444151,-0.1371802732467651,0.4641024893656372,1.5869973887652158,9.6662525182724,-0.1321918368339538,0.1275933235883712,-0.0168111380189657,0.7999546281502052,0.0793530007463641,0.0293495132487434,0.5940660002192583,0.0807901099324226,-0.0853117704391479,0.1767782866954803,0.0139569640159606,0.0226736664772033,-0.0380281247198581,0.1099875643849372,-0.089632898569107,0.0093874215483665,-0.0379872024059295,0.0527769928764551,-0.0179465755790472,127
1734065208113019600,-0.0062547495458275,0.0215292563714087,-0.1795493424206972,0.4382585116002708,1.5350009518072008,9.675850367701052,-0.1365187615156173,0.0581828691065311,0.0983753949403762,0.7994158304222049,0.0763739994805293,0.0289123429388094,0.5952018976338479,0.0543302670121192,-0.1143940687179565,0.1171456575393676,0.009952962398529,0.052616000175476,-0.0255706310272216,0.1050598472356796,-0.0833168625831604,-0.0497018962800502,-0.0371587127447128,0.0153542575309053,0.0113327103972435,128
1734065208153020000,0.6995778632782399,0.1944591806523501,-0.2926666030347347,0.4634055931426584,1.4765439405329526,9.683772977393865,-0.1979479640722274,-0.067671000957489,-0.0253585577011108,0.7991125308442901,0.0747079986207713,0.0261477319228426,0.5959481131792684,0.0481589287519454,-0.1447706818580627,0.1443977206945419,0.0121988654136657,-0.0196441411972045,-0.0299680195748806,0.1017299368977546,-0.0760510265827179,-0.0455184731155633,-0.0431453697383403,0.0182339776856824,0.0169178170531988,129
1734065208193020000,0.3511931358812377,0.0349633229620754,-0.3018845132350921,0.4851313584668562,1.402305715020001,9.693738491091132,-0.1645421981811523,-0.1679071933031082,-0.1161694154143333,0.800464650628875,0.0723541946565353,0.0228416952243575,0.5945582800659888,0.088025651872158,-0.1099822297692298,0.1784437000751495,0.0107658505439758,0.0145008563995361,-4.625506699085236e-05,0.0949291214346885,-0.0700179487466812,-0.0391273107737302,-0.0449911281466484,0.0055466378090903,0.0018523498684167,130
1734065208233020000,-0.2342754600709304,-0.153013363803178,-0.516082559710741,0.593854548840411,1.3475702084869146,9.695451140227911,-0.145583763718605,-0.4098709225654602,-0.0479615963995456,0.8019095543682792,0.0734585500255622,0.0165347561728293,0.5926816537586641,0.0282523296773433,-0.1293980479240417,0.1943487673997879,0.0138090252876281,-0.0005664229393005,-0.0405211448669433,0.0819909647107124,-0.0615224316716194,-0.0017898060262203,-0.0338993072509765,0.0304212590856477,0.0259112708479166,131
1734065208273020000,0.0812050688508898,0.0113780108436942,-0.4384568837165832,0.7332724084135145,1.266527125264704,9.696834703540802,-0.2764574289321899,-0.2874550223350525,-0.0067741824313998,0.8024400796829678,0.0743675364686892,0.0082757312675255,0.5920226649715329,0.0897734835743904,-0.1266191452741623,0.2040953338146209,0.0002070665359497,0.0083273649215698,-0.0180119276046752,0.0818131938576698,-0.0587471388280391,-0.0199894795835018,-0.017802570015192,0.0302478022148832,0.0379278718560934,132
1734065208313019600,-0.1750483046744018,-0.1044697707127779,-0.2702484349995851,0.839588902971521,1.1556739371251314,9.702056237581372,-0.277050107717514,-0.3636702001094818,-0.0023914244957268,0.8029776391790221,0.0730244561002694,0.0004834450801584,0.5915184741378946,0.168973758816719,-0.1324065774679184,0.2120412737131118,0.0135971307754516,0.0250850915908813,-0.0217921715229749,0.0989767611026763,-0.0507832542061805,-0.0622433979451656,-0.0117091462016105,0.0079079966455698,0.0673240622103214,133
1734065208353019600,-0.1487679082531482,-0.0539121343862265,0.0500374118447303,0.9840450124401598,1.0485532135121525,9.700648124349115,-0.2814632654190063,-0.2672390043735504,0.0900812447071075,0.8028578641483144,0.0729993592186319,-0.0086994525864806,0.5916203610666668,0.3226029872894287,-0.1579747349023819,0.2436273694038391,0.0387237668037414,0.0210817456245422,-0.0405972003936767,0.1223572194576263,-0.0294406954199075,-0.0805167212605476,-0.0072976085357367,-0.0048525180650874,0.0487204840272665,134
1734065208393019600,0.1740033256661146,0.0802027599405497,-0.0991331589251756,1.0790618951529265,0.9491542432576416,9.700779057252406,-0.2132519632577896,-0.2588382661342621,0.0985998883843422,0.8018978495837602,0.0718151637148914,-0.0155078669054519,0.5929265996663518,0.5708798766136169,-0.1107582151889801,0.2700202167034149,0.0409413576126098,0.0196395516395568,0.0148522853851318,0.1236249580979347,-0.0314573235809803,-0.0446194784492254,-0.0057400166988372,-0.0115690581700764,0.0182715697497129,135
1734065208433020000,0.1471175106976181,0.091037384622544,-0.2761865928769111,1.2168291745074094,0.8401573505092411,9.69452642659843,-0.3011880815029144,-0.4078245759010315,0.100298210978508,0.8010317654133183,0.0715638666341316,-0.0243990375837001,0.5938278418016787,0.5857747197151184,-0.083922229707241,0.3251356780529022,0.0402211546897888,-0.0300966501235961,0.0551717281341552,0.1087613776326179,-0.0189710073173046,-0.051496378481388,-0.0021145425271242,-0.027671668116562,-0.0308025500208139,136
1734065208473020000,-0.1000124259777367,0.0471758849337697,-0.1733165855109691,1.3842021953135728,0.7179211100246757,9.681887894299626,-0.3162359297275543,-0.3982984125614166,0.1767439544200897,0.7996001532360332,0.0717316496178585,-0.0348662563337967,0.5952129802898436,0.5674646496772766,-0.1127413138747215,0.2870592772960663,0.0069208145141601,-0.0156514048576354,0.03068333491683,0.0872086659073829,-0.0170971490442752,-0.0711187783181667,0.003368902252987,-0.0187787886194884,-0.0154120886653661,137
1734065208513020000,-0.350519510935992,-0.0334622342167422,-0.0772989282578229,1.5422333872787652,0.574402208340913,9.6675729532212,-0.3495672345161438,-0.4634324908256531,0.2316604852676391,0.7987065716359589,0.0707417429837098,-0.0456790274323569,0.5957993209638109,0.5295748114585876,-0.1201637014746666,0.2123133242130279,-0.0107914805412292,-0.0007829070091247,0.0280054733157157,0.0725168511271476,-0.0127368345856666,-0.0827560246199369,-0.0003180489875376,-0.021337021734938,-0.0313502470314502,138
1734065208553019600,-0.2830183385930955,0.0843418690392747,-0.0151034611076116,1.7928617605291306,0.4347509784033522,9.631564066728949,-0.2917024195194244,-0.6822212338447571,0.3465628027915954,0.7959092512085839,0.0729568062201784,-0.0600350964147263,0.5979979700015199,0.9022977948188782,-0.0651460438966751,0.1351782530546188,0.0021682977676391,0.0467578768730163,-0.0244766473770141,0.0669388398528099,-0.0195927862077951,-0.0440086530745029,0.0054064732976257,-0.0072719272317364,0.0304793094158172,139
1734065208593019600,0.3593237257689237,0.3623592940725386,0.000246083715558,1.926091250323504,0.269111302462127,9.611874446874856,-0.4273618459701538,-0.0640030652284622,0.3826428055763244,0.792040660328486,0.0707156041353087,-0.0702145265655243,0.6022795815105743,1.0820049047470093,-0.0644514337182045,0.3254507184028625,0.0445812046527862,-0.0384384989738464,0.0371492505073547,0.0776222124695777,-0.0188450589776039,-0.0260498025357723,0.0042297169566154,-0.0274390466707758,0.0551771128207445,140
1734065208633019600,0.2934548308029771,0.2772041358890011,-0.0553460396468639,2.0218878121718764,0.0561884407211793,9.59579074255824,-0.497806966304779,-0.3645278215408325,0.4007796943187713,0.7883452411188091,0.065478118066338,-0.0803956147808808,0.6064329477894549,0.694740891456604,-0.0149998906999826,0.3734126687049866,0.0169134438037872,-0.0382795333862304,0.078942134976387,0.0932646766304969,-0.0085328724235296,-0.0465571685135364,-0.0028776181861758,-0.0478394816753454,0.0520095887005329,141
1734065208673020000,0.7232752574689686,0.1872876450551673,0.7455103240221739,2.121934140419215,-0.137009373659268,9.573348609125611,-0.3316994309425354,-0.1333444863557815,0.2412361353635788,0.7850457563245586,0.0612132826551932,-0.0902661760617253,0.6097606472658647,0.5934440493583679,-0.0639935806393623,0.409680426120758,0.0329911112785339,-0.0001208782196044,0.0006893724203109,0.0947344526648521,-0.0251941941678524,-0.0244306769013404,-0.0072007328271865,-0.0125057544982992,0.0155512048751115,142
1734065208713020000,-0.1305263683155179,0.0197667767435312,0.1216957038670778,2.1787660347096622,-0.252902145134937,9.5582112457484,-0.2072062343358993,-0.2436213493347168,0.2475462257862091,0.7829340331370871,0.0586138596368997,-0.0960794533329423,0.6118395138473763,0.5074953436851501,-0.1328279376029968,0.3393236100673675,0.0228248536586761,0.0361458659172058,0.0134609788656234,0.0872821062803268,-0.0206647049635648,-0.0324643457531929,0.0004627713933587,-0.0264593879836611,-0.0114238958120346,143
1734065208753020000,-0.269599615702033,-0.0732478993013501,-0.0329319632649421,2.319634787210822,-0.3627960415219888,9.52145241767168,-0.2053422331809997,-0.4312199354171753,0.35903200507164,0.7790393208224482,0.05921784154145,-0.1050441430190475,0.6152696897878431,0.2600996494293213,-0.149896502494812,0.2353986650705337,0.0022457242012023,0.0159499049186706,0.0225617289543151,0.0831480324268341,-0.0326394625008106,-0.0124538233816623,0.0172117836773395,0.0140370465856511,0.0268979437977075,144
1734065208793019600,0.95219726421535,0.225846033367142,0.3547884204268455,2.419586715172976,-0.4969893713798373,9.490468081343174,-0.289572149515152,-0.0072704968042671,0.2909560203552246,0.7750205483351043,0.0576597556163158,-0.1131200320433822,0.6190495147291138,0.4639617204666137,-0.1350217461585998,0.2080801576375961,-0.0039853751659393,0.0462983846664428,-0.0211785435676574,0.0962586998939514,-0.0332982055842876,-0.0250865104615688,0.0300013218075037,-0.0011469963443465,0.0281692789077758,145
1734065208833019600,0.5009520644657314,0.1350901690997183,0.1506692848950624,2.4145868610590693,-0.5991164148913696,9.485842759630083,-0.1757673174142837,-0.0337168537080287,0.1978620141744613,0.7727948983940955,0.0538033233930716,-0.1160250751513206,0.621636049842198,0.4739624261856079,-0.1024760529398918,0.189353346824646,-0.0051472187042236,0.0161622166633605,0.0076011568307876,0.1173445433378219,-0.0307897757738828,-0.0283078105956316,0.0477672293782234,0.0036869996833615,0.0545627803146839,146
1734065208873019600,0.0575314208619296,0.0802380504496395,0.005654664760828,2.426003742608428,-0.688215561460331,9.47687970097363,-0.1845562011003494,-0.0753722116351127,0.1910065412521362,0.7710485831082958,0.0509142531727077,-0.1192532869006812,0.623434318817378,0.1753538995981216,-0.1604152470827102,0.2520841658115387,0.0292764604091644,-0.0605077147483825,0.001894012093544,0.1425926238298416,-0.0532392710447311,-0.0213736274182796,0.0629865303635597,0.0246652711085043,0.0506400539129972,147
1734065208913020000,-0.3598018646746874,0.0497792723651975,-0.1698579694896936,2.4774732330828906,-0.7642988303180783,9.457714397254586,-0.0975624248385429,-0.0790090188384056,0.2050408720970153,0.7687501255519951,0.0499403831733325,-0.1236799575154509,0.6254859040479883,-0.0148117840290069,-0.2120876610279083,0.1715251505374908,0.0035633146762847,0.0047267079353332,0.0258622765541076,0.16768778860569,-0.0780513361096382,-0.0220072491466999,0.0671276450157165,0.0453439750651828,0.0495937597304582,148
1734065208953020000,-0.3868658126890659,-0.1207654372796416,-0.1933499042361974,2.4654817665159703,-0.8484373222723602,9.453673012909292,-0.1748023182153701,-0.0057158898562192,0.2975164353847503,0.7662612989577672,0.0466817703639748,-0.1257681211251106,0.62836828974907,0.0513315498828887,-0.2513687014579773,0.0752535313367843,-0.0172176957130432,0.0393267273902893,-0.0205112695693969,0.1843199431896209,-0.0903683304786682,-0.054909401795268,0.0636744424700737,0.0429430331369861,0.0215595053791999,149
1734065208993020000,0.1377747320085763,-0.0946390623763203,0.0254220260262489,2.477740944108367,-0.9424991692826152,9.441550613439082,-0.1734993457794189,-0.0240725539624691,0.3359488248825073,0.762494184714274,0.0440761621142649,-0.1291207957370743,0.632445766777218,0.0386154875159263,-0.2177378088235855,-0.0055315238423645,-0.0185568034648895,0.0169751644134521,-0.003931313753128,0.1822295486927032,-0.0927503779530525,-0.0376198288202285,0.0474620275199413,0.0393689786090748,-0.0235024561405181,150
1734065209033020000,0.507449463661015,-0.0860816619113087,0.1982785928100347,2.471386606645584,-1.037098191909492,9.43329541079104,-0.1717770546674728,-0.0160778332501649,0.2514834105968475,0.7592432425770665,0.0407707446033569,-0.1318087131099872,0.6360141191074559,-0.0506099984049797,-0.2183360159397125,0.0116981957107782,0.0047173798084259,-0.029502511024475,0.0135680437088012,0.1673329472541809,-0.1106016784906387,-0.0477893406569957,0.0175698976963758,0.0584407862252322,-0.064310851868987,151
1734065209073019600,0.4905594113975763,-0.1938346920784562,0.4409487005323171,2.4570021074622868,-1.109209561461583,9.428848368254304,-0.0684047117829322,-0.0100438566878438,0.160407617688179,0.7569792346868855,0.0379101025732605,-0.1335116102204782,0.6385295497219088,-0.0781401544809341,-0.1606694161891937,0.0759253203868866,0.0015616714954376,-0.0269553661346435,0.0079704225063323,0.1614499688148498,-0.1179470345377922,-0.0914776757359504,-0.0078597366809844,0.0398756860221968,-0.0630646512001752,152
1734065209113019600,0.1922866589188575,-0.1196915975030511,0.3066121262788772,2.47829565538168,-1.110479069940746,9.423124145388602,0.08656857162714,-0.0748843923211097,0.1185509636998176,0.7555862880794662,0.0388418882358427,-0.1343341904256399,0.6399493303360836,-0.0878718793392181,-0.1970126777887344,0.1420328915119171,0.0187096297740936,-0.0299841165542602,-0.0146991610527038,0.1632897555828094,-0.1158614009618759,-0.1153518877983093,-0.0153071675449609,0.0189994593325769,-0.0474842202305793,153
1734065209153020000,0.0841559545457363,0.00284399125427,-0.1208417173862457,2.4879648164808748,-1.0917567607488483,9.422764079904557,0.0660541579127311,-0.0029200366698205,0.1175418943166732,0.7544017571597971,0.0401460615057318,-0.1340187610592078,0.6413308341781421,-0.0178536474704742,-0.2332474291324615,0.271855890750885,0.0592292845249176,-0.0136629343032836,-0.0121583342552185,0.1577305197715759,-0.0979298055171966,-0.1113806460797786,-0.0238304585218429,0.0003683355554705,-0.0987374376058578,154
1734065209193020000,-0.0128121353000402,0.06189005446285,-0.2595926009505987,2.4730039787143467,-1.0918456811413169,9.42669148248136,-0.0053298962302505,0.0425704345107078,0.111595869064331,0.7535989805741824,0.0398224004109186,-0.1333667069897347,0.6424298749634707,0.1277221888303756,-0.4464636743068695,0.3965604305267334,0.0780857503414154,0.0284260511398315,-0.0670145153999328,0.1358697116374969,-0.0771590396761894,-0.1039250693768262,-0.0154499690979719,-0.0414453145256731,-0.0852121856003999,155
1734065209233020000,0.1916400315783917,0.0955162105370312,-0.2826017206162214,2.444974400538206,-1.1212819112449883,9.430546404343843,-0.0866827741265297,0.0907012224197387,0.1268632411956787,0.7526629187114726,0.0379385363781678,-0.1331788314640005,0.643678860974019,0.8428483009338379,-0.5898119807243347,0.6372787952423096,0.0849071145057678,0.0599572658538818,-0.0711187720298767,0.1081240475177764,-0.0639050751924514,-0.0821668265551328,0.001799551770091,-0.0543972966878209,-0.0633878918051719,156
1734065209273020000,0.2001978704348206,0.0710922556374222,-0.0779383952051401,2.407087883605808,-1.166738790366426,9.434777758303284,-0.0823991298675537,0.0820260494947433,0.1122158467769622,0.7514704995109298,0.0351519933545584,-0.1331335343102365,0.6452379454877276,1.0547165870666504,-0.4913928508758545,0.7718125581741333,0.0396831631660461,0.0531530976295471,0.0307647287845611,0.0872828811407089,-0.0550204925239086,-0.0723112029731273,0.0076852762140333,-0.0618308807546738,-0.0632546208143234,157
1734065209313019600,0.1284815646149218,0.1399440388716757,-0.0890337897151708,2.3821380051359533,-1.203867328538373,9.43644539925456,-0.0697144120931625,0.0296626482158899,0.1039904206991195,0.7502852025204876,0.0331152947613372,-0.1333362084714142,0.6466815547370157,1.4352355003356934,-0.1978003829717636,0.7678452134132385,-0.0152828991413116,0.0323923826217651,0.0562021136283874,0.0873382985591888,-0.0571800172328949,-0.0511743069201707,0.009361240081489,-0.034193998540414,-0.0102653734266757,158
1734065209353019600,0.2889819231726229,0.1082008469998836,0.0107774146020412,2.3576583745263515,-1.2488883004605769,9.43674233637452,-0.0992200747132301,0.0783415138721466,0.1284044086933136,0.7488814418796593,0.0308284381555827,-0.1338268957035183,0.6483183329045802,0.8200388550758362,0.1133887097239494,0.730185329914093,-0.1003961265087127,-0.0294877290725708,0.1441300809383392,0.0950005277991294,-0.0667852237820625,-0.0134089321494102,0.018995214253664,-0.0214566820422536,-0.0155436060905456,159
1734065209393019600,0.3511082706093787,-0.0463473251551389,0.2076899797558784,2.3271055614829064,-1.2896172012120484,9.438847784221172,-0.0470069199800491,0.0109180863946676,0.0929132178425788,0.7477082087904536,0.0284631649388639,-0.1339497407049942,0.6497535621749024,0.4431546926498413,0.1611302942037582,0.4369630813598633,-0.0559739768505096,0.0061443448066711,0.0365508496761322,0.0932092294096946,-0.080501303076744,-0.0120756377190351,0.027275301516056,0.0084921423634543,-0.0330950448721647,160
1734065209433020000,0.3209966254621744,-0.1036938909694552,0.0358469739288091,2.349735326442122,-1.300655020315945,9.431724215951562,0.0240527428686618,-0.1364370584487915,0.0444072410464286,0.7465533328760935,0.0290150447586041,-0.1351814130114399,0.6508012392830891,-0.10634595900774,-0.0460706166923046,0.0649447739124298,-0.0322285890579223,-0.0151770710945129,-0.0136345028877258,0.0884682908654213,-0.1026402786374092,-0.0245563491076231,0.0342841520905494,0.0337929594418732,-0.0143967741429805,161
1734065209473020000,0.3971116046324372,-0.1069954167328774,0.0334679698377847,2.391834200372547,-1.294510380081087,9.421982574138044,0.0290045253932476,0.0644662827253341,0.0481380708515644,0.7454891021361546,0.0308690239646077,-0.1366004469759754,0.6516390213350784,-0.5097765326499939,-0.2604118585586548,-0.061116624623537,0.0186617076396942,-0.0170397162437438,-0.1093389987945556,0.089737668633461,-0.1116929277777671,-0.0070177698075771,0.0533106550574302,0.0615070190951693,0.0109130236804485,162
1734065209513020000,-0.2291317039743065,0.3113013070084154,0.0143272160381078,2.3590735020212827,-1.2893326851822435,9.430947970882055,0.0415331497788429,-0.0523196160793304,0.0591536983847618,0.7448805554993796,0.0301146049028735,-0.135087328754477,0.6526848766936566,-0.5944751501083374,-0.3892206251621246,0.1297065913677215,0.0644253194332122,-0.0312284231185913,-0.0609004497528076,0.0963844954967498,-0.1100668311119079,-0.0693973613530397,0.0490394458174705,0.0072373445421224,-0.0115191728800535,163
1734065209553019600,-0.0106711777485907,0.1946799837961793,0.0693716423898935,2.360579961061477,-1.2940673124887048,9.429922134965658,-0.0076059154234826,0.0375822186470031,0.1226690262556076,0.7435752649852849,0.0302493183699666,-0.1352506736329942,0.6541314324992251,-1.811466217041016,-0.558902382850647,0.2420128285884857,0.1177054643630981,-0.1438171863555908,-0.1026778221130371,0.1024961993098259,-0.0798426792025566,-0.0775087716162204,0.0416642650961875,-0.014803498630214,-0.0630395167589187,164
1734065209593019600,0.1447033622279763,0.0804258281067013,0.2059890210568905,2.357835923050344,-1.2957824458435176,9.430373385864495,0.0569722950458526,-0.0430691242218017,0.0779676064848899,0.7422404083780766,0.0303666736800569,-0.1351393216189393,0.6556632773469484,-2.4737436771392822,-0.5883339643478394,-0.0602329187095165,0.0884998738765716,-0.1432889103889465,-0.073359802365303,0.088670328259468,-0.0808892697095871,-0.0644166503310203,0.0318298637866973,0.0164024651093175,-0.0917500629365444,165
1734065209633019600,0.0259762989081442,-0.1976505240395665,-0.1194675064235925,2.377502746550739,-1.2716409611470996,9.42872152700424,0.1020484790205955,-0.0671727582812309,0.1221750080585479,0.7407415793957535,0.0322716136729563,-0.1350093332853698,0.6572921364760663,0.0988074541091919,-0.4029455780982971,0.5750424265861511,-0.073808342218399,0.2126629948616027,0.0110554844141006,0.0740265995264053,-0.0820496305823326,-0.0655161360055208,0.0291724409908056,0.0611057813505176,-0.0505348399728536,166
1734065209673020000,0.2139787046365439,-0.0926741920441389,-0.4064695078253745,2.3891169042378664,-1.256458443453908,9.427821363294123,0.0282018817961215,-0.0177705194801092,0.1048314422369003,0.73906922870974,0.0335931307821111,-0.1348568960559311,0.659137229747742,-0.2768870890140533,-0.4917550981044769,0.0998679995536804,-0.0943732559680938,0.1352896690368652,-0.073561243712902,0.076393999159336,-0.0710805207490921,-0.0766325733035802,0.0307051856070756,0.0807452053873334,0.0190408005565404,167
1734065209713020000,0.1173228956103324,-0.0309825827628374,-0.351495808622241,2.3888075460277496,-1.270864423816651,9.425968428903818,-0.0517742037773132,-0.0137108983471989,0.0898700580000877,0.7377979693542548,0.0332839905468802,-0.135283112048881,0.6604883082831905,0.2131313681602478,-0.0461848676204681,-0.1015398129820823,-0.1479431092739105,0.0438631176948547,0.1464336663484573,0.0585443340241909,-0.051532931625843,-0.0545651184022426,0.023041546344757,0.0927335301490966,-0.0019797756403684,168
1734065209753020000,0.1712362721055746,-0.2498619189225137,-0.191118199661374,2.4023808749586344,-1.2979896004989742,9.41882031071484,-0.0435194410383701,-0.0430122278630733,0.0835850089788436,0.7365183269573029,0.032951966328299,-0.1367040168437582,0.6616394988699792,0.6822048425674438,0.3677473664283752,-0.1294320225715637,-0.0752034485340118,0.0098041892051696,0.1351429224014282,0.0493042469024658,-0.0384920462965965,0.0251952315330505,0.0112734138965606,0.1134664028452709,0.026686346873641,169
1734065209793019600,0.3669289400756358,-0.2027300192609429,-0.088460958263278,2.396578180029243,-1.324770493788272,9.416569316917656,-0.0596462227404117,0.0779372677206993,0.0677839443087577,0.7354494351347848,0.031940997817451,-0.1373620941614386,0.6627409585341684,0.4991524517536163,0.3133493661880493,-0.1283753663301468,0.0635760128498077,-0.033094048500061,-0.0567233115434646,0.067735455930233,-0.0483854673802852,-0.0081529113173484,0.0021668467670679,0.0934088264616206,0.0575958644002676,170
1734065209833019600,0.1579712784714996,0.0350697059459984,0.0023234745115041,2.381379003462196,-1.339011785108596,9.41841114539206,-0.0107461754232645,-0.0432738848030567,0.0203231871128082,0.7353117264658278,0.0309064749268364,-0.1372569380949424,0.6629646254349407,-0.1272805333137512,0.1960812360048294,0.02584870159626,0.0628713965415954,-0.0752525925636291,0.0278986692428588,0.0838952288031578,-0.0454567074775695,-0.0298433495998382,-0.013407845981419,0.0905563231073319,0.072037646728754,171
1734065209873019600,-0.0980285586841404,0.207031369716674,0.1183990004092454,2.3583045634754,-1.33320397561267,9.425038454577326,0.0519869476556777,0.0365366972982883,-0.0125250071287155,0.7355264767046819,0.0303096063732296,-0.1361546781813807,0.6629812786431549,-0.5526371598243713,-0.2257452607154846,-0.1274187564849853,0.071403831243515,0.0536872148513793,-0.0328506231307983,0.0824480354785919,-0.0189739353954792,-0.0589291588306426,-0.0272323116660118,0.0286978419596794,0.07200783611238,172
1734065209913020000,-0.0719622434049844,0.0423845590040087,-0.0959668038487434,2.3470522248379884,-1.3249283146984874,9.429013787949083,0.0043990816920995,0.0406962521374225,0.0530076622962951,0.7351900086944078,0.030319287680523,-0.1354062188028988,0.6635070694632447,-0.401094526052475,-0.6097705364227295,-0.0145599720999598,0.1789105832576751,-0.0125948786735534,-0.2801564335823059,0.0773040354251861,-0.0019635502249002,-0.0435106404244899,-0.0485817939043045,0.0078806222981656,0.0215437232881784,173
1734065209953020000,0.0880786809474229,-0.0840735369592905,-0.0643698885798454,2.338145426413417,-1.3280565297216176,9.430786058318615,0.0058826128952205,0.0260050632059574,0.0481844134628772,0.7346170532240712,0.0300146528010479,-0.1351401112432959,0.6642092918390754,-0.0849586427211761,-0.2131260186433792,0.298270970582962,-0.0632171332836151,-0.0964205861091613,0.2455494999885559,0.0706280320882797,-0.0029649920761585,-0.0212029470264911,-0.0575929954648017,0.010073467583768,0.0069552259653806,174
1734065209993020000,0.0561208234116435,-0.1034073291130363,-0.2711976985484362,2.3192266448013483,-1.336555331867188,9.434256364777683,-0.034209631383419,0.0317789018154144,0.0811538100242614,0.7338392218037714,0.0292053109573377,-0.1346619592352495,0.6652016447057362,-0.1150550320744514,-0.2587633430957794,0.3097510635852813,-0.0093441605567932,-0.1110008955001831,-0.0749663040041923,0.0631653666496276,-0.0068413065746426,-0.048286768785119,-0.0519247762858867,0.0194735750837717,-0.0194452897042036,175
1734065210033020000,0.2381067453294992,-0.0652061932735145,-0.0648895285397768,2.3045354177564383,-1.3614387209720908,9.434298450353742,-0.0418902896344661,0.033900074660778,0.0734554082155227,0.73290706137934,0.0279374528960792,-0.1349227450809419,0.6662302538975609,0.1092025712132453,-0.0705804899334907,-0.0086872363463044,-0.0889563858509063,0.1713221073150634,0.0316334292292594,0.0486112609505653,-0.0111517067998647,-0.034748657298088,-0.0421499013900756,0.0496972703372826,-0.0167734401464462,176
1734065210073019600,0.2643428642176091,-0.1484993935100734,-0.3111474316209554,2.321993625296652,-1.38169474253729,9.427070252665876,-0.0559992715716362,-0.0752945318818092,0.0235120765864849,0.7320420492983731,0.0279243282926356,-0.1362843453022328,0.6669042690047151,0.0495027601718902,0.2305872440338134,-0.0536915957927703,-0.0849426686763763,-0.0634765625,0.1568936109542846,0.0335216298699379,-0.0094026001170277,0.0072498249977827,-0.0191153194755315,0.0510047225069254,-0.0049093993514776,177
1734065210113019600,-0.0733694798544049,-0.1008081064000725,-0.0264262346327304,2.292644927345961,-1.4177142965540288,9.428905066877602,-0.0842417478561401,0.1131555587053299,0.090855948626995,0.7314910578755919,0.0256543336053029,-0.1363872750999036,0.6675786177312357,0.3320484161376953,0.3621856272220611,-0.1633068472146988,-0.0327134132385253,0.093978464603424,0.0054268240928649,0.0282104425132274,-0.0062536085024476,-0.0457435140430927,-0.0400362499058246,0.0301015872607822,-0.0271329215973615,178
1734065210153019600,0.3321986952170729,0.1841448535174131,0.09433189612329,2.273889811863005,-1.4524731829851865,9.428156294336915,-0.0611157640814781,0.0337651893496513,0.0355298668146133,0.7309121056161374,0.0237977992502789,-0.1368629807056255,0.668183774416642,-0.0448945835232734,0.2271348685026168,-0.0118684498593211,0.0536771714687347,-0.1185204982757568,-0.0034782886505126,0.0300898998975753,0.0018997360020875,-0.0977227076053619,-0.039342425763607,0.0088739247764984,0.0069388593524694,179
1734065210193020000,0.1929287562146782,0.1052788220733404,0.1018517702341079,2.23913107156232,-1.4716196358732878,9.433504669627547,-0.0196133442223072,0.0560059547424316,-0.0176273602992296,0.7308986179503987,0.0218832108284041,-0.1361845745447314,0.6684026459324418,-0.584480345249176,-0.3081346154212951,-0.1518603712320327,0.1280508041381836,0.0037714838981628,-0.1456635594367981,0.0333548113703727,0.006277154199779,-0.1208078151166439,-0.0303415618836879,-0.0265983808958204,-0.0059428340524435,180
1734065210233020000,-0.0476494937948882,0.0059606619700789,0.0293652106940746,2.2398403888754546,-1.4682193259105083,9.433866488677262,0.0198935624212026,0.0013382625766098,0.0290032606571912,0.7308352665205846,0.0220511162272565,-0.1360897921820571,0.6684857515049706,0.2021863162517547,-0.4637486934661865,-0.078366182744503,0.0661957561969757,0.0932041406631469,-0.1786684393882751,0.0206826869398355,0.0300797335803508,-0.1152268001139164,-0.019765056669712,-0.0554326950170099,-0.0490811340332031,181
1734065210273020000,0.051259647116065,0.0403910470992326,-0.2041495306700468,2.2429840937286616,-1.473470378306508,9.432300554534793,-0.0405654162168502,-0.0092477668076753,0.0150845125317573,0.7305906593276661,0.0220056099233163,-0.1363901355319056,0.6686933555162231,-0.4860043525695801,-0.1728889048099517,0.1906487792730331,0.0613056421279907,-0.229128897190094,0.1149246767163276,0.0033302586525678,0.031162466853857,-0.0324333660930395,-0.0216754358261823,-0.0222399345245677,-0.073887658509612,182
1734065210313019600,0.0931925168298184,-0.1162349542431533,0.041966333591938,2.232924033615738,-1.5016468176074325,9.430243622004983,-0.0588519945740699,0.023242624476552,0.0498997457325458,0.7301720251494946,0.0206647977942077,-0.136983069062865,0.6690720281093325,0.0155128315091133,-0.2109101712703704,0.3473714292049408,-0.0354317724704742,-0.0813608765602111,-0.0249541997909545,0.0028209201991558,0.0136519316583871,-0.0378249960035085,-0.0209832526743412,-0.0171427849154919,-0.0238280348330736,183
1734065210353019600,0.2528156541615724,0.0116512748271226,0.1043085157364606,2.2283251615181565,-1.5137133952371775,9.429401910483836,-0.002612488111481,-0.0032971289474517,0.0263818930834531,0.7296347782310304,0.0201541424561385,-0.1372155449193778,0.669625790249686,0.0589439272880554,-0.0979208201169967,-0.0066906646825373,-0.0800041556358337,0.128359854221344,0.0304704308509826,0.0077930227853357,0.0086134597659111,-0.0516319875597953,-0.0092943422496318,-0.0010690905362367,-0.022441548910737,184
1734065210393019600,0.2236333988189697,-0.1471884570419788,-0.1230968028366565,2.2542155357085165,-1.51199314731583,9.42352220479548,0.0181945394724607,-0.1186858564615249,-0.0182356275618076,0.7293245633230945,0.0211648806126572,-0.1381525406277619,0.6697398864701924,0.1760007739067077,0.2425411641597747,-0.1474599540233612,-0.0962536931037902,0.0227357745170593,0.1691036224365234,-0.0135095585137605,0.0194714553654193,-0.030737083569169,0.0051185842603445,-0.0026762060724664,-0.0332762466579675,185
1734065210433020000,-0.0229287479057908,-0.0753334734037518,-0.1513952610820531,2.2779674365654587,-1.507982011978328,9.418452061924338,-0.0126605816185474,-0.0144372135400772,0.0052350750192999,0.7293422699944891,0.0221235235542836,-0.1389357385358711,0.6695275863332819,0.3021565675735473,0.420378565788269,-0.2480986267328262,-0.0454863011837005,0.0765033364295959,0.0510333254933357,-0.0370889753103256,0.0305435471236705,-0.0451776968538761,0.0029975131619721,-0.0008650421643862,-0.0144055419713258,186
1734065210473020000,0.2034498579680919,0.1944993665322661,-0.1123550440698862,2.267665384390205,-1.5168470170877872,9.419514722719788,-0.0367229394614696,0.0445877909660339,-0.0236940402537584,0.729501891717406,0.0213989240014552,-0.1388542599682547,0.6693941399640195,-0.0800714790821075,0.403473436832428,-0.0511002726852893,0.0432943999767303,-0.1379520297050476,0.0098226815462112,-0.031771644949913,0.0393449291586875,-0.0511643700480461,0.0043899808079004,-0.039475279394607,0.0811485894232988,187
1734065210513020000,0.1042198145397007,0.2263357896454632,0.1906423988431692,2.2534702702991662,-1.5211499749787152,9.422226904287934,0.009453359991312,0.0502633452415466,-0.0636779442429542,0.7301903927163144,0.0206081369810896,-0.1384753714234463,0.668746567135488,-0.3651567697525024,-0.1486207991838455,-0.1486529260873794,0.1318933665752411,-0.014672040939331,-0.1537026166915893,-0.0128019750118255,0.0131324958056211,0.0147165076166391,-0.0042385905981063,-0.0224511204566806,0.1076093108475208,188
1734065210553019600,-0.2795831034474074,0.0796428610354662,-0.018812252497673,2.2425290434375404,-1.5031453856021164,9.427724917182326,0.0584120973944664,0.0007553552277386,-0.0020116481464356,0.7308199662470762,0.0208003711876757,-0.1374304758624886,0.6682681461940266,0.3807903826236725,-0.4802305400371551,-0.0964942574501037,0.1424936652183532,0.1245343685150146,-0.1731692552566528,-0.0267557278275489,0.0292984116822481,0.0069558104872703,0.0005266005173325,-0.1012260212848894,0.0871837779343128,189
1734065210593019600,0.2085227773182094,0.0876411663129925,-0.4754775775998831,2.251668919965625,-1.4924388442791998,9.427247362798452,-0.0249488148838281,-0.0077415416017174,0.0227405708283185,0.7305092828361017,0.0215869976120753,-0.1373977412921336,0.6685896241704263,0.0555625110864639,-0.2656487226486206,0.1604876071214676,0.0324307084083557,-0.084485113620758,0.0772610902786254,-0.0298102106899023,0.0260903444141149,0.0417161582231521,0.0024805597495287,-0.065607723279111,0.0966372504562139,190
1734065210633019600,0.3362396411709487,0.2132927681989967,-0.1604278778433799,2.2330378692537547,-1.524267668607831,9.426586268541216,-0.108270488679409,0.0729834362864494,0.0114705990999937,0.7303936813132286,0.0197520549090788,-0.1377958738195593,0.6686905585329062,-0.4735777676105499,-0.1708766222000122,0.3612436354160309,-0.0400813519954681,-0.2732455730438232,0.1281916499137878,-0.0083581525832414,-0.0103991124778985,0.087377254679799,-0.0102673200890421,-0.0008645078748464,0.134153618901968,191
1734065210673020000,0.0988977427341043,0.2240656527563929,0.2262432890564203,2.215995841298997,-1.5607782210119068,9.424633380907771,-0.0673971772193908,-0.0004605394788086,0.0202606320381164,0.7304221942802511,0.0177603790196226,-0.1384268209117584,0.6685851511284954,0.0146957738324999,-0.0972106605768203,0.0372124798595905,-0.0451830923557281,0.2421675324440002,-0.0229304358363151,-0.0030626314692199,-0.0043365149758756,0.0231686941415071,-0.0049129971303045,-0.0350308443734887,0.1305295831859111,192
1734065210713020000,0.1768660946860909,0.015099077193439,0.1753577359497547,2.2294562113747,-1.5704324768029152,9.419854329937696,0.0176374539732933,-0.0875669792294502,0.0288679599761962,0.7299209420476668,0.0179493605916784,-0.1392800177559701,0.6689501166913425,0.1043175384402275,0.2580942213535309,-0.0952176675200462,-0.0934421122074127,0.071905493736267,0.142450213432312,-0.0221084598451852,-0.019782181829214,0.0841851806402206,-0.0035601472482085,0.0130659867635229,0.0822007288247346,193
1734065210753020000,0.3281488353043794,-0.0491910241484642,-0.0982663129627704,2.2590851875714955,-1.5652489366851745,9.41365547529757,0.0094470223411917,0.0042334664613008,0.0349255986511707,0.7292543664555031,0.0192951725162572,-0.140231333353634,0.6694407936634399,0.0522197112441062,0.4987998902797699,-0.1991401463747024,-0.070367157459259,0.0307345986366271,0.1017537117004394,-0.006504806689918,-0.038299337029457,0.0690571696132421,-0.0064628403633832,0.0488401968502206,0.1271276657879352,194
1734065210793019600,0.1318358434788882,0.4100236931756139,-0.0414285734534263,2.248150244320184,-1.561036141295731,9.41697263702154,0.0378715172410011,-0.0676262378692627,0.002981511875987,0.7290036925297791,0.0191378942203768,-0.1396487233856999,0.6698399375973247,0.1349356323480606,0.4085670411586761,-0.1040816679596901,0.0404391288757324,-0.0502014756202697,-0.0357915759086608,0.0156132327392697,-0.0368353761732578,0.0199269357413053,0.0068365233018994,0.0069286370692658,0.1451467220813035,195
1734065210833019600,0.2477231533281505,0.2821398021928966,-0.1570826590687036,2.290429881644994,-1.551066682075709,9.408427511516212,0.0041413828730583,-0.0691195204854011,-0.0040905117057263,0.7285911264777574,0.0210465719606875,-0.1409281288046034,0.669963726766977,0.031739205121994,0.0183124728500843,-0.2226659655570984,0.0693322420120239,0.024177610874176,-0.0698316693305969,0.016952309757471,-0.0427832417190074,0.0611164397418498,0.0240147709846496,0.0662330429700668,0.1072398930132389,196
1734065210873019600,-0.3293104264296591,0.2975304096788168,0.1269686758339405,2.272354711250216,-1.5461065754503012,9.413625080159306,0.0584221519529819,0.0456466414034366,0.0456051379442215,0.7286579720444092,0.0206082509899006,-0.14004991837281,0.6700886495218262,0.3929075002670288,-0.3987600207328796,-0.1218407601118087,0.175044447183609,0.0958601832389831,-0.2348671555519104,0.0024671321734786,-0.0122550018131732,-0.0628062925249338,0.0332716442644596,-0.0754859833846101,0.1518336524993181,197
1734065210913020000,0.2474402447335422,0.4013612249009311,-0.3126075673013925,2.273653957280517,-1.538157954533398,9.414613506674764,-0.009154706262052,-0.0322418361902236,0.0702212676405906,0.7275964556181392,0.0211795341521991,-0.1397845210476779,0.6712787764358944,0.0153181552886962,-0.3114731013774872,0.2074099779129028,0.0954512059688568,-0.1544547080993652,-0.020410344004631,-0.013052636757493,0.0262055248022079,0.0298819280445575,0.0338201187551021,-0.058735883014556,0.1429658709108829,198
1734065210953020000,0.5117964068241417,0.1001380981840193,-0.1429763923048973,2.284630986107885,-1.5625462535977364,9.407937682172657,-0.0690194442868232,-0.0140850497409701,0.0185902882367372,0.7269262737579617,0.0207575403352702,-0.1410595075236847,0.6717511585605264,-0.0468341633677482,0.0487272106111049,0.5578775405883789,-0.0698539316654205,-0.1163291931152343,0.3959783911705017,0.0136327296495437,0.0021711848676204,0.0909936916112899,0.0070976708084344,0.023116758458293,0.199139593553543,199
1734065210993020000,0.1323006845116615,0.1963357881791889,0.1930202338904142,2.272225970304012,-1.5728519590348005,9.409224799373746,0.0132723413407802,0.0369697362184524,0.0091986637562513,0.7269905082194709,0.019924931369861,-0.1409469589292033,0.6717304964606315,-0.0309063326567411,-0.3125323057174682,0.0864165052771568,0.0051923394203186,0.0982639193534851,-0.2554541826248169,0.0504617765545845,-0.0138569083064794,0.0761953509300947,0.0084154475480318,0.0152134927867678,0.2392407177954912,200
1734065211033020000,0.1819261545546353,0.0048886488243937,-0.0640916561603546,2.2885906835190952,-1.564112333870679,9.406714862379433,0.0426360890269279,-0.1103435456752777,0.0522297546267509,0.7262132982168186,0.0209823651372894,-0.1412471007417178,0.6724754734076172,0.291348397731781,0.1873430907726287,-0.19880211353302,-0.1426211893558502,0.1059836745262146,0.2229028344154358,0.041077584028244,-0.0054615763947367,0.0665197600901126,0.0119960540905594,0.0426940542114432,0.1697995173007249,201
1734065211073019600,0.547991025146842,0.0740516168996691,0.0976513959348201,2.294524895873665,-1.5571099077627062,9.406431369262933,0.029724296182394,0.0640419274568557,0.006181301549077,0.7257992379129808,0.0215407047853613,-0.1412142909224878,0.6729116061918683,0.2767329812049866,0.4052656888961792,-0.4209767282009125,-0.1102379560470581,0.1091061234474182,0.1670397520065307,0.0190559979528188,0.0101777864620089,0.0624912352263927,0.0128553872928023,0.0336294166103471,0.1566203022539615,202
1734065211113019600,0.3830418704867362,0.4277729926168918,-0.0113905780643224,2.289934645473957,-1.5249159033834934,9.412821947082875,0.1003437042236328,-0.0404631420969963,-0.1025369241833686,0.7265349651697672,0.0224644346474747,-0.1399106759916449,0.6723594706330982,0.9539692401885986,0.4715200066566467,-0.2494518309831619,0.0037891268730163,-0.046498417854309,-0.0456099063158035,0.0169811900705099,0.0345706865191459,0.0511304677784442,0.0483465567231178,0.0499730459382059,0.262605811291933,203
1734065211153019600,-0.0947042365670204,0.2556679748527705,-0.1952922704756259,2.3061983825325965,-1.4765611839286985,9.416559964567425,0.1055832728743553,0.0079935379326343,-0.0479096323251724,0.7275194053629701,0.0246700642774108,-0.1388540639126483,0.6714360215520244,0.944525420665741,0.237765684723854,-0.3286638557910919,0.0595702826976776,-0.0078346729278564,-0.0376424491405487,0.0329722464084625,0.0573297888040542,0.0797059893995523,0.0840807408094406,0.0797005095068365,0.2773287486493587,204
1734065211193020000,0.261811446043849,0.2498261169567704,-0.3485369588166475,2.305820050739497,-1.4422881813183426,9.421962700393795,0.0509532019495964,0.0308286864310503,-0.0484017841517925,0.7280867683158496,0.0258549315308403,-0.1376412483367004,0.6710260834833193,1.3785769939422607,0.083358958363533,-0.060098759829998,0.0712315142154693,0.1199237704277038,-0.1665981262922287,-0.0014826767146587,0.0577360726892948,0.1145405714154243,0.0889698937535286,0.1192409859250299,0.2329348956495523,205
1734065211233020000,0.4713356554895639,0.0645883536361157,-0.092843703392148,2.273017997464537,-1.4354184416793283,9.43097836602032,-0.0015605252701789,0.1134365946054458,-0.047050766646862,0.7288478111405203,0.0248447103063329,-0.1361494599020583,0.6705423928933315,2.8460335731506348,0.2823392152786255,0.4721809029579162,0.0596795380115509,0.0132954716682434,0.0790856480598449,-0.0562647730112075,0.0396828651428222,0.0634393297314643,0.1135849878191948,0.1483243840030394,0.3053799541354179,206
1734065211273020000,0.7152490412712097,-0.0439202441386878,-0.0618511837571859,2.2797475979805,-1.4048708893328905,9.433952997916936,0.1082155108451843,-0.1466979533433914,-0.1454207450151443,0.7301099654634824,0.0259909618356502,-0.1353762075236444,0.6692811184438083,3.957803249359131,0.0942615121603012,0.8228839039802551,-0.0262748897075653,-0.0527400970458984,0.0810050964355468,-0.0943805798888206,0.0938683748245239,0.1211941840857267,0.118952989578247,0.1835510523427277,0.3698538876116276,207
1734065211313019600,1.0305679133579135,-0.069049863089621,-0.4381289669364691,2.4019689331568777,-1.3469706351585686,9.412045702013373,0.0823764726519584,-0.3878115117549896,-0.263924241065979,0.731932992498443,0.0319948089678521,-0.1381867088309025,0.6664493849473305,4.6058197021484375,0.0089811813086271,0.5472844243049622,0.0069320648908615,0.0552951097488403,0.081878662109375,-0.1253969967365265,0.0626535713672638,0.3904997852772474,0.0350107923150062,0.3952934127619489,0.3148071231722831,208
1734065211353019600,1.4094386356398465,-0.1672607926033437,-0.6161357560902834,2.563290106578171,-1.297541710601002,9.376369992998242,-0.0100698489695787,-0.3913929164409637,-0.4460327625274658,0.7352898425559358,0.0386390929910677,-0.1429867043484868,0.6613702457569093,2.256070613861084,-0.3915512561798095,0.4150744676589966,-0.005848228931427,-0.1538267731666565,0.045582890510559,-0.1640030294656753,0.0422492027282714,0.3976923271298408,0.0039468500763177,0.4874615184474736,0.4815840777814388,209
1734065211393019600,2.788106869962811,0.1192535714119672,-0.6974900972187519,2.736214185640216,-1.251411681458354,9.333674760609863,-0.0891283228993415,-0.3141177296638489,-0.9117043614387512,0.7430915204092859,0.0444689131040017,-0.1487869010948618,0.650922316028652,1.9750070571899407,-0.1347648501396179,0.27045539021492,-0.0535925328731536,0.0091341137886047,0.0322092175483703,-0.1907919943332672,0.0387027636170387,0.368920406153798,0.0093680005520582,0.5722680458564311,0.5241138904750346,210
1734065211433020000,2.029342804352939,-0.0518993332590907,-1.2719418437898158,2.9648122211292383,-1.1469972211293875,9.277104732125997,0.0117497211322188,-0.7948480248451233,-1.2526057958602903,0.7561763004848303,0.0529553013341933,-0.1555475404779977,0.6334020132025474,1.6551936864852903,0.0999166816473007,0.1886596530675888,-0.0762804746627807,-0.0875453948974609,0.1094221472740173,-0.209537535905838,0.0491103380918502,0.3713298053830862,0.0014708591625094,0.6222993202213197,0.4882815295934677,211
1734065211473020000,1.984689423634112,0.6617869156748056,-0.6197253050148487,3.4598744969040154,-0.9188642458688469,9.12991452151835,0.2044965326786041,-1.3277872800827026,-1.6723817586898804,0.7717325950222477,0.0736790647842731,-0.1705148036662632,0.6082144860505551,0.3755106627941131,0.218941181898117,0.2125176638364792,-0.0972858816385269,-0.1165643334388732,0.0573028922080993,-0.2017630338668823,0.0615826100111007,0.2578746911168098,0.0430735684931278,0.6583467120930552,0.7318307582378387,212
1734065211513020000,1.7142194548383354,0.1807755597474053,0.5072638779610396,3.890307356379926,-0.5767166958283633,8.983501140502094,0.2095032632350921,-0.5802900791168213,-1.820745825767517,0.7900573508647587,0.0953764890569944,-0.1813070488327379,0.5777892504865018,-0.5457121729850769,0.0787655338644981,0.1678250730037689,-0.059366151690483,-0.0796324014663696,-0.1213735938072204,-0.1829935014247894,0.0832437351346015,0.1312707569420337,0.0941120088100433,0.6772781339909881,0.8542308109819888,213
1734065211553019600,1.0070759786114096,0.4357503281716257,-0.7068114677935838,4.1536254075944425,-0.1765780715249478,8.8818130363971,0.3117035329341888,-0.8668962121009827,-2.00571870803833,0.8093158402178386,0.1136517327565615,-0.1850320518217486,0.5457601656461976,-0.4530349373817444,-0.0334973558783531,0.3043349385261535,-0.0521701276302337,-0.1646742224693298,-0.1583371758460998,-0.1719375699758529,0.1846473813056945,0.0266553672134876,0.1914628446102142,0.5741972238207236,0.958200888544321,214
1734065211593019600,1.186233399105072,0.3990230642769485,-0.5426853199541568,4.501940832614898,0.3042737099265679,8.706912981086969,0.3147980868816376,-0.9981584548950196,-2.2253754138946533,0.8270073919432406,0.1375818988736177,-0.1927231536922656,0.5098899834022641,-0.7517033815383911,-0.056853599846363,0.4591909050941467,-0.0754233300685882,-0.1666266918182373,0.0032183527946472,-0.169130727648735,0.2159358263015747,0.0728343500643968,0.269632488489151,0.6385602808009833,0.9058066844403744,215
1734065211633019600,-0.3046884647399187,0.7302486036129295,-0.7404600548952818,4.809079613116383,0.756999540155381,8.512936469385027,0.1344712674617767,-1.078514814376831,-1.7462804317474363,0.842743192244844,0.1590171345946846,-0.2016793998028108,0.4730992546097677,-1.1727806329727173,-0.2157259732484817,0.8309371471405029,-0.0528533011674881,-0.3706902861595154,0.0429228544235229,-0.2123028934001922,0.252040833234787,0.0989250691324472,0.3466004729270935,0.565657139816694,0.7409758954629302,216
1734065211673020000,0.1468207927733659,1.3781170301809906,-0.9531400980234146,5.183569928357005,1.0831222764596342,8.253958785462379,0.0418020337820053,-1.5820808410644531,-1.3356555700302124,0.8504512256202889,0.1785745702377988,-0.2174312172835248,0.4444858312301429,-1.3813223838806152,-0.4508437216281891,0.907499372959137,-0.1465154141187667,-0.2009108066558838,0.0487303733825683,-0.268099844455719,0.2382525652647018,0.3083966716080903,0.4653651714324951,0.6462240203619003,0.7105775423288345,217
1734065211713020000,0.0883458074510097,0.7948005707614123,-0.4923053782820701,5.810367948237062,1.3863168493799864,7.777411532804369,0.0459989532828331,-2.7131459712982178,-1.395019292831421,0.8520926942551303,0.2036102851590504,-0.2490084527275146,0.4128869695505423,-1.559403657913208,-0.4982007443904876,0.7828487157821655,-0.3268029689788818,-0.0886449217796325,0.0255139470100402,-0.2917404472827911,0.183312103152275,0.3586795826464891,0.630026638507843,0.7171382160186767,0.793722274005413,218
1734065211753020000,-0.021061492729187,0.8823919065833091,0.7267261285752058,6.564563683018088,1.7542223794028162,7.071038456428051,0.2275076210498809,-2.5672028064727783,-1.161900281906128,0.846603986178537,0.2354790305591293,-0.2898741182734277,0.379188847693801,-1.470562219619751,-0.5918727517127991,0.5623656511306763,-0.3163877129554748,-0.0697831511497497,-0.0039683580398559,-0.2974240481853485,0.1803822368383407,0.5803595093101263,0.7443698644638062,0.6754363055165856,0.6569628565192223,219
1734065211793019600,-0.660409782102704,0.8660597804635762,0.782813926500082,7.014471935075521,2.039303934136033,6.542844603163004,-0.0117640923708677,-1.3921098709106443,-0.6226294040679932,0.8411885392173895,0.2572110951452979,-0.3166231532185895,0.3549565555598427,-0.503711998462677,-0.3385638892650604,0.4370253980159759,-0.2709105908870697,0.0246570706367492,-0.0151683092117309,-0.2883627414703369,0.1678944379091262,1.063756189471483,0.6778382658958435,0.6694879185061902,0.1875140376895666,220
1734065211833019600,0.0443354008108377,0.9964888258844612,0.9227467133253812,7.278778705066442,2.160565192108601,6.206587280204892,-0.0290530119091272,-1.0594747066497805,-0.3009533286094665,0.8364777432269803,0.268175571175498,-0.3341167280761716,0.3416911501671359,-0.2377939969301223,-0.2062695622444152,0.783475399017334,-0.1684254705905914,-0.2137273550033569,0.0166817903518676,-0.2752143144607544,0.0841460600495338,1.48805069232285,0.5656977891921997,0.6328303588468581,0.0037742578417062,221
1734065211873019600,0.0288256969898939,2.380161152105033,1.2510323267519474,7.451707752564549,2.2162572687141595,5.97751198259294,-0.2070360481739044,-0.4223008155822754,-0.3415223360061645,0.8336289259214176,0.2735077280796939,-0.3470234006374362,0.331407850234107,-0.5180272459983826,0.1640781909227371,0.8172926902770996,-0.0850929543375969,0.0052881240844726,0.0655988454818725,-0.2243685573339462,-0.0928701683878898,1.5016893415749073,0.5601141452789307,0.5194648956254124,0.1755368919089436,222
1734065211913020000,0.4168494475424289,1.391564833036065,1.510242650386691,7.459474879434705,2.3242361435264347,5.926595449826121,-0.0067416541278362,0.0162025596946477,-0.7625939249992371,0.8365019799319592,0.2753206464840314,-0.3493225730278012,0.3200572021827333,-0.8752000331878662,0.4828710556030273,1.2682535648345947,-0.0276217684149742,-0.1957486271858215,0.1356396079063415,-0.1457469463348388,-0.3400380313396454,2.1238246303409336,0.5158883333206177,0.3668964260455221,-0.0159837510734796,223
1734065211953020000,0.8536778532743453,2.1086808372229338,0.938168738862872,7.224657238778471,2.700671747615933,6.056490242239833,0.1860851943492889,0.5751038193702698,-1.3374100923538208,0.8459288686715247,0.2830562504867956,-0.3332927929865813,0.3052856948675982,-0.3294528126716614,0.4036206007003784,1.7969822883605957,0.1033495664596557,-0.0886331796646118,-0.0746984481811523,-0.1257456243038177,-0.2142916023731231,0.0700046795964241,0.54754638671875,-0.7382262314286082,0.1574365870729088,224
1734065211993020000,-1.4000123433858156,1.0769602466985582,0.3942880716443062,7.043893844392895,3.020416619451344,6.118090666106343,-0.1638529151678085,0.0306451693177223,-0.6912987232208252,0.8539132989488899,0.2892141900414304,-0.3231398276828525,0.2876941949239206,-0.4170598983764648,0.611548662185669,2.54024076461792,0.1664226353168487,-0.2149989008903503,0.0827680230140686,-0.2033055126667022,-0.1632522195577621,-0.4935907419174909,0.6725519895553589,-0.8149124346155673,0.5241913396254182,225
1734065212033020000,-2.2083383122831584,-0.0935053821712732,-0.052747839847207,6.855483734646439,3.049595952184498,6.31448242225647,0.0743628144264221,0.8795373439788818,0.2775683403015136,0.8596523769434266,0.2850919009648626,-0.3110845601058387,0.2880046851186253,-1.1940422058105469,0.7039504647254944,3.2364749908447266,0.2532617449760437,-0.2882415056228637,0.1345508694648742,-0.1627365499734878,-0.2516663074493408,-0.5336790066778659,0.8919091820716858,-0.6879111716862768,1.1286989095032214,226
1734065212073019600,-1.942286159929633,0.1670250841513276,-0.914445917969942,6.746251791033148,3.03327434745878,6.43876638905108,0.5540419816970825,0.1239770278334617,0.3030830025672912,0.8597278374759149,0.2845189271788679,-0.3012693899806564,0.2985862107093797,-1.777437686920166,0.6642113924026489,3.994951486587525,0.3669266700744629,-0.2408919930458068,0.1445935368537902,-0.0347500294446945,-0.2287609130144119,-0.3850561329185962,1.000996470451355,-0.8278098370462655,1.0047450514458118,227
1734065212113019600,-2.630547241032124,-0.222092306856811,-0.3322685455828905,6.8741200460553165,3.2030230113551017,6.217515501454472,1.3616920709609983,-0.8031134009361267,0.2727565467357635,0.8503586477955635,0.3014265671017011,-0.303540686228203,0.3064233596130495,-2.26541519165039,0.5336231589317322,4.508028030395508,0.4625388383865356,-0.2287431359291076,0.1875233352184295,0.079092152416706,-0.1254013031721115,-0.5146580798655748,0.9913058876991272,-0.9561579845398664,0.6521928656384348,228
1734065212153019600,-1.6479764658629894,-0.0780742965444922,-1.0722902090609072,7.203871055859327,3.510461651585996,5.652547038021684,1.5287842750549316,-1.746599555015564,0.0729582011699676,0.831359748363839,0.3339475066129153,-0.3166691571152718,0.3115137071677706,-2.2883496284484863,0.3077819943428039,4.525710105895996,0.4643467664718628,-0.093410313129425,0.0561289191246032,0.1568624675273895,-0.1101518869400024,-0.1379950967609882,0.8445395827293396,-0.7549586819775402,0.3306076266333461,229
1734065212193020000,-1.027683590093255,-1.022314172014594,0.7501917598366737,7.535123117876052,3.8624355991140007,4.947109781190752,1.5546941757202148,-1.2182579040527344,-0.2958962917327881,0.8110145024226221,0.3693095316623778,-0.3337335187306576,0.3073888690689083,-1.6907379627227783,0.0413976572453975,4.267170429229736,0.5023415088653564,0.0270680785179138,-0.046640932559967,0.2264018207788467,-0.1472458839416504,-0.2633335410445928,0.7408211827278137,-0.7106088142499327,0.4639728716365993,230
1734065212233020000,-1.1506330934137106,0.1962178608879446,-1.00571345808655,7.604651996654272,4.190857113879919,4.558109586821496,1.1806222200393677,0.2199015021324157,0.1116938665509224,0.7971268284769669,0.3974274701468457,-0.3311381713947036,0.3114284722293409,-1.86871600151062,-0.1944988667964935,3.4276931285858154,0.4941404461860657,0.101686954498291,0.0488234758377075,0.2668933570384979,-0.222213476896286,-0.5112123233258724,0.7388787269592285,-0.5846754728130996,0.6156328480694443,231
1734065212273020000,-0.6009054537326097,0.9363228187352418,-2.212250225029885,7.531819400155544,4.144920999874175,4.718230882933735,-0.4028152525424957,1.1969058513641355,0.4801722764968872,0.7969031066661771,0.3958441078722661,-0.320538005666835,0.3248202564409488,-2.152597665786743,-0.3657329082489013,2.739366292953491,0.3509358167648315,0.1180542409420013,-0.0162375569343566,0.3196935653686523,-0.3060418963432312,-0.7041805347681045,0.745431125164032,-0.5621867602923885,0.5897105443708598,232
1734065212313019600,-0.5543529613941908,-0.3192763775408268,-1.683320750966668,7.272482819792628,3.9078853909075257,5.292430116048455,-0.6755098104476929,1.7524021863937378,0.3068426251411438,0.808662306831703,0.3732713804701073,-0.3013795431001763,0.3404470919618926,-2.2072176933288574,-0.5772681832313538,2.5757269859313965,0.2496366500854492,0.1072451770305633,-0.0218465924263,0.3509182035923004,-0.3205062747001648,-0.6819868231385946,0.7852320075035095,-0.6179745158247649,0.514963492552936,233
1734065212353019600,-1.639250723093748,-0.2948211507201194,-2.8189702102601526,7.0552341535747045,3.6624157155945896,5.742888403204083,-0.8352365493774414,0.4044709801673889,0.2656530737876892,0.8194587770610992,0.3510288652444633,-0.2897807866692517,0.3482717180098363,-2.309065341949463,-0.7741037011146545,2.477226495742798,0.160601258277893,0.1427913606166839,0.0542311072349548,0.3125818371772766,-0.2173863351345062,0.0871826088905334,0.828381359577179,-0.654530514805764,0.1722036558330059,234
1734065212393019600,-2.7883734119445083,-1.2254492649450897,-3.010351444771885,7.192058452990651,3.371850761014223,5.751113795235753,-0.524900496006012,-0.8856489062309265,0.7174977660179138,0.8190482980188311,0.3392356583474341,-0.3028101324266657,0.3498358507746418,-2.0864458084106445,-0.7553654313087463,2.395673990249634,0.0682919025421142,0.2608259320259094,0.0201218277215957,0.21259805560112,-0.1358470022678375,0.942255131393671,0.734981119632721,-0.548086009953916,-0.2733419805681333,235
1734065212433020000,-2.550035780468583,-3.093823800967633,-4.97186252965331,7.632925904980301,2.92652925222516,5.417034400838613,-1.056861400604248,-1.97543466091156,1.2333723306655884,0.8078618044312486,0.3315356179736232,-0.3374792361630972,0.3514986396866835,-1.757696270942688,-0.7462663054466248,2.185368061065674,0.0195822715759277,0.3428676128387451,0.0280337482690811,0.1078052073717117,-0.0327381864190101,0.7946978410393,0.5546875,-0.5460972107568756,-0.5217704326214269,236
