time_imu,phone_acc_x,phone_acc_y,phone_acc_z,phone_gravity_x,phone_gravity_y,phone_gravity_z,phone_gyro_x,phone_gyro_y,phone_gyro_z,phone_ori_w,phone_ori_x,phone_ori_y,phone_ori_z,watch_gyro_x,watch_gyro_y,watch_gyro_z,watch_acc_x,watch_acc_y,watch_acc_z,headphone_gyro_x,headphone_gyro_y,headphone_gyro_z,headphone_acc_x,headphone_acc_y,headphone_acc_z,frame_imu
1733383246570618600,3.6208535788893697,16.948869194066525,-1.226733751797676,-0.1025744493523146,9.784486683508751,-0.6509186809841543,0.350959450006485,0.6653619408607483,-0.9987220764160156,0.5316574837076059,0.5729758234188407,-0.4526437035758834,-0.4291302421802376,-0.2241311520338058,-0.0319076664745807,-0.0478313043713569,-0.0185837149620056,0.0447958260774612,-0.0330501794815063,0.1460906267166137,0.0194256510585546,-0.063438160687685,0.005072480533272,0.1686940402768552,-0.0143190327316522,0
1733383246610618600,5.532833447882533,11.89521334734559,-4.9672167496740816,-0.8876330951724201,9.74717314415872,-0.6124702193200587,-0.5461730360984802,-0.770613968372345,-2.693769216537476,0.5132666115583083,0.5878843518423544,-0.4308355600460776,-0.4531336851297783,-0.144658163189888,-0.0083557879552245,-0.0464336760342121,-0.0212246179580688,0.0255545526742935,-0.0307071171700954,0.0950960218906402,0.0466105118393898,-0.0723953741252422,0.0025045443326234,0.1928682581990957,-0.1218921032220125,1
1733383246650618600,3.469838257035613,-1.3750970978379249,-2.5739643530666827,-1.9697209870830177,9.604117841398716,-0.2269528986304998,-1.0345640182495115,-0.9797221422195436,-2.5665643215179443,0.489484945575523,0.5932995752575388,-0.399458373249659,-0.4988317784007637,-0.0582130141556263,-0.0066492878831923,-0.0009494801051914,0.000405728816986,0.0221650898456573,-0.0363439321517944,0.0271053910255432,0.0227689556777477,-0.0018061726391315,-0.0392193123698234,0.2480897946834564,-0.1891242493651807,2
1733383246690618600,2.311669799681008,-11.547839002567528,-0.3827653916329145,-2.792754988029599,9.397546052017807,0.2388138889518566,-0.9672915935516356,-0.6396443843841553,-1.7773514986038208,0.4725260590230212,0.5914771633953025,-0.3714547685581662,-0.5374897777763945,-0.0575549453496933,-0.0256323534995317,-0.0024690798018127,0.0109474062919616,-0.001822106540203,-0.0192659571766853,0.0154918478801846,0.0013532992452383,0.0113701197981834,-0.0395567640662193,0.1995997584111988,-0.0445947823993861,3
1733383246730618400,1.5371701125398278,-16.61214951429367,0.8342389933109283,-3.301546806210279,9.214366244140267,0.6046763505734503,-0.6683056354522705,-0.175588309764862,-1.033156394958496,0.4641711174978206,0.5888907688660712,-0.349825309983123,-0.5615826721605717,-0.0297787059098482,-0.0279017388820648,-0.0112308133393526,0.0067424774169921,-0.0014336928725242,-0.0081004425883293,-0.004545540548861,-0.0223358292132616,0.0349596697002649,-0.0194349363446235,0.2522354431208223,-0.014821137034893,4
1733383246770618400,0.1453676713556051,-16.439797389900683,1.1782763026207683,-3.504881805627048,9.124763130104542,0.7905054308507591,-0.3057398796081543,0.0975536406040191,-0.029463592916727,0.4630627775981441,0.5875277462754539,-0.3383882172585933,-0.5708568254000368,-0.0452356971800327,-0.0038803457282483,-0.0061351875774562,-0.0048198699951171,-0.0027456805109977,-0.0046235918998718,-0.0170754510909318,-0.0502841919660568,-0.0316910232931375,-0.0049146004021167,0.2840269311137497,0.0401198289424181,5
1733383246810618600,-0.971955273130536,-11.832104857003689,1.177609363144636,-3.331322935792804,9.190702459958196,0.7769568710349499,0.210681214928627,0.268154114484787,0.8675526976585388,0.4704770346851066,0.5861309925500402,-0.3418138140601103,-0.5641499163605442,-0.055591132491827,-6.36102631688118e-05,-0.0076213642023503,-0.0060480833053588,0.0027926266193389,-0.0073891878128051,-0.0275350697338581,-0.052566934376955,-0.0276484699040651,-0.0372984893620014,0.2427828473817557,0.0902073635391891,6
1733383246850618600,-1.2176526197195052,-7.36104840747416,0.9687222825586796,-2.9038156083747744,9.350330127334594,0.5563843576239421,0.6024802327156067,0.7557166218757629,1.5949000120162964,0.4822326792668847,0.5875112442019942,-0.3556161279643443,-0.5438927626060857,-0.0215822961181402,0.0068871872499585,-0.0094961635768413,-0.0069062113761901,0.0073917433619499,-0.0068081691861152,-0.0172197110950946,-0.0153955928981304,-0.0669067135810852,-0.0219899732619524,0.1953863054346293,0.2247951360747218,7
1733383246890618600,-0.0443907842598855,0.0355500368088483,0.3645802945902571,-2.171292776219546,9.56025941044986,0.2393572933798655,0.6856491565704346,0.5285905003547668,2.2209572792053223,0.4999008001893021,0.5864241501283775,-0.3793453447741211,-0.5121551807463349,0.016100101172924,0.0164232738316059,-0.0071985209360718,-0.0035591721534729,0.0028282925486564,-0.0086287260055542,-0.0091447196900844,0.0153614431619644,-0.0308919818699359,-0.0391741469502449,0.229002232375741,0.146269442500919,8
1733383246930618600,1.1023286428414285,5.44391480897963,0.7754068651139736,-1.3022441892035306,9.71961118349433,-0.0607375188602833,0.8815983533859253,0.0597030445933342,2.1516261100769043,0.5159038677686786,0.5786972611223172,-0.4101295302507236,-0.4803606442569381,0.0225566700100898,0.0091914609074592,-0.0020461031235754,-0.0039075016975402,0.0048554316163063,-0.0066006183624267,0.0035528233274817,0.0598626919090747,-0.0582481908291578,-0.0655681192874908,0.2062949452009052,0.1338974521838128,9
1733383246970618400,1.892716365596652,7.318300568115711,-2.067277398210764,-0.5926646084034816,9.77869290253818,-0.4430430424630641,0.7228487730026245,0.2134732007980346,1.4401837587356567,0.5225794812330359,0.574355680413541,-0.4389811635128339,-0.4520196170538201,0.0219033956527709,-0.0037646051496267,-0.009650426916778,-0.00070321559906,0.0065371692180633,0.0036178231239318,-0.000679132528603,0.0857125520706176,-0.0066968672901391,-0.1196813061833381,0.2184464246351271,0.1321525082126259,10
1733383247010618400,2.1060073802299795,6.947243734455109,0.2860790413379669,-0.2072557165244594,9.783736157402396,-0.6371295173455029,0.5840144157409668,0.0330285727977752,0.6284908056259155,0.5271744080023513,0.572328894413563,-0.4526855429818468,-0.435433779339807,0.0170250162482261,0.0002056355006061,-0.0032318755984306,-0.0075067281723022,0.0030069947242736,0.0108761265873909,0.0207969509065151,0.0641404390335083,0.1387614049583673,-0.166434109210968,0.2297096499927342,0.2281198965832591,11
1733383247050618400,0.9903362215388566,3.944137438505888,-2.016620393162966,-0.0057207197301177,9.768204826271534,-0.8674946355722845,0.3255813717842102,0.181535318493843,0.4093315899372101,0.5249715830607417,0.5739308712291065,-0.4635011046584635,-0.42447025662397,0.0259218402206897,0.0126023311167955,0.0031225597485899,-0.0004530549049377,0.0018425583839416,0.0004824995994567,0.0380810871720314,0.0273367948830127,0.1397702897399663,-0.1543909907341003,0.1912438718676567,0.2016431008070707,12
1733383247090618600,1.259406041213125,2.313489124062657,-1.0134439792733638,0.0880805075783282,9.765705995193125,-0.8908439469777047,-0.0609248951077461,0.1864365041255951,0.0445964969694614,0.5282717530100486,0.574490625425431,-0.4640915029327979,-0.4189373421161055,0.0110949566587805,0.0091693568974733,0.0070346100255846,-0.0028524994850158,0.0057070106267929,0.0007570385932922,0.062279850244522,0.0318623110651969,0.1643488506793975,-0.1422078609466552,0.1294521632127463,0.147829677554965,13
1733383247130618600,0.7587247565127909,0.5815694696217775,-0.4077157084941863,0.0773005356930196,9.76886358244121,-0.8565725518025458,-0.0874482095241546,-0.0138602405786514,-0.0849508643150329,0.5297926814127162,0.5746403300309811,-0.4620189806369194,-0.419102230501116,0.0127426544204354,0.0093557238578796,0.0070165675133466,-0.0052601099014282,0.005487136542797,0.0045889094471931,0.0809447392821312,0.0522086173295974,-0.0330535438179969,-0.0703242793679237,0.1325070207387209,0.0658344081744551,14
1733383247170618600,0.4703395205916836,-0.3494990818470716,0.1749167872492223,0.0459100890819216,9.771582193750142,-0.8273375433593988,-0.0679563879966735,0.0175389554351568,-0.0622142329812049,0.5297766850979528,0.5743681709552021,-0.4607425300389946,-0.4208970819791126,-0.0052177039906382,0.0022982410155236,-0.0020362494979053,-0.0085896849632263,-0.0044139400124549,0.0019110962748527,0.0462135523557662,0.0430375784635543,-0.1100987895756959,-0.0545966625213623,0.1680548655904829,-0.1334986621245741,15
1733383247210618400,-0.0860188075418584,0.570503301206231,0.276940699179843,0.0317004920910927,9.773943077662588,-0.7996243376560509,-0.0792159885168075,0.3079372346401214,-0.0180255305022001,0.5316307735545611,0.5754183889004629,-0.4578899138126183,-0.420236993529212,-0.0434859991073608,0.0099191963672637,0.0033497274853289,-0.0074201226234436,-0.0046863108873367,0.0035057067871093,0.0289694350212812,0.0190058853477239,-0.0715635994762182,-0.0527511164546012,0.1961721220500767,-0.0634191637262702,16
1733383247250618400,-2.4239494404271245,7.799533932763338,0.1550550256986171,0.0818216663792729,9.772857620513438,-0.8092704101406037,0.3019810318946838,1.1584755182266235,0.2570834159851074,0.5371363351293447,0.5796798956512472,-0.4530259672467291,-0.4125810906672115,-0.0276361927390098,0.0044326046481728,0.0041551338508725,0.0020347833633422,0.0053992494940757,0.0038419365882873,0.0121216159313917,-0.0082048494368791,0.0044622401058673,-0.0552069507539272,0.2592440067086368,-0.0321767609834671,17
1733383247290618400,5.71327827783823,18.950756128478048,-2.750160293406248,0.1730162691238336,9.760959092926978,-0.9295775822587312,0.0814234688878059,0.6439110040664673,-0.9978172183036804,0.5476030984181655,0.5945107437725068,-0.4404000950301365,-0.3908139334983002,-0.0293257031589746,0.0110382568091154,0.0067233527079224,-0.0024610757827758,0.0019340440630912,0.0042803883552551,0.0058681149967014,-0.0225188788026571,0.0161333886772394,-0.0380692407488822,0.1919280547395348,0.0668450465217232,18
1733383247330618600,5.306199113681912,10.719974804985522,-3.845665373837948,-0.7506321240153163,9.748204240772129,-0.761227752309665,-0.8595647215843201,-1.1167466640472412,-2.912552833557129,0.5278203378052654,0.6042893368275214,-0.4167087840758882,-0.4273101344800107,-0.0413365624845027,0.0060534579679369,0.0025393939577043,-0.0077394843101501,-0.0012882500886917,-0.00549728423357,-0.0122144017368555,-0.0199992451816797,-0.0093061730057001,-0.0072444602847099,0.2344695578709244,-0.0316398776277899,19
1733383247370618600,2.9879116494268176,-3.5959079382032155,-1.5603145490229129,-1.8178952256292105,9.63169032345712,-0.3101556441046297,-1.1178869009017944,-0.8154578804969788,-2.3700430393218994,0.508731690060407,0.6068527590991455,-0.3841136107870196,-0.4747405702583379,-0.058780800551176,0.007581845857203,0.0007937585469335,-0.0082091689109802,-0.0015834718942642,-0.0011528804898262,-0.0400151722133159,-0.0314955078065395,-0.0074853873193264,-0.0220992192625999,0.2110801336508244,-0.0904673296496272,20
1733383247410618600,3.426596788941324,-13.767336422246691,-0.904820596012473,-2.6037396058663727,9.45298503064513,0.1789288907011039,-1.2340396642684937,-0.4781805276870727,-1.785069227218628,0.4975264292318392,0.6043530463895184,-0.3544496593462955,-0.5114590634356518,-0.0712419897317886,0.0152733214199543,0.0051560159772634,-0.0032110214233398,0.0001489296555519,-0.0015292093157768,-0.0522086657583713,-0.0283283498138189,-0.0360620779842138,-0.0041657611727714,0.176920528287068,0.0120846978083252,21
1733383247450618600,1.917668143762648,-19.01943394338489,1.120498505782336,-3.10384484424442,9.279520561096072,0.6534554329201578,-0.9368032813072203,-0.1318673342466354,-0.829371452331543,0.4958403433982922,0.5989705897630659,-0.3285076543108008,-0.5361521853209902,-0.0378006808459758,0.0244383234530687,0.018629215657711,-0.0009530186653137,-0.0011453181505203,-0.014375977218151,-0.0640325620770454,-0.0217328052967786,-0.0205991359144449,-0.0125124603509902,0.188381322043389,0.0116965752735733,22
1733383247490618400,1.0009399600744249,-16.248357118678094,1.2273036606401204,-3.2226094630956648,9.224366829150917,0.8344033900924026,-0.0899128913879394,-0.1796534657478332,0.0693848580121994,0.4970901431737177,0.5955222273554632,-0.3206408298223737,-0.5435477340518636,-0.0268385764211416,0.0042707379907369,0.0101354615762829,-0.0055696368217468,0.0029929429292678,-0.0083833932876586,-0.0589242279529571,-0.0096612414345145,-0.0215443078100681,-0.0078437253832817,0.1828345015712082,0.1282975863501429,23
1733383247530618400,-1.5964590445935725,-9.327803238227965,0.4098813620954751,-3.1051541732773185,9.26061653866172,0.8771520331684499,0.0508126318454742,-0.2215429991483688,0.653195858001709,0.4986937794802352,0.5903960408131911,-0.3266652838148599,-0.5440835165709625,-0.0169454663991928,0.0046776151284575,0.0088552804663777,-0.0046736001968383,0.0052763000130653,-0.0079779550433158,-0.0539288595318794,0.0047053070738911,-0.0207084415078163,0.0167857613414526,0.1884850746788084,0.0525327357918024,24
1733383247570618600,-1.0788356851816177,-2.7211720993310213,1.4545581725656986,-2.687542509190738,9.398001979091765,0.7906046534415334,0.465584397315979,-0.0073372344486415,1.4090040922164917,0.5073154931944189,0.5848037458468416,-0.3430669920659944,-0.5319215783278577,-0.0114673441275954,-0.0103483656421303,0.0070416675880551,-0.0056810975074768,0.0040094032883644,-0.0043333694338798,-0.0558556504547596,0.019300764426589,-0.0385398662745952,-0.0106722488999366,0.194147557419911,0.0189949155882,25
1733383247610618600,-0.317474296554923,2.7657395553320643,0.8025930512685329,-2.1313452351041136,9.555570960372686,0.5646455516213551,0.7376032471656799,-0.0945055782794952,1.5105990171432495,0.5152869656809683,0.5802020472984037,-0.3668469354306893,-0.5130967949231734,-0.0106726568192243,0.0060653355903923,0.007723503280431,-0.0059311389923095,0.0010715425014495,-0.0026655197143554,-0.0585433281958103,0.0244785249233245,0.0127823246836662,-0.0505345575511455,0.2071430864628404,0.0828206142887473,26
1733383247650618600,0.1518036957524716,3.3462504558116195,-1.386223472008109,-1.5802445535041392,9.675663905218244,0.2340142335851676,0.8971673250198364,-0.2166093587875366,1.399725317955017,0.5184373732089521,0.5771982283898361,-0.3935870932805769,-0.4931066880599354,0.0230882372707128,-0.0019951474387198,0.0156465396285057,0.0037946105003356,0.0004409253597259,-0.0088821649551391,-0.0450507029891014,0.011435680091381,0.0475000023216009,-0.0178161151707172,0.155141315742582,0.0992994554027914,27
1733383247690618600,0.9935852864626794,5.077698401087522,-0.368733943670988,-1.0576301078066228,9.749442258134485,0.0131947996333183,0.3570246696472168,0.1218882724642753,1.1850833892822266,0.5245561541301903,0.571941872951078,-0.4149816217925293,-0.4748826846124085,0.0195584818720817,-0.0039572045207023,0.003133145859465,-0.0126689076423645,0.0041429176926612,0.0024553537368774,-0.0407380908727645,0.0262262187898159,-0.0307516966164112,0.0180731900036335,0.13135470889844,0.0035986090138554,28
1733383247730618400,0.2141058381475508,4.870498250675201,-0.0398702198292128,-0.6939934142094105,9.78066858652532,-0.1651330963922664,0.5144339799880981,0.1614098399877548,0.7509282827377319,0.5294241411875706,0.5701515744311126,-0.4281899420856938,-0.4596635688243957,0.0134081784635782,-0.0045220078900456,-0.005616070702672,-0.0034586191177368,0.0004566311836242,0.012448601424694,-0.0600946433842182,0.0171754285693168,-0.0162964702844619,-0.0084063708782196,0.1658525332406163,-0.0361763520136475,29
1733383247770618400,0.6652892247073352,3.883087634259462,0.1527787878623232,-0.4335007226139307,9.79109704155922,-0.341920719014667,0.40833181142807,-0.0227661319077014,0.5397137999534607,0.531032952496412,0.5698564904180626,-0.4389723055809895,-0.4478516071044701,-0.0124188913032412,0.0203211307525634,0.0090401694178581,-0.0067703127861022,-0.0114115476608276,0.0045978426933288,-0.0614991225302219,0.0032900758087635,-0.0071866966336965,-0.0039627845399081,0.1783549450043589,0.0463096234932541,30
1733383247810618600,0.2542722461780533,2.3627543824911115,-1.033871923339367,-0.2849479001498781,9.789913969254494,-0.496770906323567,0.2943010032176971,-0.0407770983874797,0.2522688806056976,0.5293211024588841,0.5701118978762653,-0.447549652175388,-0.4410112750695658,-0.0052145076915621,0.0167064759880304,0.0173523630946874,-0.0038857460021972,-0.0073784068226814,-0.0028244853019714,-0.0823847278952598,-0.019845250993967,0.0076344404011964,-0.0140775553882122,0.1261016106758266,0.0155842303618788,31
1733383247850618600,0.1076591778712347,1.1735369991391895,-0.5572293570807203,-0.2098616247065365,9.790259421691298,-0.5264462789453566,-0.0644976869225502,-0.0432811267673969,0.1734162718057632,0.5299182518816355,0.5689613667864559,-0.4506930819237752,-0.4385718784633233,0.0379409492015838,-0.0070114783011376,0.019659724086523,0.0055686831474304,0.0062488764524459,-0.0027005597949028,-0.1131417453289032,-0.0255929604172706,0.0437684145778417,-0.0331341326236724,0.160033837024495,0.0458729856416583,32
1733383247890618600,0.2172745678441598,0.2519850485563278,0.2477893504321575,-0.1388644360745791,9.792738379025458,-0.503370341121219,-0.0685202181339263,0.1309303790330886,0.1795027256011963,0.5322065937367554,0.5667316142548608,-0.4521946723658804,-0.4371400778023566,0.0174623075872659,-0.0136886080726981,0.0089228581637144,-0.0032840371131896,0.0002606362104415,0.008731372654438,-0.1133625879883766,-0.008688386529684,-0.0193377376765012,-0.0317557491362094,0.1466713743653148,0.087821199055016,33
1733383247930618600,-0.3421034186378121,2.605465991267562,1.2436638438105585,-0.0773309216981288,9.793805131474135,-0.4957749906213954,0.2094483375549316,0.6489455103874207,0.1078970357775688,0.5366722178649829,0.5680966388246222,-0.4500485518275953,-0.4320943259045426,-0.0108987586572766,-0.0057780081406235,-0.0038968005683273,-0.0144696235656738,-0.002173401415348,0.010650634765625,-0.073362335562706,0.0207836795598268,-0.0416805023878812,-0.0293852183967828,0.1938067080929875,0.0857160434693098,34
1733383247970618400,-0.8401348464164883,14.088562764811517,-2.402420037925243,-0.0119018954371917,9.783425191757082,-0.6744277129959315,0.2536917328834533,1.1282967329025269,-0.2543160915374756,0.543254896164597,0.5825314746599046,-0.441637096024882,-0.4129018825680666,-0.0547604896128177,0.0149547541514039,0.0019910491537302,-0.0060884356498718,-0.0103866904973983,0.0092825889587402,-0.0255660414695739,0.037648718804121,-0.0111503395676612,-0.0119070876389741,0.2079865515496581,0.1190741231918334,35
1733383248010618400,3.6563425331607458,14.350823708188534,-2.82658419239521,-0.582037854318507,9.77973685863316,-0.4340187551386654,-1.1681455373764038,-0.8926044702529907,-2.175312757492065,0.5366488202739425,0.5870184552043318,-0.4213527398461866,-0.4357514142028547,-0.01847012527287,0.0089117754250764,0.0179718807339668,0.0019401907920837,-0.0020580440759658,-0.0030647590756416,-0.0011342763900756,0.0483027100563049,-0.0059533554464578,0.0121814347803592,0.2156802478574216,0.1034703113466501,36
1733383248050618400,3.684593352872133,4.973394561526179,0.6962760452538729,-1.4980889789953826,9.69153951974213,0.0136050483765546,-0.8550202250480652,-0.4915128648281097,-2.4058985710144043,0.5221864064123581,0.5881864395044698,-0.3915904083931332,-0.477509261046698,-0.0041274055838584,-0.0018254509195685,0.014531341381371,-0.002786099910736,0.001685008406639,-0.0009324550628662,-0.0101321246474981,0.0511968284845352,-0.021052140378952,0.0157225802540779,0.206293849222362,0.0395554730579257,37
1733383248090618600,3.743706636098027,-5.165960621908307,-0.1791121200472116,-2.3805080658465623,9.509041848909854,0.2858039324573241,-0.3674543797969818,-0.6052802205085754,-2.109484910964966,0.5011963560045407,0.5932723426100004,-0.3653162771447682,-0.5131999214848346,-0.0215798988938331,-0.0015351132024079,0.0036421425174921,-0.0079500079154968,-9.941309690475464e-05,0.0036652162671089,-0.029653487727046,0.0500670410692691,-0.0079763857066631,-0.0028166826814413,0.1773210719119757,0.0644289252907037,38
1733383248130618600,4.205136983644962,-12.460751135098931,-1.460493407833576,-3.0605583679646253,9.30384543953538,0.4917398898864165,-0.5117745995521545,-0.4600879251956939,-1.639003038406372,0.4833917594940906,0.5971369997932297,-0.3440285554631464,-0.5398185228301212,-0.0381628721952438,0.006477752700448,0.0092897750437259,-0.0038683414459228,-0.0055611878633499,0.0026675388216972,-0.0147900581359863,0.0453780777752399,0.0206423905342817,-0.0103219598531723,0.1458300281703472,0.1592334073618054,39
1733383248170618600,3.120385936939716,-17.238111667871475,0.6309505364496261,-3.521116024330258,9.124762545582652,0.7147406533576548,-0.2851416766643524,-0.2210519015789032,-0.846673309803009,0.4721528238306356,0.5968634834627495,-0.3275856361959519,-0.5599227321414797,-0.0436383299529552,-0.0025649040471762,0.0144487172365188,-0.0016664266586303,-0.0079056397080421,-0.0046401023864746,0.0045392476022243,0.0193046499043703,0.0488496633648872,-0.0400629565119743,0.1642477283924818,0.1768070579752325,40
1733383248210618400,1.7197604300916194,-15.422793599253891,0.2479922525931149,-3.681509999904036,9.05915639320612,0.7406631762519479,0.0920909494161605,0.0042021051049232,-0.0846589207649231,0.467548196877444,0.5987722890446011,-0.3220379365528677,-0.5649443572725773,-0.032101783901453,0.0072380849160254,0.0097800632938742,-0.0061023235321044,0.0026077553629875,-0.0031940266489982,0.0236287377774715,-0.000859810039401,0.0271685774326324,-0.0467851683497428,0.1798346621681004,0.1738870788753032,41
1733383248250618400,-1.3068749177441,-10.315313807886838,-0.1125059237826615,-3.622337095445394,9.085890670874717,0.7040229330535978,0.1251662820577621,0.2307983487844467,0.5763483047485352,0.4682302567811047,0.5986920500225724,-0.3250733010921117,-0.5627216057218852,-0.0235301312059164,-0.0015374035574495,0.0056680091656744,-0.0028296113014221,0.004312552511692,0.0001505091786384,0.0348280258476734,-0.0049070403911173,0.0163514153420925,-0.0412340685725212,0.1223553368195891,0.0689145462721586,42
1733383248290618400,-2.9908050327807665,-2.6870383590608835,0.0174994163334369,-3.1836914111584425,9.256577492403984,0.5918250888394192,-0.0425165109336376,0.8451897501945496,1.845392704010009,0.4848504440774923,0.597926208678579,-0.3351261967261655,-0.5432261864625986,-0.0209386106580495,0.0121597666293382,0.0001024019438773,-0.0127378702163696,0.0024018436670303,-0.0021711587905883,0.0251091755926609,0.0226792898029088,-0.0300461786955595,-0.0416841730475425,0.104542909014225,0.0101835403621196,43
1733383248330618600,-0.8182312768399715,5.268979682356119,2.2979005097866056,-2.4318971845611927,9.489776591947674,0.4476503535954281,0.6231598258018494,0.3910123705863952,2.0251364707946777,0.5085824821288847,0.5925575176455449,-0.3550377041038741,-0.5139723900877202,-0.0199412554502487,0.0082291541621088,-0.0045777708292007,-0.0056353211402893,-0.0024439990520477,-0.0035675764083862,0.0047092642635107,0.0183640848845243,0.0109369890779256,-0.0353918075561523,0.1348188048124313,0.0406809699565172,44
1733383248370618600,0.4375986594520509,6.77036273446083,-0.0962871218442916,-1.7743115199685096,9.644434069696068,0.0843163418723735,1.0068528652191162,-0.0437285378575325,1.422926664352417,0.5157714751070376,0.5904814518565645,-0.3834484553251484,-0.4881380853632369,-0.0302290488034486,0.0083654019981622,-0.0098066879436373,-0.0122444629669189,-0.0003952234983444,-0.0034850314259529,0.0041976426728069,0.0049040094017982,0.0092021281093358,-0.0265910513699054,0.1458555279377847,0.093597152107954,45
1733383248410618600,0.9630212944380938,7.504697584474086,-1.1235165384292602,-1.2892314167648553,9.718891052526237,-0.2268136910892091,0.5315444469451904,0.0582371093332767,0.9898935556411744,0.5190764291946907,0.5895890973589355,-0.4049061330188328,-0.4679695341918775,-0.0273131523281335,0.0071527576074004,-0.0132154002785682,-0.0057925581932067,0.0055166855454444,-0.0035519674420356,0.0178304836153984,-0.0044632526114583,0.0145703771442174,-0.0214578434824943,0.1851457741882652,0.095945176538825,46
1733383248450618600,1.2175560274772346,4.887784316518903,-1.922911012852192,-1.0460711874380708,9.74407926979661,-0.3592114610334858,0.1508782655000686,-0.1217085570096969,0.3761379718780517,0.5203660222493516,0.5875549571114295,-0.4160455018395387,-0.4592433908635715,-0.0106982225552201,0.0093577485531568,-0.0100216716527938,-0.002327561378479,0.0033499076962471,0.0009455755352973,0.0291540585458278,-0.018669057637453,-0.0134890116482973,-0.0195726975798606,0.1664935345578938,0.0710842915266752,47
1733383248490618400,1.393084297688305,2.6497879480749367,-1.1865198148310183,-0.9524019930072128,9.754272747030852,-0.3427763859959319,-0.1844891011714935,-0.0341147817671299,0.0902736485004425,0.5226548946505934,0.5847386001305341,-0.418995825044299,-0.4575535228184809,0.0049473154358565,0.0126628372818231,-0.0076196994632482,-0.0085929632186889,-0.0001576542854309,-0.0037446022033691,0.0308144986629486,0.0014926400035619,-0.034952070915699,-0.0119206868112087,0.1615432917393744,0.0471773462384939,48
1733383248530618400,1.1420664867289363,0.6209855342090129,-0.9147919549286364,-0.972975921415165,9.754885325971244,-0.2567214111621491,-0.2739436328411102,-0.0940702781081199,-0.1645219773054123,0.524192609578572,0.5823678711324969,-0.4170573243377715,-0.4605788672202573,0.0015067778294906,0.0054810377769172,-0.0119841545820236,-0.0030614137649536,0.0010962411761283,-0.0004606246948242,0.0168627724051475,0.0005888973246328,0.0010357727885246,-0.0060591301880776,0.1775720509983599,0.0398997564509511,49
1733383248570618600,0.2668355578161775,-0.6257441269129514,0.2707248386059888,-1.034625737381354,9.75109236342907,-0.1269230191944632,-0.3006687760353088,-0.0302602685987949,-0.1078665554523468,0.5258424002797742,0.5795123999182855,-0.4130818941310554,-0.465852337853314,-0.0126276835799217,0.0055699343793094,-0.0093260537832975,-0.0041216015815734,-0.0001595467329025,0.0032746717333793,0.0111215859651565,0.0053093507885932,-0.001253214931488,-0.0036188142839819,0.1906441524088382,0.0529468695506453,50
1733383248610618600,-0.1180677956935018,-0.8163163831293583,0.405884985935688,-1.0479081936068833,9.750278708958623,-0.065758128067851,-0.0731139034032821,0.0559538267552852,0.0202282778918743,0.5277109854893115,0.5784677681980153,-0.4107648630299468,-0.4670849324586418,0.0076581472530961,0.0102998679503798,-0.0068057710304856,-0.0035262107849121,0.0002452284097671,0.0013172104954719,0.0088433846831321,0.0034962082281708,-0.0077250412940979,-0.0017401530640199,0.2042209154058247,0.0659822922125458,51
1733383248650618600,-0.4690363655712455,-0.5332604890048503,0.4419850578427314,-1.0209051089342682,9.75333049774468,-0.0258435119744855,-0.1208976283669471,0.0934233367443084,0.1299296468496322,0.5301694568813541,0.5773705282458766,-0.4098303618419449,-0.466478981539038,0.0094328774139285,0.010299015790224,-0.0024414495564997,-0.0044411420822143,-0.001235507428646,0.0016807243227958,0.0093182269483804,0.0045931637287139,-0.0190723647385835,0.004613091237843,0.2000229522593319,0.0672039429619908,52
1733383248690618600,-0.4751994913108646,-0.1812508856415748,0.6313280645251274,-0.9490509290136396,9.76059961196482,-0.0187118425968103,0.0589094720780849,0.1569415628910064,0.227099984884262,0.533324526001543,0.5767534586455294,-0.4102553916599438,-0.4632610138956559,0.0071465540677309,0.0121419224888086,-0.0024876554962247,-0.004888892173767,-0.0003699734807014,0.0010057166218757,0.0081125274300575,0.0101618990302085,-0.0059942719787359,0.0103040672838687,0.2026975052308291,0.0623597178012132,53
1733383248730618400,0.0679891019903123,0.257038824814558,0.3075309946894645,-0.8552327545661479,9.768981071341036,-0.0773880495796911,0.2019980251789093,0.0523319542407989,0.2252572029829025,0.5349263263473779,0.5773835097869706,-0.4130060229738549,-0.4581574016569384,-0.0002085643354803,0.0074999807402491,-0.0060987686738371,-0.0032514333724975,-0.0023039206862449,0.0028938129544258,0.005771548487246,0.0094846468418836,-0.0027326398342847,0.0074700666591525,0.2211445776779204,0.0577066312983632,54
1733383248770618400,0.5962789629757403,0.414378088992834,0.0008113163828849,-0.7918553841549902,9.773099612575768,-0.1728944693750701,0.2589032351970672,0.0218475069850683,0.0947305336594581,0.5337744179396665,0.5788257584364256,-0.416864373761344,-0.4541693634710419,-0.0056009329855442,0.012540278956294,-0.0028814035467803,-0.0039781928062438,-0.0031520724296569,0.0039816573262214,0.0043442719615995,0.0052054245024919,0.0196580556720495,0.000325805041939,0.2214762207850813,0.0608919833362102,55
1733383248810618600,0.4885730598859488,0.2477554481625556,-0.3222516304919496,-0.7636071947921067,9.773325822547076,-0.2634305168793536,0.2011176198720932,0.3041604161262512,0.0305814798921346,0.5331353724733249,0.5819827288274253,-0.4180039736342703,-0.4498171912191891,0.0012969207018613,0.0128619894385337,0.0068680965341627,0.0015487670898437,-0.0001314505934715,-9.226053953170776e-05,0.0040269563905894,0.0042540575377643,-0.0155009359925985,-0.0012625238159671,0.2514537181586027,0.1086357312858104,56
1733383248850618600,0.2898768992509692,0.028605332237482,-0.6865455093562602,-0.7648266535844653,9.770862062782047,-0.340117870843783,0.1075835824012756,0.6317875981330872,-0.0078969374299049,0.5345650159884895,0.5876005774128784,-0.4148092885881869,-0.443733126251288,0.0100059900432825,0.0143110677599906,0.003040867159143,-0.0060216188430786,0.000577338039875,0.0032184720039367,0.0034401230514049,0.0144611708819866,-0.0147305361419916,0.0004666349850594,0.1672840273484587,0.0643745647549629,57
1733383248890618600,-0.4693875901617109,0.5742249520778656,-1.61929163864851,-0.6992821682672947,9.774412448740003,-0.3771733437795191,-0.1693753898143768,1.6486300230026243,0.2481298446655273,0.5451818434725508,0.5968963490392645,-0.4036647580973833,-0.4284230695684871,-0.0037258008960634,0.0193742699921131,0.0049839094281196,-0.0076178908348083,-0.000592716038227,0.0047221258282661,-0.003481981344521,0.0435344092547893,-0.0304804784595966,0.0056364475749433,0.1567268313683569,0.036988545179367,58
1733383248930618600,-1.047218750037998,0.0157230543106794,-0.6921569194972514,-0.4774389042681082,9.792273684123158,-0.23200493958937,-0.5787022113800049,1.7079136371612549,0.540321946144104,0.571325324349847,0.6043665707490679,-0.382844626877335,-0.4021920677358175,-0.007747440598905,0.0145953875035047,0.0071895392611622,-0.0059323906898498,-0.00313001871109,-0.0012326911091804,-0.014039603061974,0.0332703590393066,0.0079588500499725,-0.0047781630419194,0.1846119595725089,0.0585980271801352,59
1733383248970618400,-0.6347193143986165,-0.2202671372562646,-0.7844727996230125,-0.2409599610698409,9.803658416968585,0.0247629136635456,-0.8414689898490906,1.444528341293335,0.6192576289176941,0.5976470128726171,0.6052629597485587,-0.3638601274298992,-0.3795795755864412,-0.0143084041774272,0.014072555117309,0.0040367562323808,-0.0038756132125854,0.0021596774458885,-0.0009347796440124,-0.0072874757461249,0.0283086039125919,0.0038899931758642,-0.0089330058544874,0.1956231098651885,0.0884352393001318,60
1733383249010618400,-1.3106424535840748,-0.7698784570813179,-0.2422439912647008,0.0611685124223818,9.800508428505063,0.3416033966938033,-0.7835164666175842,1.4266223907470703,1.0471664667129517,0.6219713023567379,0.5984804586411142,-0.3527098154390187,-0.3613428874718347,0.0118065532296895,0.0109711978584527,0.0040401518344879,-0.0038480162620544,0.0070150047540664,-0.0016378238797187,0.0017872978933155,0.0275345481932163,-0.0022182605713605,-0.0183074958622455,0.2071048733443021,0.0924272315457463,61
1733383249050618400,0.218768678859435,-0.1219692601114511,-0.7432599878121167,0.3836722773447633,9.779878312930464,0.6141222973760218,-0.920175075531006,1.6658583879470823,1.0482975244522097,0.6451957747763842,0.5930278460606072,-0.3420620550274141,-0.3391664519474416,0.0045028338208794,0.0063545545563101,0.0026947895530611,-0.0033020377159118,0.0013567581772804,0.0055809020996093,0.0075176255777478,0.0158753655850887,-0.0127945996433496,-0.0218766164034605,0.1576041987247765,0.0576984479919075,62
1733383249090618600,0.4622951476827263,0.0608434680193662,0.3454707031138241,0.6773446233559399,9.72710300055444,1.0464585793204606,-0.9188015460968018,2.0616915225982666,0.7774763107299805,0.6757247214757611,0.5862058926563053,-0.3209487708816467,-0.3110477985693445,0.0049486472271382,0.0077660302631556,-0.0048602656461298,-0.0101307034492492,0.0002587735652923,0.0028775967657566,0.0068725072778761,0.0277063585817813,-0.0251508078694343,-0.009893300011754,0.1452996476206928,0.0371849445343017,63
1733383249130618600,-0.4684596616618335,-0.7100035418331623,0.5387549947679042,0.8706854675028473,9.670452892571689,1.3764568418838083,-0.5314472913742065,2.044039487838745,0.774300217628479,0.7001153929407754,0.5833922344660135,-0.299121607009432,-0.2828749289749195,-0.0061599304899573,0.0129424696788191,-0.0073416656814515,-0.0059588551521301,8.781254291534424e-05,0.0017423667013645,-0.0009676157496869,0.0255718249827623,-0.0251671744823455,-0.0248445533215999,0.1466102187626063,-0.0132125327944755,64
1733383249170618600,-0.8717132031153887,-1.057096731582284,0.0460350443355739,1.0599570894494652,9.609334114742278,1.645468428564817,-0.4340696334838867,2.671472549438477,0.9397703409194946,0.7238419651603448,0.5847054515593176,-0.2724408032509473,-0.2448434724580515,0.0013856039149686,0.0144550921395421,-0.0017119431868195,-0.0046420097351074,0.0012513920664787,-0.0017355047166347,-0.0053170998580753,0.0339513085782527,-0.0422644397556781,-0.0630190521478653,0.125926034913212,-0.0148147072941064,65
1733383249210618400,-0.688017627735436,-1.0401479348689318,-0.500536031010747,1.2367387207224965,9.535224337914585,1.9288266666367648,-0.4318355619907379,2.536191940307617,0.9499815702438354,0.7468827166961269,0.5856410031603423,-0.2422433132205245,-0.2012687236026754,0.0164875909686088,-0.0012388098984956,-0.0016216619405895,-0.0009593963623046,0.0042019337415695,-0.0051153898239135,0.0007844674400985,0.0320569314062595,-0.0004337152421474,-0.0842038169503212,0.1713796260990202,0.0883195039659738,66
1733383249250618400,-0.3232425046928227,-0.5104103592932224,-0.6343403980836272,1.3980894124992191,9.454849070951342,2.1958089394472537,-0.3861431181430816,1.1524386405944824,0.6550232768058777,0.7635743338708859,0.5816945137032984,-0.2228820206004993,-0.170027854732869,0.0188548751175403,-0.0098769860342144,-0.0097867138683795,-0.0037450194358825,0.0051702558994293,0.0018313527107238,0.0143697261810302,0.034349076449871,-0.0351449631392955,-0.069631427526474,0.1574208780471235,0.0582236409097909,67
1733383249290618400,-1.0267337420225142,-0.600190583461523,-0.3153029438652098,1.559742886614799,9.389453930976986,2.361297900072485,-0.2555138170719147,0.947781503200531,0.7287540435791016,0.772977271063868,0.5770742971862176,-0.2158531182248047,-0.1513233260592492,0.0167640279978513,-0.010143781080842,-0.0085473451763391,0.0050951242446899,-0.0051499754190444,0.0085094571113586,0.014853841625154,0.0277289245277643,-0.0030459435671567,-0.0657225400209426,0.1886719755530357,0.0760802001178264,68
1733383249330618600,-0.90669106605947,-0.7370072840929031,-0.3772580263882875,1.7464571522288024,9.295829306340217,2.589949273183941,-0.5173202753067017,2.152326822280884,1.0373399257659912,0.7857108638850204,0.5720940644760396,-0.2016375951723838,-0.1212813107118555,0.0212621074169874,0.0065525341778993,-0.0043700439855456,-0.002880036830902,-0.0107384324073791,0.0085188187658786,0.0056347046047449,0.0260307881981134,-0.0283387902557849,-0.0934054628014564,0.2243213810831308,-0.0879398569986224,69
1733383249370618600,-0.2107920374244451,-0.5321300236701965,-0.6205091488689184,1.8710211050085723,9.151406222358345,2.986878214725852,-0.728022038936615,2.075186491012573,0.9249287843704224,0.8033790660027486,0.5625469813580725,-0.1767837279239592,-0.0828887485714798,0.0491960011422634,0.0557977892458438,-0.0020230668596923,-0.0188997387886047,-0.0040907710790634,-0.0011459663510322,-0.0503599196672439,0.044717863202095,-0.1038239470899105,-0.1682365387678146,0.1378971893444657,-0.2847369790792465,70
1733383249410618600,-0.5165206588670611,-0.5927145484924317,-0.2907593081086874,1.94585890384987,8.993070932880043,3.3924472665801644,-0.704075276851654,1.5627753734588623,0.8247063755989075,0.8187607130213002,0.5503406038582552,-0.1554301873950304,-0.0509665067737275,0.1495156735181808,0.056080937385559,0.0127648673951625,-0.0077785849571228,0.0129770934581756,-0.0303456149995327,-0.1441589295864105,0.0860273391008377,-0.1136713873654603,-0.2188667207956314,0.1515942907854914,-0.1426458451762795,71
1733383249450618600,-0.681623396653682,-0.8019511731684208,-0.3454053827926516,2.0760963722214103,8.825967815056442,3.73664181227833,-0.6828886866569519,1.3283021450042725,1.02539324760437,0.8306586479604252,0.5378264814167072,-0.1422215191279559,-0.0228439512115574,0.2085600942373275,0.0195530224591493,0.0087638674303889,-0.0007404088973999,0.0152075812220573,-0.0273363590240478,-0.1722356379032135,0.0773934945464134,0.0613818126797676,-0.1681518107652664,0.1139770192485302,0.1160445462375879,72
1733383249490618400,-0.112693920635432,-0.8710667949706316,-0.1883838062614202,2.216299354290217,8.594910988238453,4.169642184154689,-1.0969632863998413,1.793219804763794,1.1242060661315918,0.8441031642925927,0.5205332457501817,-0.1282675159573463,0.0090845414959241,0.2009066939353943,-0.0355569943785667,-0.0247264485806226,0.0064643025398254,0.0123057886958122,0.001351960003376,-0.1260548084974289,0.0805842652916908,0.086642510664463,-0.0724891945719719,0.1654495784629136,0.2073331291422247,73
1733383249530618400,-0.1011817620180547,-0.8351450022399425,-0.1876990388676524,2.259704050122201,8.274078613427282,4.75433884588629,-1.265709400177002,1.727412223815918,1.119120955467224,0.8604569263697741,0.495913531110906,-0.1080089978837725,0.0449186234927757,0.0130252158269286,-0.0648941099643707,-0.0693715438246727,-0.0123478174209594,-0.0129129141569137,0.0381057187914848,-0.0750213265419006,0.051130075007677,0.0591202974885702,-0.0492134317755699,0.1203556143697351,0.037928456377983,74
1733383249570618600,0.6928349648892879,-0.7920622318387031,-0.2316302427917718,2.3491478819429874,7.914812755325436,5.292224364343285,-1.4415830373764038,1.0021368265151978,0.91780686378479,0.8744315034677511,0.4695930795345866,-0.0982547563069211,0.0720967925185525,0.0172681640833616,-0.0339394435286521,-0.0433334894478321,-0.015274167060852,0.0026051402091979,0.034656710922718,-0.0668059065937995,0.0549501813948154,-0.0432739090591669,-0.0768470466136932,0.0694723993506282,-0.1138411909744143,75
1733383249610618600,0.5408673107467591,-0.090986092826724,1.044064231529832,2.304042811933905,7.385968913719058,6.025713995704055,-1.4900766611099243,1.6567305326461792,0.7475760579109192,0.8927697245684616,0.4311756862731259,-0.08283482479662,0.1009358125468832,0.0327368676662445,0.0219438485801219,-0.0025543009396642,-0.0111567378044128,-0.0058205723762512,0.0202449634671211,-0.0868400707840919,0.051569614559412,0.0519751019090414,-0.0813087597489357,0.1638951155625283,0.0048275662869215,76
1733383249650618600,0.4022274863414466,0.0995563527733087,0.5213789125531911,2.0955232494860887,6.988477662119269,6.552888442793488,-1.2385902404785156,1.2563717365264893,0.575089693069458,0.9048720574476296,0.4023935082795472,-0.0630487572845341,0.1237368177550473,-0.0421014204621315,-0.013074217364192,-0.0093711279332637,0.0117154717445373,-0.019539289176464,0.0223455429077148,-0.09823689609766,0.0089845582842826,-0.0144482120692729,-0.0725954324007034,0.2241477780818939,0.0960039209887385,77
1733383249690618600,0.518731028392911,0.1147042375445365,0.9516425529420376,1.982012605640292,6.622279958927631,6.956106255346536,-1.1280118227005005,0.9059599041938782,0.4700866937637329,0.9139505360602748,0.3775150887220694,-0.0531002785563339,0.1391295251972624,-0.0906377956271171,-0.0323253013193607,-0.0299742072820663,-0.0061759352684021,-0.0107119902968406,0.0201267600059509,-0.0964803919196128,0.0123949022963643,-0.017874094864726,-0.0364202372729778,0.2299096295442432,0.1140583408564329,78
1733383249730618400,0.5383066664785147,0.0340612595558166,1.126825516846776,1.7854155361764132,6.306084011745453,7.294928460356592,-0.8996771574020386,1.2201356887817385,0.3975967466831207,0.9209076834026624,0.3557068380056124,-0.0391765077352182,0.1544893378475973,-0.15647754073143,-0.0037133656442165,-0.0386234894394874,-0.019747257232666,-0.0133300647139549,0.0085728205740451,-0.0814214944839477,0.0549177601933479,-0.1119224978715181,-0.0221037156879901,0.1422269621770829,0.085033029641211,79
1733383249770618400,0.2202712289094924,0.2593786659389734,0.7517880891174078,1.54500343651399,6.039167351517081,7.570456297063827,-0.7370016574859619,0.9623129963874816,0.3614403009414673,0.9260572102942436,0.3368225121695447,-0.0237641202094002,0.1685348005335397,-0.1779825538396835,0.0106037352234125,-0.0058265933766961,-0.0159742832183837,-0.0033018216490745,-0.0255337953567504,-0.0645271986722946,0.0749232620000839,-0.06501403170228,-0.0340242534875869,0.1970972740709781,0.1008411318868398,80
1733383249810618600,-0.021799013223499,0.2943868509560823,0.8243535591125488,1.3329236973665657,5.809630866134167,7.787290537261962,-0.6275608539581299,1.1990439891815186,0.4460665881633758,0.9294145466675708,0.3207089797381521,-0.0102191502431248,0.1822910164189021,-0.0466474369168281,-0.0270490478724241,0.0128401685506105,0.0102384090423583,0.0231211185455322,-0.0498689413070678,-0.0034326054155826,0.0200742483139038,0.1403711782425642,-0.0391294695436954,0.2221336617805063,0.2983545855432749,81
1733383249850618600,0.4443698340874165,0.4212140724927187,0.453114354622364,1.0253707100410014,5.590775933763385,7.991383953830599,-0.6180528998374939,1.234588384628296,0.4111157655715942,0.9315544344992548,0.3040951768042516,0.0088837656513893,0.1991319583757493,0.0063792970031499,-0.1216838881373405,0.0080412179231643,0.0233389735221862,0.0152391195297241,-0.0240655019879341,0.0539136938750743,-0.0078081041574478,0.1067494791477918,-0.022943926975131,0.212166832908988,0.2379778582528233,82
1733383249890618600,0.5656839182257652,0.380138550260663,0.4447334797680378,0.7234441112298517,5.395124182325601,8.1571835878402,-0.3347459733486175,1.106779932975769,0.2310126274824142,0.9334571702863302,0.2888486358016692,0.0258042100989907,0.2110880998416848,-0.2117109596729278,-0.177058145403862,-0.0638547390699386,0.0027552247047424,-0.0192326381802558,0.0256002619862556,0.058334644883871,-0.0392612069845199,0.094682609257102,-0.0064855944365262,0.2097302534118294,0.1970084267437458,83
1733383249930618600,-0.5022805731231347,-0.3966828578263521,2.082089767417312,0.4304544502532109,5.624871095588803,8.021590876045822,1.0125237703323364,0.9967780709266664,0.4770019352436065,0.9261544984461596,0.2976695087093901,0.049046299545638,0.226329934032807,-0.2819086909294128,-0.1527708619832992,-0.0563129372894763,-0.0078098773956298,-0.0031698122620582,0.0331036373972892,0.059318259358406,-0.0542038977146148,0.0515068998754024,-0.0002305144444108,0.214704096301645,0.1956979286670684,84
1733383249970618400,0.5778577556222677,0.0186579387187957,-0.0805628984898328,0.2782189572210423,5.866289741945266,7.853637863394618,0.4951028227806091,0.5506629347801208,0.1050847396254539,0.9189184997820956,0.3089693821773855,0.0641391981463324,0.2366704251721808,-0.1543755084276199,-0.0391044840216636,0.0015788583550602,-0.0182253718376159,-0.0135646685957908,0.0444555282592773,0.0729205012321472,-0.0658122301101684,0.0361462491363287,0.0063505005091428,0.2467249360710382,0.2594973238825798,85
1733383250010618400,1.3539705770485102,0.6424000781595707,-1.4995172582328318,0.0068337795555329,5.878956331294774,7.849089698570967,-0.4254117310047149,1.101595759391785,-0.2942581176757812,0.9185836941283476,0.3059592063278965,0.0787194762595429,0.2374788912831277,-0.2522029876708984,0.0649127215147018,0.0134118162095546,-0.0161582231521606,-0.0400621145963668,0.0227623134851455,0.1002767458558082,-0.064120665192604,0.0006014730244874,0.0198836736381053,0.1614911231607198,0.1923275754511356,86
1733383250050618400,0.0481308841036632,0.501371312791109,-1.9358371299207209,-0.4273124989656731,5.6391573950946325,8.011722392982245,-0.7380780577659607,0.9269302487373352,0.0078303534537553,0.9217184404550314,0.2858842888896737,0.0989243350713931,0.242732853394414,-0.1881787329912185,0.0653851702809333,0.0479460880160331,-0.0091170668601989,-0.0021000355482101,-0.0277838110923767,0.1021939665079116,-0.0380406156182289,-0.0509124411135911,-0.0106111075729131,0.1277459438167512,0.0805348414391279,87
1733383250090618600,1.2475614357709883,-0.4323012836962938,-0.4914332716226577,-0.4275474037000909,5.576692463353276,8.0553142819494,-0.0853146910667419,-0.1496450304985046,-0.0748193264007568,0.9225366993274214,0.2821804599048791,0.0983232220806994,0.2441980884082942,-0.0555818080902099,0.0631020963191986,0.0508163124322891,-0.0133360028266906,0.0281390026211738,-0.0490362048149108,0.0981677174568176,-0.0575396008789539,0.0306231018006801,-0.0507936477661132,0.1606756420593708,0.0736535574927926,88
1733383250130618600,1.3953488816194235,0.4911363345026969,0.1112397763043642,-0.5657580794405191,5.572927557861805,8.049396582338213,-0.020414862781763,0.5565038919448853,-0.0950227677822113,0.922572695232358,0.2802244017661038,0.1052106263902993,0.2434435258730737,-0.0959233716130256,0.0233621411025524,0.0317163243889808,-6.35385513305664e-05,0.0266598910093307,-0.0443707108497619,0.1103333979845047,-0.0738251060247421,0.0299421337991952,-0.042588897049427,0.1698913603026419,0.091538173751533,89
1733383250170618600,1.6304752959638833,1.3864011666625735,-0.1554576882153749,-0.7093063533492386,5.568754656091332,8.040910493543743,0.0386455096304416,0.4294199645519256,-0.0802348628640174,0.9219443345781424,0.2779287722020982,0.113063079965796,0.2449307705618669,-0.0281903985887765,-0.0393631868064403,-0.0032255509868264,0.0136110782623291,0.0318159386515617,-0.0449277088046073,0.1260322034358978,-0.0578123778104782,0.0196843591570854,-0.0301888026297092,0.1739593403939157,0.1261450844913721,90
1733383250210618400,-0.0431272671300917,0.4262491440504789,0.0252197814524173,-0.8603845113061368,5.573021665886044,8.023188374370337,-0.0096467761322855,0.3583754301071167,0.1392877697944641,0.920515298757096,0.2757344755930835,0.1220726491646151,0.248435887024797,0.1272279471158981,-0.0513467714190483,-0.0048984820023179,0.0015567541122436,0.0114327743649482,-0.0133437439799308,0.1238994747400283,-0.032235063612461,-0.0553857871353626,0.0021883957087993,0.1400553172264248,0.0957087374344468,91
1733383250250618400,0.4502921368084848,0.8336807749062776,-0.7446902398109435,-0.9077342915020884,5.551206139919161,8.033088421615957,-0.1148207038640976,0.0505883730947971,-0.0724217742681503,0.9201225298850988,0.2735490674488045,0.1248894248928075,0.2508946777876987,-0.0194709412753582,-0.042594451457262,-0.0311200320720672,-0.0045595169067382,-0.0247523263096809,0.0188010931015014,0.1041792631149292,0.02047985419631,-0.0509831682622432,0.0203134249895811,0.1859879971660673,0.0601543167114257,92
1733383250290618400,-0.3700659959923476,0.18256547537148,-1.5806564953058957,-0.8940724805701523,5.553941702362895,8.03273010969758,0.1008930206298828,-0.1050035059452056,0.1191675588488578,0.920464118188231,0.2740589385500947,0.123840384547926,0.2496018571798784,0.0022543270606547,-0.0159227345138788,-0.0169607363641262,-0.018381118774414,-0.0059901475906372,0.0362311080098152,0.0705129206180572,0.0391064807772636,-0.0006949965268373,0.037602849304676,0.1853005994237959,0.0278162276864051,93
1733383250330618600,0.1529747853584587,0.7617214541107415,-1.4838748679429292,-0.8154204572029411,5.581715259951353,8.02184046689272,-0.0324005559086799,-0.1265864670276641,0.3909099102020263,0.9188944842075376,0.2760583211015492,0.1216213645614948,0.2542300818432087,-0.0257693175226449,0.0492653250694274,0.0108117721974849,-0.0133136510848999,-0.0202349349856376,0.036565363407135,0.0328103005886077,0.0432637520134449,0.0098602997571229,0.0651472210884094,0.1752946075856685,-0.0076952306777238,94
1733383250370618600,0.7092829724736511,1.0782061551064253,-1.5742892983615395,-0.7350205672550946,5.4753223391562695,8.102528453066945,-0.5398919582366943,-0.3589740097522735,-0.3612427711486816,0.921176096091624,0.271201385074342,0.1154807922215501,0.2540640622082151,-0.1360082179307937,0.0613001994788646,0.015131352469325,0.0002537369728088,-0.0310494229197502,0.0131442621350288,-0.0029853209853172,0.0246814414858818,0.0360059638828039,0.0545541271567344,0.1825830110281705,-0.0287692906275391,95
1733383250410618600,0.3373525708489119,-0.2273684936940669,-0.7435621125638484,-0.6746358758538961,5.371460982665419,8.176959716933965,0.1083532571792602,-0.4214614331722259,-0.1723451614379882,0.9252877769589632,0.2671245174925891,0.1083309152202974,0.2464783642180978,-0.0398079082369804,0.0691260620951652,0.0320829711854457,-0.0043665170669555,0.0077154636383056,-0.0190970748662948,-0.0262899510562419,0.0121385371312499,0.0296457812011241,0.0255253445357084,0.1769355066604912,0.0121530868694186,96
1733383250450618600,0.2194345954222604,-1.1744026760578157,-1.1526713212430475,-0.5263413207335397,5.54501780667305,8.07131498415768,0.8902533054351807,-0.5298834443092346,0.0820174217224121,0.9233134375616576,0.2792222522268913,0.1025299618829478,0.2429296068879907,0.0230911653488874,0.0761352330446243,0.0273898169398307,-0.011044442653656,0.0201613157987594,-0.0267631933093071,-0.0347057990729808,0.0097069600597023,-0.0160854578822851,-0.0023118145763874,0.1466940976537764,0.0117187871053814,97
1733383250490618400,-0.0174230448952876,-1.8126678463697432,-1.898114425247908,-0.2812537400733679,5.936530568385124,7.800570290073752,1.5831360816955566,-0.991564154624939,0.1234210878610611,0.9172363369185758,0.3054661025015104,0.0947210346161192,0.2374784764555781,0.1090582758188247,0.0327760428190231,0.0063808038830757,-0.0032697916030883,0.0304896757006645,-0.0296460390090942,-0.0392235144972801,0.0039166072383522,0.0079535893529653,-0.0140959024429321,0.1584375077437609,0.0091015903443098,98
1733383250530618400,-1.6527800667524335,-3.632259354522824,-1.9582593896090985,0.314870141938515,6.505300762188434,7.331596103018522,2.1694986820220947,-1.7288635969161987,1.4365382194519043,0.904145470041066,0.3475540966186817,0.0734762963092217,0.2373362027472731,0.1550942063331604,0.0308220796287059,0.0117592569440603,-0.003870666027069,0.01498644053936,-0.0114324018359184,-0.0366847105324268,-0.0050676204264163,0.0170651165693998,0.0101996194571256,0.1906463443659246,0.0840238525986671,99
1733383250570618600,1.538981692006439,-2.776936072129011,-1.6746844400465488,1.2312591202676295,7.100714632767438,6.650883537599444,2.2724051475524902,-1.4732142686843872,1.590823531150818,0.880005209952028,0.3987128342016304,0.0439021198907983,0.254345559860653,0.1466530412435531,0.0196007993072271,0.0091341799125075,0.0054238438606262,-0.0068364813923835,0.0070829316973686,-0.0126250945031642,-0.0148510783910751,-0.0028033669829368,0.0388669446110725,0.175553331587091,0.1214487433686852,100
1733383250610618600,-0.3863432501196861,-2.442005613860488,-2.576301856103539,2.072310131680965,7.467434898528456,6.009437399163842,1.2810639142990112,-2.441887378692627,0.99771386384964,0.8607689741181961,0.4399312768077929,0.0080273990462523,0.2558766671096416,0.0254390090703964,0.0099800750613212,-0.0059798583388328,-0.0020235776901245,-0.0229380205273628,0.0209668725728988,0.0214750953018665,0.0114689785987138,-0.0621855302780866,0.0359636172652244,0.1395933988030999,0.1079942185118794,101
1733383250650618600,-0.7113605094000697,-3.922915202257037,-0.740614368674159,3.077280662445724,7.600408952257037,5.379080810019373,1.385975956916809,-2.121628761291504,1.9448095560073853,0.8404379671901288,0.4734485108104124,-0.039871209012995,0.2606162269437164,0.0032245167531073,0.0035532822366803,-0.0087317023426294,-0.0085812807083129,-0.0096016228199005,0.0288208052515983,0.0299747418612241,0.0241566970944404,-0.0455430230349302,-0.0035955607891082,0.1401954563494771,-0.0021226912423968,102
1733383250690618600,0.0536287143349647,-2.8767817632377146,-1.2357798125624655,4.075171756343544,7.58572634691,4.692557804755866,1.0445746183395386,-2.3845345973968506,1.8208237886428835,0.8155454118167236,0.503207915911186,-0.0867636442940192,0.2722855389661616,-0.0632333308458328,0.034267570823431,0.0090164020657539,-0.0184898972511291,-0.0153442099690437,0.016584999859333,0.0155589841306209,0.0245205629616975,-0.034151860448718,-0.0169589817523956,0.1263318392351269,0.0238414788365364,103
1733383250730618400,-0.203082193699479,-2.7605846567869183,0.3569198794975876,5.0996729170084,7.412068985137343,3.9019156688481567,1.1424083709716797,-2.586412191390991,2.1377148628234863,0.7884215362938869,0.5297418477226421,-0.1429379060969284,0.2780894883084796,-0.0656312480568885,0.0196598675101995,0.0157570615410804,-0.0058091878890991,0.0071895122528076,-0.001779731363058,0.0189466923475265,0.0101148625835776,0.0271650703012943,-0.0005469508469104,0.1780233018971979,0.065668696218729,104
1733383250770618400,0.6865747354507445,-1.9159084406137463,0.5361810526266694,6.15485592392385,6.982337844190001,3.087892072831094,0.7328317761421204,-1.917036533355713,2.76292085647583,0.7548218228706663,0.5500739370635913,-0.1999499490755754,0.2961124318827224,0.0089106317609548,-0.0060697309672832,-0.0047918893396854,0.0029868483543395,0.0167310759425163,-0.0024036131799221,0.0314659662544727,-0.0188403502106666,0.0083709379822015,-0.0027749980799853,0.1753269024200737,0.0437538015305995,105
1733383250810618600,1.7470961807847023,-0.3981733886450528,0.9927747737973928,7.078679326570033,6.316789530155062,2.482109660711884,0.3619429469108581,-1.8144772052764893,2.6952574253082275,0.7249936736004371,0.5556756855569759,-0.2543072254584781,0.3177052266434609,0.0355963036417961,0.01360341347754,-0.0038284235633909,-0.0029508471488952,0.0029026791453361,-0.0025038719177246,0.0294668562710285,-0.0024092905223369,-0.0023866028755903,-0.0382262542843818,0.1880932258170098,0.0373643927544355,106
1733383250850618600,2.057629279899597,0.1197697042405605,1.6090711272768676,7.881898327717185,5.523063749018311,1.8819738761775195,0.5821452736854553,-1.4705069065093994,2.839572668075561,0.6920895757167604,0.5576436497116326,-0.3050894845943893,0.3420028592365204,0.0474564246833324,0.023868141695857,0.0065403277985751,-0.0045331120491027,-0.0045011192560195,-0.0031569078564643,0.0154912061989307,0.0067410934716463,0.0249520704269409,-0.0321317724883556,0.2368054534725844,0.1253252925410866,107
1733383250890618600,4.768775659778714,2.7612928050562737,2.5008511860609053,8.487170744487642,4.71864209408313,1.3684784103505312,0.1064201742410659,-1.0339664220809937,2.102591037750244,0.6614864123438677,0.5554563984590356,-0.3488484065466765,0.363605141214408,0.0077811852097511,-0.0127172470092773,0.0017514312639832,0.0121483206748962,-0.0056163370609283,-0.0038290694355964,0.0186110455542802,0.0081262737512588,0.0572492429196834,-0.0166817754507064,0.2572626236330718,0.0702916798442602,108
1733383250930618600,2.703532982265949,2.1089944332167505,2.125088366666436,8.856271183383464,4.066399544084072,1.0960106918662786,0.1375698447227478,-0.6601858735084534,1.861016035079956,0.6414255626845023,0.5479678703229701,-0.3792759167064011,0.3800713707719396,-0.1211022287607193,-0.0349001549184322,-0.0259245373308658,0.0092792510986328,-0.0132093429565429,0.0096454620361328,0.0005982611328363,0.0305880941450595,0.0514741666495799,-0.0408547595143318,0.2193403778001666,-0.0776911424458026,109
1733383250970618400,2.238219655805826,2.03574770295918,1.474738790807128,9.149650318601728,3.434404540082812,0.8118735783763229,0.4424018859863281,-0.5994076132774353,1.6086969375610352,0.6188029709811804,0.5431657778750162,-0.4044464182715998,0.3980915319863316,-0.5154545903205872,-0.328598141670227,-0.1843800842761993,0.0899816155433654,-0.1135939210653305,-0.0398375317454338,-0.042746253311634,0.0555511265993118,-0.0335410350739955,-0.0279033556580543,0.1726797489121556,-0.1029562243446707,110
1733383251010618400,0.9851058466047048,1.305507721044123,0.5816214920699596,9.34243265208304,2.9293863952219485,0.5550254538282752,0.2422323822975158,-0.5144866704940796,1.220268487930298,0.5989420079710844,0.5406081767942879,-0.4236087545267,0.4117851808944301,-0.7802654504776001,-0.5561695098876953,-0.3337042033672333,0.0228316187858581,-0.0213691964745521,0.0109251737594604,-0.0773727744817733,0.0666770711541175,-0.0828589004725217,-0.0103301927447319,0.1649091149106621,-0.1014233156889677,111
1733383251050618400,-0.0426449635058641,0.1503825769081711,0.7016378645479678,9.482085452923178,2.4729148391261697,0.3809897967951372,0.0769328251481056,-0.3161114752292633,1.3222150802612305,0.5837825745100876,0.5350734542278854,-0.4407622095315006,0.4226382917622253,-0.9306102395057678,-0.5495789051055908,-0.3523056507110595,-0.0156779289245605,-0.0005636811256408,-0.0131091922521591,-0.0837224721908569,0.0712148547172546,-0.0985609119951725,-0.0242006406188011,0.1426063168834895,-0.1313596042692661,112
1733383251090618600,0.1646843662440776,0.0688220456831157,-0.0897708352854475,9.612338557255269,1.9236032329000528,0.2703833864908665,0.4141111969947815,-0.348040759563446,1.5348498821258545,0.5667664426991824,0.5267724837941135,-0.4568643500670881,0.4388184337955207,-0.1743667870759964,-0.3497177362442016,0.0074379462748765,-0.0434719920158386,0.0487354099750518,-0.0013494342565536,-0.0766823217272758,0.0582020990550518,-0.0033294366836547,-0.0085909077897667,0.1796459346629679,-0.1038759695380926,113
1733383251130618600,0.2508732879221439,-0.2206906233653426,-0.5085457344651222,9.718431618320942,1.311847883851081,-0.0388287936180364,0.8887325525283813,-0.9780117869377136,1.6427419185638428,0.5393876469155523,0.5252022447243725,-0.475544235157699,0.4550617130091817,0.0734145268797874,-0.185462012887001,0.0410228706896305,-0.0023897290229797,0.0165706723928451,0.0333532094955444,-0.0574173033237457,0.0359458923339843,0.0086906714558601,0.0052642049267888,0.161639153329283,-0.1083627595633268,114
1733383251170618600,0.848374486169219,-0.5599192172192037,-0.0220750171532854,9.773052266302704,0.637431057575345,-0.5015066661411895,1.264221429824829,-1.1767395734786987,1.819009780883789,0.5016254540263708,0.5301176146893024,-0.4945149527757667,0.472019196932651,-0.0094768973067402,0.0272423662245273,0.0807675570249557,-0.0417268872261047,0.0007650554180145,0.0564011931419372,-0.0246571265161037,0.0447250790894031,-0.0106985041469335,0.0214205533266067,0.1697914070595055,-0.0273906957507133,115
1733383251210618400,1.9532938761562109,-0.5480969332067296,0.5021440507292747,9.756895496749877,-0.1574443685205653,-0.973951853775233,1.5759485960006714,-1.1249961853027344,1.993579626083374,0.456239548790016,0.5354861060930751,-0.5127497989310336,0.4921257290478066,0.0320897214114666,0.0720044001936912,0.0698373392224311,-0.0128930211067199,0.0163206905126571,0.0639417022466659,0.0139567404985427,0.0277687050402164,0.0113046533465385,0.0601819977164268,0.1887186642389744,0.0895379398450255,116
1733383251250618400,2.716909181189537,0.537016480537504,0.4498432239972054,9.663209497314693,-0.98637820462808,-1.3490152927286925,1.9998230934143064,-1.059545874595642,1.7888970375061035,0.4066770259453525,0.5416547272476465,-0.5247768973175191,0.5155902006000189,-0.0190056879073381,0.1108220517635345,0.0373837277293205,-0.0018163919448852,0.0005754679441452,0.0643239021301269,0.0448905639350414,0.0337920859456062,-0.0183890586495399,0.0950523614883422,0.1262447454735636,0.0963394365534186,117
1733383251290618400,3.187739809766412,1.513627908910811,-0.0098560619734227,9.519933245280384,-1.7157881654597815,-1.611616866236925,2.22424578666687,-0.7617418169975281,1.229162335395813,0.3561096860899482,0.5521158341952928,-0.5266286116630439,0.539459192045531,-0.0551490448415279,0.1238556131720542,0.0069007193669676,-0.0078245997428894,-0.0042667388916015,0.0452516227960586,0.0421379543840885,0.0421797484159469,0.0178682496458292,0.1190960332751274,0.1258620297662913,0.0844265881806611,118
1733383251330618600,1.238373336187005,1.0739156183056533,-0.8231764781571924,9.423456738343834,-2.170160995710641,-1.6307300013773145,1.615529179573059,-0.3301391303539276,0.6433919668197632,0.3199759242027298,0.5614122994594276,-0.5176488395682477,0.5607775269597669,-0.1767529845237732,0.1296680718660354,0.0095534278079867,-0.0173119306564331,-0.0262523144483566,0.0347339063882827,0.0189368706196546,0.0332782007753849,-0.0019908815562725,0.1202532798051834,0.0780059074833989,0.0360427887618541,119
1733383251370618600,0.2772702964603901,0.6233160229831933,-1.268418345838785,9.340237772387264,-2.4895959248140453,-1.652956300102174,0.8204160928726196,-0.3815580010414123,0.6585205793380737,0.2956069012297496,0.5661357830087312,-0.513583093990151,0.5730089652719853,-0.3064934015274048,0.1534373164176941,0.0248809866607189,-0.0200543403625488,-0.0337236672639846,0.0250310376286506,-0.0022860020399093,0.0263763777911663,0.0611234540045261,0.0981803834438324,0.0877405350342392,-0.0077542673885822,120
1733383251410618600,0.6176876617074012,0.7303235685452818,-0.5724117651760577,9.254353971135616,-2.745792453585565,-1.728565960098803,0.3769342005252838,-0.362684041261673,0.4945743083953857,0.2786557847578344,0.5675805372291954,-0.5157370174096217,0.5781164488672235,-0.2947137057781219,0.2416408956050872,0.1069397702813148,-0.0233461856842041,-0.0173071026802063,-0.0107495114207267,-0.0083211893215775,0.0015446171164512,0.0541477697730064,0.0962233915925026,0.0884885769225656,0.0656976300522685,121
1733383251450618600,0.817825618648529,0.654007221584022,-0.1151483280502259,9.18110811766088,-2.926104597072303,-1.8208625510022045,0.2686481177806854,-0.2719382643699646,0.3738430738449096,0.2667581511377244,0.5686764230099071,-0.5190811892305262,0.5796566898627284,-0.1565355956554412,0.2923386394977569,0.1699267923831939,0.000953197479248,-0.0040682554244995,-0.0424393415451049,0.0060579488053917,-0.0151145998388528,0.0250736509799957,0.1272138655185699,0.0938585795231163,0.1131622687995433,122
1733383251490618400,0.5703647695183753,0.6914394188776611,-0.0381200334273278,9.138421653100847,-3.05182268832326,-1.8292067471079527,0.272538423538208,-0.0195461381226778,0.2260901778936386,0.2590286561976899,0.5685083467504275,-0.5196747534712277,0.5827868492001965,-0.0277555026113986,0.2794132530689239,0.1858899146318435,-0.0011560916900634,0.0059367641806602,-0.0644547268748283,0.0205596480518579,-0.0297932010143995,0.0220072491466999,0.1472822874784469,0.0994803649276494,0.066554539142549,123
1733383251530618400,0.3765636143833398,0.6297039704546332,-0.4699661207020282,9.11031082638204,-3.1431668008074163,-1.814701105763018,0.1610025763511657,-0.0530068911612033,0.1946667432785034,0.2537923190175761,0.5678665176742423,-0.5196649133049263,0.5857179479976096,0.0251750890165567,0.2013656944036483,0.1683031320571899,-0.0045000910758972,0.010718859732151,-0.0683526992797851,0.0137709509581327,-0.0468093678355217,0.0086409870952367,0.1302263140678405,0.0965098246842622,-0.0059580316215753,124
1733383251570618600,0.2996241670876741,0.7135843229293822,-0.3784744164407253,9.084000327083467,-3.2176199842453,-1.816110680299997,0.0574189014732837,-0.0271134935319423,0.1666073501110077,0.2499604958886676,0.5670174698984806,-0.5206602213534101,0.5873022641201275,-0.0020040676463395,0.1125390455126762,0.1311154067516327,0.0023093223571777,0.024671122431755,-0.0723386406898498,0.0071411682292819,-0.0585597530007362,-0.0049199207454919,0.1341323256492614,0.1338264327742159,0.0364247738167643,125
1733383251610618600,0.3320242154330015,0.7059338081762194,-0.3785128487549722,9.062223379561305,-3.2743133468478915,-1.8235536897823208,-0.0682470723986625,0.0016867248341441,0.1560505330562591,0.2479913585787183,0.5655572166860601,-0.5226092237709024,0.5878136225049471,-0.0325582511723041,0.010490977205336,0.0677320435643196,0.0003214478492736,0.0387741848826408,-0.0688482597470283,0.0198977589607238,-0.0686374902725219,0.0405921226292848,0.1474496871232986,0.1334820763159543,0.0351157370448112,126
1733383251650618600,0.3507008588522672,0.7122823004201054,-0.2614855750903487,9.045491440469029,-3.3185198605820534,-1.8267064547248184,-0.1237226799130439,0.0455973222851753,0.112065203487873,0.2477974442710821,0.5631927450733092,-0.5253094733832221,0.5877585875510208,-0.0357865318655967,-0.0575749464333057,-0.0124706476926803,-0.0035939216613769,0.045877568423748,-0.0450738072395324,0.0294055398553609,-0.0874129831790924,0.0157481887519359,0.1289379000663757,0.1532736952397972,-0.0628223668769002,127
1733383251690618600,0.4274807316720485,0.4382674986243248,-0.2201847196698188,9.040538786497711,-3.330762379300594,-1.828952772346884,-0.0606613792479038,-0.0101886996999382,0.0103128999471664,0.248609632160108,0.5617677344616872,-0.5269417941727775,0.5873181824849777,-0.0088811479508876,-0.1101610884070396,-0.0764062255620956,0.0272536873817443,0.0387019142508506,-0.0272278115153312,0.0448227003216743,-0.1171641200780868,0.0347410585135221,0.1725829541683197,0.1773279400441795,0.0121028179869055,128
1733383251730618400,0.3645101884961128,0.2099184694603085,-0.0602874415718018,9.036471683189273,-3.327767581398785,-1.8543254062734544,0.0822257623076438,-0.1250745505094528,-0.0293894466012716,0.2478689500027429,0.5627670013307039,-0.5271030159331034,0.5865293528060411,-0.0400302819907665,-0.1580309718847274,-0.1308383047580719,0.0062154531478881,0.0114217698574066,-0.0039805769920349,0.0519066080451011,-0.123441107571125,-0.0558235940307378,0.2646218240261078,0.1969460290320217,0.0493254641830921,129
1733383251770618400,0.1663689583301544,0.0775914814636111,0.2499766313433647,9.029161067914965,-3.3316108128234743,-1.8828221635699272,0.2213691771030426,-0.1227265819907188,-0.0069792387075722,0.2449643959010058,0.5653298833955941,-0.525736943805537,0.5865111356961015,-0.0171225666999816,-0.147456407546997,-0.1433247923851013,-0.0187528729438781,-0.0062185674905776,0.0087048411369323,0.0509348735213279,-0.1127779930830001,-0.1117319437354803,0.3507890701293945,0.1978918585147708,0.1226356150656938,130
1733383251810618600,0.001506897431612,0.1654369381770491,0.1882297847434878,9.02373670477867,-3.3465827565059065,-1.882277535299212,0.2703221440315246,-0.0863547250628471,-0.0326244682073593,0.2411866759398535,0.5678294584511829,-0.5230097027280867,0.5880983267300977,0.0439128242433071,-0.1177223846316337,-0.1140195727348327,-0.0214629769325256,-0.0220495015382766,0.0219801589846611,0.0498586185276508,-0.095613807439804,-0.0961456675469875,0.388329267501831,0.200883879937604,0.1394438342645764,131
1733383251850618600,0.0654722968637943,0.0962049965187907,0.0049335108794271,9.02366480858624,-3.344238823728263,-1.8867760157622395,0.2112036198377609,-0.1032566353678703,-0.0758217126131057,0.2380345701645007,0.5707890184662145,-0.5199987530576614,0.5891864992555601,0.0965307652950286,-0.0708721056580543,-0.066551387310028,-0.0089204311370849,-0.0313034355640411,0.0349208116531372,0.0458784699440002,-0.0817383527755737,-0.0191746560692787,0.3712025880813598,0.232075648471713,0.1600555373996496,132
1733383251890618600,0.1337859546333551,-0.109155078984797,0.001065729535371,9.025983022400736,-3.3367005371779204,-1.8890442529551683,0.1318263709545135,-0.0210238043218851,-0.0284759290516376,0.2360188478429039,0.5730131273073028,-0.5176585803066229,0.5898990051577729,0.0880565866827964,-0.0445023961365222,-0.0430545881390571,0.0086251497268676,-0.0350708365440368,0.0439222529530525,0.0480956882238388,-0.0699901133775711,-0.0227209503740072,0.3118541240692138,0.1916646545629948,0.1226560733318328,133
1733383251930618600,0.0687380206614732,-0.1879115125745535,-0.0789522484228014,9.029525809574126,-3.335604558634758,-1.8739679721154272,0.020370552316308,0.0266137924045324,-0.0099728778004646,0.2355219932762457,0.5733962116361041,-0.5164906236402684,0.5907482421747793,0.0592044256627559,-0.041349958628416,-0.0464053153991699,0.0134579539299011,-0.0400688499212265,0.0500159114599227,0.0447370074689388,-0.0573489181697368,-0.0297936652392148,0.2439990043640136,0.2060021727994084,0.1484657835014164,134
1733383251970618400,0.0401437943398952,-0.2355924244210124,-0.0494597580872476,9.031635349074003,-3.333414062853157,-1.867696490630508,-0.0119258146733045,0.0179600846022367,0.0016157152131199,0.2358339483396546,0.5732004572693578,-0.5163983512736354,0.5908944878254812,0.035881794989109,-0.005685064010322,-0.0248426292091608,-0.0033696889877319,-0.0384755432605743,0.0464450046420097,0.0384296737611293,-0.0484239570796489,-0.0822971749365329,0.202399656176567,0.1875648180287331,0.1750336185619234,135
1733383252010618400,-0.1167208380639553,-0.2626008428558707,0.0045265375137329,9.030183981221914,-3.340373088210821,-1.8622773881912231,-0.0101780779659748,0.025676991790533,0.0436488948762416,0.2359003848219218,0.5727025051073014,-0.5166832334253894,0.5911017771811693,0.0366796776652336,0.0405563600361347,0.0171707347035408,-0.0127729773521423,-0.029002696275711,0.0320712253451347,0.0282392464578151,-0.0364190712571144,-0.0600105243265628,0.1705328077077865,0.1978578101146966,0.1730377685695886,136
1733383252050618400,-0.0981026468336582,-0.1561573609173298,-0.0819268803194165,9.025333618581294,-3.357333867622912,-1.855281537954509,-0.0549085810780525,0.027908332645893,0.0647199600934982,0.2359080454552434,0.5716705313349251,-0.5174802757926222,0.591400434258801,0.0251308809965848,0.0643305033445358,0.0407505631446838,-0.0187363028526306,-0.0163991302251815,0.0275443121790885,0.0208152998238801,-0.0372099466621875,0.0347884047865867,0.1352111101150512,0.1979280258066952,0.1333745973534882,137
1733383252090618600,0.0068693012475967,-0.2073123786151409,0.0189312027022242,9.014184448057412,-3.3895267029583453,-1.8509439471416167,-0.0506571121513843,0.0405026860535144,0.1431247442960739,0.2357484658646571,0.5699273062374058,-0.5191866138597293,0.5916509660507796,-0.0162495821714401,0.0925360992550849,0.0419461205601692,-0.0012748837471008,-0.0056664273142814,0.0147845819592475,0.0157919898629188,-0.037755224853754,0.0282943665921688,0.0814010947942733,0.1820273499067872,0.1101138410143554,138
1733383252130618600,0.1078501338660717,-0.1064335450664162,0.0901885127082467,8.993407032966614,-3.4497038160234688,-1.8407988390937449,0.0269497260451316,0.0219023749232292,0.1873849332332611,0.2342672968060655,0.56767559346243,-0.5211516460818033,0.5926754167772968,0.0005152828525751,0.0857334733009338,0.0426583848893642,0.0063850879669189,0.0057339370250701,-0.0060645937919616,0.0148854721337556,-0.0352387465536594,0.0009878419935703,0.0407468937337398,0.1822935265623033,0.1349228497087955,139
1733383252170618600,0.1582546254575252,0.0811135181099176,0.0938682241342961,8.968742547309398,-3.5182892764717337,-1.8313107336498795,0.097144030034542,-0.0163399204611778,0.161076545715332,0.231429336522603,0.5661151816952821,-0.5223834465760658,0.5941966557379101,-0.0071578165516257,0.0653044208884239,0.0220096316188573,-0.0044658184051513,0.0040737763047218,-0.0188614130020141,0.018103577196598,-0.0297981034964323,-0.0213660286337137,0.014894600957632,0.1803725684370845,0.1236501989357173,140
1733383252210618400,0.1644938121080398,0.202450033275783,0.0073988780796527,8.947090102949739,-3.575431551885605,-1.8265436653785407,0.0948639139533042,-0.0390720218420028,0.1138767376542091,0.2283108565243787,0.5654848562827623,-0.522833325998083,0.5956058763768095,-0.0135981384664773,0.0378952771425247,0.0186395347118377,-0.0042521953582763,0.0041875541210174,-0.0241333320736885,0.0204936452209949,-0.0458198487758636,0.0500368273228406,0.0117087420076131,0.2436304041218012,0.1765907848760485,141
1733383252250618400,0.1947398972898721,0.2794084775328636,0.0896506064392626,8.933452622741461,-3.6074984227538094,-1.8302353595033287,0.0439242906868457,-0.0330681540071964,0.0265120342373847,0.2262145620983751,0.565477004570946,-0.5230217852512989,0.5962473581672775,-0.0195066276937723,0.0226551778614521,0.0153862172737717,0.0028907656669616,0.0037525817751884,-0.0179589986801147,0.0382912680506706,-0.0445104204118251,-0.0259656313836574,0.011720216833055,0.1692860148206353,0.1193231295168399,142
1733383252290618400,0.2401964110851287,-0.0054722939312458,0.0806150670684874,8.933037027677893,-3.605133154927194,-1.8369119146578008,-0.0065413648262619,-0.0149002410471439,-0.0080329468473792,0.2259237049382436,0.5659219645607783,-0.5228659203568501,0.5960721758391972,0.0314079523086547,0.0227800272405147,0.0056477691978216,0.0011297464370727,0.0106353014707565,-0.0162724778056144,0.0400318354368209,-0.005419585853815,-0.0963303764641285,-0.0260938555002212,0.156141871087253,-0.0040802550509572,143
1733383252330618600,0.1745575254827737,-0.0445382299065589,0.1828419542253017,8.929543924865126,-3.6161958162114014,-1.832148061256856,0.0509357787668705,0.0363223105669021,0.0598182491958141,0.2255136760063029,0.5655971701469911,-0.5229850786794454,0.5964311113218589,0.063415415585041,-0.008988075889647,-0.0149364024400711,-0.0047873854637146,0.0032087489962577,-0.0043793395161628,0.0255184955894947,0.016698632389307,-0.0668956076651811,-0.0620966516435146,0.1556407896973192,-0.0270068109996616,144
1733383252370618600,0.0552688827574253,0.1311295949056744,0.0139458155050873,8.925230153319239,-3.640729368965328,-1.8043595983602103,0.0945022776722908,0.0342204384505748,0.0278465952724218,0.2244284585593935,0.5648929040619812,-0.5223913677248536,0.5980259339699574,-0.0329920798540115,-0.0244037304073572,-0.0032680947333574,-0.0116704106330871,-0.0111785903573036,0.0065709426999092,0.0076398756355047,0.0371378660202026,-0.0315852248311042,-0.0790845155715942,0.1621502446565777,-0.0242946294315159,145
1733383252410618600,0.1585503935337066,0.0989651088818907,-0.1636788424633443,8.92190773089826,-3.656449500666559,-1.7889423951283097,0.0795404464006424,-0.0244669578969478,0.0093802008777856,0.2229159722211056,0.5651679930793967,-0.5213404081867448,0.5992476367731144,-0.0225239899009466,-0.0135193914175033,0.0052192662842571,-0.0042500495910644,0.0045735538005828,0.0055580139160156,-0.0067134145647287,0.0375204198062419,0.0123719903171062,-0.0754467546939849,0.1922356593839824,0.0244973123967647,146
1733383252450618600,0.1157481936395168,0.0821153886288404,-0.0740906337358057,8.92071822885275,-3.660399407336116,-1.786803045012057,0.0658546090126037,-0.0209041889756917,-0.0131164221093058,0.2218821375528351,0.5658181825617211,-0.5205299086806137,0.5997222779825795,0.0177595168352127,-0.0117507865652441,-0.0179479718208313,-0.0024958848953247,0.0068604722619056,0.0092762634158134,-0.0023322128690779,0.0354825071990489,-0.0242693488597869,-0.0469628050923347,0.15449461533688,0.0625171003200113,147
1733383252490618400,0.1513373934149742,-0.0295469970017671,-0.0817583918847143,8.921790241998433,-3.656925301484764,-1.7885624559000133,0.0527690947055816,-0.0389097034931182,-0.0251296423375606,0.2211889798491815,0.5666364660929538,-0.5197253319189896,0.5999034921859494,-0.0049734916538,0.0063785230740904,-0.0154312178492546,-0.0056690573692321,-0.0002590417861938,0.0011234208941459,0.0019407551735639,0.0204076878726482,0.0041243864536285,-0.0161097161471843,0.1775833761099725,0.0601511018410325,148
1733383252530618400,0.0870855782568454,-0.0253726339265704,0.0074808572746813,8.922294684389232,-3.6533179246425616,-1.7934049274951218,0.0196548830717802,-0.0178126394748687,-0.0182509832084178,0.2206433684944777,0.5673596153864842,-0.5191736415270111,0.599898559194201,0.0292108431458473,0.0230033062398433,-0.0038153743371367,-0.0105085372924804,0.0008257031440734,-0.0015711784362792,0.0014747041277587,0.0128991771489381,-0.0089063600331544,0.0085853803902864,0.161518230363354,0.089132281653583,149
1733383252570618600,0.0261281284689903,-0.0960264250814914,0.0723765232942998,8.925344135087729,-3.646110769742727,-1.7929095451936126,-0.0144012756645679,0.0082694068551063,-0.0149921374395489,0.2209197378214248,0.5675355869756018,-0.5189569373651249,0.5998180341093547,0.0388589426875114,0.0230219475924968,0.0036233670543879,-0.0063587427139282,-0.0013827085494995,-0.0065661743283271,-0.000409881118685,0.0123142572119832,0.0095440734148025,0.0290180910378694,0.152718764770776,0.0931971930049359,150
1733383252610618600,0.072712769511342,-0.1483922798737883,0.0976771148979663,8.924697069355846,-3.647464522439241,-1.7933704407036304,0.0337330773472785,-0.0111675187945365,0.0172506012022495,0.2207982337487518,0.5675658453322646,-0.5189464862268252,0.5998431061191185,0.0333768241107463,0.0157126374542713,0.0050428984686732,-0.0032474994659423,-0.0044770762324333,-0.0073142051696777,-0.0028122381772845,0.0116050671786069,0.0135854577600955,0.0328472889959812,0.1506234729919582,0.0911224325574934,151
1733383252650618600,0.0961024129271507,-0.0634326077297329,0.0429471613228321,8.920311401617527,-3.659550973813236,-1.7905653201550245,0.0569559223949909,-0.010654367506504,0.0318030938506126,0.2197872298860058,0.5677132987369533,-0.5186473116239204,0.6003333911944854,0.0168692227452993,0.0020011919550597,0.0029390011914074,-0.0039052367210388,-0.0012684315443038,-0.0053276345133781,-0.0072231171652674,0.0133995916694402,0.0071218147039413,0.0197461675852537,0.1650894399136304,0.0966629694193601,152
1733383252690618600,0.1175578734099864,0.0571229861915111,-0.0354113589905202,8.916063681045173,-3.673863576804101,-1.7823858130916952,0.023048648610711,0.0130736203864216,0.0207840465009212,0.2189616977751477,0.5675235368748676,-0.5184529138475592,0.6009819302522991,0.0274033565074205,-0.0008302808273583,-0.0029717513825744,-0.0033300518989562,0.0025134161114692,-0.0029876232147216,-0.0067164204083383,0.0139395557343959,0.0012198971837759,-0.0043664034456014,0.1657531645193695,0.0833747410401701,153
1733383252730618400,0.0985831238269805,0.0578068768024444,-0.0521428596913814,8.914239388227463,-3.6802336963579054,-1.7783740932323038,-0.0167401377111673,0.0088925892487168,0.0184220634400844,0.2188852566320815,0.5671844566494286,-0.5186266804164673,0.6011800469078358,0.0262004062533378,-0.0106312995776534,-0.0144509077072143,-0.010487675666809,0.0003816410899162,-0.0013673901557922,-0.012555543333292,0.0198475383222103,-0.0124123223274946,-0.0308484099805355,0.1368771255817264,0.0598975654713809,154
1733383252770618400,0.1948223148763179,0.0247924959510564,0.0025055530801415,8.913168544125556,-3.6820845849215984,-1.779900426016748,-0.0032489546574652,-0.0075661344453692,0.002673904178664,0.2189316607250768,0.5670497639186252,-0.5188489493617673,0.601098295847532,0.0130132315680384,-0.0103406962007284,-0.0139318574219942,-0.0011093616485595,-0.0002368837594985,0.0031977891921997,-0.0222526527941226,0.0067894831299781,0.046585810086131,-0.0237073842436075,0.1873260408367961,0.120777712239325,155
1733383252810618600,0.0582622193545103,0.0478457470193505,0.0533447828270494,8.914755521056055,-3.679849080954492,-1.7765720122464,-0.0021584189962595,0.0122288865968585,-0.0126574467867612,0.219067040498346,0.567034398293972,-0.5187021868287398,0.6011901429015052,0.0266358330845832,-0.0042600063607096,-0.0188294760882854,-0.0023871660232543,-0.0011380463838577,0.0078965499997138,-0.0236169267445802,0.0159011092036962,-0.030550621086359,-0.0006169229745864,0.1168287554178386,0.0822596194051206,156
1733383252850618600,0.1642319463014602,-0.1122828556165099,-0.0498633704520761,8.916825897589325,-3.674595982731879,-1.7770630106337368,-0.0134753230959177,-0.0005930479383096,0.0035694995895028,0.2193874983435213,0.5670677861107872,-0.518689811461206,0.6010525693586556,0.0203110910952091,0.0143059017136693,-0.0087543400004506,-0.0111128687858581,-0.0054027065634727,0.0038656517863273,-0.0272781215608119,0.0317170470952987,-0.0400929409354925,-0.0016961243236437,0.1400452342238277,0.0340352483317255,157
1733383252890618600,0.1138064119219779,-0.0186707982003688,-0.0209796596646308,8.915925149357319,-3.676779756511748,-1.777065933243185,-0.0041076028719544,0.0046977130696177,0.0052823177538812,0.2194201936126358,0.5669125330725268,-0.5188596412874754,0.6010404806178273,0.0251822806894779,0.0152354519814252,-0.004983436781913,-0.0128511786460876,-0.0055983588099479,0.0008084774017333,-0.0354456827044487,0.0228792652487754,-0.0180786775261163,-0.0055912472307682,0.160842742254585,0.0601212912246584,158
1733383252930618600,0.0008639233529567,-0.0046942952960729,-0.0528875405788421,8.915891831609606,-3.6757919145181774,-1.7792755721166729,-0.0311441849917173,-0.0046338690444827,-0.0031316478271037,0.219549712897775,0.5668771191702728,-0.5190068776203643,0.6008994465903341,0.0091047761961817,0.0113439867272973,0.0046326387673616,-0.0066998600959777,-0.0017198100686073,-0.0019847750663757,-0.0308824870735406,0.0116954641416668,0.0416553679466247,0.0052891932427883,0.1784267681315541,0.1085122510366141,159
1733383252970618400,0.1123953760802745,-0.1008633437186479,0.0103565588414669,8.914643292853235,-3.674343469275534,-1.788499619796872,-0.0486447066068649,-0.004080219194293,0.0173054058104753,0.2199523864282812,0.5666917457474236,-0.5196619747697819,0.6003606216390864,0.0162859894335269,0.0115479324012994,-0.0054587442427873,0.0065685510635375,0.0056481435894966,-0.0026525855064392,-0.0252160038799047,0.0115785216912627,0.006124620360136,-0.0114335864782333,0.1835828357204794,0.1017943409584462,160
1733383253010618400,0.1085661731809377,0.025654957999289,0.0950210474312305,8.910391480627656,-3.6814512554541214,-1.795054302137345,-0.0148364091292023,-0.0061881113797426,0.0215502195060253,0.219926814559506,0.5663542296019144,-0.5203510200174597,0.6000915614912444,0.0065116565674543,-0.0098122181370854,-0.0222005732357502,-0.0012659430503845,0.0065048411488533,0.0025128051638603,-0.016436755657196,0.0148167610168457,-0.0475309819817543,-0.015640664845705,0.150439713922888,0.1483143923319876,161
1733383253050618400,0.1137806929588317,-0.0024891864672303,0.0341176659181714,8.909514697793126,-3.682036946387589,-1.7981950843811034,0.0029046470299363,-0.0066857100464403,0.0046260119415819,0.2198932181384059,0.5663753047324337,-0.5204819377725963,0.599970341816404,-0.0115890502929687,-0.0015294672921299,-0.0351061187684536,-0.0048779845237731,-0.0005592852830886,-0.0011917948722839,-0.0084015969187021,0.026680652052164,-0.0127355629324913,-0.006452914327383,0.1757804914064705,0.1108819027774035,162
1733383253090618600,0.1342716923236847,0.0160270056933164,0.0438439640320837,8.905933916696906,-3.691275899375975,-1.7969976912900805,0.0183741673827171,0.0022537452168762,0.0252261850982904,0.2194141289645648,0.5662410509832898,-0.5205693571218151,0.6001966458940821,0.0107207829132676,0.0057417079806327,-0.0149931944906711,-0.0077869296073913,-0.0054514408111572,0.0076907277107238,-0.0139295402914285,0.0203805714845657,-0.0069090487360954,-0.0161906071007251,0.1752920503024011,0.0908668503612279,163
1733383253130618600,0.1130582239031791,0.0479752186179161,0.0042858606256544,8.903504643723368,-3.698683545283973,-1.7938018178582191,0.0002516743261367,0.0075975037179887,0.0157092530280351,0.219134164961019,0.5660240643896327,-0.5206488233945424,0.6004346396970518,-0.0277096964418888,0.0174858216196298,-0.0021335880737751,-0.005212128162384,-0.0074986964464187,0.0052742436528205,-0.019054140895605,0.0087781548500061,0.0195008192837238,-0.0277404673397541,0.206902774900943,0.0984033833459019,164
1733383253170618600,0.1037134724527597,0.038025487011671,-0.0436767907716333,8.902675791683793,-3.7011543193116783,-1.7928249356500805,-0.0287705063819885,0.0082863047719001,0.0152100566774606,0.219277900974109,0.565746763743463,-0.5209023252202405,0.6004237410985415,0.0348085388541221,0.033756673336029,0.006414626725018,-0.0045482516288757,0.0032050758600234,0.001083604991436,-0.0208793021738529,-0.0010298080742359,0.0063911623418331,-0.0482119061052799,0.1994841692075133,0.0731603671483695,165
1733383253210618400,0.1158855562835931,0.0442255106955766,0.0504921698749065,8.90337137273252,-3.7004707209616896,-1.7907777938619256,-0.0346136763691902,0.0224496778100729,0.0015988738741725,0.2198007206198557,0.56531593817157,-0.5212697440326178,0.600319421039533,0.0373483970761299,0.0399292409420013,0.0155913466587662,0.000338852405548,-0.0058251172304153,-0.0045368075370788,-0.0205317009240388,0.0074797617271542,-0.0240887315958738,-0.0577657520771026,0.1986852008495479,0.0719805097140371,166
1733383253250618400,0.0945382323503494,-0.0352115986347198,0.0276946471333503,8.904816310843826,-3.698246615171432,-1.7881816398888826,-0.0208046305924654,0.0230383742600679,0.0205566622316837,0.2203821823915778,0.564919597833734,-0.5215723724126144,0.6002164411099781,-0.0117688132449984,0.0055338749662041,0.0083218486979603,0.0012816190719604,-0.005074106156826,-0.0041326805949211,-0.0172471329569816,0.0160102900117635,-0.0351455476611852,-0.0584926977753639,0.2051465788833797,0.0563344661623239,167
1733383253290618400,0.126896779641509,0.040921792975068,0.0119696931265294,8.904930877134204,-3.701806061218679,-1.7802372567556797,-0.0121759343892335,0.030490668490529,0.010397620499134,0.2206687755101037,0.5643965142257397,-0.5217503346093884,0.6004486327988688,-0.007518408820033,0.0061068809591233,0.0112103139981627,-0.0069349408149719,0.003229834139347,-0.0078720450401306,-0.0200219638645648,0.0156134748831391,-0.0096358433514833,-0.0519264601171016,0.1876227587610483,0.0383458050072193,168
1733383253330618600,0.1131201832234859,0.0007736147210001,-0.0673148559905588,8.905689002025127,-3.703706049621105,-1.7724802128881214,-0.0321028493344783,0.0228805765509605,0.0160358697175979,0.2211270647121053,0.563822906707272,-0.5219914474945941,0.6006093840706324,0.0295756962150335,0.0208539217710495,0.0227511227130889,-0.0078654289245605,0.0101561471819877,-0.0075087547302246,-0.0305666290223598,0.0188629887998104,-0.010673369705677,-0.0259386040270328,0.2160211702495813,0.0832791717112064,169
1733383253370618600,0.0553285039901733,0.0512143466696143,0.0178280637659132,8.905269899830222,-3.708207160432636,-1.7651465089991687,-0.0108638051897287,0.028407048434019,0.0176731441169977,0.2215128224797729,0.5631631128657518,-0.522345416555545,0.6007783215652278,0.014106991700828,-0.0026465035043656,0.0031140376813709,0.0003784894943237,0.0089762434363365,-0.0021944567561149,-0.0302588865160942,0.0211689565330743,-0.0195160168528556,0.0048540066927671,0.1514288710907101,0.0940434345707297,170
1733383253410618600,0.1480085412532091,-0.069973115414381,-0.0955984089277684,8.903868800860643,-3.712565940164029,-1.7630504135027527,0.0162073746323585,-0.0157324541360139,0.0217908211052417,0.2214120157132215,0.5629777877927691,-0.5224428847620598,0.6009044074105719,0.0053739538416266,0.0053684930317103,-0.0092323776334524,-0.0100734233856201,0.0073029547929763,0.0005396008491516,-0.0241264570504426,0.039503164589405,-0.0210439570724964,0.0168971884995698,0.1549543418031185,0.0644689650401473,171
1733383253450618600,0.1800701514244079,0.0353910468548536,-0.0433900827847421,8.899339925259351,-3.72440660008341,-1.7609401433505116,0.0002329405397176,0.0280148740857839,0.0364821329712867,0.220908284531626,0.5627032530764248,-0.5226356357050033,0.6011792637735157,0.0308537483215332,0.0096941590309143,-0.015283478423953,-0.0091295838356018,0.0046818032860755,0.0049604177474975,-0.0304482467472553,0.0273431986570358,0.0041781624674797,0.0030298689380288,0.1596146617643535,0.0468469452403485,172
1733383253490618400,0.069777300581336,0.1455681623637676,-0.0731200351379811,8.897854070615768,-3.732231594620645,-1.751859741924703,-0.0237910393625497,0.0267681572586298,0.0088693480938673,0.2211271332366446,0.5619783736918597,-0.5229725584262673,0.6014837993291182,0.0102502014487981,0.0081245452165603,0.0062575666233897,-0.0067390799522399,-0.0047992020845413,0.0018084049224853,-0.0278930142521858,0.0108010154217481,0.0074871408849954,-0.0061623128131031,0.1767501401562243,0.0793969234503805,173
1733383253530618400,0.0966571242004633,0.0306859379038214,-0.0210894036494195,8.897909015673399,-3.732121412244439,-1.7518170718267558,-0.0018613967113196,-0.0040104230865836,0.0029560721013695,0.2213369961698078,0.5618019831635438,-0.5231599615046694,0.6014084059089514,-0.0139283705502748,-0.0082774376496672,0.0035177061799913,-0.0006790161132812,-0.0043526366353034,0.002172403037548,-0.0119571220129728,0.0005762744694948,-0.0072147536844015,-0.0183066427707672,0.173629158591479,0.0677507631897926,174
1733383253570618600,0.1723755052685737,-0.0296025265812873,0.0338262817561626,8.8983567594409,-3.731688281524181,-1.7504687259577214,0.0019212776096537,0.0196641646325588,0.0036416314542293,0.2213591919105667,0.5617970780038405,-0.5230995216683881,0.6014574452038692,0.0053694266825914,-0.0063449945300817,-0.0010687897447496,-0.0010797977447509,0.0020319670438766,-0.0024796053767204,0.0060575567185878,-0.01678317040205,0.0036380642414093,-0.0138559117913246,0.1910436000552028,0.0819626822851598,175
1733383253610618600,0.077494743090868,-0.0101040453851223,-0.0146598089933395,8.90031256968379,-3.7303871357977374,-1.7432821754544972,-0.0151970852166414,0.0204520598053932,-0.005012069363147,0.221707816609434,0.5615111786758924,-0.5230562633411939,0.6016336188908754,0.0045212097465991,-0.0029570278711616,-0.0039731003344058,-0.0020470023155212,-0.0014724135398864,0.0038314461708068,0.0091369720175862,-0.0037551699206233,-0.0261041630715131,-0.0005588820204138,0.190013672485575,0.0726743371970951,176
1733383253650618600,0.1018219596177339,-0.0550648846179246,-0.0430570514380931,8.900825195381044,-3.7306165606394406,-1.740173688045144,-0.014528676867485,0.0125163653865456,0.009140882641077,0.2220059134877182,0.5612128700309172,-0.5232248855774184,0.6016554220861237,0.0036753898020833,-0.0051033762283623,0.0040902197360992,-0.010253369808197,0.00192441791296,0.0076118782162666,0.0032768165692687,6.79108779877e-05,-0.0266267256408929,0.0073362458497285,0.1923453303035348,0.0543685729168355,177
1733383253690618600,0.0771545513510704,-0.0060389879032969,-0.0089339786924421,8.900205017656088,-3.7346021231442688,-1.7347930179201063,0.014578347094357,0.007794695906341,0.0132831493392586,0.2220055075161507,0.5609345935509831,-0.5232611265249296,0.6018835834339251,-0.0083493143320083,0.0014048567973077,0.0007393634878098,-0.0072624683380126,-0.000405803322792,0.0067614316940307,-0.004660103470087,0.0108630126342177,-0.01413666190207,0.0059228343889117,0.1858195087313651,0.0626006869502365,178
1733383253730618400,0.080430212020874,0.0025052608191967,-0.0718881552554667,8.89827609542012,-3.7391064488261936,-1.7349863485351205,0.0096823796629905,-0.0142115037888288,0.0064915791153907,0.2216630069776188,0.5609690718293087,-0.5232335897188581,0.6020016195408369,-0.0089922016486525,0.0074554523453116,0.0014349811244755,-0.0061927437782287,0.0005941167473793,0.0070644691586494,-0.0074284728616476,0.0122184492647647,0.0016407529443502,-0.0003163828514516,0.2048204887341707,0.0748972739435732,179
1733383253770618400,0.1372229433447122,-0.0243517664462327,-0.0263270120419561,8.898195431399344,-3.7393338278412815,-1.7349077303409577,-0.0066114165820181,0.0139327747747302,-0.0004474360321182,0.2216315232410342,0.5609824150183065,-0.5232154504822807,0.6020165248408618,0.0032380986958742,0.0146524850279092,-0.0045171175152063,-0.0066167712211608,0.0023057460784912,0.0038136169314384,-0.0060354289598762,0.018012661486864,-0.0058288522839546,-0.0062546762637794,0.1728582472842186,0.0672096420504152,180
1733383253810618600,0.0792822110295295,-0.0558846765682101,-0.0032695231899619,8.899271536198258,-3.73682944380492,-1.734771390610188,-0.0044045150279998,0.0059526907280087,-0.0009598279139027,0.2218580355859033,0.5609315425851649,-0.5232633445053761,0.6019386850069507,0.0187470167875289,0.0189426261931657,0.002471616724506,-0.0023473501205444,1.1257827281951904e-05,-0.0004663467407226,-0.0064192749559879,0.0184612646698951,0.0115676881968975,-0.0228830762207508,0.1824475480802357,0.0257611948527395,181
1733383253850618600,0.0755126293629407,-0.0652183221027255,-0.0085785893835127,8.899452737984062,-3.736924136351049,-1.7336527618438005,-0.0146301817148923,0.0135632017627358,0.0109833311289548,0.2220073349220802,0.5607870581909544,-0.5233637031340234,0.6019312119414211,-0.0051718968898057,0.0001949828583747,3.864988684654236e-06,-0.0028948783874511,-0.0004983395338058,-0.003317005932331,-0.0127890603616833,0.0166333112865686,-0.0271329215973615,-0.0391100794076919,0.1845803223252296,0.0274225521937012,182
1733383253890618600,0.0637713381648063,-0.0189785489752888,-0.0228489606678485,8.899820402252674,-3.736626030187309,-1.732400423695147,-0.0312017761170864,0.0134784067049622,-0.001615741988644,0.2223552990175568,0.5604915844767558,-0.5236191587289446,0.6018557008716787,-0.0067586088553071,-0.0069094253703951,-0.0064780027605593,-0.0062741041183471,0.000489704310894,-0.0046124532818794,-0.0175833236426115,0.0150992143899202,-0.016104162582755,-0.0221740342676639,0.1765466534733772,0.0640963323354721,183
1733383253930618600,0.0940150852590799,-0.0744999451890587,-0.00354337169528,8.899953088721633,-3.736171564418077,-1.7327013063378631,-0.0344079136848449,0.0094990069046616,0.0016023237258195,0.2228249300471976,0.5601120083954961,-0.5240398050612055,0.601669273109321,0.0306055415421724,0.0091010201722383,-0.0002850880846381,-0.0001653432846069,0.0047101154923439,-0.0037018731236457,-0.0182710047811269,-0.0028045456856489,0.0344458749592304,0.0068779308348894,0.2160123293559998,0.1225090660765767,184
1733383253970618400,0.0241968681454658,-0.0708586660772562,0.0104452600382268,8.899891713923216,-3.7380171922847625,-1.7290340160019697,-0.0170407127588987,0.0134938675910234,0.0112853487953543,0.223140151860395,0.5596988275762692,-0.5243027972883115,0.6017078808108224,0.0192482247948646,0.0043109515681862,0.0015666743274778,-0.0055177211761474,-0.0016008988022804,0.0073956847190856,-0.0122640933841466,0.0105959037318825,-0.0173404263794422,0.0111529938876628,0.132362570766732,0.0957232043512165,185
1733383254010618400,0.1635422104716301,-0.1249561669677495,-0.0630558833718299,8.896715421974658,-3.7439240782409904,-1.7325956540063023,-0.0172203984111547,-0.0081609850749373,0.0312304925173521,0.2230629146760035,0.5594468611824172,-0.5247447053405179,0.6015855851357175,0.0109988171607255,0.0105354515835642,-0.009207010269165,-0.0087459087371826,0.0012478902935981,0.00059175491333,-0.0136253181844949,0.0281532667577266,-0.0281231016784906,0.0039882669225335,0.1653758556395769,0.0410099096499383,186
1733383254050618400,0.1205786825358867,0.0089124975129961,0.0492998913504183,8.891495056977867,-3.75748381703794,-1.7300296029105782,-0.0126563794910907,0.0347778648138046,0.0474635288119316,0.2229127164195052,0.5587566815860731,-0.525355052036164,0.6017498476401951,0.0277298595756292,0.0184445604681968,-0.0103734079748392,-0.008187711238861,-0.0015562325716018,-0.0014158450067043,-0.0286795422434806,0.0140275815501809,-0.0061374798417091,-0.0081643033772706,0.1598043391175568,0.0456251483604311,187
1733383254090618600,0.0244569803863763,0.0652472559362649,-0.0758919840693473,8.887210511526465,-3.770872875443101,-1.7229013584658504,-0.0028702758718281,-0.001648728037253,0.0320306494832038,0.2227622005666961,0.5580391919451735,-0.525771610050507,0.602107527436307,0.0169834718108177,0.0014731403207406,0.0094029596075415,-1.2636184692382812e-05,-0.0068289265036582,0.0008776113390922,-0.021945271641016,0.0103307999670505,0.0138461545228958,-0.0225104186683893,0.1698019284535199,0.0679506696760654,188
1733383254130618600,0.1515221023321151,0.0658180415615439,0.0360462958931922,8.881052573418616,-3.783713652315736,-1.726502159436792,0.0195082891732454,-0.014755337499082,0.03217214345932,0.2221066018019309,0.5578805770553763,-0.5261144104423471,0.6021972882450736,-0.0149161368608474,-0.0187074411660432,-0.0006683169631287,0.0007717013359069,-0.0071034356951713,0.0011469721794128,0.0029156617820262,0.0165024232119321,-0.0290478153079748,-0.0473546385765075,0.1869119070779532,0.0740305741116404,189
1733383254170618600,0.2119645883351564,0.0811518042936921,0.0579506691873073,8.878819115278125,-3.790219088687002,-1.7237160358496009,0.007902936078608,0.026447357609868,0.00569310458377,0.2217311073975409,0.5578007237389667,-0.5260640777410421,0.6024535489704755,-0.0098753059282898,-0.012081017717719,-0.0036555179394781,0.0007688403129577,-0.0006539225578308,0.0027723312377929,0.0189836733043193,-0.0051377657800912,-0.007689385458827,-0.0392455980181694,0.1946253309994935,0.0887784997798502,190
1733383254210618400,0.0806938313931226,0.0632847236916422,-0.0033798516966402,8.881253648948668,-3.788513161551952,-1.714908606146276,-0.0209401864558458,0.0206873342394828,-0.0157289057970047,0.2221936322404963,0.557426958484767,-0.5260334489257115,0.6026558581908212,0.0331334136426448,0.0108256293460726,0.0112862139940261,-0.0086645483970642,0.0002349913120269,0.0013231039047241,0.0178738683462142,0.0065501620993018,-0.0491249731749296,-0.016315983608365,0.1559192413125187,0.0577387800022959,191
1733383254250618400,0.0832885240614414,-0.1393754452034831,0.0529962616503238,8.883744881242514,-3.7832246997550127,-1.713674095915258,0.0101653933525085,0.0069095930084586,0.0061479825526475,0.2225695776073406,0.5574019889269335,-0.5260000827369298,0.60256929779801,-0.0074568893760442,0.0034457971341907,0.0116153135895729,-0.0039073824882507,-0.0055068656802177,0.0084651634097099,0.0059827687218785,0.0170749966055154,-0.0394815310388803,-0.0061783799901604,0.1604679906580597,0.0414297424972057,192
1733383254290618400,0.0754454093456268,-0.0420192328229546,-0.0277472541034221,8.882010604795813,-3.791247262690961,-1.7049058291785415,0.0567498803138732,0.0026019550859928,0.0135746141895651,0.2220092232234433,0.5573446125957873,-0.525635794927485,0.6031466374636889,-0.0117648188024759,0.0004752539098262,0.0054568205960094,-0.0045759081840515,-0.0009995102882385,0.0016729831695556,-0.0100749293342232,0.019766179844737,-0.0233539875805377,-0.0099997483193874,0.1622165878910571,0.051998190523684,193
1733383254330618600,0.0958393780767917,0.0314449395775794,-0.1303355219185352,8.880621196264029,-3.795279879207909,-1.7031743292108177,-0.0151107655838131,-0.0040505151264369,-0.0014686837093904,0.2215996227465858,0.5574486642091298,-0.5254414445139212,0.603370430065152,-0.0142106655985116,0.0050802323967218,0.0100588956847786,-0.0085405707359313,-0.0024936944246292,0.0007078051567077,-0.0096759395673871,0.020124178379774,-0.0008300210833549,-0.0269075036048889,0.1671042868673801,0.0784562815994024,194
1733383254370618600,0.1020394017606973,-0.0609796616196632,0.0337771819174289,8.881304502353071,-3.793834356574714,-1.7028354526452718,-0.0237470101565122,0.0177330840378999,0.0049224738031625,0.222025241471442,0.5571606810681567,-0.5257303694922351,0.6032283374999463,0.0141512006521224,0.0121510308235883,0.010646522976458,-0.0029215216636657,0.0037619248032569,-0.001878447830677,-0.0057107680477201,0.0192510448396205,-0.006917232042551,-0.0303665921092033,0.152694872438535,0.0740539549872279,195
1733383254410618600,0.1060825396716594,-0.0449184613958001,0.032181583289057,8.880252947473526,-3.797475343425572,-1.7001920985296368,0.0198219139128923,0.0004200184775982,0.0134263914078474,0.2219966966986216,0.5569483230593568,-0.5258271919137558,0.6033504007832223,0.0080863833427429,0.0095990840345621,0.0047262487933039,-0.0039752721786499,-0.000992976129055,-0.0026080571115016,-0.0094923805445432,0.0252306461334228,-0.0035480478703975,-0.0284775681793689,0.1537528570588678,0.0601793050222098,196
1733383254450618600,0.120587450364232,0.0259293910264968,-0.0128491063095629,8.87966667201817,-3.8009874431997535,-1.695413632081449,0.0074284113943576,0.0114477612078189,0.0012417696416378,0.2217562857006484,0.5569107890913244,-0.5256352430860884,0.6036408211374641,-0.0107842432335019,-0.0034490206744521,0.0033081818837672,-0.0058871507644653,-0.0004489868879318,-0.0045555830001831,-0.0152783365920186,0.0232773758471012,0.0214665663987398,-0.0336139015853405,0.1596666111472994,0.044220103868097,197
1733383254490618400,0.1145212821930646,-0.0275216286540031,-0.0348984410323202,8.880196248850226,-3.80110668566525,-1.6923692959494887,-0.0202115681022405,0.0206946544349193,0.0055555324070155,0.2219883714635086,0.5566766162381812,-0.5257356398786962,0.6036840806784205,0.0110603356733918,0.0048538637347519,0.0047781141474843,-0.0053639411926269,0.0025382488965988,-0.003216803073883,-0.0180616602301597,0.0233934000134468,-0.0039981297254562,-0.0311281643807888,0.1499126213088631,0.047690994849056,198
1733383254530618400,0.0780816030681133,-0.0466647205412387,0.010046762239933,8.881171231362224,-3.801265967880189,-1.6868854577109216,-0.0002580266445875,0.0116593446582555,0.005418328102678,0.2222959612844964,0.556354249938661,-0.5258109619990627,0.6038024304452789,0.0217361487448215,-0.0004334165714681,0.0010259195696562,-0.0063286423683166,-0.0015174150466918,-0.0045942589640617,-0.0271246433258056,0.0151241151615977,0.0074409636557102,-0.0268081873655319,0.1445522633194923,0.0384418127276003,199
1733383254570618600,0.1247194356024265,-0.0398269834756851,-0.0310778598308563,8.881219746679067,-3.802267838399112,-1.6843673374101518,-0.0226889587938785,0.0136401997879147,0.0074755679816007,0.2224405857072663,0.556148289967218,-0.5259067507670276,0.6038554671239614,0.0183488745242357,-0.0053843394853174,0.0001247059553861,0.0011025071144104,-0.0004774183034896,-0.0005912147462368,-0.0298972763121128,0.0139539400115609,-0.0157318221390247,-0.0082137025892734,0.1867009677410125,0.1002704923920333,200
1733383254610618600,0.0285498026579618,0.0104740477412939,0.0808205265127122,8.881173569449782,-3.8054336089536553,-1.6774537586294114,-0.0088252890855073,0.0214288476854562,0.0054165255278348,0.2227638843742383,0.5556225196405153,-0.5261273183378672,0.6040282155119774,0.0086664203554391,-0.0048371134325861,-0.0020613500382751,-0.0053691267967224,-0.0037153661251068,0.0098990723490715,-0.0134608410298824,0.016698483377695,-0.0214765032708644,0.0023586694151163,0.1260823945187032,0.0864144009970128,201
1733383254650618600,0.1411930160194635,-0.1426554897874593,-0.0389876100420951,8.879410651430486,-3.809123695643246,-1.678403606700152,0.0024276515468955,-0.0111775351688265,0.0236646067351102,0.2226287895686358,0.5555292657482308,-0.5262717970712137,0.6040378201381142,0.008687725290656,0.0051903272978961,-0.0031957232858985,-0.0086683630943298,-0.0008827671408653,0.0023405030369758,0.0013167494907975,0.0342269167304039,-0.0351665904492139,0.001295369816944,0.1414425338011234,0.039246114847809,202
1733383254690618600,0.1185258416593074,0.0043920974791049,0.0267804548978805,8.874993419510126,-3.8207492515072223,-1.6753383739106356,-0.0133623275905847,0.0274139307439327,0.0401487462222576,0.222386389133997,0.5550259335066228,-0.5266542499171473,0.604256422148538,0.0122305285185575,0.007722727023065,-0.0068340012803673,-0.007596731185913,-0.0046667903661727,-0.0018243864178657,-0.0079348543658852,0.0197950974106788,0.0133370359569787,-0.0055950414389371,0.15389781848751,0.0261990017481148,203
1733383254730618400,0.0520440754920244,0.1091971645608544,-0.0516590216971933,8.872942332199216,-3.828141115324199,-1.6693234975352882,-0.0187094248831272,0.002128699561581,0.0054717450402677,0.2225074940417153,0.5544324118230731,-0.5269881507511058,0.604465660517,0.0088935876265168,-0.0046567106619477,0.0091083478182554,-0.0008933544158935,-0.0042130947113037,-0.0024850964546203,-0.0081987828016281,0.0060406792908906,0.0158230075538158,-0.0003410228528082,0.1668060345731675,0.0678849109634757,204
1733383254770618400,0.1500122822910547,0.0024877251625061,0.0616414865292608,8.871488041737676,-3.8284216858312488,-1.6763813070923088,0.0010275775566697,-0.0121627636253833,0.0003516899887472,0.2224377142539131,0.5545340064778252,-0.5272226240513299,0.6041934602139646,-0.0135619193315505,-0.0236755684018135,0.0003885587211698,-0.0005131363868713,-0.0047578737139701,0.0007264018058776,0.0052863070741295,0.0052596717141568,-0.0065630117774009,-0.0076081156730651,0.1580954163078218,0.0569340394906699,205
1733383254810618600,0.1611807420372963,-0.0133323597818613,0.0616425094425678,8.871693208920956,-3.8290620295614,-1.6738377600893375,-0.0006595810409635,0.0261103119701147,0.0109128328040242,0.2224617793233536,0.5544543236682752,-0.5271834392328283,0.6042919821205154,0.0059057874605059,-0.0150727061554789,-0.0023701433092355,-0.0010684132575988,0.0034000799059867,0.0010762810707092,0.0224063284695148,-0.0018493826501071,-0.0141150345921516,-0.0048913653008639,0.1600116982579231,0.0774270846821367,206
1733383254850618600,0.0830593914806842,0.0383344068303704,0.012373305491358,8.873199521830678,-3.8286549100652336,-1.666766068137437,0.0020185117609798,0.0046705580316483,-0.0119330016896128,0.2227009846297565,0.5542122115289337,-0.5270960513040488,0.6045021046748396,0.0036229256074875,-0.0029869086574763,1.6181962564587593e-05,-0.0093694329261779,-0.0037565976381301,0.0012181922793388,0.0205143839120864,0.0135818514972925,-0.0440004697680473,0.0017919884994626,0.1435053115498274,0.0529511073343455,207
1733383254890618600,0.1246773500263691,-0.0541118216767907,-0.013924918847531,8.874231202965975,-3.825991828335821,-1.667403781519085,0.0071969092823565,-0.0032116058282554,-0.0045055472292006,0.2227282944656596,0.5543518845672132,-0.5269800037866372,0.6044653440452711,-0.0097067281603813,-0.0109790554270148,0.0009787818416953,-0.0063066482543945,-0.0057137906551361,0.006462275981903,0.0072353687137365,0.0144906369969248,-0.013705869269371,0.0096285454928874,0.1386964499633759,0.0536254994645714,208
1733383254930618600,0.0704565150171518,-0.0506567127868533,-4.1939445585e-05,8.875925731924175,-3.823759539239109,-1.663479739943147,0.0134504782035946,0.0088788410648703,-0.0058099506422877,0.2227417026530889,0.5544404238162178,-0.5266969487337072,0.6046256428880039,0.0013523144880309,0.0051192743703722,0.0032601782586425,-0.002996802330017,-0.0012268871068954,0.0010992959141731,-0.0011789025738835,0.007742010988295,0.0097778821706771,0.0040417928248643,0.145530168440938,0.0472265922077,209
1733383254970618400,0.0904115078091621,-0.0269032044947147,-0.0555190581262111,8.876472259891033,-3.822673789829016,-1.6630689671851693,-0.0224460773169994,-0.0022068289108574,-0.0017634906107559,0.222840374526455,0.5544155993022,-0.5267032045135939,0.6046067202584658,0.0183597933501005,0.0052466266788542,0.0054049557074904,-0.0041359663009643,0.0002099350094795,-0.0033284500241279,0.0044440403580665,0.0069480072706937,-0.0137444477140903,-0.0009565223008394,0.1408084006160497,0.0538582853071391,210
1733383255010618400,0.1386047530919313,-0.05266776034832,0.0489560463488101,8.876761598226427,-3.821599438595772,-1.6639947037279603,-0.0034526584204286,0.0107635911554098,0.003151471260935,0.2230828438660969,0.5542756570629932,-0.526895256883836,0.6044782744860997,-0.0126497875899076,-0.0128513108938932,0.006178137846291,-0.0029287338256835,-0.0043492540717124,-0.0070630311965942,0.0098664946854114,0.0094507178291678,-0.0159574475884437,-0.0065911361016333,0.1449682967744767,0.0525328819222748,211
1733383255050618400,0.0818921012669801,-0.0418669648706912,0.0196129013560712,8.876613129666447,-3.82312299490124,-1.6612871983349322,-0.0009060476440936,0.0028144568204879,-0.0030627232044935,0.2230790600156184,0.5541663762453586,-0.5268792111447168,0.6045938805545907,0.0158172734081745,-0.014231733046472,0.0060477089136838,-0.0069245100021362,0.0056247785687446,-0.0027900338172912,0.0145911620929837,0.0062522515654563,-0.0152986914187669,-0.0047734198160469,0.1325801590401679,0.0444216177895665,212
1733383255090618600,0.0707493604838848,-0.0861859990686178,0.0313103534124791,8.87683232537508,-3.822797708469629,-1.6608637122258545,-0.0026317529845982,0.0031275164801627,0.0068749389611184,0.2231525207823758,0.5541181986912593,-0.5269093868033164,0.6045846127444121,0.0276361163705587,-0.0185722075402736,-0.0043143844231963,-0.0011451840400695,0.0040666610002517,-0.0048289820551872,0.0132775530219078,0.0167905576527118,-0.0552794041514396,0.00160538777709,0.1189518850516527,0.0464515161819756,213
1733383255130618600,0.109688455209136,-0.0955845265328884,0.064156976481527,8.87530263158977,-3.827614753362536,-1.6579470941267906,0.0205847434699535,0.0045175412669777,0.0186925381422042,0.2229591273025402,0.5539768979046783,-0.5269168527255775,0.6047789878814488,0.0133013855665922,-0.0200345478951931,-0.0112892035394907,-0.0065928101539611,-1.7687678337097168e-05,1.0728836059570312e-05,0.0196742843836545,0.0281224884092807,-0.0018885902255773,0.0090991044417023,0.1517655556991696,0.0720937608301639,214
1733383255170618600,0.1484247208386659,-0.0124912327826023,-0.0060895490467548,8.873376047441363,-3.83558938550353,-1.6498006125502287,0.0225478559732437,0.0092812729999423,0.0104231806471943,0.2225698238581418,0.5537752398614344,-0.5267346625028292,0.6052654477520614,0.0511092171072959,0.0042569427751004,-0.0037782900035381,-0.0070751309394836,0.0006763115525245,0.0018520951271057,0.0097322417423129,0.0170060507953166,-0.0024544074147939,0.0060257785953581,0.1495118584882468,0.0677032707862556,215
1733383255210618400,0.0635842911601066,0.0232186707630753,-0.0127225573204457,8.872623183247446,-3.840174375206232,-1.6431674581460654,-0.0284134019166231,0.0127585651353001,0.006798137910664,0.2226190113048069,0.5534052764651993,-0.5268024521271473,0.6055266702794164,0.0460430867969989,0.0112648382782936,0.0076627833768725,-0.0066275000572204,-0.0065089687705039,0.0074479579925537,-0.0005954848602414,0.0049121547490358,-0.0192892223596572,0.0107825323939323,0.1457975141402334,0.1062163951843977,216
1733383255250618400,0.1044113915890455,-0.0521329228192567,0.133540893831104,8.873247452625632,-3.840241302962601,-1.6396438140645622,-0.0039612483233213,0.0406628958880901,0.0100822960957884,0.2230587185286339,0.5529895251841118,-0.5270684545916117,0.6055132739256645,0.050834909081459,0.0236269664019346,-0.0022442424669861,-0.001133382320404,-0.0040877982974052,0.0052167102694511,-0.0093495044857263,-0.0201305076479911,0.0255769243270158,0.0168566964566707,0.1750977698393166,0.1400407772444188,217
1733383255290618400,0.0476128150463104,-0.0505494530200958,-0.0926328371204435,8.873483014947176,-3.842722306123376,-1.632539681147784,0.0138718327507376,-0.0205862075090408,0.0052932114340364,0.2230702437477819,0.5527732505098785,-0.5269516970288958,0.6058080345923267,0.0605501234531402,0.0216493550688028,0.014412697404623,-0.0018649697303771,-0.0068398416042327,0.0034615993499755,-0.0091531565412878,0.0259840600192546,-0.0566939471244812,-0.0097202714532613,0.0642428281340748,0.0741895640656352,218
1733383255330618600,0.2385860532790422,-0.0820727185308933,0.0045911271825432,8.869704080930351,-3.84890654771626,-1.6384845610268413,0.0160547569394111,-0.0028310616035014,0.0254640262573957,0.2224897796377646,0.5529601204455268,-0.5270432299794068,0.6057711864349711,-0.0188810508698225,-0.002394568407908,-0.0009961519390344,-0.008557915687561,-0.0098385736346244,0.0055893659591674,-0.0073878969997167,0.0425214692950248,-0.0104331312090158,-0.0411542728543281,0.1234690702151507,0.0607959756158292,219
1733383255370618600,0.0835509743899106,0.1106342116266489,-0.0479283107362687,8.86717134758234,-3.856960967095196,-1.6332506058961151,0.0167803484946489,0.0025674242060631,0.0065536140464246,0.222132151502974,0.5527490421001983,-0.5270114833081687,0.6061226860168426,0.0227244477719068,0.0104020275175571,-0.0061931111849844,-0.0107234120368957,0.0037406161427497,-0.0050240159034729,-0.01674659922719,0.013284171000123,0.0351215822637081,-0.0374899804592132,0.1232644875537604,0.0921019451141357,220
1733383255410618600,0.1038823992788791,0.0511526796102523,-0.08696516674757,8.867041583722829,-3.855539117598533,-1.6373090875066816,0.0026382573414593,-0.027322007343173,-0.0067035565152764,0.2219275018651597,0.5530453301282898,-0.5268969448040893,0.6060269732889454,0.023384379222989,0.0191404446959495,0.0089853089302778,-0.0047971010208129,0.0020591840147972,-0.0040360763669013,-0.0130618410184979,-0.0072331316769123,0.0566290651947259,-0.0337808579206466,0.1473480315178632,0.0997119817264378,221
1733383255450618600,0.1987982327699661,-0.0186214061006903,0.0834052823089063,8.865649837103486,-3.85609529017657,-1.6435265007168054,0.0139618758112192,-0.0058751855976879,0.0025142622180283,0.2216784583443416,0.5532806692631738,-0.5269506931257762,0.6058565849770103,0.0024284978862851,-0.0005264141364023,-0.0083284340798854,-1.0848045349121094e-05,0.002491109073162,-0.0042458735406398,0.0026642559096217,-0.0132217407226562,0.0137584762394428,-0.0370563343167305,0.1871655165128409,0.1312184422329068,222
1733383255490618400,0.1075245551735162,0.0068567340269684,0.0279249487578868,8.866691455110907,-3.855086989916861,-1.6402704215303063,0.0274598877876997,-0.0043150950223207,-0.0148896062746644,0.2214945267000608,0.5534732872905084,-0.526590769005958,0.6060608186968107,0.01620689406991,-0.0027645879890769,-0.0177796594798564,0.0008237957954406,0.0040114223957061,-0.0022034645080566,0.0241959653794765,-0.009096186608076,-0.0367377852886915,-0.0301209744066,0.1295431294318288,0.1066452881209552,223
1733383255530618400,0.0526969864428043,-0.036162323488295,-0.042661914640665,8.868248036903143,-3.851422622190416,-1.6404618524491783,0.0135810663923621,-0.0101672634482383,-0.0034181175287812,0.2213342458930838,0.5538316157254614,-0.526223165794274,0.6061113036311372,0.0224831663072109,0.005365403369069,-0.011215167120099,-0.0132393240928649,0.0019124001264572,-0.0036404803395271,0.0258680433034896,-0.0043686339631676,-0.0003302548676729,-0.0170422345399856,0.1958143215883523,0.0874335149116814,224
1733383255570618600,0.1081400567233562,-0.0580067832887172,0.015691051737219,8.866672750410437,-3.856063433733582,-1.6380622439615429,0.0216622129082679,0.0113780992105603,0.0212745815515518,0.2210342045620345,0.5537963660860182,-0.5261440058119203,0.6063215737461825,0.0105295674875378,0.0111267799511551,-0.0060684084892272,-0.0084332227706909,-0.0014849007129669,-0.0026546716690063,0.0117962807416915,-0.0138099547475576,0.019733458995819,-0.0096184816211462,0.1745348021943122,0.0558738629132509,225
1733383255610618600,0.1075666407495737,0.0397942502498626,-0.0897111044548451,8.864254583352803,-3.8634836468622087,-1.6336651780463751,0.0142987426370382,-0.0056806476786732,0.0127945179119706,0.2206344113125152,0.553665638102582,-0.5260685327904258,0.6066520231659674,0.037691943347454,0.010945844464004,0.0002457464579492,0.0014110803604125,0.0041482001543045,-0.0054902955889701,0.0001176260411739,0.0023198425769805,-0.0077232877284288,-0.0162189807742834,0.1587762381788343,0.0537397734940052,226
1733383255650618600,0.1212339315742254,-0.0077794018298387,-0.0001613280415534,8.861511422124504,-3.8687323611706494,-1.6361258690714835,0.0153715331107378,-0.0087487250566482,0.0143878553062677,0.2202408072283854,0.5537162977954156,-0.5261344554658531,0.6066916557240439,0.004257290624082,-0.0074187819845974,-0.0109181581065058,-0.0035052895545959,-0.0048183351755142,0.0002554133534431,0.0028153927996754,0.00840550288558,-0.0099093995958566,-0.0153592443093657,0.1830048897020518,0.0832576905317604,227
1733383255690618600,0.1401227564394473,0.0377262118041515,-0.0135258365273475,8.858933096069096,-3.875032922619581,-1.6351809894368052,0.0350976884365081,-0.0133241824805736,0.0071092541329562,0.2197034526368003,0.5538000619379667,-0.5260004975376165,0.6069261889313828,-0.0001387894153594,-0.0126567929983139,-0.0137926405295729,-0.0061193704605102,0.0011843964457511,-0.0002676248550415,0.0109952269122004,0.0103781204670667,-0.0095078330576419,-0.0119611462578177,0.1720069642171263,0.0708265173733234,228
1733383255730618400,0.1435521463662386,0.0536471267744898,-0.0290413855671882,8.859992834255099,-3.872398774723708,-1.6356769562602045,0.0081534748896956,-0.0048099337145686,-0.0254735872149467,0.2194331403221433,0.554194788020874,-0.5256086518721688,0.6070031215638385,0.0118406414985656,0.0019076084718108,-0.0104914531111717,-0.0113282799720764,0.0022642388939857,-5.3338706493377686e-05,0.0058894320391118,-0.00439397059381,0.0274076468855142,-0.0096546681597828,0.1887001056689768,0.0579828178912401,229
1733383255770618400,0.0798293235182762,-0.0509048423290252,-0.0213045077048242,8.864907494303583,-3.8607711730331182,-1.6365306504800914,-0.0355130247771739,0.0141307609155774,-0.0203285291790962,0.2200233940868115,0.554380416737153,-0.5254542735445548,0.6067534813817387,0.0486769527196884,0.0207820702344179,0.0040895538404583,-0.0036664009094238,0.0046215206384658,-0.0006185173988342,-0.0076556731946766,-0.0202833414077758,0.0356505745738744,0.0013777473941445,0.1959076258949935,0.0717453857839107,230
1733383255810618600,0.033486090016365,-0.135778005233407,0.0347568406045436,8.866659306406975,-3.8571518134921785,-1.6355806562788784,-0.0045520071871578,0.0043734489008784,0.0085893608629703,0.2205076062659127,0.5541674608562429,-0.5256327900130404,0.606617684023712,0.0435194745659828,0.0198059678077697,0.0016582873649895,0.0007831454277038,-3.54573130607605e-05,-0.003623604774475,-0.0097334012389183,-0.0154584571719169,-0.0292523979693651,0.0136959766969084,0.1731819262806326,0.1076101876303553,231
1733383255850618600,0.074982468008995,-0.0515384640574455,-0.0019477730669081,8.864069874435662,-3.863879660442471,-1.6337410197615625,0.0229140445590019,-0.0050464221276342,0.0223069842904806,0.2201266831802182,0.5540829218463914,-0.5256326912875452,0.6068333933088443,0.0305554736405611,-0.0065758377313613,-0.0084551339969038,-0.002959132194519,-0.0015664771199226,-0.0052555203437805,-0.0022563459351658,0.0034919567406177,-0.013756138151884,0.0066467779688537,0.1584297628287226,0.0822286397449672,232
1733383255890618600,0.1350672266155481,0.0277659588038921,-0.0421884519100189,8.86144478662908,-3.868813609713316,-1.6362964033327996,-0.0033775300253182,-0.0058361729606986,0.0054082931019365,0.219786293888195,0.5541069168095063,-0.525731319623917,0.6068493388808914,0.0151749197393655,-0.0124833146110177,-0.013267864473164,-0.00611013174057,-0.0009809508919715,-0.0016228482127189,0.0002196587156504,0.0077066337689757,0.0120370592743158,-0.0016195285134017,0.2326910038910806,0.1560290583625435,233
1733383255930618600,0.0585696778684854,0.0354325479090213,0.0129940677382051,8.861925848144292,-3.869746214388311,-1.63147439000383,-0.0021974833216518,0.0071222363039851,-0.0073429220356047,0.2198514704743632,0.5539538412460024,-0.5256588120677074,0.6070281981730061,0.0371308177709579,0.0040706279687583,-0.0058445697650313,-0.004463791847229,0.0020928606390953,0.0102856233716011,0.0030583522748202,-0.0141458446159958,0.0075339026361703,0.0067309313453733,0.1446400877334177,0.0965505950860679,234
1733383255970618400,0.1692167489767074,-0.1319347738087177,-0.0312752820990979,8.861411468881368,-3.8695240960702297,-1.6347900904230772,-0.0234048180282115,0.002832559403032,0.0170198064297437,0.2199909600515396,0.5538745164663057,-0.5259031440735105,0.6068383644158578,0.0633549690246582,0.0268489643931388,-0.0013500194763764,-0.0028766989707946,0.0016670376062393,0.0030732750892639,-0.00264258752577,0.0154481818899512,-0.035177696365118,-0.0322341173887252,0.1469850434243678,0.0274891876891255,235
1733383256010618400,0.0707592973560094,0.0355719563797116,0.0821416921138763,8.859463257423043,-3.875123231251538,-1.632088137988001,0.0131627526134252,0.0105613321065902,0.0116247124969959,0.2199713331410373,0.5535361237162473,-0.526128399952447,0.6069590298266059,0.0154404370114207,4.723051097244024e-05,-0.0136285237967967,-0.0086947679519653,-0.0144046694040298,0.0051939487457275,-0.0087400618940591,0.0103358272463083,-0.0112298345446586,-0.0354429930448532,0.1561027811858803,0.0970404244296252,236
