frame,pose_x,pose_y,pose_z,ori_x,ori_y,ori_z,ori_w,phone_acc_x,phone_acc_y,phone_acc_z,phone_gravity_x,phone_gravity_y,phone_gravity_z,phone_gyro_x,phone_gyro_y,phone_gyro_z,phone_ori_w,phone_ori_x,phone_ori_y,phone_ori_z,watch_gyro_x,watch_gyro_y,watch_gyro_z,watch_acc_x,watch_acc_y,watch_acc_z,headphone_gyro_x,headphone_gyro_y,headphone_gyro_z,headphone_acc_x,headphone_acc_y,headphone_acc_z
0,-0.03093,0.204795,0.344326,0.140993,0.075154,-0.685028,0.710781,-1.2055868458073586,23.7952431550622,-9.826863935989142,-0.1829004977458156,9.53862859340012,-2.269690022085607,-2.247986555099488,-0.8495107293128967,0.4511411786079407,-0.3493754303897808,-0.4297362535462823,-0.6565430192269829,-0.5120691314798661,1.0794705152511597,1.250032663345337,-1.7608985900878906,-1.964405298233032,1.4431438446044922,-1.2493637800216677,0.0960031002759933,0.4489392638206482,0.9627611821971832,-0.9228256940841676,0.3215251063156872,-0.2364231213578022
1,-0.032473,0.195263,0.351199,0.150369,0.086265,-0.683005,0.709543,0.7586999143324792,7.039187858659028,-9.32633199663162,-0.05076432418006,9.7467096183002,-1.0814124038018285,-3.4891669750213623,-1.1474311351776123,0.4069537222385406,-0.3826191569243612,-0.4242342419087096,-0.612504689636147,-0.5463202750714903,1.9697554111480715,0.6652615070343018,-2.9608376026153564,-0.9670599699020386,1.2933683395385742,-0.3057827353477478,-0.0216426309198141,0.2276616096496582,1.1565993814069775,-0.973989486694336,0.4139835001846775,0.7651715945646166
2,-0.033949,0.168453,0.349972,0.145589,0.088989,-0.683578,0.709652,0.4518003128817304,-7.930421243345737,-8.174761330106854,-0.0265303822770831,9.800593184179068,0.3436266096170991,-3.548198699951172,0.1021175980567932,-0.1851172745227813,-0.4193363099997917,-0.4033619693451185,-0.5654900886647642,-0.5845316911362811,2.699451446533203,1.1380823850631714,-3.119908809661865,0.167405366897583,0.596989631652832,0.8841534852981567,-0.05348527058959,0.0658231005072593,0.8034203689381479,-0.3723217248916626,0.4855307695806026,1.721182279588282
3,-0.035999,0.079938,0.328366,0.082853,0.049777,-0.688479,0.718786,0.1494207644050009,-15.771410637569426,-4.370768859872221,-0.1197924549284856,9.68564812361598,1.5310956149317323,-2.6341888904571533,0.7804079055786133,-0.1708244085311889,-0.4378139333014931,-0.3674495132816816,-0.5356460638882307,-0.6215972159568826,2.9179470539093018,0.6966091394424438,-2.344198703765869,1.2544639110565186,0.4203310012817383,1.1018460988998413,-0.0510010011494159,-0.0377110764384269,-0.0151802766453998,0.2168437987565994,0.0787031507662497,0.9770197169132532
4,-0.036282,0.035284,0.314027,0.03948,0.013242,-0.692203,0.720501,1.3771579758904873,-18.13004297169447,-0.8616352420195936,-0.280314577793423,9.494458027762176,2.438666240304708,-1.9991878271102903,0.5051897764205933,-0.2831245362758636,-0.4510122576195352,-0.3348424411619961,-0.5133645527132049,-0.6487876477780309,1.862259864807129,0.2698221802711487,-1.4081865549087524,1.6472728252410889,-0.731441855430603,0.9258265495300292,-0.0801422372460365,0.1653774529695511,-1.072049532172829,0.3226604461669922,-0.34654019550886,-0.018029622211511
5,-0.037978,0.000681,0.303258,0.00042,-0.01958,-0.689821,0.723715,0.9772189658124,-17.895488365888596,0.4166325899213552,-0.3801649633435532,9.340556921339036,2.963082036335766,-0.9257115125656128,-0.0089318752288818,-0.0302411578595638,-0.4602783199463052,-0.3169453240751389,-0.498468178162725,-0.6627360001946903,0.6310844421386719,0.705156683921814,-0.2328728288412094,1.3688437938690186,-0.6219421625137329,0.7295817732810974,0.0170985925942659,0.2234447747468948,-0.5382699511973187,0.1595853269100189,0.1172061008302494,-0.4734615250697359
6,-0.039992,-0.021968,0.29642,-0.02604,-0.040316,-0.685929,0.726084,1.1998819852292535,-15.96555139992237,1.6740250993549823,-0.3626595191281289,9.282885069093108,3.141163352030516,0.1632978916168213,0.3466658592224121,0.0730350837111473,-0.4603740738853766,-0.3113115972239587,-0.4928796265064191,-0.6694852141716051,-0.1002035737037658,0.8837411999702454,0.8894506096839905,1.2968497276306152,-0.5944688320159912,0.8378788828849792,0.06378685683012,0.0976912453770637,-0.4245225029209628,-0.0872285366058349,-0.0679953171019675,-0.5945801597012207
7,-0.040892,-0.034932,0.292888,-0.038552,-0.052216,-0.686437,0.724287,0.8949073970243334,-11.420966188323495,1.4395435587853191,-0.4670935974730178,9.418066861999034,2.6929984365090727,2.045161247253418,0.4707597494125366,-0.264620691537857,-0.4511261366271955,-0.3152964573687797,-0.5131115230089964,-0.6586273616180539,-1.7861807346343994,0.7654687166213989,1.9706302881240845,0.9900924563407898,-0.506334662437439,1.0509172677993774,0.0038683367893099,0.2418075650930404,-0.3791775597414001,-0.1032440587878227,-0.4581373704161495,-0.1871460080947727
8,-0.042889,-0.044675,0.294026,-0.044704,-0.049777,-0.688277,0.722357,-0.5447044412242248,-0.5690630392700433,2.2358254541456697,-0.4979702356433496,9.639346391168235,1.7336111146591602,3.009126901626587,0.6087673306465149,0.300750195980072,-0.4268522031887417,-0.3290398807384987,-0.5507660006450841,-0.637327804456044,-2.7540361881256104,-0.8672307133674622,2.617478370666504,0.5366960167884827,-0.1129959523677825,0.2552343606948852,-0.1934168636798858,0.2124775052070617,0.3422623355265706,0.5605238080024719,-0.0703549726051278,1.938937287893146
9,-0.043398,-0.047519,0.293433,-0.046403,-0.052129,-0.690276,0.720173,-0.0740987805096432,8.08840231255889,-1.1027490602105856,-0.4853960372850298,9.784760824275017,0.4395552368799224,3.295481443405152,0.2073825448751449,-0.1075914576649665,-0.3993387719557284,-0.3528146095597811,-0.5942312437261061,-0.6024446248620035,-2.91633677482605,-0.3675885498523712,2.05303168296814,-1.027134656906128,0.4803827404975891,-0.1983218193054199,-0.1124539002776146,0.1667209267616272,0.8327014084801078,1.1104137897491455,0.0158614958086342,0.5631607929563149
10,-0.043894,-0.050491,0.293786,-0.049727,-0.056175,-0.692135,0.717858,0.4559895812651142,10.947178463506695,-3.1423101839780805,-0.6020355902737006,9.768352125787734,-0.6222725783448666,2.072140693664551,0.3518884778022766,-0.3300890028476715,-0.3787879394335061,-0.3655153493061177,-0.6309719510689219,-0.5699057323047124,-1.8213520050048828,-1.2258292436599731,1.1046645641326904,-0.5564703941345215,0.6084742546081543,-0.4595702588558197,-0.1462143808603286,0.1146054193377494,0.605313589031063,0.7225021123886108,-0.0301890486318152,-0.7090096354249864
11,-0.044496,-0.054632,0.292486,-0.055461,-0.061084,-0.69305,0.716153,-1.097885107436031,7.5247256425023075,-2.869298714005947,-0.6286336378093809,9.711282915610074,-1.2108697546463458,0.948273777961731,0.0431747175753116,0.1448501646518707,-0.3666355116996175,-0.3739028177211968,-0.6495643602841836,-0.5512180085524082,-0.93612539768219,-1.1756919622421265,0.3385021984577179,-0.6363892555236816,0.5728104114532471,-0.5605567693710327,-0.2139258682727813,0.1161270216107368,-0.1899188520752824,0.4555055499076843,-0.4329079443525522,-0.3069577248461544
12,-0.045105,-0.059756,0.289701,-0.063884,-0.068337,-0.692219,0.715599,0.2539701579589397,3.640894496399164,-2.096802914033085,-0.5765888316649943,9.69271499326229,-1.3744897795945406,-0.0165538825094699,0.2700033783912658,-0.0003473816323094,-0.3603586076452844,-0.3767728787481149,-0.6543100769103174,-0.5477793941618686,0.2056785821914672,-0.502103865146637,0.1362215131521225,-0.3372971415519714,0.2809841632843017,-0.3056331574916839,-0.2197121232748031,0.1399265825748443,-0.1344546568083111,0.3635687530040741,-0.0026025374772347,-0.0230945854423916
13,-0.03966,-0.050256,0.281041,-0.086489,-0.090564,-0.687271,0.715525,-0.4343911321150138,1.4180173711538313,0.3844016145326197,-0.545884554386884,9.695117378228902,-1.3700648027591409,0.0827821195125579,0.0566026493906974,0.1692962944507599,-0.3574171496289833,-0.3751536064918649,-0.6550676567317483,-0.5499082074988895,0.1965876221656799,-0.1115832775831222,0.1959218680858612,-0.1913848519325256,0.1721184849739074,-0.2352511286735534,-0.131008505821228,0.0987466797232627,-0.237821115054842,0.2573283612728119,-0.0215307405090192,-0.1260600639558863
14,-0.035439,-0.007262,0.277717,-0.055938,-0.085815,-0.693834,0.712812,0.251417112475261,-0.0441255574524402,0.6008534312844276,-0.4776693154904991,9.688867670184374,-1.4380759704507886,0.2547234296798706,-0.0289638843387365,0.1784865409135818,-0.3542742280377927,-0.3788431374131468,-0.6555908354899734,-0.548788032887843,0.0189611669629812,0.1349381357431411,0.3121202886104584,-0.057408332824707,0.0654194951057434,-0.0921504497528076,-0.0397207215428352,0.0882035866379737,-0.0485262218304909,0.1481926441192627,0.1078365985310636,-0.102937610975746
15,-0.031823,0.060665,0.289413,0.014664,-0.051748,-0.706256,0.70591,0.2164008537495508,-0.8852274222701787,0.6108091542400419,-0.4128749544208869,9.671498602232337,-1.569088368717581,0.4132522046566009,0.050176203250885,0.13046495616436,-0.3498184416846531,-0.3833688052432467,-0.658049848488533,-0.5455509283089663,-0.2692839503288269,-0.018101317808032,0.3552191257476806,0.0376718044281005,-0.0517811775207519,0.0462584495544433,-0.0083757517859339,0.0386018194258213,0.0137860811989987,0.1045421734452247,0.0895674673336092,-0.1300676099636591
16,-0.031256,0.131972,0.313375,0.08879,-0.009602,-0.706486,0.70207,0.0607492503972724,-0.5874573586165904,0.8650454888544976,-0.3909994784276932,9.636942252635956,-1.7739441479608415,0.6625185608863831,0.0724276676774025,-0.0282619558274745,-0.3443412652499518,-0.386853406776568,-0.6639204950945735,-0.5394286182976971,-0.3956866264343261,-0.2190975397825241,0.3835379779338836,0.0567461252212524,-0.0998081564903259,0.1343207955360412,-0.0418387576937675,0.0205804798752069,-0.0340569761063437,0.1461727023124694,0.1189154437650926,0.0141107899585855
17,-0.032085,0.186403,0.34029,0.145064,0.039161,-0.701385,0.696766,-1.9530194431290029,4.99193091969192,1.1033156080521642,-0.3932982568893581,9.576037409818172,-2.077307209315896,0.9035678505897522,-0.041084911674261,-0.0265521090477705,-0.3382590221153621,-0.3921666960445883,-0.6723975564052838,-0.5288361066364627,-0.7801735997200012,-0.2077993005514145,0.4687231779098511,-0.0898681879043579,-0.0283361673355102,-0.0295428931713104,-0.0241261236369609,-0.1422845274209976,-0.6511191719923168,0.1013620719313621,-0.1668589703368023,-0.1458387229334563
18,-0.032158,0.215351,0.35917,0.167204,0.079463,-0.694644,0.695124,-0.0406151016460731,23.232334546768666,-2.296592642058432,-0.4488497559804469,9.480392093008756,-2.4680191760391,0.5950458645820618,-0.274077296257019,-0.0997728556394577,-0.33110910835738,-0.3962847055451057,-0.6846841503549301,-0.5143276706595548,0.550531804561615,2.1671347618103027,-0.1451652199029922,-1.387222409248352,0.7544664740562439,-0.9074514508247375,0.0477188453078269,0.2200587540864944,0.381503007014282,-0.4220401048660278,0.3877745250318199,-0.26721865711594
19,-0.028903,0.198767,0.359796,0.16406,0.082006,-0.697284,0.692932,-1.2705772774383426,23.735909507083893,-16.422707138890026,-0.3336875090027227,9.6283363368541,-1.8314347984209656,-3.7948389053344727,-1.455689787864685,1.1192796230316162,-0.3599934187001953,-0.4125916749195251,-0.6504961943713751,-0.5263339841770394,1.9218289852142327,1.0523147583007812,-1.9334555864334104,-1.5922086238861084,1.5079206228256226,-1.7026853561401367,0.0433329455554485,-0.3808009326457977,1.699975825430453,-0.7641074061393738,0.1906726295846514,-0.0777498229636345
20,-0.027614,0.160512,0.348227,0.149062,0.063411,-0.701314,0.694203,1.7203547427229582,2.2907155667185783,-12.97704879886508,-0.062071050752676,9.806288180950284,-0.0571345989974914,-4.845895290374756,-1.514187216758728,0.4137253165245056,-0.4349408926575757,-0.4339406972738264,-0.5608997460517249,-0.554899540427203,3.322089672088623,0.4114164412021637,-3.7710816860198975,-0.868672251701355,1.5474798679351809,-0.0254824161529541,-0.0771078765392303,-0.037557166069746,0.5405756343238055,-0.3331588804721832,-0.1126411949343513,1.5000002194441855
21,-0.028651,0.111264,0.332946,0.117282,0.0375,-0.701488,0.701963,0.0328411431763321,-17.93404109164476,-4.8238458050936455,0.0702592617122689,9.645165306580068,1.7709392670564352,-4.408058166503906,-0.3102302849292755,0.2747805416584015,-0.505557064828579,-0.4246850749693336,-0.4789048072394985,-0.5785367762720397,2.450406074523926,0.8314911723136902,-3.814657688140869,0.3617758750915527,0.5332890748977661,1.1308763027191162,-0.1170359104871749,-0.0736542865633964,0.017254905803746,0.4903596341609955,0.2411678134005516,1.1550913149315862
22,-0.030714,0.060106,0.319124,0.079247,0.009944,-0.697808,0.711818,-0.3988969536792486,-24.138680160391328,2.549756379005313,0.0783732977573759,9.31333515241444,3.0701831054002047,-2.078011274337769,0.8998678922653198,-0.01099912263453,-0.5466731467926648,-0.3990284783188558,-0.4292324520977827,-0.5980670411544119,3.300254821777344,-0.167644515633583,-1.8079367876052856,2.010438680648804,-0.3344201445579529,1.6131479740142822,-0.1407548636198043,-0.0748571678996086,-1.4614192905068395,0.432746022939682,-0.0680206890052417,-0.4711003488963469
23,-0.031714,0.015923,0.308946,0.041995,-0.02345,-0.694251,0.718124,0.370634187801741,-24.956713868832587,0.2125470643982291,0.0266534287014394,9.2230697750777,3.332368353192508,0.1307553648948669,-0.0277234129607677,0.1474008411169052,-0.5667055431825591,-0.39900269633281,-0.4133924862200313,-0.5905492926223083,0.2484271228313446,0.592614471912384,-0.1060564294457435,1.9099655151367188,-0.9322727918624878,1.2859165668487549,-0.0764385312795639,0.2734081447124481,-1.2525129206985235,0.2147952616214752,-0.2162796567889861,-0.4593848862592131
24,-0.0331,-0.036135,0.299584,-0.006276,-0.060918,-0.692149,0.719152,1.2927534534111618,-18.80399904859065,0.4747480942815542,0.1136903751937206,9.278968187910316,3.17147110427171,0.8942599892616272,-0.1746527403593063,0.1286322921514511,-0.5801324683898056,-0.419772440512374,-0.4026053496034454,-0.5702161654895073,-0.7001107335090637,0.8148110508918762,1.3044335842132568,1.7938443422317505,-0.861696720123291,0.9430554509162904,-0.0677330568432807,0.1583172529935836,-0.4950860219765454,-0.0545434094965457,0.1390509442231617,-0.5208293523790315
25,-0.032216,-0.04754,0.300333,-0.011945,-0.061373,-0.696452,0.714874,2.02686998449862,-10.933646781760451,-0.6574532703846693,0.1030715395537205,9.474829782706498,2.5273247669667005,2.4138104915618896,0.204267606139183,-0.3011390268802643,-0.5824248649530732,-0.4519100512932285,-0.4085579536755415,-0.5381812074770429,-2.2562575340271,0.6770360469818115,2.0334713459014893,1.1111326217651367,-0.5220802426338196,1.0177751779556274,-0.087959349155426,0.1349229216575622,0.4751553964408114,-0.1962935477495193,0.4050749847270548,0.0275084129794035
26,-0.032328,-0.053605,0.301506,-0.012407,-0.060795,-0.697542,0.713853,0.1242428675992414,0.7505494872331618,-1.922218938934803,-0.1535718379361554,9.678144031596185,1.574910060608387,2.697310447692871,0.5448347926139832,-0.6653629541397095,-0.5758213295632264,-0.4829118803945966,-0.4318542025183104,-0.4987263443156322,-2.804805517196656,-0.8418287038803101,2.534841299057007,0.5710955858230591,-0.0386935472488403,0.544341504573822,-0.1306053251028061,-0.0825424119830131,0.2351080567038617,0.1562665998935699,0.0774130378904752,1.3904840520620343
27,-0.032968,-0.056877,0.300905,-0.017094,-0.066076,-0.696009,0.714782,1.2775887636356056,9.163926096713542,-2.029772135680914,-0.3755732151065021,9.79022025872469,0.4253577847013249,2.8601629734039307,0.1632403880357742,-0.5324082970619202,-0.5623097216007152,-0.5213915302377203,-0.4543827240298391,-0.4533156076541985,-2.662689447402954,-0.6017589569091797,1.8244295120239256,-0.7843478918075562,0.779250979423523,-0.1704059839248657,-0.1211626008152961,0.2060286551713943,0.3427695909289643,0.5646800994873047,-0.1687610228321515,0.9820513544049112
28,-0.033263,-0.058181,0.300837,-0.02045,-0.072366,-0.695442,0.714637,-1.183606703863293,11.482698714137076,-2.2937106568813324,-0.5436600832704455,9.781102886289355,-0.4525880657259374,1.835939884185791,0.3114993870258331,-0.2233113497495651,-0.5523522235454903,-0.5534765059362091,-0.4655527104012559,-0.4145254984534145,-1.7451305389404297,-1.0035117864608765,1.1656224727630615,-0.7750238180160522,0.6613890528678894,-0.4810574352741241,-0.1592162102460861,0.1130997911095619,0.3550845903618261,0.588245689868927,-0.3591312719367444,0.1852057424808852
29,-0.034273,-0.060705,0.298839,-0.023,-0.07503,-0.695779,0.713956,-1.534434696226567,8.084507058686018,-3.3994203204631805,-0.4805852760024368,9.74152140200734,-1.0208740562088787,0.7629237174987793,0.2035845071077346,0.3950869739055633,-0.5450319186409266,-0.5830741485828755,-0.460515611868159,-0.3884457533206944,-0.734612762928009,-0.9967719316482544,0.4366336166858673,-0.5624058246612549,0.8325298428535461,-0.698198676109314,-0.2540242671966553,0.1399231255054474,-0.4108410739731043,0.4185474514961242,-0.3894443944728001,-0.2249942388433962
30,-0.03264,-0.061512,0.297628,-0.027746,-0.079651,-0.693465,0.715536,0.896901420385763,4.6139814039081335,-0.9112753251098096,-0.3550636206390336,9.74209949415624,-1.065737134155631,-0.1149994432926178,0.0726051107048988,0.1396949142217636,-0.5504686220015331,-0.5981776259285668,-0.4433068889991501,-0.3776860193893385,0.312806636095047,-0.3443586230278015,0.2219763696193695,-0.4967725276947021,0.2328693270683288,-0.352656215429306,-0.275615394115448,0.1791598945856094,-0.1123649444093927,0.3664968609809875,0.1295945216923486,0.2225897349849343
31,-0.030866,-0.059015,0.295419,-0.032406,-0.087374,-0.693039,0.714851,0.4203090864770114,2.517566174018383,1.187799917769432,-0.3601548062982037,9.733862996208668,-1.1369232055563478,0.4384095966815948,-0.0063611259683966,-0.128766655921936,-0.5574447180703884,-0.6108142130368399,-0.4299685430707151,-0.3623375210974442,-0.4265108704566955,-0.0355607867240905,0.1392598450183868,-0.165040373802185,0.1155815720558166,-0.0956523716449737,-0.1823963373899459,0.0150116579607129,0.1117023979805875,0.1910452544689178,0.264298458820302,-0.3068044705132022
32,-0.029117,-0.044231,0.292751,-0.030268,-0.091427,-0.692421,0.715037,0.0758724025860428,0.9299246421307324,0.2250714687980711,-0.3940016924509778,9.71065513910055,-1.3108420678094028,0.3557173311710357,-0.1201606169342994,0.0195017550140619,-0.5615279972177615,-0.6259023968654104,-0.4184262570189069,-0.3432956382540138,-0.2813680469989776,0.1042789220809936,0.0392015613615512,-0.1328737735748291,0.0723806023597717,-0.171378344297409,-0.0930965393781662,0.0816554129123687,-0.1561286462794989,-0.0978539735078811,-0.0539170525899389,-0.4034237469213083
33,-0.025502,-0.005782,0.293513,-0.003183,-0.082847,-0.694466,0.714733,0.1993205761436373,-0.059163552108407,0.1274924074470996,-0.3736485306542366,9.702708564010262,-1.374123576630652,0.0312080681324005,0.0086351642385125,0.0525783188641071,-0.5666270255315353,-0.6373568175651216,-0.4047679444005522,-0.329959101381739,0.1092045158147811,-0.1031855270266532,0.0592232756316661,0.0142545700073242,0.0034745335578918,-0.0835587680339813,-0.0474119745194911,0.0721735060214996,0.0732293452979298,-0.1890319883823394,0.0841323636075947,-0.2332801106243394
34,-0.022759,0.119072,0.31524,0.115836,-0.03863,-0.701439,0.702192,0.4575398794470354,-0.1173182194352149,0.4796599778510629,-0.3830202066441998,9.696219201990962,-1.4166903603337704,0.2516508102416992,0.0342058539390563,-0.1446298360824585,-0.5714380823018307,-0.6458822814351209,-0.3937857111296745,-0.3181625539839722,-0.2259740084409713,-0.1840388774871826,0.0608167722821235,0.0076050162315368,-0.0754520297050476,0.0885442197322845,-0.0543054267764091,-0.0038765273056924,0.0746760552412131,-0.1211091428995132,0.1731669479072093,0.0143400595366605
35,-0.02426,0.174487,0.336158,0.16333,0.016574,-0.693011,0.701987,-0.1988512781314551,1.4124480465888976,0.3006557020924985,-0.4362110044859349,9.676298111468553,-1.5327714391894638,0.5159287452697754,-0.0914980098605156,-0.1843681931495666,-0.5724994305372004,-0.6533654295961526,-0.3889257154183784,-0.3067489785418013,-0.5275117754936218,-0.1540386974811554,-0.0019377511925995,-0.0564140677452087,0.048993706703186,-0.0281065702438354,0.0045951548963785,-0.0227933246642351,-0.364416007406637,-0.1501275151968002,-0.1287882285444531,-0.3141722593348473
36,-0.026502,0.211182,0.354965,0.193367,0.067629,-0.681262,0.702793,-1.3363302909396588,9.05829714602828,-0.8936993364088237,-0.4364266565306112,9.644310735577344,-1.722565404509753,0.340843141078949,-0.1580935567617416,0.1010047867894172,-0.5718154772518526,-0.6664173547240401,-0.3790966886425578,-0.2918918374656991,-0.2793456315994262,0.4787463247776031,-0.2868736684322357,-0.4194550514221191,0.3369770646095276,-0.4262064695358276,0.0602032616734504,0.0606645606458187,-0.3790771681068465,-0.6587712168693542,-0.2093579312344081,0.1019372382941655
37,-0.028842,0.227162,0.363898,0.203368,0.086694,-0.669585,0.709071,-1.2936993559591472,20.698008961129187,-4.733368246310949,-0.4783093304270878,9.660319036570192,-1.618598834078759,-1.2111220359802246,-0.6892106533050537,0.0774418115615844,-0.5835340538609373,-0.6722516136202246,-0.3613908440856834,-0.2774212385140443,1.3986152410507202,1.9654209613800049,-1.0100743770599363,-1.3534153699874878,1.0125553607940674,-1.186966061592102,0.1629542261362075,0.0960277691483497,0.6743351393416523,-1.0703458786010742,0.0034183011355518,0.2078034683340228
38,-0.030412,0.221068,0.36147,0.195446,0.076101,-0.659751,0.721622,0.2285269064815714,17.062556363523004,-6.854706905055045,-0.3199555554440245,9.774498373457789,-0.7260841043446212,-2.973031520843506,-1.8141382932662964,0.8356889486312866,-0.6248307639732312,-0.6630882695223332,-0.3119838685875144,-0.2693818214192137,1.9368292093276973,0.7930259704589844,-2.3522088527679443,-1.3166637420654297,1.285088300704956,-0.9486029148101808,0.1408515274524688,-0.1010084673762321,1.259210957032442,-1.4213634729385376,0.6416597081210463,0.634558351683244
39,-0.027903,0.151125,0.33859,0.144227,0.047966,-0.665628,0.730641,0.7612247566349803,-1.2388181573450563,-8.734497738105059,-0.0526907028324902,9.78462229258716,0.6548153961617499,-4.002254486083984,-1.1818091869354248,0.370410680770874,-0.6817114076823704,-0.6362858133256958,-0.2485036589182342,-0.2620226595045044,2.460884094238281,0.0723096430301666,-3.291525363922119,-0.334778368473053,0.6943548321723938,0.4594600200653076,0.1190421655774116,0.0169356241822242,0.0547924197855172,-0.9675205945968628,0.161188980142679,1.4777163453131914
40,-0.024026,0.100987,0.325358,0.108796,0.029027,-0.680981,0.723593,-1.1338168370388448,-14.76098038009405,-4.9899780320584775,-0.0151004597247054,9.53294061089158,2.3006910172879693,-4.139801502227783,0.8943564891815186,0.1375178694725036,-0.7366042037525107,-0.5796382546046349,-0.2161409175287568,-0.2733435863464394,3.9994306564331055,0.0675209090113639,-3.0125179290771484,0.6831720471382141,0.3728449642658233,1.0401430130004885,-0.0549075938761234,-0.0002259081229567,-0.3797359608091413,-0.5033103823661804,0.0600338869358412,0.2739790728952735
41,-0.020183,0.054702,0.312918,0.063959,-0.000418,-0.690431,0.720565,1.6876523504301906,-19.17656628681421,-0.2078098067432641,-0.1659876308623701,9.145908793985845,3.534852288737893,-2.1955811977386475,0.6700698733329773,-0.4236469566822052,-0.773280898766844,-0.5265335529700762,-0.2062404028559416,-0.286816953835843,2.618948459625244,-1.2754627466201782,-1.4979724884033203,1.8313751220703125,-0.4386228322982788,1.225849151611328,-0.1415094286203384,0.2199336737394333,-1.0646529191154983,-0.3761805295944214,-0.2368136550453491,-0.2879067682217806
42,-0.016923,0.018756,0.304136,0.024026,-0.021329,-0.694625,0.718655,2.0114130337782203,-22.22040791325569,0.5010825589776039,-0.4750836829114705,9.042423869591952,3.765534729285538,0.6147889494895935,0.0827499628067016,-1.0376759767532349,-0.7843667084985452,-0.5128837800608919,-0.2120410186737099,-0.2770518297470388,-0.9016246795654296,0.366325169801712,-0.0288267564028501,1.655884027481079,-0.8366978764533997,1.2586332559585571,-0.1476245522499084,0.2565276324748993,-0.7357363143090159,-0.6940312385559082,0.0840925430538598,-0.9959806571666152
43,-0.013253,-0.00535,0.299945,0.008532,-0.034334,-0.700686,0.712592,1.038048916763067,-19.117160158121585,-1.6053142589613794,-0.8186801896512508,9.178230516397951,3.355625017878413,1.4630043506622314,0.4508290588855743,-0.4577364921569824,-0.7765358883222333,-0.5252597441579465,-0.2302453841819083,-0.2609237294330989,-1.1176879405975342,1.1171566247940063,1.2733948230743408,1.6981266736984253,-0.4640961587429046,0.7369235754013062,-0.1028778478503227,0.2443339079618454,-0.4907384212262928,-0.7198789715766907,0.13125386060616,0.0623447485609445
44,-0.00625,-0.024312,0.296146,-0.00193,-0.042582,-0.714101,0.698744,-0.2784966964501887,-11.813341704344747,-2.2173893414840102,-0.8880776971347629,9.3860695492357,2.698773220518232,1.865206718444824,0.8648601174354553,0.5925618410110474,-0.7546413692376079,-0.5478694367819545,-0.2494793236599112,-0.2609892921774727,-1.5416293144226074,0.758479118347168,2.095397710800171,1.160569190979004,-0.2128679156303405,0.7537776827812195,-0.1094524562358856,0.3347305059432983,-0.2390800838736817,-0.5571056008338928,-0.1774131341096013,0.5540981463829056
45,-0.004412,-0.027133,0.295973,0.001763,-0.041609,-0.717632,0.695176,-0.3149151135914027,0.2447790627002715,-0.3013677958846092,-0.6209184603221715,9.61214858764112,1.8415875052534043,2.691426992416382,0.553756058216095,0.8090349435806274,-0.7233233208891715,-0.5827142693512541,-0.2579714145567693,-0.2658913951320572,-2.6118855476379395,-0.4332067966461181,2.5377914905548096,0.2684181332588196,0.0293280184268951,0.2623429894447326,-0.1707883328199386,0.4011193513870239,0.2455127472696825,-0.2413788735866546,-0.2743486368600279,1.286152009319514
46,-0.003889,-0.026793,0.296802,0.00522,-0.033956,-0.717322,0.695894,-0.0788900333741679,9.143463154399395,-1.1706805137295275,-0.4861413757596164,9.773871181470156,0.6367736896451562,2.982186317443848,1.036508321762085,0.1603545844554901,-0.6838226818054814,-0.6281267617669596,-0.2701672622651296,-0.2546622746223752,-1.7236270904541016,0.8643611073493958,1.6627395153045654,-1.4185783863067627,0.5815252065658569,-0.069828987121582,-0.052595630288124,0.5097611546516418,1.2361096290387212,-0.1101573854684829,0.1655429923674091,0.2428984731180593
47,-0.004373,-0.02454,0.297774,0.003062,-0.020919,-0.709725,0.704162,-0.4267055095158517,11.20363276643157,-2.8004478806197644,-0.3768485688045621,9.796808404943349,-0.2256732340835034,1.3399182558059692,0.2279376983642578,0.5234586596488953,-0.6551211521584358,-0.6603000175474745,-0.2747908657999684,-0.2435368399328026,-1.4149054288864136,-0.2763912081718445,1.0877740383148191,-0.5594775676727295,0.3604705929756164,-0.7742685079574585,-0.1688650846481323,0.090073175728321,0.6726808693286032,-0.2397816479206085,0.0302608283765264,-0.158891206328012
48,-0.006833,-0.023967,0.299028,-0.003941,-0.010162,-0.698131,0.715887,-0.510961636500433,8.605838624966145,-1.034645830321312,-0.1866490183580666,9.790009830844404,-0.5396908143132925,0.4769189357757568,0.3205785751342773,0.4669216573238373,-0.6464068006148718,-0.6781833809588456,-0.2599689894734215,-0.2337557596896438,-0.8140985369682312,-0.3736094534397125,0.4090476632118225,-0.5996013283729553,0.4862303137779236,-0.6454976797103882,-0.1886831820011139,0.1478923559188842,0.1127925678374711,-0.0092990044504404,-0.1095787660232745,0.0387412568984786
49,-0.009331,-0.023427,0.298988,-0.01154,0.005522,-0.687836,0.725754,1.0836983227819204,4.727244210472703,-0.6736789404552429,0.056091474019573,9.782364869049191,-0.6874247033435851,0.2149272263050079,-0.1561275422573089,0.640766441822052,-0.6425341988114,-0.6906627064742085,-0.2409023279210977,-0.2282559228538171,-0.1867778748273849,-0.2284572720527649,0.0306526143103837,-0.308967113494873,0.3200752139091491,-0.3773189783096313,-0.178005963563919,0.0669712051749229,-0.10669860747708,-0.0800046846270561,0.2082873063282109,-0.2839074877188541
50,-0.011284,-0.023733,0.299885,-0.012326,0.010574,-0.684272,0.729046,1.2516389143429696,2.420173136758804,-1.4623872587561606,0.2016413107087835,9.78322353170514,-0.6467552046291529,-0.4204457402229309,-0.036811277270317,0.1312843263149261,-0.6472556674423987,-0.6961282309119384,-0.2199564118196459,-0.2192827030059276,0.3141248822212219,-0.0643640458583831,0.0713080316781997,-0.1105837821960449,0.0361475944519043,-0.2274348735809326,-0.1788918375968933,0.1373891234397888,-0.4073518436178565,-0.0985238775610923,0.0257633457106305,-0.1213330354339908
51,-0.013018,-0.022881,0.298934,-0.026821,0.023157,-0.676841,0.735276,0.8036281664699315,1.4817179821699855,-0.2894143232405186,0.1805383534580469,9.793924373939634,-0.4656565504072233,-0.4877590537071228,0.6402984857559204,-0.4338347911834717,-0.6569937584580965,-0.6929329320853308,-0.2087721914266369,-0.2112281206392521,0.2200015932321548,-0.0572643280029296,0.2583689391613006,-0.0547335743904113,0.0512452721595764,-0.0426437258720397,-0.1982857584953308,0.1401046365499496,-0.0381526913046254,-0.0765593945980072,0.1786077507216483,-0.1673353739432059
52,-0.014436,-0.021593,0.296328,-0.047393,0.035408,-0.666835,0.742854,0.0748083809505682,-0.2221937214046716,0.680617288351059,-0.1194005421346053,9.801395732733608,-0.2979943191298283,-0.2613947689533233,0.7222562432289124,-1.0100245475769043,-0.6673083905612402,-0.6853565422108837,-0.2132601509808852,-0.1987615882260063,-1.4541332721710205,0.0437698774039745,0.1260881274938583,0.0958527326583862,-0.1544309258460998,0.276740550994873,-0.1453951448202133,0.1681443601846695,-0.1550178537596948,0.0038412734866142,-0.1123899235870223,0.1050232490102294
53,-0.015557,-0.020349,0.29301,-0.064842,0.040211,-0.655861,0.751015,0.4881590357249602,-0.9516460600733756,0.5294961315026506,-0.4582316976360976,9.791189396017788,-0.3050397806619294,0.0379813835024833,0.8444957137107849,-0.6337620615959167,-0.6711839016181105,-0.6827519649439544,-0.2222666309275753,-0.1842813745594993,-0.3003148436546325,0.1855656206607818,-0.0682252943515777,-0.089540958404541,0.2163549661636352,0.0253908932209014,-0.0876402705907821,0.1493119746446609,-0.0193122561753727,0.0260772425681352,0.0083590540356963,-0.0195601596719701
54,-0.01568,-0.019009,0.292602,-0.073971,0.033382,-0.648588,0.756801,0.7066321657039225,-0.2750461906701326,-0.4421872658839449,-0.5918598313592374,9.786160754200816,-0.2260939071809873,-0.4210513234138489,-0.0157983023673295,-0.1700352728366851,-0.6773709964182297,-0.6812721104654981,-0.2177059772156037,-0.1721650701896562,-0.9338326454162598,-0.062295626848936,-0.1933798193931579,-0.024302065372467,-0.1516101360321045,0.0131289362907409,-0.1039847582578659,0.1694449484348297,-0.0600267037098063,0.0018621439812704,-0.0058320117845985,-0.1542259179307147
55,-0.011375,-0.019119,0.294178,-0.067203,0.029012,-0.651402,0.755194,-0.1395372116364538,0.7160369767785072,0.7240589551925659,-0.6905025033537298,9.78134020217657,-0.1377787779960315,-0.0535345412790775,0.7339573502540588,-0.4216921031475067,-0.6840867631373492,-0.6807522140632104,-0.2088089692506831,-0.1581157116839719,-0.1576964259147644,0.0265394393354654,-0.2633405029773712,0.0785642266273498,0.1531251072883606,-0.0036278665065765,-0.1279847770929336,0.1237807497382164,0.0304449870211072,-0.0060418117791414,0.0417997357202228,0.0722038381750928
56,-0.009202,-0.020791,0.29525,-0.066198,0.033268,-0.656677,0.750524,-0.0735913059115409,0.1662006160259246,0.9701777420639992,-0.9068344200529158,9.762553084120151,-0.2014888966260477,0.2647382020950317,1.453316569328308,-0.6788615584373474,-0.6826703365506173,-0.6793258721677105,-0.2208833037926307,-0.1539096260325623,-0.8179912567138672,0.0695730894804,-0.3261795341968536,-0.0005971193313598,0.0313004851341247,0.1225126385688781,-0.1146229654550552,0.0805703997611999,0.0898402655261568,0.0176980551332235,0.0189919130636495,0.1022808275674469
57,-0.008017,-0.023174,0.296843,-0.063966,0.04238,-0.661404,0.746095,0.2586041744351386,-0.0152571903645992,0.8339946631610393,-1.1844120288968083,9.726737674373387,-0.3976518855215981,0.4855486750602722,1.0709733963012695,-0.8117944002151489,-0.6760962016344864,-0.6799956620953292,-0.2405836730542453,-0.15039728212893,-0.9661282896995544,0.0199839081615209,-0.3071918487548828,0.0080505609512329,-0.0501438975334167,-0.0029125213623046,-0.0491425432264804,0.0417743846774101,0.0688856261383509,-0.0023581266868859,-0.0066732871976186,0.112001846718043
58,-0.008723,-0.024865,0.298761,-0.061749,0.057253,-0.659168,0.747266,-0.2526505267277359,-0.568399606925249,-0.8199169649045914,-1.443341928154975,9.675942722159624,-0.6806483410764486,0.7696741223335266,0.1407137811183929,-0.5209034085273743,-0.6673848889328812,-0.6852946600833965,-0.2550973085061692,-0.1410460853943441,-1.0554986000061035,0.0451520606875419,-0.3044975996017456,-0.0790385603904724,-0.0261167287826538,-0.0227322876453399,-0.0210182201117277,0.0011801443761214,0.0395875030308496,-0.0457977056503295,-0.028706397442182,0.0189796929028932
59,-0.008939,-0.022907,0.300451,-0.066544,0.067116,-0.658194,0.746893,0.1958225779600441,-0.9731050276875496,-2.185034009063244,-1.594933880852908,9.639964230805637,-0.8352518966805189,0.0185746625065803,-0.4461293518543243,-0.0830883607268333,-0.6650552717817981,-0.6927594677459883,-0.2503403943789098,-0.1229448423925664,-0.5332365036010742,-0.0096105746924877,-0.2789175510406494,0.0046041011810302,0.0251908302307128,-0.0411045253276824,-0.0064087593927979,-0.067607544362545,0.1210643745604436,-0.0320354476571083,0.0170484462791006,0.155021726217214
60,-0.008405,-0.023163,0.300779,-0.063305,0.072582,-0.669028,0.736971,-0.4897295364446938,-1.767712267833948,0.2568517778098583,-1.496859437200427,9.662892101928591,-0.7472146437220275,-0.2836480736732483,0.2512679994106293,0.492730438709259,-0.6681769297776279,-0.6921524295771561,-0.2429451744809074,-0.1242670920918632,0.0659550428390502,0.051492191851139,-0.1065987199544906,0.0915576219558715,0.0674440860748291,-0.0289769768714904,0.0540346391499042,-0.1376300156116485,0.2052027112510986,0.0108867213129997,0.1658463592281565,0.2480717293038032
61,-0.008512,-0.023708,0.299386,-0.063014,0.06453,-0.672426,0.734648,0.8983604600876569,0.4225292467445135,0.2090600990653038,-1.2031724050767718,9.710780226784944,-0.6507904514946043,-0.2931612730026245,0.1040732339024543,0.8617002367973328,-0.6690208176278766,-0.6913458613186664,-0.2349935743163781,-0.1386728075354758,-0.3563661277294159,0.0881971046328544,0.0789811387658119,0.1175377964973449,0.0194966197013854,0.038989633321762,0.115931749343872,-0.1884920746088028,-0.1236098760584834,-0.0188307501375675,-0.0825784852290991,0.1570864584609866
62,-0.009155,-0.02474,0.297898,-0.064888,0.058455,-0.675224,0.732424,1.9025348720386623,0.7487304551124573,-0.3360521557748318,-1.0867108755361288,9.73652607793808,-0.4353294724110513,-0.8067077994346619,0.4415976405143738,-0.2038953900337219,-0.6748647321033866,-0.6838237553602659,-0.2336251203735492,-0.1495392919795665,0.0864326208829879,-0.017620775848627,0.1828197836875915,0.1648962497711181,0.1276625990867614,-0.1092414855957031,0.1119693964719772,-0.0342463366687297,-0.1369883674038574,-0.0832548439502716,-0.1548977893102914,0.0127899348846753
63,-0.010218,-0.025869,0.297215,-0.065409,0.056706,-0.676808,0.731052,-0.7507774507701397,0.965871569302678,1.6470365546643733,-1.2046867551624774,9.72902724661529,-0.2552566358392126,-0.1959473490715026,0.6268020272254944,-0.1434363722801208,-0.680142293149846,-0.6730928333806,-0.2448683395990674,-0.1561796205711008,-0.5533081889152527,-0.0146325500681996,0.1103317961096763,-0.0708401203155517,-0.0661285519599914,0.0704435110092163,0.0971856564283371,-0.010990266688168,0.2241952156865037,-0.0361392945051193,0.1113501870094332,0.1356977978703565
64,-0.010371,-0.025712,0.297337,-0.062701,0.055287,-0.680161,0.728281,0.7023031965889036,0.1744774459838867,-0.2288157516266219,-1.077594379883632,9.745597857666016,-0.1802934935851954,-0.3800627887248993,0.0029037264175713,0.4644446671009063,-0.6806535066222515,-0.6705149744815777,-0.2441353695721361,-0.1658867860275566,0.0054213898256421,-0.1496002227067947,-0.0892191305756568,-0.0874685049057006,0.0415305495262146,-0.1235393583774566,0.1040751487016677,-0.1202204227447509,0.0110248842737986,-0.040866419672966,0.0762801385701401,-0.0767532131417188
65,-0.011405,-0.026802,0.298173,-0.067066,0.055882,-0.680662,0.727378,-0.3764608846612274,-0.0152530987113714,1.2840858705699445,-0.9238900381416082,9.762647776666284,-0.0868352476244326,0.0599794797599315,-0.0216073635965585,0.3403146862983703,-0.6827114055446146,-0.6694001729087504,-0.2373410501605238,-0.1716912584322227,-0.7049592733383179,-0.2920190393924713,-0.0289537906646728,0.0814531445503234,-0.0206606388092041,-0.0352417230606079,0.1096362844109535,-0.0671619176864624,-0.057021754306741,-0.0515469573438167,-0.0042838410568598,0.054468370896345
66,-0.011976,-0.027136,0.298338,-0.07206,0.054843,-0.678648,0.72886,0.6876250482212751,-0.1389648185759782,0.1563081858311779,-0.8233463548313826,9.770238962447642,-0.1868344396612606,0.3355976045131683,-0.4438024759292602,0.2152667194604873,-0.6794832690948036,-0.6755893281078937,-0.2304451446268686,-0.1696365453918783,-0.9874181151390076,-0.2077792137861251,0.0737397596240043,-0.0355303883552551,-0.0767092704772949,-0.0202991962432861,0.1305346339941024,-0.0970778912305831,-0.0452657313303556,-0.0464160777628421,0.0108803886360372,0.0915416900160256
67,-0.012451,-0.027388,0.299745,-0.06676,0.049435,-0.678289,0.730084,0.6389899774551391,-0.1234896015465259,-0.2244295176327228,-0.7352071028031408,9.77451649363637,-0.297805664689932,0.1950067281723022,0.0627409294247627,0.1631655693054199,-0.6751972075104032,-0.680912080065838,-0.2270299585866382,-0.1700731537821501,-0.6331647038459778,-0.1720414608716964,0.1060550212860107,0.0413100123405456,0.0788517594337463,0.0166658759117126,0.1593973785638809,-0.0657188519835472,0.0007872413875535,-0.0406126677989959,0.0198911885744892,0.1202563369800336
68,-0.013194,-0.02737,0.301699,-0.057186,0.040494,-0.678017,0.731698,-0.2883916291292757,-0.0322802213579416,-0.6658814915120601,-0.6836546102203428,9.778777073690296,-0.2802774058545008,-0.0928430631756782,-0.2151913791894912,0.2384408265352249,-0.6758009741495091,-0.6814846291703612,-0.2233133917670741,-0.1703027764121636,-0.9070140719413756,-0.2876763939857483,0.0706712082028389,0.0430477261543273,-0.0545476078987121,-0.0360909551382064,0.1873017996549606,-0.0960282087326049,-0.0151884953428292,-0.0202158838510513,-0.0108297041949932,0.1651008928894065
69,-0.011262,-0.026529,0.302164,-0.055688,0.030708,-0.679336,0.731066,0.7259504680275917,0.5034668237656355,0.0019043723165988,-0.6092332832254469,9.783819159510733,-0.275890916132275,0.0571578629314899,-0.0206520874053239,0.0115053653717041,-0.6756341733874295,-0.6826032938269109,-0.2193610394673458,-0.1716158762843175,-0.6297193765640259,-0.0471785627305507,0.0376625880599021,-0.0690712928771972,-0.0005154609680175,0.0788003206253051,0.1887018829584121,-0.0414017960429191,0.0585881131408968,-0.0167020671069622,-0.0195681717317784,0.0463250265583628
70,-0.01021,-0.025684,0.303392,-0.060651,0.030567,-0.681449,0.728707,0.0703308428108692,0.2057405992537736,0.20707155559659,-0.6438919241525233,9.780624162861704,-0.3085254125542938,0.1699255406856537,0.3900050222873688,-0.12763512134552,-0.6742986377611584,-0.6826924809648833,-0.2228483676703106,-0.1720203516891512,-0.8994128704071045,-0.0437610335648059,0.0125905917957425,0.0010814070701599,-0.0852734446525573,0.0619160085916519,0.1615968942642212,-0.0825452506542205,0.0283550541207077,-0.0480528958141803,0.0108905606868909,-0.0233415961731341
71,-0.009775,-0.02523,0.303297,-0.059401,0.02445,-0.683343,0.727267,-0.1551309404790401,0.1788759732037782,-0.5681587839066982,-0.7033399922907352,9.772772864839434,-0.4106208188185468,0.2506865859031677,-0.1468761563301086,-0.1195262968540191,-0.6705786630082043,-0.6846337696889329,-0.228500410388056,-0.1714305452019095,-0.446498692035675,-0.0081197898834943,-0.0208153016865253,-0.0284681320190429,-0.00986248254776,0.0205608010292053,0.128742516040802,-0.0912274122238159,-0.0230165243706549,-0.0704312101006507,-0.0160708220021566,-0.0826095105550251
72,-0.009693,-0.02532,0.302645,-0.055231,0.015652,-0.686084,0.725254,0.3520838376432657,0.1529144334733486,-0.6306465120017528,-0.7450323312468826,9.770752172666787,-0.384345573496446,-0.149033635854721,-0.7540959715843201,-0.0883582159876823,-0.6736131244325637,-0.6856160243965213,-0.2225462589752113,-0.1632458996053847,-0.3297222554683685,-0.0859446004033088,-0.1422031819820404,-0.0163643956184387,0.0424259305000305,-0.070695161819458,0.0652855485677719,-0.0672554373741149,0.0425325800394173,-0.0736754089593887,0.0163358410303364,-0.0350123954013455
73,-0.00984,-0.025499,0.302325,-0.039198,-0.00151,-0.688945,0.723751,-0.1837149376675486,-0.0437917954534292,0.5384756663698703,-0.7757611584443599,9.766343708574771,-0.4325324621036648,0.4119763970375061,-0.4923911094665527,0.0236131604760885,-0.6744263394409055,-0.6900687713220078,-0.2141450669234121,-0.1519736391804327,-0.4985618591308594,0.0282856207340955,-0.0374707765877246,-0.0153176188468933,-0.0157486796379089,0.0526788756251335,0.0449953339993953,-0.0952291041612625,0.0196039759808103,0.015378151088953,-0.0027254954241565,0.1482793575512245
74,-0.009123,-0.02542,0.302136,-0.030087,-0.012124,-0.693347,0.719874,0.4573571798238903,-0.1023982982009649,0.5198608361404389,-0.7683043396323919,9.763601716390252,-0.502203745027259,0.0211676843464374,0.2681047320365906,-0.0471959300339221,-0.6721054297614353,-0.6928396374680326,-0.2134912237234942,-0.1505629673724761,-0.1623985022306442,0.0062907878309488,-0.0545265935361385,0.0214890837669372,0.0758607983589172,-0.009288914501667,0.0676213279366493,-0.1056408360600471,-0.0184489869846089,0.0097236363217234,0.0861265148331876,-0.0293783989692106
75,-0.00858,-0.025878,0.302487,-0.022375,-0.021674,-0.697989,0.715431,0.2953453937899321,0.1157037699759006,0.3641010231733322,-0.8130914297334849,9.757833654382823,-0.5421695524517447,0.1596392691135406,-0.0028251230251044,-0.1430893093347549,-0.6705184067157652,-0.69298381165485,-0.2177530501372195,-0.1508712028819696,-0.5011414289474487,-0.0423993617296218,-0.0341231189668178,-0.0052230954170227,-0.0405676364898681,0.0173629522323608,0.0611872784793376,-0.1195370629429817,-0.0522784687697887,-0.0376583337783813,0.0660340132666286,-0.0326974877887871
76,-0.007835,-0.026308,0.302149,-0.024394,-0.024559,-0.70133,0.711995,-0.2238750986203551,-0.1756476588070392,0.2914216444749385,-0.8075767579652369,9.753501178136467,-0.6224203162524848,0.2055768221616745,0.5673776865005493,0.1155607625842094,-0.6672177297006947,-0.6952141114674739,-0.2200271431720546,-0.1519403217002326,-0.4306933581829071,-0.0044083022512495,-0.1208118051290512,-0.0361872315406799,0.0696763396263122,0.0532969236373901,0.0419164225459098,-0.0921578854322433,-0.0984355229166802,-0.0181133765727281,-0.0413566087623359,0.0654475460150279
77,-0.006879,-0.027054,0.302412,-0.023253,-0.027528,-0.70522,0.708073,0.2651446090545505,-0.172833770430088,-0.8939970041811466,-0.7273753862641751,9.7536806263566,-0.7120636892333626,0.0557795092463493,1.3271771669387815,0.214952290058136,-0.6602129285451473,-0.69472070282218,-0.2316641704243593,-0.1667747297193759,-0.5105777978897095,-0.1282092332839965,-0.0346781872212886,0.0330750346183776,0.0046062469482421,-0.0459181070327758,0.0363634303212165,-0.0638041272759437,0.0738408373929327,-0.0115857841446995,0.1359030289857182,0.0273732034765067
78,-0.005012,-0.027207,0.303681,-0.022297,-0.031718,-0.707939,0.705209,0.0851388646358624,-0.4211526976943016,0.8196294532001018,-0.5413839184993877,9.76257938760519,-0.7545365841079503,0.0074429400265216,1.1878076791763306,0.4038113057613373,-0.6518348423981084,-0.6915467186168169,-0.2454257448966209,-0.1914175136531609,-0.090848684310913,-0.0919433683156967,0.020632205531001,-0.0065755248069763,0.0423807501792907,-0.1113340854644775,0.0320882201194763,-0.090316392481327,-0.0025212261441309,-0.0297978352755308,0.0994746932386886,0.0590665123415645
79,-0.004608,-0.026973,0.30554,-0.015272,-0.036623,-0.708016,0.705081,-0.1181200008047744,0.2136117710202932,-0.0444960712652653,-0.4105497263437137,9.7690114664793,-0.753820471727848,-0.0471572615206241,0.857586681842804,0.209419310092926,-0.6469561163672938,-0.6887321918901677,-0.2531444587677723,-0.2073972259476956,-0.2663707137107849,-0.0515594631433486,0.106417678296566,0.0390681624412536,-0.0568772554397583,0.0760928392410278,0.0317377559840679,-0.0578168593347072,-0.0833947243822738,-0.048540323972702,0.0418561238162685,0.0439585029229987
80,-0.006268,-0.026376,0.303475,-0.012455,-0.059169,-0.703047,0.708568,-0.6344014806210995,-0.1184884322583675,-0.2969008065383881,-0.2584860096818767,9.773704008209704,-0.7604386477585882,-0.0861702486872673,1.1326032876968384,0.430254191160202,-0.640759576572211,-0.6858581971522666,-0.2614767970055863,-0.2250678695344129,-0.4174851477146148,0.0492342598736286,0.0582291148602962,-0.0182762742042541,0.0512637495994567,0.0772001668810844,0.039966195821762,-0.0300762709230184,-0.0858442820920143,-0.0585985518991947,0.0110715204440988,0.0894877257614396
81,-0.007482,-0.026545,0.300105,-0.019601,-0.083108,-0.700212,0.708811,-0.3942708282485604,0.2513181090801954,-0.1231318741500377,0.0297534588097012,9.782332135823369,-0.6895497326735407,-0.243812084197998,1.17945396900177,0.7917963266372681,-0.6346018612052603,-0.6817191532740492,-0.2653605998632571,-0.2492453586206683,0.1097941398620605,0.1221882030367851,0.0823881179094314,-0.0361747741699218,0.0211912393569946,0.0177335701882839,0.0475141704082489,-0.0154705923050642,-0.0151124675396189,-0.0606866851449012,0.0470465594656765,0.0350263280285755
82,-0.009208,-0.026713,0.296941,-0.029697,-0.101493,-0.696283,0.709935,0.6232398890070617,0.1498328340709209,0.262363892294839,0.3651165568914264,9.780417242112756,-0.6168553756017238,-0.09206373244524,1.3258659839630127,0.6780596375465393,-0.6261423303200361,-0.6773727241390374,-0.2694755353702077,-0.2765771300842238,-0.347650408744812,0.0942352339625358,0.0491583235561847,-0.0078564882278442,-0.0785332322120666,0.0170750617980957,0.0293051227927207,0.015517090447247,-0.0677867341188946,-0.0705225318670272,0.0090671960260078,0.0004693168493133
83,-0.011072,-0.026571,0.296085,-0.031435,-0.10574,-0.693537,0.711925,0.3782314745303243,0.1655126337617635,-0.1679576522937044,0.6246397458676248,9.77162077219486,-0.5437184623941779,-0.1403828859329223,1.1185678243637085,0.5288569331169128,-0.6181982343024333,-0.6723901992065341,-0.27497880987475,-0.3001816188666723,0.1401800066232681,0.0350981466472148,-0.0201367959380149,0.0097318887710571,-0.028650164604187,-0.0916042327880859,0.0262963809072971,-0.0061107482761144,0.0663843245416413,-0.0609531104564666,0.0696705659709638,0.0345639757804106
84,-0.012875,-0.026288,0.297485,-0.029389,-0.096967,-0.693765,0.713039,-0.3153117116935551,0.2518435942590236,-0.7447861014008521,0.8745072177480906,9.758313546854255,-0.4253796677395701,-0.3345607817173004,1.4505139589309692,0.6701479554176331,-0.6103397364807122,-0.6651905289404373,-0.2814425115278219,-0.3252647138663739,-0.0873437002301216,-0.0662958025932312,-0.051825150847435,0.0325039625167846,-0.0030341148376464,0.0071808062493801,0.0161699540913105,-0.0506975688040256,0.1038900254629086,-0.0477092154324054,0.0736893868579994,0.0977175199735909
85,-0.014589,-0.026386,0.298085,-0.03079,-0.088805,-0.694782,0.713052,-0.348332303090021,0.1765752950459718,-0.3492553362190723,1.1723866600602864,9.734223646214604,-0.2020097238960675,-0.4183675348758697,1.3121824264526367,0.7458781003952026,-0.6026915460220363,-0.6542309868649195,-0.2868474259558936,-0.3556169129447353,-0.6696318984031677,-0.104075938463211,-0.0934897735714912,0.0368357896804809,-0.0624237060546875,0.0114841498434543,0.010469508357346,-0.0170631688088178,-0.0167829043778241,-0.0157396383583545,-0.0274812464112648,0.0610926113416906
86,-0.019204,-0.026455,0.302892,-0.032201,-0.09099,-0.694502,0.712988,-0.1824970863103866,0.186547238484025,-0.0413572617828846,1.4729716350041329,9.695370476207136,0.0232510706287575,-0.5142822861671448,1.149013876914978,0.7424882650375366,-0.5960250854040823,-0.6451121419136213,-0.2874801725897603,-0.3820204740758503,-0.4373967945575714,-0.1182420849800109,-0.2202339321374893,-0.0068039894104003,0.1048904061317443,0.0377118661999702,-0.0019844323396682,-0.0178811252117156,-0.0019259825018525,-0.026287579908967,0.0239765764582902,0.0402812574486713
87,-0.021779,-0.027379,0.30488,-0.032308,-0.087811,-0.696177,0.711746,-0.2139255131445825,-0.3842021464377641,-0.1224286943167448,1.7111992302343249,9.650211484053733,0.3400020259117707,-0.6078981161117554,0.9305803179740906,0.5602049231529236,-0.5923293391324925,-0.6321601249033161,-0.2881636641129489,-0.4080211027614325,-0.3961534798145294,-0.0962713807821273,-0.1036742329597473,0.0352136492729187,-0.1078420281410217,-0.0288667678833007,-0.0072962883859872,-0.0256844274699687,-0.0685938994830474,-0.0635324567556381,0.012306844667514,0.0167173557277885
88,-0.023549,-0.028844,0.308433,-0.033567,-0.085051,-0.698529,0.709716,-0.5582239576086402,-0.2944201687037944,0.5284901327978819,1.924115712466836,9.598436288630962,0.5815212830984965,-0.3102936148643493,1.0212692022323608,0.6970543265342712,-0.5880991050547419,-0.6227961057228392,-0.2871857866830866,-0.4287058028685944,0.2341949194669723,-0.1050489991903305,-0.0693313032388687,0.0113453865051269,0.0830042958259582,-0.0352537557482719,0.004438804462552,-0.0140961771830916,-0.017901718090591,-0.089859589934349,-0.0067443168820143,0.0851258224911987
89,-0.02483,-0.030143,0.310798,-0.033746,-0.084612,-0.700022,0.708288,-0.949298474033922,-0.638525867074728,0.1132042813103646,2.234835127934068,9.522809092977642,0.7014229796882718,0.1893515586853027,1.1944363117218018,1.108338475227356,-0.574298109062536,-0.6169660352265003,-0.2891198565271927,-0.4538108308729515,-0.0060243429616093,-0.0739969164133071,-0.1081307679414749,0.0335273742675781,0.0206077694892883,0.0097744390368461,0.0143305677920579,-0.0175253991037607,0.0060777952477015,-0.0817435905337333,-0.0026617831090028,0.1475947088884655
90,-0.025421,-0.031293,0.311625,-0.035865,-0.082762,-0.70134,0.707097,-0.4162558655634522,-0.5751718775391579,-0.6655062284588813,2.66830209440887,9.40857948720753,0.7274561964154242,0.2552055418491363,1.4125386476516724,1.3354830741882324,-0.5523228980280099,-0.6153231196660697,-0.2903231186287727,-0.4816943082776847,-0.1480920016765594,-0.0381520986557006,-0.0805287659168243,0.0580160021781921,0.0340985059738159,0.0319341346621513,0.0053344792686402,0.0253929607570171,0.037613547493203,-0.0625155344605445,-0.0221025330645847,0.1925504244215786
91,-0.023659,-0.032532,0.3137,-0.04132,-0.078073,-0.701955,0.706723,0.543227756267786,-0.5232271707683801,0.1860468877464532,3.141448890973628,9.253982799735663,0.8157767963599413,0.4781883358955383,1.998496413230896,1.5204675197601318,-0.5244465425648351,-0.6095686063849357,-0.2946745172345106,-0.5162837139273575,-0.053857646882534,-0.0715446695685386,-0.0378052704036235,0.0582761168479919,0.0169469714164733,0.0361205339431762,0.0054771020077168,-0.0043103396892547,0.1000100056917872,-0.0578489676117897,0.0811389904778916,0.1750651279450394
92,-0.022805,-0.03279,0.313491,-0.042837,-0.0778,-0.701287,0.707325,1.1264829870194195,-0.3625380116403102,-1.2944926982939242,3.638277591899037,9.065910543641449,0.8617408943511545,0.3495470583438873,1.6147812604904177,1.4029020071029663,-0.4903960651956137,-0.6045966139071316,-0.3008760167624382,-0.5508614050130235,0.0690256655216217,-0.0937823876738548,0.0228403005748987,0.023483395576477,0.0007728934288024,0.0073052495718002,0.0034551690332591,-0.0220532547682523,-0.0146649212765856,-0.0906127467751503,0.0439314824853325,0.159852945765946
93,-0.022641,-0.032367,0.3125,-0.046764,-0.080859,-0.698709,0.709282,2.587861653254926,-0.4839730187445878,1.2541180178076028,3.970155676859617,8.895401416766642,1.1314048805262893,-0.1500781923532486,2.0083279609680176,0.8264984488487244,-0.4669910550624613,-0.5913031673561419,-0.3044256384406217,-0.5827563182717088,0.001137162791565,-0.0940750166773796,0.0632335320115089,-0.0418204665184021,-0.0387763977050781,-0.0358743816614151,0.0135562876239418,-0.0608456581830978,0.0234603020658018,-0.124484971165657,0.1374569164973683,-0.0488204418369801
94,-0.024064,-0.032677,0.31323,-0.047377,-0.083096,-0.696947,0.710714,1.733532350334525,-0.7690513586074114,2.1159316851340235,4.130016568470001,8.786783221137522,1.38050056431666,0.3050612211227417,1.408469319343567,0.5455787181854248,-0.4469588210820587,-0.5758038566668003,-0.3131516860216023,-0.6087804949941555,-0.0834887698292732,-0.0547736845910549,0.0223676562309265,-0.082615315914154,-0.0640129446983337,-0.0172518566250801,-0.0255601368844509,-0.0575872659683227,-0.156112389264442,-0.1736677438020706,0.0733517295685829,-0.1239852030437439
95,-0.024036,-0.032392,0.314379,-0.046284,-0.07895,-0.697469,0.710747,0.8512070792466402,-0.318529943087697,1.5181313578099012,4.160305908271671,8.749112538912891,1.52160707109645,-0.0051981438882648,0.8525927662849426,0.0476794317364692,-0.4344381887717015,-0.5645355546994201,-0.3220547081188795,-0.623573528035326,0.1173481941223144,0.0116919977590441,-0.0188592094928026,-0.0959926843643188,-0.0469847321510314,0.0033546835184097,-0.0358690917491912,-0.0159986298531293,-0.0898838854721747,-0.1538714319467544,0.1517709351271856,-0.085528631138429
96,-0.023702,-0.032847,0.315758,-0.050386,-0.073331,-0.698231,0.710322,0.0020358897417783,0.2890039888739585,1.2667056967020034,4.082771125431359,8.774546255376935,1.583890508791059,0.211125835776329,0.3132947087287903,-0.243548035621643,-0.4311204497092115,-0.5573496880176321,-0.3295533106739678,-0.6284036423340796,-0.1127824783325195,-0.0366212055087089,-0.0746950432658195,-0.0395643711090087,-0.057404339313507,-0.0596031099557876,-0.0452409461140632,-0.0239599701017141,-0.2271359270472079,-0.1740141957998275,0.0317431279397103,-0.198242991773691
97,-0.023627,-0.033236,0.316114,-0.052078,-0.078816,-0.698734,0.709117,-0.7837143824711441,0.5232166493743657,-0.2208376306205987,3.955133756555617,8.8454440844208,1.511760945995152,0.2335939705371856,-0.2305036187171936,-0.5086565613746643,-0.432223522961349,-0.5560865492328415,-0.3371785786514321,-0.6247088857125642,-0.1573792397975921,0.0351005420088768,-0.0884448140859603,-0.0268459916114807,-0.0030305385589599,0.0255026668310165,-0.0432532019913196,0.0509107634425163,-0.1259073758785147,-0.1217710077762603,0.0023894449991144,-0.057533475821698
98,-0.023735,-0.03369,0.315709,-0.056022,-0.089222,-0.698715,0.7076,-1.4223992394998668,0.461467756947875,-0.8933703967154025,3.767819040830433,8.948343317881227,1.3787950755730272,0.0493790581822395,-0.6259768009185791,-0.6019010543823242,-0.441492064630581,-0.5595764175963233,-0.3414311788317782,-0.6126856847207265,-0.027864659205079,0.0195371899753808,-0.1183529123663902,0.005990982055664,0.0709316730499267,-0.0113666132092475,-0.0452960990369319,0.0440729930996894,-0.0173582234726811,-0.041796576231718,0.0248860285865608,-0.0566265170446131
99,-0.02433,-0.035404,0.31509,-0.061493,-0.088137,-0.700345,0.705668,-1.3826321695178747,0.4323784405857324,-0.543982958549261,3.6412621606677766,9.0078090678066,1.3307774791181086,-0.1199603602290153,-0.1798900514841079,-0.1917164027690887,-0.4505040722570401,-0.561855122073489,-0.3412741563492842,-0.6040669291129247,0.104388453066349,0.0129102878272533,-0.0749674886465072,0.0425366163253784,0.0343961119651794,-0.0112575367093086,-0.05327919870615,0.0133979618549346,0.008391452188912,-0.0111862272024154,0.0137406232056324,-0.0305463056708453
100,-0.024495,-0.035975,0.316141,-0.063768,-0.081777,-0.701357,0.705226,-0.8485738081336021,0.0619166502088308,-0.0959371393628418,3.6681951757788656,8.99055924232006,1.372794373853505,-0.0245017297565937,0.2611760199069977,0.309976190328598,-0.4494752927966582,-0.5605078304910079,-0.3403497235466396,-0.6066011495269436,0.1674960553646087,0.0907132104039192,-0.0213253647089004,-0.0089568495750427,0.0247970223426818,0.0518468543887138,-0.0227906126528978,0.0137253999710083,0.0041717372932704,0.0063152178190648,-0.0018160455791745,0.0513715876245172
101,-0.025493,-0.037083,0.320642,-0.073504,-0.06518,-0.706682,0.700678,0.0967640917062759,-0.1938759739369153,0.0936298853337764,3.789624045403301,8.932112898570299,1.4235459253169596,0.0114892739802598,0.3974076211452484,0.4357163608074188,-0.4423745535533507,-0.5590131870275465,-0.3390038536890579,-0.613909899813176,0.1277707368135452,0.0515906773507595,0.0005014380440115,0.0243831276893615,-0.0358340740203857,0.0040599182248115,0.0142100602388381,-0.0374612659215927,-0.0106010328385396,-0.0279772821813821,0.0682367885744897,0.0818276303291786
102,-0.025942,-0.03772,0.323644,-0.076512,-0.052841,-0.709428,0.698617,0.7114250990688801,-0.267113644105196,0.0014795710332691,3.896216288162768,8.880853251454234,1.456140181060135,0.0222399234771728,0.1805469542741775,0.2132025957107544,-0.4359849693901722,-0.5581934994164277,-0.3379016515847938,-0.6198061962281427,0.0979635789990425,0.0142707899212837,-0.0627238675951957,-0.0109577178955078,0.0735387206077575,0.0267245769500732,0.0503518059849739,-0.0434465259313583,-0.0041636133523192,-0.052464660257101,0.0654504412250127,0.0883476888808421
103,-0.027044,-0.038421,0.326323,-0.080199,-0.048306,-0.708999,0.698967,0.6475961854979395,-0.279607214975357,0.4108376399070024,3.93670144328624,8.85877936681211,1.4814793511085211,0.0485385134816169,0.2001966387033462,0.1211889311671257,-0.4326775936487742,-0.5568839892685791,-0.3381505505251944,-0.6231568672888602,0.3396462202072143,0.0698200166225433,-0.0102396234869956,0.01270592212677,0.0090248584747314,0.0382576063275337,0.0667687579989433,-0.0685837343335151,-0.0025212261441309,-0.0666439458727836,0.0994746932386886,0.0590665123415645
104,-0.027875,-0.038735,0.329789,-0.083047,-0.047632,-0.708948,0.698733,0.4696382039219141,-0.1875713208347559,0.1195791501045226,3.959185662294924,8.850541115298867,1.470769156523794,0.1247893720865249,0.0106544373556971,0.0241660326719284,-0.42978014293784,-0.5566146214815547,-0.3393991881265059,-0.6247218673179358,0.1624823808670044,0.0985272377729415,0.0623610094189643,0.0227798223495483,-0.0479491353034973,0.0041836574673652,0.0665755346417427,-0.0685483366250991,-0.0460249248003587,-0.1072853729128837,0.0314927470749476,-0.0254997446046909
105,-0.02922,-0.040033,0.332879,-0.083069,-0.051896,-0.708166,0.699219,0.1773307895883917,-0.1448386790454387,-0.142363228842616,3.9465319324269887,8.862575836485624,1.4317904604405165,0.1743106693029403,0.0464653968811035,-0.0562126524746418,-0.4282278657227112,-0.5568935677906133,-0.3418604299369101,-0.6241970039738955,0.4728586077690124,0.1548871845006942,-0.0714597031474113,0.0098960995674133,0.0898107290267944,0.0430946350097656,0.0566682666540145,-0.0385912917554378,-0.0431558767366455,-0.1272048503160476,0.0186587196035077,0.0505827479349216
106,-0.033503,-0.044682,0.336012,-0.078253,-0.092731,-0.699391,0.704365,-0.4038920585528016,-0.0669265873253345,-0.5650158097058534,3.950303267659247,8.866964426833391,1.3937088593274354,0.0987871587276458,0.214184358716011,0.1407124102115631,-0.4254224411893883,-0.5570720709391,-0.3443999557090856,-0.6245599192594115,0.532815158367157,0.234442725777626,-0.15689218044281,0.0189862251281738,0.047609269618988,0.0533757209777832,0.0603583566844463,-0.0275955349206924,-0.0241552666265983,-0.1063753813505172,0.0277969475972,0.0779280838736798
107,-0.035144,-0.047275,0.337158,-0.077282,-0.119439,-0.694376,0.705411,-0.317757789671421,-0.0714396808356046,-0.2444938160181045,4.034755867063999,8.818805668342113,1.4559601483181115,-0.0106567032635211,0.6243911385536194,0.4586461782455444,-0.4188391300572007,-0.5541926309365302,-0.3444375432293317,-0.6315118503172673,0.1543876975774765,0.3394060432910919,-0.0857861787080764,0.0142618417739868,-0.0819674134254455,0.0903155803680419,0.0543213002383708,-0.0164842382073402,0.0196800049256649,-0.0943226367235183,0.0551507728030905,0.0182047835572389
108,-0.037231,-0.049615,0.338333,-0.075745,-0.147998,-0.686437,0.707929,0.0827180306971073,-0.0389426018565893,-0.3074520842343569,4.167887741702795,8.737975058826803,1.5642583182126282,0.0202244892716407,0.738801896572113,0.5198238492012024,-0.4073944316483742,-0.5488428115816982,-0.3449878134307124,-0.6432611214194217,0.6035838723182678,0.3151901364326477,-0.014379440806806,0.0297950506210327,-0.0120183229446411,0.0441656112670898,0.0421232506632804,0.0048416703939437,-0.0884297320079524,-0.106166586279869,-0.0340952828397159,0.0024051597331213
109,-0.040685,-0.050671,0.339222,-0.074607,-0.160852,-0.680167,0.71129,-0.1202419979274272,-0.0820394007831811,-0.1006475090108811,4.302314332327247,8.652683962771295,1.6707948852621015,0.0795319303870201,0.6597254276275635,0.5325199961662292,-0.3948590757435018,-0.5432760281641951,-0.3459253199525885,-0.6551894704832727,0.1993597000837326,0.1763702183961868,-0.1094338521361351,0.0441904664039611,0.0339528918266296,-0.0469798445701599,0.0381903685629367,0.0015081656165421,-0.0090147466028516,-0.0962013825774192,0.0212539374282117,0.0461166582044214
110,-0.043812,-0.050895,0.342808,-0.071244,-0.159111,-0.67674,0.715284,-0.1399488611772656,0.0258481424838304,-0.0701695147693157,4.458190830476582,8.555569157931208,1.7598774825550614,0.0677111968398094,0.7394384145736694,0.6494959592819214,-0.3815494379012696,-0.5390996123827015,-0.3458942479929353,-0.6664449731813546,-0.2742462158203125,0.1816354393959045,-0.0914001241326332,-0.0029601454734802,-0.0428082942962646,0.0260113514959812,0.029692193493247,0.00664634257555,-0.04203706074059,-0.083672821521759,-0.0020782093549205,0.0265495299355476
111,-0.04959,-0.050247,0.351689,-0.063898,-0.153223,-0.669438,0.72408,-0.2228758584499359,-0.2839046199083328,-0.0308329451590776,4.645714512777328,8.421347149968147,1.9153690730400383,0.0321027673780918,0.9831230044364928,0.8309606909751892,-0.3650020169878214,-0.5323162885664571,-0.3449387244650319,-0.6814911607859183,-0.252348393201828,0.1174163445830345,-0.015529460273683,-0.004847764968872,-0.0317817330360412,0.0179952979087829,0.0178045555949211,-0.0091168768703937,-0.0471717887139646,-0.1345972567796707,0.0117261255950434,-0.0046814289646339
112,-0.052165,-0.050601,0.3571,-0.053813,-0.152919,-0.664952,0.729081,-0.3351932008579373,0.0651332741677761,-0.305107566934824,4.86592056749612,8.272674007326364,2.0139690018713474,0.3303406834602356,0.7351586222648621,0.8814383745193481,-0.3455311907235966,-0.5279940125356792,-0.3442941746963271,-0.6951921191983529,-0.5963571667671204,0.0212177000939846,-0.0659202635288238,0.0228607058525085,-0.0214735269546508,-0.0189290046691894,0.0350266732275486,0.0320393033325672,-0.0241833168274373,-0.146188348531723,-0.0127066062660655,0.07471318608094
113,-0.052844,-0.052853,0.362402,-0.046645,-0.155014,-0.662751,0.731133,-1.2493594251036644,-0.3693436000019311,-1.1982815642952918,5.111206702935696,8.126856254115701,2.000039699109644,0.3819100856781006,0.1271368116140365,0.8995113372802734,-0.3265072624175494,-0.5294338962658954,-0.343112376597368,-0.7038228780259568,-0.6162599921226501,0.1330051124095916,-0.071540929377079,-0.0194898247718811,-0.0097958445549011,-0.0175848007202148,0.0562819615006446,0.0225412491708993,-0.0139138597390439,-0.1394457370042801,-0.0403152738827047,0.1371750947481486
114,-0.052551,-0.055781,0.365814,-0.044304,-0.159361,-0.662004,0.731021,-2.1389543949335814,-0.7074696394413709,-0.912643398592621,5.452678545671701,7.944542123156785,1.822889088393748,0.7072153687477112,0.0454971678555011,1.342087745666504,-0.3052168195994995,-0.5399699760435814,-0.3398395885069599,-0.706954130619119,0.0113083077594637,0.016538044437766,-0.1884302645921707,0.055704653263092,0.0960562825202941,-0.0040534734725952,0.0593078695237636,0.0461360625922679,0.0165791060260788,-0.1242338865995407,0.0188571727765665,0.0760894565699389
115,-0.051547,-0.059151,0.368315,-0.041366,-0.163672,-0.662696,0.729613,-3.192232445010543,-0.6973544881403446,-0.1730605649232864,5.974743686923384,7.593404041931032,1.6772174656555057,0.82584148645401,0.5669928193092346,2.318323373794556,-0.2698298973210676,-0.5509513394053602,-0.3330740568244174,-0.7160350745853047,0.1408649682998657,-0.0543878972530365,-0.1918069422245025,0.0511906147003173,0.0535337924957275,-0.0156910419464111,0.0242735594511032,-8.66721384227e-05,0.03083265746471,-0.1320858597755432,0.0821787179223261,-0.0656559189355466
116,-0.050102,-0.063258,0.369752,-0.040233,-0.168493,-0.663974,0.727414,-1.787089752998948,-0.9121534231185912,0.4102687539778649,6.730517046284676,6.9591580441325895,1.5622539926528929,1.301401972770691,0.8700703382492065,3.0429024696350098,-0.2124198999180988,-0.5628557014873371,-0.3217773701364222,-0.7311159615979193,0.1338491439819336,0.0378569699823856,-0.1240493431687355,-0.0147792696952819,-0.0012886524200439,0.0208476800471544,-0.0063234651461243,-0.0278386287391185,-0.0289303720739204,-0.1737332940101623,0.0414767143109347,-0.0943775253633037
117,-0.045645,-0.072322,0.374047,-0.03598,-0.162022,-0.672081,0.721639,-0.2712140651613474,-0.7166688449412584,-0.0308855521291494,7.440052386084199,6.216449333527684,1.473691181450337,0.9873096942901612,0.6295118927955627,2.593876838684082,-0.1521554589001485,-0.573875397293556,-0.3090787703791512,-0.7429576846901123,0.1133944615721702,-0.0020140139386057,0.0613819658756256,0.0007686018943786,-0.0735864639282226,-0.0269031524658203,-0.0109482500702142,-0.0456183589994907,-0.1331519675787538,-0.1723188459873199,0.0084154455566749,-0.0478054880741983
118,-0.043259,-0.077116,0.374898,-0.036663,-0.16119,-0.675047,0.719017,-1.7886720537543297,-1.562750251737237,-0.0018728081345558,7.998034059369564,5.4617082398235794,1.5399975910507142,0.4589000940322876,1.0365349054336548,2.841346740722656,-0.1229014016365228,-0.5882481370605426,-0.2746745461181376,-0.7506086461065024,-0.0881905853748321,0.0468902550637722,0.1181253418326377,-0.0605148077011108,-0.043366253376007,0.0136796236038208,-0.0249081421643495,0.0133311180397868,-0.157754786176607,-0.153898000717163,0.0393274729883298,-0.0947040173713117
119,-0.041347,-0.080984,0.37585,-0.035968,-0.164202,-0.676045,0.717431,-1.4027929140150546,-1.354701083280146,1.9899749628216028,8.539758425337075,4.424067611600458,1.9158654782548543,0.212349459528923,1.725121259689331,3.516113758087158,-0.1114361938654593,-0.5993708043374533,-0.2075395938867496,-0.7650254697484337,-0.2244560122489929,-0.0725950300693512,0.2205356806516647,-0.0070703029632568,-0.0717476606369018,-0.0544019937515258,0.0001309216022491,-0.0160475838929414,0.0035247474807343,-0.1446563899517059,0.1808105214629322,-0.0528102466920856
120,-0.039321,-0.084378,0.377314,-0.033829,-0.166819,-0.679001,0.714133,-1.5855395911723371,-2.194089714439213,3.1152628948375582,8.937982667386532,3.087425916624069,2.598199799656868,0.7409303188323975,2.442460298538208,4.320713520050049,-0.0849444136253204,-0.590881919691713,-0.1355995550292316,-0.7907311210086952,-0.2329480350017547,-0.0808237120509147,0.3235001266002655,-0.0042834877967834,-0.0633164644241333,-0.0050922650843858,0.0031193261966109,0.0076854368671774,-0.207687769532483,-0.1359207332134246,0.0377662743864813,-0.046071051797294
121,-0.037835,-0.086739,0.378758,-0.032028,-0.167762,-0.680663,0.71241,0.825494545841217,-2.087751446440816,2.080371857583523,9.088295978450777,1.6542513083487749,3.2919173925995824,1.0404454469680786,1.783424973487854,4.089967727661133,-0.0496384464092024,-0.5722378706734406,-0.0685765579405598,-0.8157065280962315,-0.0392036028206348,-0.1931735277175903,0.3314221799373626,0.0059474110603332,0.009539783000946,-0.0848187208175659,-0.0189141668379306,0.0627641305327415,-0.191116793155577,-0.1116454154253006,-0.0070109456286794,-0.1097008671661373
122,-0.035282,-0.087878,0.381891,-0.025641,-0.167975,-0.682652,0.710713,4.754593989691138,-0.341343686311692,1.5777181037664412,9.076260088220238,0.4987624454669654,3.680098671801388,1.097555160522461,0.9884395003318788,2.8957388401031494,-0.015029159289213,-0.5585203681407659,-0.0205472363755198,-0.8291000704989107,-0.1523136496543884,-0.0966603085398674,0.3384158313274383,-0.0339225530624389,-0.0080529451370239,0.0207846090197563,-0.0285288114100694,0.0624650418758392,-0.0514993513231864,-0.1009935215115547,0.0222908107618568,-0.0521604273141128
123,-0.034037,-0.089095,0.382516,-0.025362,-0.165883,-0.684627,0.709313,4.050188998517394,-0.41824857375063,1.5968620724365117,8.871765689635277,-0.1785062448422424,4.174958995263278,0.9277084469795228,1.6668592691421509,2.0396888256073,0.0347388170453267,-0.5357324538412843,-0.0112724674470324,-0.8435975492126541,-0.3093903660774231,-0.1095566675066948,0.3631370365619659,-0.0029298067092895,-0.0297437906265258,-0.0153406895697116,-0.0238918364048004,-0.0032726638019084,-0.0385484834058908,-0.1165600940585136,0.0745943728737067,-0.1691949024710804
124,-0.033248,-0.090328,0.381999,-0.026996,-0.16376,-0.685701,0.708709,5.415674802923202,0.8728129079855979,0.7315589555591344,8.625119664019346,-0.6197757930930704,4.62531732917577,1.0494898557662964,0.7942973375320435,1.185563564300537,0.0751539606640494,-0.5139133247691967,-0.0082186267206588,-0.8545041294158753,-0.2210687398910522,-0.1461719870567321,0.2036924958229065,-0.0229209065437316,0.0915870666503906,-0.020897276699543,-0.0119391232728958,-0.0216641351580619,-0.1008888434860855,-0.1252682656049728,0.0523599547744728,-0.1452798012759071
125,-0.032392,-0.091726,0.382588,-0.026737,-0.162552,-0.686214,0.7085,4.5758577172189945,0.6821843184720724,-0.9366676866501568,8.459821549791098,-0.6215810889493674,4.920917939835786,0.6904255151748657,0.991483211517334,0.05569888651371,0.0931157425401877,-0.4988082741804927,-0.017126695042725,-0.861525596786087,-0.08650853484869,-0.037894994020462,0.128294289112091,-0.0516471266746521,0.0382534265518188,-0.0036750957369804,-0.0233359485864639,0.0177655220031738,-0.1916403603719547,-0.0660464987158775,-0.0617721271716058,-0.1044529017763677
126,-0.030885,-0.093818,0.383025,-0.026125,-0.162389,-0.688484,0.706355,1.403027307292819,0.5344003432223573,-0.90516195679605,8.229294884327054,-0.5180897713473066,5.308547722634673,0.3953120708465576,1.1538554430007937,0.0296722222119569,0.0989139104442654,-0.4782944601060103,-0.0239541065076569,-0.8722824841856059,-0.0111855491995811,-0.0172028727829456,0.0355536304414272,-0.0496561527252197,0.0105634927749633,-0.0155571773648262,-0.0372387692332267,0.0222098082304,-0.0550197440016781,-0.0340633541345596,0.029615847287164,-0.1158874651128891
127,-0.027948,-0.098221,0.384805,-0.023976,-0.154953,-0.696165,0.700549,-0.8537900814771652,0.0525961198842152,-1.8242437178730964,8.135754430842399,-0.3982588749714195,5.46088640204668,0.2215927839279174,-0.2263536602258682,-0.3797950744628906,0.0998468197741219,-0.4697358881312112,-0.0303394340571529,-0.8766176105956306,0.0724608823657035,-0.0238702055066823,-0.0092748263850808,-0.0182867646217346,0.0115129351615905,0.0075721815228462,-0.027597177773714,-0.0027076201513409,-0.0838703242710791,-0.0163909159600734,0.0044676537832128,-0.0840830080405343
128,-0.026425,-0.099215,0.385542,-0.024697,-0.150026,-0.70074,0.697026,-2.473760934561491,-0.1630083958558738,-1.1699252383828165,8.157595675772429,-0.311941285412386,5.433849342039228,-0.1015257388353347,0.3060014247894287,0.1472498327493667,0.0964417902743517,-0.4709734441226659,-0.0336869696379717,-0.8762124583460659,-0.0783981382846832,-0.0889922156929969,0.0224546082317829,0.0291794538497924,-0.0209639072418212,0.0169601440429687,-0.0416222810745239,0.0293347854167222,-0.0476953604969196,-0.0073794149793684,-0.0430350588019937,0.0005665352834912
129,-0.025168,-0.100617,0.385976,-0.024455,-0.148174,-0.704706,0.693424,-2.455622051280737,0.3451561938045546,-0.5840063413798808,7.992662303203343,-0.5471669588802383,5.655823283213377,-0.3001563251018524,0.8635134100914001,0.9414678812026978,0.1054542496908169,-0.4594450779514344,-0.0233125231905558,-0.8816156374560784,-0.0328844562172889,-0.0991540402173996,0.0577212497591972,0.0275725722312927,-0.0071066617965698,0.0070303604006767,-0.0250773318111896,-0.0227448847144842,0.0858524014663882,0.0096733719110488,0.0525628706351621,0.0502315507439197
130,-0.024066,-0.102221,0.386027,-0.024613,-0.148219,-0.707411,0.690648,1.2655804920643567,0.2950117048561573,0.1519558175742626,7.778067366364597,-0.9380045612771064,5.8984910528481,-0.3451806008815765,0.944983959197998,0.8874280452728271,0.1197277359966089,-0.4463413258113905,-0.0063312467040907,-0.8867945315732949,-0.0878475680947303,-0.0995387583971023,0.0905305370688438,-0.0015053153038024,0.0061745643615722,-0.000359296798706,-0.0134783899411559,-0.0656264275312423,-0.0096941425601136,-0.043732900172472,-0.0247586073811864,0.0552572105859406
131,-0.02346,-0.102602,0.386166,-0.02382,-0.149727,-0.708894,0.688828,1.5123305625766514,-0.4375247174330055,0.1078261684685945,7.484630363479257,-1.228091596147418,6.21630787923038,-0.3204638063907623,0.8351275324821472,0.4885248839855194,0.1287944702164296,-0.4277684290716347,0.0084069060319975,-0.8946258797066357,0.1621071398258209,-0.0751670598983764,0.1595360934734344,0.004989743232727,0.0013600587844848,0.0041338205337524,0.0096202287822961,-0.0601070150732994,0.095031103034364,-0.071433424949646,0.0861946846985723,0.1399415820531081
132,-0.020312,-0.105386,0.38855,-0.014512,-0.145211,-0.716896,0.681736,1.3703227230429649,-0.3487418337389826,0.9109107295811176,7.381980720865726,-1.3189692601636052,6.319578284090757,0.0792683959007263,-0.0800932869315147,-0.0031113303266465,0.1319014942032784,-0.4214526149574225,0.0129955733304462,-0.8971124654721311,0.1537488102912902,-0.0986096858978271,0.1140497699379921,0.0008007884025573,0.0366159081459045,-0.00543774664402,0.031647253781557,-0.0310126114636659,-0.1218116766632534,-0.0732961967587471,-0.0573028682364849,0.1239126857968047
133,-0.018493,-0.107555,0.38958,-0.010089,-0.145422,-0.721678,0.676707,1.0239157619923354,-0.41972427232638,0.4640642031818628,7.445422388684749,-1.2620527563296258,6.2564592723548405,0.1167782172560691,-0.146622434258461,-0.1316515803337097,0.1309260142697595,-0.4253420316320515,0.0096692656267857,-0.895460218884656,0.1741451621055603,-0.1030331999063491,0.1066101640462875,-0.007979929447174,0.0282603502273559,-0.020624041557312,0.0384959504008293,-0.0600036159157753,-0.00959006341442,-0.1051733195781707,0.0736212124260375,-0.0716024701818823
134,-0.01757,-0.10903,0.390429,-0.006349,-0.146714,-0.724236,0.673734,0.1370879187881946,-0.158715155641362,-0.0872936680495738,7.454626270359754,-1.209122107261419,6.255954245442152,0.1205647736787796,-0.0083665875717997,-0.082246609032154,0.1304210959304536,-0.4254265260590498,0.0068825720380588,-0.8955195852907183,0.1250340789556503,-0.1373976767063141,0.1221870630979538,0.0034531950950622,-0.0128223896026611,-0.0286747217178344,0.0258773919194936,-0.0575078912079334,-0.0917662560195196,-0.1150605604052543,0.0049846639654628,-0.0619995655521983
135,-0.016669,-0.109974,0.391571,-0.003207,-0.146084,-0.725251,0.6728,-0.5545622202306986,0.273779604800418,-0.7523878085762262,7.491164149162173,-1.1552947285491972,6.222390414014458,-0.0174878593534231,-0.2143725454807281,-0.0553206354379653,0.1293764325659905,-0.427469520159179,0.0040226850656501,-0.8947152809677221,-0.0456242188811302,-0.0951156169176101,0.1007759124040603,-0.0294365286827087,-0.0350221395492553,-0.0116282701492309,0.0094343861564993,-0.030921159312129,-0.0969009794263169,-0.0908366218209266,0.0187889983446046,-0.0932305290189571
136,-0.016225,-0.11008,0.392457,-0.000624,-0.145689,-0.724384,0.673826,0.3038198652118444,0.1712200516231358,-0.2949409777075052,7.4976856598854065,-1.166908667040616,6.212360018387437,-0.1038408279418945,0.1658927947282791,-0.0062664807774126,0.1284383157763361,-0.4280564250675295,0.0050493139930735,-0.8945645685250634,0.2002747654914856,-0.1235274970531463,0.1279801726341247,0.0042886734008789,-0.011744737625122,-0.0362524986267089,-0.0031051072292029,-0.0565410032868385,-0.0430798477917909,-0.0924888327717781,0.0765349901140434,-0.0794918351922184
137,-0.014931,-0.109352,0.394034,0.000459,-0.141849,-0.725682,0.673249,-0.1641062740951776,-0.1455202315688133,-0.2813075891524553,7.436642869901656,-1.2092986328721045,6.277285787284374,-0.219647616147995,0.3220771551132202,0.048866894096136,0.1270408380963815,-0.4241134871835779,0.0086741403610132,-0.8966119749348811,0.4935822486877441,-0.0441785641014575,0.1633073985576629,-0.0195690989494323,0.0139849185943603,0.0426136255264282,0.0055650612339377,-0.0358424000442028,-0.0989827906690537,-0.0844398736953735,0.051514215532178,-0.0490566800119588
138,-0.013609,-0.110451,0.395513,0.003654,-0.136037,-0.727898,0.672045,-0.5347592031300068,-0.0554280188418924,-0.0653542234420776,7.3429708989918225,-1.3098653317317366,6.366742770847678,-0.1787576526403427,0.3558221757411957,0.2574505805969238,0.128119963245067,-0.4185356671102843,0.014640477143015,-0.8989988186038237,0.286954790353775,-0.0793274417519569,0.1451461762189865,0.0291513800621032,0.0267269015312194,0.0297840908169746,0.0089414250105619,-0.0447471179068088,-0.0530856387005187,-0.0504855327308177,0.0692736619081348,-0.0164494460562011
139,-0.013106,-0.111879,0.396559,0.008809,-0.129795,-0.728582,0.672491,0.1958224318295717,0.2090584916301071,-0.4129319818377495,7.236378071710467,-1.4281560494609176,6.462630664241313,-0.1844694316387176,0.2989851832389831,0.2138172537088394,0.1312059111589256,-0.4123914424191031,0.0207568172276467,-0.9012699534074952,0.0572947077453136,-0.039418164640665,0.0825757980346679,-0.0133584737777709,0.0041850209236145,0.017700906842947,0.0163044463843107,-0.0247225780040025,-0.1067228925349656,-0.0336078852415084,0.0432825855559669,-0.0308658267986611
140,-0.012542,-0.113063,0.398615,0.016111,-0.125415,-0.727726,0.674112,0.6651584379345178,2.90799640119e-05,-0.2263391506463289,7.154453821739554,-1.5321683587297796,6.529673571422696,-0.3043372631072998,0.3641475141048431,0.0792516022920608,0.1314575423328627,-0.4078518770498145,0.0271319799401414,-0.903127712686406,0.2331325858831405,-0.0766718983650207,0.0697258487343788,0.0108741521835327,0.0494722723960876,-0.0089906528592109,0.0051373154856264,-0.0227612890303134,-0.0809732237232383,-0.0346794351935386,0.0321371801750385,-0.0047856137124268
141,-0.012671,-0.11424,0.400537,0.024198,-0.121671,-0.72438,0.678147,0.2840519194245338,0.175754334051907,0.0570984362721443,7.060611170437932,-1.6211039487674832,6.609855361640453,-0.232786625623703,0.2804066240787506,0.0483244471251964,0.1302628012779148,-0.4023378710528268,0.0333976861420713,-0.9055609036526788,0.2460680902004242,-0.0509657375514507,0.0187751837074756,-0.0338860750198364,0.022329568862915,-0.0198105573654174,0.0161023307591676,-0.021270690485835,-0.038596464433195,-0.0394233800470829,0.0572216607930138,-0.0359054192679119
142,-0.01123,-0.120541,0.403665,0.035554,-0.104496,-0.721801,0.683242,0.3020569471925496,0.0887849295206368,-0.044521278771758,7.017316218590736,-1.6872136667519806,6.639349167150258,-0.2249271124601364,0.0204341690987348,-0.0027451268397271,0.1287920722511429,-0.4000489874033673,0.0380551393011632,-0.9066008532335136,0.5490401983261108,-0.1179279908537864,0.0977668091654777,0.0324215292930603,0.0272227525711059,-0.0104531049728393,0.0177615936845541,-0.0246013533324003,0.0070887635301769,-0.0165317691862583,0.0027226401717227,-0.0058353990432835
143,-0.010752,-0.124526,0.407015,0.048745,-0.097956,-0.720547,0.684719,0.3356125953137874,0.0164316409714519,0.0079962594509124,7.063667635399103,-1.7231981494553386,6.580697071695328,-0.150688499212265,-0.3111501038074493,-0.1130288913846015,0.1261610934695781,-0.4034994189008398,0.0408172773194601,-0.9053207155748572,0.7745092511177063,-0.0752469450235366,0.182055577635765,0.0281454920768737,0.001842439174652,-0.0116593819111585,-0.005295461975038,-0.0580981262028217,0.0805338002595119,0.0129275768995285,0.0346122947344323,0.0196782764761708
144,-0.009912,-0.128852,0.407709,0.049694,-0.094642,-0.721173,0.684458,0.0487508791655302,-0.0677460870146751,-0.2562579035699367,7.143879820755124,-1.722368566763401,6.493751778692007,-0.1441454887390136,-0.2228230834007263,-0.110990472137928,0.1231393736285934,-0.4088892609122371,0.0414774322858675,-0.903286132368886,1.3507510423660278,-0.0961450412869453,0.2097129225730896,0.0188925266265869,0.0361201763153076,-0.0286863464862108,-0.0087540652602911,-0.0170056894421577,-0.0093544434398383,0.0138245671987533,-0.0017523344056651,0.050686934395181
145,-0.00921,-0.133792,0.408213,0.049552,-0.094525,-0.721857,0.683764,-0.0782674810290336,0.1958819069318473,-0.0541775803893804,7.220619361564516,-1.735951978696883,6.404647261828184,-0.1703010648488998,-0.3808498084545135,-0.1144994348287582,0.1201842508205662,-0.4142554336831715,0.0429686634222248,-0.9011669406116698,1.5794715881347656,-0.1761101186275482,0.213286280632019,0.0290247201919555,0.0631522536277771,0.0115394070744514,-0.0059768110513687,-0.0474660396575927,0.0430362278457731,-0.0174713097512722,0.0942278603600803,0.0962440224880818
146,-0.008559,-0.139338,0.409105,0.049811,-0.09678,-0.721532,0.683772,-0.0693815792620182,0.0044227848783135,-0.2404863339424133,7.344013686043024,-1.7369269612088798,6.262502644172311,-0.2306046336889267,-0.4436987638473511,-0.1877325475215912,0.1159912359387112,-0.4228042084400717,0.044020882957973,-0.8976886314301507,0.6956053972244263,-0.2091006189584732,0.2355076223611831,0.033160924911499,-0.0355772972106933,0.0307479351758956,0.0149597991257905,-0.0252584312111139,-0.0384886155779706,-0.0312554016709327,0.0311003068413934,0.0934914723769295
147,-0.008099,-0.151986,0.410926,0.050962,-0.100037,-0.720593,0.684209,-0.6046914020121097,0.1883015348054468,-0.1670890892982482,7.491612477451563,-1.7366018209077416,6.085256902518868,-0.1898386776447296,-0.7822442054748535,-0.1865964084863662,0.1114810475533663,-0.4332533131981703,0.045053538686229,-0.8932154598672046,0.4524827599525451,-0.1716253161430359,0.3169195353984833,0.0043070316314697,-0.0209794640541076,0.0169329643249511,0.0189146772027015,0.0044646942988038,-0.0223570558149251,-0.0465478748083114,0.053072560023237,0.0447543157760752
148,-0.008368,-0.158731,0.412009,0.051325,-0.100522,-0.718397,0.686416,-0.2087567322045564,-0.0892065159335732,0.3562830428987741,7.703954082405566,-1.711083494900167,5.821655065926909,-0.1234872564673423,-0.7536246180534363,-0.2157609015703201,0.1070323679823653,-0.4485740907332523,0.0442661340303184,-0.8862086519456879,0.3581461310386657,-0.0596986711025238,0.4172557294368744,-0.0083655714988708,-0.0696232318878173,0.0784482806921005,0.0241498760879039,-0.0159503854811191,-0.0383047423444688,-0.0352332070469856,0.0628552188337314,0.0928137831779196
149,-0.00834,-0.164265,0.412594,0.049958,-0.101161,-0.715526,0.689415,-0.99384269528985,-0.214562349743396,0.646451983898878,7.856073566108941,-1.682842465930432,5.623213391509652,0.0912749394774437,-0.6845296621322632,-0.0300209335982799,0.1049153883576933,-0.4598671420300236,0.0426392511176637,-0.8807365122319825,0.3557386398315429,-0.1031735464930534,0.4419060945510864,0.0175925493240356,0.0104295015335083,0.0250496715307235,0.0051275310106575,0.0044221989810466,-0.0347164469453622,-0.0382224805653095,0.0497720571731217,-0.1132530340892262
150,-0.008409,-0.169211,0.413485,0.05095,-0.102109,-0.71304,0.691774,-0.0534241316735744,-0.1752948998466134,0.058811085408926,8.057090643972158,-1.611228305310756,5.353281182852387,0.1360034197568893,-1.026370882987976,-0.2234494537115097,0.1049732297912495,-0.4750694636380158,0.0369812055320867,-0.872881448486808,0.1730633825063705,-0.1184732988476753,0.4415062069892883,0.0036903023719787,-0.0149657726287841,-0.0020044296979904,-0.0271783266216516,-0.0123722348362207,-0.0965612808768637,-0.0313254296779632,0.0417952696076594,-0.0978008052097167
151,-0.008763,-0.173444,0.414172,0.053973,-0.101651,-0.711564,0.693131,-0.3595569500029086,-0.3048312342114746,-0.0279541748523712,8.270897060781717,-1.5324194108814,5.041262813615798,-0.006374969612807,-0.928884208202362,-0.2037440985441208,0.1021000642997309,-0.4918572621106667,0.0323042650589205,-0.8640650022283907,0.2743236720561981,-0.1702730655670166,0.471096783876419,0.0106848776340484,-0.0054647922515869,-0.0316721200942993,-0.0187958274036645,-0.013023629784584,-0.0962496393781155,-0.0201962366700172,0.0242979904323816,-0.1055859791932161
152,-0.008926,-0.175965,0.415424,0.056871,-0.099424,-0.710248,0.694571,-0.2346370233923196,0.0260378198370337,0.0864104554742574,8.480566816177964,-1.4615112065739928,4.7025914152532815,0.1287368535995483,-1.0810757875442505,-0.0999011620879173,0.1007817230458079,-0.5094097643714248,0.0271340649739176,-0.8541712915245485,0.1848760992288589,-0.1589900404214859,0.4559527337551117,-0.0026256442070007,0.0433285236358642,0.0048178434371948,0.0062448922544717,-0.0139075284823775,-0.1286685842201579,0.0020231688395142,-0.0108978786269552,-0.0042190784289356
153,-0.00822,-0.178131,0.416918,0.054688,-0.099439,-0.710961,0.694014,0.2257330014467239,-0.1228933892190456,-0.1376651341542601,8.650469793853164,-1.4441114512227475,4.387971046824753,0.0072723287157714,-0.7720144391059875,-0.0053975768387317,0.1010435590359172,-0.5250546514107739,0.0243587736857837,-0.8446978252744873,0.5870528221130371,-0.0406688377261161,0.4023360013961792,-0.0405496656894683,0.0089669823646545,0.055214524269104,0.019198402762413,-0.0223749484866857,-0.0727656413428951,0.0188494231551885,0.0141228902466886,-0.0346542296134401
154,-0.008594,-0.178209,0.417568,0.052301,-0.100763,-0.71118,0.693782,0.1038870754539966,0.1275463295914232,-0.2719762817054987,8.77216666676402,-1.439718476960808,4.140856526914239,-0.0270609259605407,-0.5717535018920898,0.0843278020620346,0.1016280264484974,-0.5370000681332744,0.0224944993314635,-0.8371360072999685,0.6778514385223389,-0.0426091104745864,0.3489307761192322,-0.0243860185146331,0.0394653677940368,0.039720669388771,0.0163330510258674,-0.0214442927390337,-0.0495453174788504,0.007694243453443,0.0388177836002549,-0.0892267824034672
155,-0.008415,-0.179319,0.417879,0.049472,-0.102174,-0.711711,0.693239,0.3541191428631544,-0.0466924853309988,-0.1289414372116327,8.799661991932988,-1.5188159790731963,4.053336941154301,-0.1928655356168747,-0.0651582852005958,0.188163548707962,0.1030906133665677,-0.5409831817380206,0.0259716079886642,-0.8342871630888904,0.3577613234519958,-0.0026338913012295,0.2325815558433532,-0.035745233297348,-0.0570514798164367,0.0255687236785888,0.028716055676341,-0.0481890626251697,-0.0075562337698094,0.000572407268919,0.0235232797328382,0.0175131640142877
156,-0.008154,-0.180572,0.418228,0.04695,-0.103932,-0.712245,0.692604,0.9292518574357032,0.2672984991528093,0.2289864502847194,8.818440926682948,-1.5854561506725846,3.986454777492584,-0.0970906615257263,-0.2331230491399765,0.0493217818439006,0.1037817488428267,-0.5439566397699004,0.029301025354515,-0.8321550605748568,-0.2519289255142212,-0.0112159280106425,0.1574805974960327,-0.0260725319385528,-0.0160682797431945,0.0049166977405548,0.0462625734508037,-0.0380828864872455,0.025310256764444,0.0177684500813484,0.0556040649619651,0.0409728792749112
157,-0.008194,-0.179884,0.417644,0.044506,-0.10648,-0.712541,0.692074,1.0543015479058029,-0.1019086149878799,0.3161050540283322,8.835097462451458,-1.603810284139216,3.9419823062986135,-0.1089004278182983,0.1350505650043487,-0.0343646593391895,0.1026100713669454,-0.5459435385087529,0.0309918377133264,-0.8309369745400169,0.0849708095192909,-0.0289191845804452,0.0794593021273613,-0.0257878303527832,0.0567549467086792,-0.0400411933660507,0.0433548875153064,-0.0614366680383682,0.005502477865311,0.0302456207573413,0.0497054901763563,0.0298755827854503
158,-0.007296,-0.181715,0.417901,0.040358,-0.112272,-0.713096,0.69084,0.0845756412625312,0.0513170763917267,0.4135872308760881,8.818712144839763,-1.609194023004174,3.976330858363211,0.0244326498359441,-0.0156856589019298,-0.0035809520632028,0.1017623950150049,-0.5442766486791941,0.032038637786459,-0.8320943509957003,-0.1081547066569328,-0.0873267278075218,0.0511346533894538,-0.0124658644199371,-0.0005573630332946,-0.0550712943077087,0.0562276802957057,-0.0702833235263824,0.0859085064346436,0.0258590504527091,0.1335699737951159,0.0566613508959766
159,-0.00703,-0.180609,0.416992,0.038915,-0.114251,-0.714039,0.689624,-0.2545037533789873,-0.1546408188745379,0.1554237859457731,8.82724207277596,-1.58803856838122,3.965895389066637,0.0770513862371444,-0.0774223580956459,-0.011814521625638,0.1020482005877745,-0.5448536579297812,0.0304976516923146,-0.831739517249083,-0.1626863926649093,-0.1055642664432525,0.127253457903862,0.0142889022827148,-0.0108370184898376,-0.0149928033351898,0.0799701511859893,-0.0752577856183052,0.0161116346448019,0.0220812112092971,0.0451030926811275,0.0877672221117652
160,-0.00668,-0.180961,0.417575,0.037979,-0.115473,-0.7142,0.689305,-0.2261918511301278,0.0317784093156456,-0.1778811169475317,8.83080356464982,-1.5908526028886436,3.956829454557597,0.0552185475826263,0.0127726206555962,0.0942664146423339,0.1035122784528214,-0.5453233889341544,0.0296689699101658,-0.8312806228268682,-0.3119014501571655,-0.0764874964952468,0.195730522274971,0.0096214413642883,-0.0311636924743652,0.0092245638370513,0.0696538165211677,-0.0628196075558662,-0.0594152070482261,0.0206392928957939,0.0459386621558573,0.1064273893202654
161,-0.006366,-0.181429,0.41838,0.037679,-0.117083,-0.71432,0.688925,0.0476017091304063,0.0768272190928459,-0.3827107388362288,8.813038775378464,-1.648470971381664,3.9728161282405257,-0.0212355032563209,0.1318066865205764,0.2245293259620666,0.1064006967545679,-0.544477788079277,0.0314116172497457,-0.8314061032538421,-0.4692990779876709,-0.0704217329621315,0.2381214499473571,0.0107258260250091,-0.0496410727500915,0.0238315016031265,0.0588696897029876,-0.0418899208307266,-0.0820920351527165,0.0111348368227481,0.0528741102751111,0.0192476025744806
162,-0.005758,-0.181172,0.416517,0.037177,-0.119019,-0.714805,0.688118,0.5350082094550133,0.0382006974481046,-0.4149231556549668,8.771851609465479,-1.7298536618217826,4.028970269399881,-0.1214069724082946,0.1307464689016342,0.1599969416856765,0.1088202616832117,-0.5416136420690413,0.0351332567057682,-0.8328135659827146,-0.4647370874881744,-0.061559047549963,0.2551595568656921,0.0173785984516143,-0.0266638994216918,0.0128440260887146,0.0585827864706516,-0.0109781250357627,-0.1164170419449452,-0.0111761065199971,0.0185239781747804,0.0243913815039908
163,-0.005702,-0.181412,0.418046,0.037111,-0.120319,-0.714183,0.688541,0.467885222774744,0.0196292679689824,0.0302700505793094,8.747845879977941,-1.792984656256437,4.053490085889399,-0.1599616706371307,0.0688311904668808,0.0743330642580986,0.1089998719888265,-0.5401906169528272,0.0390335838074846,-0.8335403317653186,-0.2282552719116211,-0.0368448086082935,0.2701043486595154,0.0043708682060241,0.0116007924079895,0.0178056955337524,0.0537045374512672,0.0298548769205808,-0.127393942908151,-0.0208790320903062,-0.0403834483146667,-0.0321448817075928
164,-0.00598,-0.179836,0.419163,0.037765,-0.120888,-0.714234,0.688353,0.3798544726222753,-0.1547622532971203,0.4270730276539921,8.748487685012817,-1.812972090013325,4.043200747065246,-0.0336734093725681,-0.0529009476304054,-0.0505936294794082,0.1080862642808273,-0.5405446552537942,0.0408119327430235,-0.8333445670383194,-0.2030109018087387,-0.0579063072800636,0.2391445636749267,0.0225640535354614,-0.0127345323562622,0.0082550197839736,0.0351588800549507,0.038319457322359,-0.1325286754481028,-0.0506316982209682,-0.0265791167896357,-0.0633758406077744
165,-0.00565,-0.179703,0.419859,0.038163,-0.121671,-0.714455,0.687964,-0.0810141493886709,-0.1311841015718877,0.3532125494122505,8.75819951620996,-1.80482721587196,4.025782579274475,0.0045282305218279,-0.0415950864553451,0.0016602341784164,0.1074367171717632,-0.5413777218703761,0.0406494266629377,-0.832895639712073,-0.1239110231399536,-0.0788189396262168,0.2311104834079742,0.0050844550132751,0.0024141669273376,0.0100907236337661,0.0103479921817779,0.0627967417240142,-0.1848912879705428,-0.0641024559736251,-0.0820557582629378,-0.1057180263413582
166,-0.00541,-0.179765,0.420431,0.038363,-0.122482,-0.714314,0.687955,0.0298871887415647,-0.006450052922219,-0.0598345832377672,8.767906086710095,-1.8131433549270035,4.000840445719659,-0.0197411812841892,-0.070558488368988,0.0394899882376194,0.1077851914974658,-0.542538035905331,0.0408214802103921,-0.8320868017795612,-0.0354797057807445,-0.0960409045219421,0.264629065990448,0.0046930611133575,-0.0192195773124694,-0.006577730178833,-0.0068953498266637,0.0475127361714839,-0.0882259347978513,-0.0725752562284469,-0.0254712126299506,-0.1347769018994644
167,-0.005762,-0.179672,0.420081,0.03789,-0.123447,-0.713581,0.688569,0.2493476857900619,0.1224541210189461,-0.2112012027472257,8.760482074189186,-1.83745069770962,4.006010834094882,-0.0522879846394062,0.0480621382594108,0.0470315665006637,0.1082789019076276,-0.5422028648099623,0.0420278430457413,-0.8321811588278097,1.0153839588165283,-0.2339091897010803,0.3417167663574219,0.0166893303394317,0.0366305112838745,0.0200188755989074,-0.0236733090132474,0.080071173608303,-0.1375636830737814,-0.055290337651968,-0.1025305280121974,-0.1049291866517625
168,-0.006443,-0.18004,0.420186,0.031413,-0.119155,-0.712821,0.690435,0.2729728915274143,0.0402406788431108,-0.1987818661570549,8.746433675092458,-1.8668669079385696,4.02306981318444,-0.1476142406463623,0.0998604521155357,0.0432990230619907,0.1078729533689767,-0.541227978409916,0.0441904401209076,-0.8327562211342494,3.629832983016968,-0.0830906480550766,0.5692756175994873,0.0034028589725494,0.1959338188171386,-0.0544510930776596,-0.0146918389946222,0.0399136468768119,0.0249904844748787,-0.0479528903961181,0.0094669570537371,-0.0909612232469487
169,-0.006639,-0.178964,0.421775,0.036377,-0.117638,-0.713302,0.689955,0.2225491107136011,0.0378391706593334,-0.0155903678417205,8.732662923893331,-1.897236034978181,4.038747274787724,-0.1183199808001518,0.0616540424525737,-0.0066778166219592,0.1065414235199847,-0.5402516848442559,0.0470033476893954,-0.8334073189759019,2.9959704875946045,0.0086815068498253,0.6344324946403503,-0.0225185453891754,0.002447485923767,0.077159970998764,0.002342898864299,0.0057320920750498,-0.0135261824455752,-0.0281648375093936,6.37111735093e-05,-0.0006846543709805
170,-0.006412,-0.178813,0.422412,0.036817,-0.115676,-0.713836,0.689712,0.0493061749607324,0.0666094842001795,0.0315361249923706,8.729183849605917,-1.9020643319174648,4.043993651008606,-0.0656965896487236,0.0058817667886614,-0.0132237467914819,0.1051564309745298,-0.5398966157541663,0.0482218828559693,-0.8337436318518319,1.4916975498199463,0.1850740015506744,0.4023262560367584,-0.0367746651172637,-0.1172900795936584,0.1084699034690857,0.0254106279462575,-0.0117216166108846,0.0381850934535963,-0.0157121587544679,0.0500313656964339,0.0540129872450837
171,-0.006027,-0.179205,0.421676,0.035985,-0.120885,-0.713253,0.689466,0.1253758536845445,0.0429880778551101,0.0015209259569644,8.727633697554468,-1.906125882267952,4.045428067725896,-0.0808673575520515,0.0320056304335594,-0.0242842808365821,0.1040894060614514,-0.5397433669507345,0.0491698663224285,-0.8339214165990216,-0.3432130515575409,0.0494711734354496,0.1715525388717651,-0.0331173241138458,-0.0075367093086242,0.1197818517684936,0.038395918905735,-0.0209829043596982,0.0091786958597542,-0.0006701303645968,0.0336318140634102,0.0897100358757656
172,-0.00507,-0.179229,0.420275,0.035647,-0.125266,-0.713399,0.688549,-0.1375333244681358,0.0886556040525436,0.106392920795083,8.722841202580929,-1.918124947619438,4.050090506578981,-0.0701914951205253,0.0514071509242057,0.0420405156910419,0.103163241447762,-0.5393974028982043,0.0505301271555327,-0.8341789837053152,-1.3634692430496216,0.0832305252552032,-0.1779124438762664,-0.0672341883182525,0.0394793152809143,-0.0431570410728454,0.0353879444301128,0.0096510518342256,-0.0074004101663245,-0.0164918787777423,0.0147746401451993,0.0136205747392494
173,-0.003066,-0.179758,0.420521,0.036783,-0.12654,-0.716403,0.685129,0.3215408153414726,0.1888976010024547,0.0197173846438527,8.708339799019694,-1.9469898075759409,4.06748383218944,-0.0252823214977979,0.064254529774189,0.0487232431769371,0.1035950067525209,-0.5384245449606178,0.0521061569283033,-0.8346567937761349,-1.0466523170471191,0.0208268538117408,-0.1578360050916671,-0.0113646984100341,-0.0445823073387146,-0.1011062860488891,0.0358703508973121,-0.0016012965934351,-0.0017421086975286,-0.0349948443472385,0.0557314907339168,0.0396035682496614
174,-0.004437,-0.178952,0.419522,0.036431,-0.127636,-0.71285,0.688641,0.3941641530036926,0.145797733335942,0.0671785162597894,8.686294555950164,-1.962847009660304,4.106812510754168,0.0010306297335773,0.0838013216853141,0.0068411454558372,0.1038146767887193,-0.5364614995412781,0.0531026313160862,-0.8358299841819763,0.6734462976455688,0.0714833214879036,0.0020599863491952,0.0614317953586578,0.0116650462150573,-0.024181455373764,0.0509483739733696,-0.0266187004745006,-0.0083353512164118,-0.0385612212121486,0.06726648223761,0.0369761035396135
175,-0.004793,-0.17896,0.41884,0.036814,-0.130755,-0.710321,0.690646,0.1563701268851757,0.0526405800804495,-0.0813747993946075,8.694394860297441,-1.9419648190207777,4.099593080894649,-0.032231867313385,-0.1005365774035453,-0.0943245217204094,0.1026827773246434,-0.536862655182126,0.0525110691770013,-0.8357495820173767,0.2941021919250488,0.0646944418549537,0.1845222115516662,0.022295206785202,-0.0108821392059326,0.0616031289100647,0.0553246438503265,-0.0018323786789551,-0.0764898357980651,-0.0174414254724979,0.0128238531372975,0.0388007959328359
176,-0.002349,-0.179702,0.418843,0.035935,-0.129572,-0.715518,0.685532,-0.2379880873858928,-0.1624874407216906,0.0581213495790958,8.711068931722641,-1.9295958974435925,4.069931809863448,0.0036928444169461,-0.0331573598086833,0.0214970149099826,0.1018216120516092,-0.5383010430999468,0.0521843707789741,-0.8349498895011415,-0.1419307738542556,-0.2257698774337768,0.2403920590877533,0.0562227368354797,-0.0460500717163085,-0.0591142177581787,0.0447378046810627,-0.008777230978012,-0.0160754593613673,0.0089781647548079,0.0590348476948216,0.0551669567529112
177,-0.002291,-0.1794,0.417213,0.03692,-0.127872,-0.717263,0.683973,0.1026519807010889,-0.1109365555740892,-0.3373874960318208,8.719531639641524,-1.9250325350508093,4.053936368352175,-0.0147642400115728,-0.0252406112849712,-0.009191614575684,0.1018948568773623,-0.5390958316332981,0.0517923621696897,-0.8344522907791706,-1.2763696908950806,-0.4064488410949707,0.2542871832847595,0.0559662282466888,-0.0980736017227172,-0.1000209748744964,0.0263218078762292,0.0012396902311593,0.0343530524264904,0.0234353747218847,0.0748536813970189,-0.0019288771410152
178,-0.004308,-0.17921,0.415172,0.035668,-0.12885,-0.7123,0.689024,-0.0225040927529335,0.1435894096367061,-0.0818827489167451,8.711659298831224,-1.9443280410207808,4.061643873989582,-0.1037660166621208,0.1079840213060379,0.0633331835269928,0.1017773231279058,-0.5386047834459652,0.0530912684142102,-0.8347020410797373,-1.92556631565094,-0.4332572817802429,0.1662289500236511,-0.005204439163208,-0.0601715445518493,0.0006493330001831,-0.0110864108428359,0.002340525155887,0.0122515445585013,0.0201412793248891,0.0294218590850243,0.0286104605037486
179,-0.004946,-0.179655,0.414296,0.03548,-0.131328,-0.711357,0.68954,0.1796089636534452,0.2144324397534132,0.1153606556266546,8.683575944641232,-1.9856926093272864,4.101576655927301,-0.1201881542801857,0.1571326404809951,0.0582594275474548,0.1012833374818611,-0.5364033714645554,0.0561178224825973,-0.8359808724611507,1.1338070631027222,0.0022878968156874,0.340236097574234,-0.0857844650745391,0.2622022032737732,0.089784562587738,-0.0251547377556562,0.0338654816150665,-0.0426884053553687,0.01441615447402,-0.0075872008718753,0.0389049823930952
180,-0.004594,-0.180029,0.413511,0.034011,-0.129765,-0.711752,0.689502,0.0329793095380067,-0.0869799259252846,0.0975713164359331,8.678173793336748,-2.000015587581694,4.106047956122458,-0.0288338921964168,-0.0934148877859115,-0.0334714539349079,0.1005508813916154,-0.5360455531044491,0.0574889332541934,-0.8362055673418229,-0.4335708916187286,-0.1910569071769714,0.2502089440822601,0.0054167807102203,-0.0738453269004821,-0.0404480099678039,-0.013733372092247,0.0255532581359148,-0.0096941425601136,0.001213893527165,-0.0247586073811864,0.0552572105859406
181,-0.004051,-0.180373,0.413423,0.034457,-0.130137,-0.712916,0.688206,-0.1111252100139856,-0.0609472206547856,0.0985474679917097,8.692841785636544,-1.9878908500239247,4.080830512757599,-0.0134134851396083,0.039718147367239,0.0283275321125984,0.1000726684725559,-0.5373004057351286,0.056954511782748,-0.8354938248602151,1.0795574188232422,-0.1727234423160553,0.0391580201685428,-0.0498918890953063,0.0940366983413696,-0.0159082114696502,0.016222208738327,0.0074651399627327,0.0296658695745049,0.0012434478849172,0.0855429336584173,0.0916667777004186
182,-0.001269,-0.180622,0.414423,0.038393,-0.128401,-0.718861,0.682113,0.1579769775599241,0.1371237207539379,-0.0175140293806791,8.668097805002331,-2.0183676752217115,4.118332852678001,-0.0410405360162258,0.1524876952171325,0.1000976935029029,0.1010245710836038,-0.5353663139015882,0.0583641610086528,-0.8365229325427614,0.9179061055183412,0.1496878415346145,-0.1307662427425384,-0.0627890825271606,0.0515103340148925,0.1191859245300293,0.0205218251794576,0.0040330793708562,-0.0077120573732943,-0.0035669594071805,0.0322719193204771,0.0214057510060374
183,-0.000813,-0.180521,0.413958,0.040842,-0.131452,-0.717874,0.682429,0.5210585945576429,0.081873688827455,0.1435927706375718,8.653371945035458,-2.0415276015348733,4.137838348136842,-0.003804387524724,-0.0232786498963832,-0.0276428963989019,0.101317218888541,-0.5342914958159369,0.0596787704615503,-0.8370817600759451,1.1112301349639893,0.4026627838611603,0.0250031854957342,-0.053481251001358,0.0830632448196411,0.0996174812316894,-0.009826548397541,0.0303362887352705,-0.0737847369912546,0.0012933471007272,-0.0548959258257644,-0.0209434010411612
184,-0.004,-0.18031,0.411978,0.038321,-0.132294,-0.713127,0.687372,0.1840940001130104,0.0451633760675787,0.0743786568969488,8.666670987069606,-2.0193322824701667,4.12086120211184,0.0237069390714168,-0.0664886534214019,-0.0536851324141025,0.1007198354271489,-0.535217062935305,0.058627977476402,-0.8366366988832217,0.3334602415561676,0.2846088707447052,-0.1815057247877121,0.0073687136173248,-0.1367644071578979,0.043325126171112,-0.0179954897612333,0.0288471095263957,0.0059979994474269,0.012500500306487,0.0639631207101279,0.021412719602941
185,-0.003448,-0.180341,0.411641,0.039471,-0.132948,-0.714129,0.686139,-0.0213970082938671,-0.0421868444748222,-0.2148445276856422,8.688407018059491,-2.000067171638459,4.084323615570366,-0.0332640334963798,-0.1236069500446319,-0.0561286397278308,0.0998330023954926,-0.5370363729850527,0.0578738797662763,-0.8356290438660208,-0.5952239632606506,0.0175798218697309,-0.1715667992830276,0.0666636824607849,-0.040712296962738,-0.0450092256069183,-0.0318894162774086,0.029874900355935,-0.0461807455497328,0.0096577210351824,0.0402413866625865,-0.0216071576129412
186,-0.00327,-0.180316,0.411277,0.040264,-0.132804,-0.714049,0.686204,-0.0212836110472679,-0.1774222672641277,-0.066921911150217,8.704005569207668,-1.989330089046806,4.056260427385569,0.020093947649002,-0.0760238468647003,-0.0020905430428683,0.0993065304625099,-0.5384124668324977,0.0574481348458445,-0.8348353575477774,-0.6553629636764526,-0.2335946708917617,0.0866206735372543,0.0747327804565429,-0.0268756747245788,-0.2336882650852203,-0.0597448870539665,0.0613573640584945,-0.0854846549993846,0.0122579894959926,0.0109469522078696,-0.0515869245753623
187,-0.00368,-0.180126,0.410747,0.040538,-0.133137,-0.713232,0.686972,0.0590033931106328,-0.1386266726627945,-0.2771197820737958,8.71110634112358,-1.9993954098567368,4.036015803997218,-0.1048594862222671,0.080861248075962,0.047281164675951,0.0991974314039907,-0.5393036217638527,0.0580694439943309,-0.8342297940478489,-1.1059085130691528,-0.4168738424777984,0.0506658740341663,0.042041003704071,-0.0496302247047424,0.1435994207859039,-0.0666441842913627,0.0606804527342319,-0.0598627544529037,0.0081602605059742,0.0490537391362013,-0.0183992238505277
188,-0.00357,-0.18006,0.410234,0.040809,-0.133551,-0.713224,0.686884,0.1147176815479993,0.0732911539211869,-0.014895663575828,8.687564137494563,-2.041474556173384,4.065585305091738,-0.1842781901359558,0.0907476693391799,0.0208133794367313,0.0981893083997249,-0.5375310632666791,0.0614262864159785,-0.8352520354434582,0.7423718571662903,-0.2178345620632171,0.3769064843654632,-0.0215612053871154,0.0555355548858642,0.0302919149398803,-0.0744186714291572,0.0794709920883178,-0.051343526007235,0.0274553578346967,0.0135421711742179,-0.0560530143058626
189,-0.001253,-0.180154,0.409628,0.044036,-0.140583,-0.714696,0.683745,0.2194225031256675,0.0337254517301917,0.4617126716196537,8.673989201128482,-2.064158097146452,4.0830809220328925,-0.0115984445437788,0.003674640553072,-0.0256002135574817,0.0970128862261062,-0.5364422937885832,0.0636433478747603,-0.835923288634279,0.7800427675247192,0.027332903817296,0.2411142587661743,-0.0742244720458984,-0.068598985671997,-0.0658329129219055,-0.0751268491148948,0.0392908006906509,-0.032994262795255,0.0324922986328601,0.0171714059384888,-0.0163522259095567
190,0.000531,-0.180175,0.409603,0.045599,-0.142145,-0.716683,0.681235,0.130828273871541,0.0960635422214865,0.0559954434663057,8.691954481407999,-2.0334214519686995,4.060235760757327,0.0052414475940167,-0.0934781581163406,-0.0898539274930954,0.0959648907174308,-0.5376793174305375,0.0623420982239888,-0.83534736122552,-0.1545831859111786,0.2326073199510574,-0.1475404798984527,-0.0431025028228759,-0.0074619650840759,0.1453582346439361,-0.036563005298376,0.0719838216900825,-0.139169894427713,0.0571170672774314,-0.0324168373666354,0.0672861687521915
191,0.00036,-0.179709,0.409326,0.048471,-0.144859,-0.714279,0.682987,0.0867915637463331,-0.0223990249432623,-0.0762871208667755,8.702921281102299,-2.018358615132421,4.044227167503536,-0.0491373464465141,0.0106440084055066,-0.0378945283591747,0.0947981317843884,-0.538464498686444,0.0621110457346161,-0.8349919412579035,0.2491791993379593,0.3280630111694336,-0.2004100978374481,-0.0683071613311767,0.1500027775764465,0.1227171123027801,-0.0414494015276432,0.031404573470354,0.026660917888151,0.0515670850872993,0.0839947635015007,-0.1170275019934866
192,0.00117,-0.179985,0.408551,0.046057,-0.142581,-0.714688,0.683206,-0.0405371775716543,-0.0500073089674115,-0.0159600779369473,8.704404213136433,-2.0119987247116864,4.044204371149838,-0.016451520845294,-0.0141873527318239,-0.0318076349794864,0.0937272779497067,-0.5384312470674956,0.0624080214360337,-0.8351120935772022,-0.3132050633430481,0.1916372179985046,-0.3086483478546142,0.0066892802715301,-0.1210313439369201,-0.0456936359405517,-0.0665104612708091,0.0343936532735824,-0.1176436976630706,0.0476527586579322,0.0653822622264735,-0.0809722921414766
193,0.00055,-0.179461,0.408564,0.047621,-0.140923,-0.712769,0.685444,0.0513981788039207,-0.0387561393737792,-0.1574368793338537,8.711680341619253,-2.0064907749451697,4.031255749988556,-0.0085610356181859,-0.0671758651733398,-0.0153980311006307,0.093409297529852,-0.5390642324278425,0.0622327612120571,-0.8347524598271759,0.2067355960607528,0.2314051389694214,-0.2605194449424743,0.0102073550224304,0.1177034378051757,-0.0069808363914489,-0.0752368047833442,0.0444332435727119,-0.0738564048548229,0.0644104778766632,0.0753633707850938,-0.0074061115380376
194,0.001085,-0.179392,0.40768,0.04755,-0.138992,-0.712983,0.68562,-0.0519493829458951,-0.1125295238539576,-0.2249523724630475,8.719706996208428,-2.0150179264023897,4.009586646755039,-0.066196896135807,-0.0467755272984504,0.0450999327003955,0.0930708244679688,-0.540009095817323,0.0629138684650937,-0.8341281457853247,0.1539629250764846,0.0466104596853256,-0.1721707284450531,0.1067215800285339,-0.0517044067382812,-0.2249903380870819,-0.0886727273464202,0.0641530081629753,-0.0171462988966959,0.0660871863365173,0.0971444875922985,-0.0540893038843059
195,0.001547,-0.179589,0.406846,0.046793,-0.139725,-0.712981,0.685525,0.4835615153342485,-0.205363290373981,-0.1015706152051687,8.71675691423118,-2.033514537079632,4.006663160523772,-0.0927523449063301,0.1283592730760574,-0.0008667593356221,0.0926386862732144,-0.5399801820176233,0.0643306229937538,-0.8340869660871,0.0340303964912891,0.041096918284893,0.1049247086048126,0.0536704659461975,-0.0754430294036865,0.063280314207077,-0.0863460972905159,0.0441511385142803,0.00701709338332,0.0515100508928298,0.1329819356409367,0.0077018881765514
196,0.002073,-0.179587,0.406565,0.047882,-0.139659,-0.713045,0.685398,0.3063859163075685,0.1010677802495658,0.1021843631893396,8.707035146161914,-2.03752786437422,4.0257182818666095,-0.0799571126699447,-0.0478386059403419,-0.0998649597167968,0.090946424598516,-0.5389112911676236,0.0657275068474229,-0.8348552893485098,-0.2781767845153808,-0.3600069880485534,0.3292585015296936,0.0719507336616516,-0.0291709899902343,0.0504525899887084,-0.0769221261143684,0.0492134317755699,-0.0427881257030647,0.0515635199844837,0.0821685435881838,0.0492273649703245
197,0.003482,-0.179311,0.406022,0.049894,-0.139952,-0.714463,0.683715,-0.0407481899738311,0.0293335003815591,0.3050374243080616,8.720179289895295,-2.0123311715364456,4.009912809969484,-0.04498777911067,0.0924060493707656,-0.0590020269155502,0.0885783943290429,-0.5396672640838922,0.0656550239360888,-0.8346272834222546,0.3620199859142303,-0.0683325305581092,0.1564208567142486,-0.1063084006309509,0.0315829515457153,-0.0356621444225311,-0.0756149813532829,0.0498874969780445,-0.0149566445069562,0.0427348352968692,0.0382979221613262,0.0311337364702485
198,0.003958,-0.178767,0.406014,0.052553,-0.138669,-0.714297,0.683951,0.0361830740153789,0.2096139335557818,0.1078928039640188,8.712828342610598,-1.9991298907883464,4.032430054464936,-0.0055642290972173,-0.0001995312486542,-0.0602733194828033,0.0875472638195487,-0.5386137190124812,0.065563288339639,-0.8354233788018791,0.5051483511924744,0.1912645250558853,-0.0274388492107391,-0.0600767731666564,0.065564751625061,0.1480129957199096,-0.0404119901359081,0.0649574026465416,-0.0241833168274373,0.045208740979433,-0.0127066062660655,0.07471318608094
199,0.005704,-0.178408,0.403929,0.055215,-0.142504,-0.714714,0.682516,-0.1269634151369333,0.0526627919122576,0.0881201820015907,8.721998322016,-1.9822395462639628,4.020928417241573,0.0083660893142223,-0.0374773107469081,-0.0235800426453351,0.0865963216546553,-0.5392135947969403,0.0651030111646774,-0.8351714904592367,0.4045597016811371,0.4548466801643371,-0.0646737068891525,-0.0659994184970855,0.1388381719589233,0.1881089210510254,-0.0266468375921249,0.0386102795600891,0.0304169345369795,0.0422106198966503,0.0012961812861351,0.0689889358157757
200,0.006433,-0.178369,0.403589,0.056438,-0.141953,-0.714669,0.682577,0.0340986689567565,-0.0252498843297362,-0.1234966158092021,8.725686655139922,-1.9795947308436035,4.014223951166868,0.0159765295684337,-0.0098873768001794,0.0281442441046237,0.0870300740286736,-0.5395859017344595,0.0646420301826283,-0.8349217640918312,0.1623367071151733,0.5577370524406433,-0.429977685213089,0.0210191309452056,-0.0266698002815246,-0.0244099199771881,-0.0406361036002635,0.042019672691822,0.0064654696870595,0.0447205193340778,0.0377172019472112,0.0097349540611146
201,0.00619,-0.177871,0.404096,0.059856,-0.138337,-0.713609,0.684137,0.126115273874998,-0.0311880422070622,-0.1750596297860145,8.726445364552736,-1.987273594908416,4.008774745850265,0.0059558558277785,-0.0811947509646415,0.018546087667346,0.0874980575259185,-0.5398243186642222,0.0648002423705157,-0.8347063677550018,0.2906219661235809,0.1262345165014267,-0.1829697787761688,0.053268164396286,0.072092056274414,-0.0789079070091247,-0.074760116636753,0.0325252376496791,-0.0542605550982523,0.0376470871269702,0.0090034848524985,0.001153971791116
202,0.005699,-0.177035,0.403531,0.06159,-0.135927,-0.712276,0.685853,0.2757961322546005,-0.1118095390163362,-0.1165568796738982,8.731040291127561,-1.9977813987888395,3.9935175554856657,-0.0266542360186576,0.0603936612606048,0.055310595780611,0.0880662396169111,-0.5405152351412966,0.0650427141912587,-0.8341804254128322,-0.4493448138236999,-0.2051980793476104,-0.1006277725100517,0.0904166102409362,-0.2011487483978271,-0.0189018845558166,-0.0889832749962806,0.0401803813874721,0.0096941425601136,0.0361257158219814,0.0247586073811864,-0.0552572105859406
203,0.006028,-0.17704,0.402407,0.05941,-0.133173,-0.713267,0.685555,0.4810772973030805,0.0062481006093323,0.0241448456972837,8.716698462042212,-2.01393597638458,4.016669298492372,-0.0288819689303636,0.0326099693775177,-0.0479454882442951,0.08791573660642,-0.5392813546272834,0.066200262172074,-0.834903667410486,1.3176751136779783,0.3849702179431915,0.1855062395334243,0.0193088054656982,0.026747703552246,0.0563569664955139,-0.1269969642162323,0.0278698913753032,-0.0426123764105141,0.0537541098892688,0.0502890667845495,-0.0911695961674675
204,0.006482,-0.176522,0.402082,0.062211,-0.128315,-0.713386,0.686109,-0.034787820264697,0.1275192954540252,0.1591957056999206,8.74070360700786,-1.9804815966807303,3.980977807386219,-0.0021165250800549,-0.1578655242919922,-0.1187985986471176,0.0861454262701797,-0.5410892238224677,0.0651849390474825,-0.8339978658373431,1.5245399475097656,0.3842845261096954,0.3824367523193359,0.0105324685573577,0.025730550289154,0.1711838245391845,-0.1573396027088165,0.054828755557537,-0.0714629521133378,0.0668748468160629,0.0251408732805983,-0.0593651345285354
205,0.007109,-0.176389,0.401615,0.063049,-0.126908,-0.713568,0.686105,-0.2003974846601486,0.0242526899859309,0.1214127952724695,8.756974942851066,-1.9511359674699604,3.959653572067618,0.0664881020784378,0.026931494474411,-0.0219825729727745,0.085651847962833,-0.5422770802110035,0.0636350229723679,-0.833396681920832,3.798476457595825,0.2386036664247512,0.5554648637771606,0.0184857845306396,0.1539316773414611,0.0271990299224853,-0.1492749005556106,0.0621160343289375,-0.016882628150453,0.0958462953567504,0.0622745009029051,0.0714149939189199
206,0.007449,-0.17618,0.400871,0.063008,-0.12687,-0.713131,0.68657,-0.0699129096597433,0.0966208838433027,-0.0596469517111778,8.744554437217117,-1.944645144145936,3.990177889668941,0.0017266585491597,0.1305903196334839,0.0252547953277826,0.0859630689903655,-0.5409018388477395,0.0631090294098605,-0.8342978536590883,3.3076040744781494,0.02051249332726,0.2574323117733001,-0.0559240728616714,-0.02596116065979,-0.0512927770614624,-0.1087846010923385,0.053871814161539,-0.0315556745096342,0.0895455628633499,0.0425715831758221,0.0915486586129292
207,0.008007,-0.176114,0.400182,0.063371,-0.12646,-0.712843,0.686911,0.1348328333377838,0.0656663581311702,-0.11408230625391,8.716381066656112,-1.9623229857862,4.042817592966556,-0.0291480962187051,0.1469899266958236,0.038434512913227,0.0863251227625074,-0.538297700747365,0.0641034840621306,-0.8358674042564389,4.436141490936279,0.0878922194242477,0.2137266993522644,-0.0247287601232528,0.1632612943649292,0.1480296850204467,-0.0686292424798011,0.0515992939472198,-0.0286667001860332,0.0763058140873909,0.0066067196300311,0.0311267724399222
208,0.008583,-0.175999,0.399745,0.064347,-0.125547,-0.712409,0.687438,0.2615384743213653,0.0260470260567963,0.0868359874099493,8.695169936323165,-1.9652007331795989,4.086856348918378,0.0404601320624351,0.1073447838425636,-0.0069553423672914,0.0862951206932877,-0.5361707984208212,0.0644142580325779,-0.8372125693988633,3.102292537689209,0.1430655717849731,0.1534293889999389,-0.0804726928472518,-0.0485132932662963,-0.0031880140304565,-0.0384120531380176,0.0563107021152973,-0.0573614528561942,0.0832997858524322,-0.0272901123199146,0.0590386470871046
209,0.009573,-0.175098,0.399263,0.06641,-0.119324,-0.712354,0.688406,0.288771933683753,-0.034212504594773,-0.0248936182379722,8.686341902223228,-1.9562669006176288,4.109850563275814,0.014621103182435,0.036366581916809,-0.0272230207920074,0.0863608086644411,-0.5351402540600876,0.0638815465329449,-0.8379056468397601,0.9897688627243042,-0.059663251042366,0.026428110897541,-0.0251400470733642,-0.0850594043731689,0.0091293454170227,-0.0282244924455881,0.0185531880706548,-0.0007791173038967,0.0789008140563964,0.0437432025047717,0.0194629395253257
210,0.010613,-0.174958,0.398827,0.067555,-0.118331,-0.712715,0.688093,0.1365419753432273,-0.2244891388654708,-0.0815998403221368,8.68833570638895,-1.938223002143949,4.114183624044061,0.004925210494548,-0.0275968499481678,-0.054646085947752,0.0856441116230274,-0.5350101133621253,0.0632391209290018,-0.8381110468084886,1.463314414024353,-0.0427904166281223,0.1967686861753463,-0.0077230185270309,0.0872724950313568,0.015796959400177,-0.0347684957087039,0.0097994022071361,-0.0386245123507454,0.0634370222687721,0.0167181080713926,-0.0391203193439403
211,0.011902,-0.175169,0.397749,0.066135,-0.118407,-0.713434,0.687472,0.0549029720544815,-0.1058684585295617,0.0239434779062867,8.701739377841353,-1.9084031795501708,4.099769314244389,0.0639751628041267,-0.0714465454220771,-0.0696412548422813,0.0850514000174557,-0.5358708969897712,0.0617439282585619,-0.83773282331159,1.707371473312378,-0.262020081281662,0.1962687373161316,0.0319307893514633,0.0399889349937438,-0.0354000926017761,-0.055359598249197,0.0066984007135033,-0.0272362404079409,0.0623120032250881,-0.0316274885036749,-0.0006916206845955
212,0.012322,-0.174897,0.396634,0.066197,-0.117255,-0.713425,0.687673,-0.0141419225990772,-0.0578521772488951,-0.0923036051660776,8.71437148039937,-1.8817504426851868,4.085233423891664,0.0267971977591514,-0.031209809705615,-0.0374563783407211,0.0847034652727924,-0.5367276167001159,0.060287035953475,-0.8373256568020032,2.522926092147827,-0.056208599358797,0.3834949731826782,-0.0486167967319488,0.0922473222017288,-0.0577752590179443,-0.0518692173063755,-0.035187903791666,0.0524187220572726,0.0596307888627052,0.1364837514831219,0.0487719904522178
213,0.013214,-0.174664,0.395934,0.067047,-0.116094,-0.713341,0.687875,0.0700759912669658,0.0748486124962568,-0.0153553900420665,8.718290115147829,-1.8727444216698408,4.081009376455843,0.0288919676095247,0.0124009186401963,-0.0154059408232569,0.0845544848835119,-0.536980814433676,0.0598166837642285,-0.8372121315284763,1.6141177415847778,-0.2036138623952865,0.253338485956192,0.0522598773241043,-0.0229866802692413,0.0553184747695922,-0.0386206582188606,0.0068451333791017,-0.0791949346048757,0.0946150422096252,0.0805436366669368,0.0985450020399875
214,0.014003,-0.174514,0.394823,0.067446,-0.116093,-0.712838,0.688357,0.1749929942905903,0.0407572500631213,-0.0380704951971769,8.709591260385514,-1.8596024698935447,4.10552013285607,0.0434713438153266,0.0927540957927703,-0.0247328002005815,0.0846739213395622,-0.5359068215146967,0.0589966440353543,-0.8379461190200896,0.8351545333862305,-0.0194952152669429,0.2129819393157959,-0.0061481297016143,-0.0096813589334487,0.0515509843826293,-0.0354912877082824,-0.0276199467480182,-0.0185487084739492,0.095039464533329,0.1758822530142031,-0.0190560118254041
215,0.017028,-0.174915,0.389395,0.063801,-0.120759,-0.712337,0.68842,0.0783370391339063,-0.0582277325630187,0.0196089558333158,8.68967835316956,-1.8370820105277,4.1575247531205415,0.0923924297094345,0.1937651485204696,-0.0422820672392845,0.0845300591017572,-0.5335532837600758,0.0578456696769165,-0.839541241606492,0.1710777282714843,-0.118495188653469,0.2736698687076568,0.0050727874040603,0.0128175839781761,-0.0633304715156555,-0.0563667491078376,0.004918657708913,-0.100908772029262,0.1229502856731414,0.0754907965570455,-0.0087754214216431
