time_imu,phone_acc_x,phone_acc_y,phone_acc_z,phone_gravity_x,phone_gravity_y,phone_gravity_z,phone_gyro_x,phone_gyro_y,phone_gyro_z,phone_ori_w,phone_ori_x,phone_ori_y,phone_ori_z,watch_gyro_x,watch_gyro_y,watch_gyro_z,watch_acc_x,watch_acc_y,watch_acc_z,headphone_gyro_x,headphone_gyro_y,headphone_gyro_z,headphone_acc_x,headphone_acc_y,headphone_acc_z,frame_imu
1722327902778403300,0.081772493475303,22.717029401171207,-6.44863136498332,-0.3009913272550329,9.62893371822536,-1.8339593484625216,-0.6979490518569946,-0.7755134105682373,0.2357455790042877,0.4950362200350564,0.5827063358464785,0.503943681214424,0.4017874429822001,-0.1471614241600036,-0.2073538303375244,0.1351805031299591,15.156521666669844,-12.762879978483914,2.9055799876987933,0.3646286725997925,0.1603021621704101,21.16984438283444,0.747614860534668,0.9420647964533416,-1.2698581693835556,0
1722327902818174500,0.7157398204628378,22.51702237713337,-3.748122698974609,-0.2175963106118142,9.64219242824912,-1.7751504550106822,0.1190102472901344,-0.3154664635658264,0.2803875207901001,0.4992549662682016,0.58853387379042,0.4941005627446261,0.4002961351932975,0.6958968043327332,0.4339833855628967,-0.2595880627632141,16.35082146785259,-20.66066970281601,-1.028994672691822,0.2984965443611145,-0.7454316020011902,19.27532359816432,1.341852068901062,0.9886480492562056,0.1282266308726277,1
1722327902857944300,0.5043146727666259,9.097291185811162,-5.525635060811043,-0.2527740069769322,9.683275549265742,-1.5299271556742489,-1.228888750076294,-0.2423819899559021,-0.2511650025844574,0.5104415881169714,0.5849151796080412,0.4856735603455892,0.4018020114808707,0.4979435503482818,0.9945698976516724,-0.4885948896408081,9.485119706052542,-7.219375498983264,-0.9395710068762302,0.095166727900505,-1.460945963859558,5.768959833049774,0.6880692839622498,0.6329575654231011,-1.120959766618535,2
1722327902897714400,-1.263461600214243,-6.937292249283194,-2.3962428105950355,-0.3240438476709649,9.753771811771392,-0.9640187079776078,-1.76289963722229,0.4865614473819732,0.0013868628302589,0.5274818288200624,0.5666082184637715,0.4776048603692313,0.4154656423733918,1.7405133247375488,1.642877221107483,-0.7292950749397278,-1.447496563616395,-0.1743459285587072,-2.394752864298224,-0.067562811076641,-1.6626189947128296,-10.388673643130064,0.3772322237491607,-0.8974796586651355,0.870823999190703,3
1722327902937485300,-0.0366661813572049,-15.270753610527514,-0.3921522286593913,-0.2609631221188232,9.80314462222755,-0.0251874204026418,-2.834487199783325,0.9116882085800172,0.1096628233790397,0.5464785707341131,0.5357562782849752,0.4628708364962967,0.447299615164187,1.686727523803711,1.0053441524505615,-0.8013269305229187,-10.810678573739528,10.501155528450012,-2.3211668190836905,-0.1532329767942428,1.7364462614059448,-9.053611034038662,0.5138840675354004,-1.839559944948554,0.2613471347340382,4
1722327902977255200,0.1784538022689521,-15.223344209098816,6.297782047346234,-0.2154144365280866,9.77952935336232,0.6962794062547385,-0.4653529226779938,0.2214913666248321,0.1486571580171585,0.5583738868805829,0.510214213325499,0.4518640121200053,0.4729895384541571,0.3775979578495025,-0.1759446561336517,-0.1554329544305801,-13.661929589879511,9.775817639362812,-4.242735769677162,0.0695037990808487,-0.2965202033519745,-8.427324470812081,0.413250207901001,-0.7012094100028275,0.7202718378692865,5
1722327903017025300,0.3077356869487092,-13.857788846588134,1.9812632485777133,-0.1576491521113552,9.789292037963866,0.5615286617098376,0.6858031153678894,0.0290146898478269,0.107756532728672,0.5529305459395081,0.5148800238020489,0.454167995240273,0.4721206421911877,-0.3908174932003021,-0.4772548675537109,0.3490921258926391,-10.542911434161663,9.17193053947091,-2.721888723167777,0.1944633722305297,0.192829355597496,-10.55901267413497,-0.0930232480168342,-1.5758130007974802,-1.0514115255527197,6
1722327903056796200,0.0988424323502928,-11.86076981047392,-0.0605851093441247,-0.1399929469141643,9.801607329657672,0.2815999231625348,0.7975452542304993,0.0926443636417388,0.0568940937519073,0.5443799226661195,0.5224328041895452,0.4612010029559028,0.4669134682139917,-0.3887237012386322,-0.6804877519607544,0.6680541038513184,-9.065188074585794,7.737315669259429,-2.234176517894864,0.0831897929310798,0.2497838884592056,-10.015188705539703,-0.4987744987010956,-1.4378051906853913,-0.797901240190491,7
1722327903096566300,-0.044556971139647,-10.32217258774042,-1.2459949171066282,-0.0917629863501992,9.805922854769229,-0.0765020468256669,0.9926443099975586,0.0767345204949379,0.1524885147809982,0.5323802986271445,0.532177093017747,0.4697744784009686,0.4611624027211522,-0.1319142878055572,-0.5996586680412292,0.6693404316902161,-7.877408030560612,6.110110188746452,-2.4718705907702443,0.1344218701124191,0.059235006570816,-9.782861128133534,-0.4772202372550964,-1.4023457547694445,-0.5619974482653662,8
1722327903136337200,0.3166346308603882,-9.300621216791868,-2.45321031396389,-0.0671886631944682,9.799362181079388,-0.3719469509007409,0.4940347969532013,0.1854298710823059,-0.0047372849658131,0.522817584269163,0.5397795472625642,0.4770765734881665,0.4557385594936454,-0.3317395150661468,-0.2983121573925018,0.5218517780303955,-6.784400612163544,6.927910088431835,-2.6223417227447032,0.0373024605214595,0.1344271004199981,-10.076245524048804,-0.3242606222629547,-1.4258911732688546,-0.6621925008010119,9
1722327903176107300,0.8134728302665054,-7.091986551910638,-0.3907715879559517,-0.084588025820069,9.792197111755607,-0.5254597886586562,0.3386925160884857,0.3802750408649444,-0.1865436285734176,0.5163805502675677,0.5406694213422316,0.4842185155455605,0.4544888702795682,0.4153911471366882,-0.2762722373008728,0.3880651593208313,-6.622073038178682,4.958424955931306,-1.9399854817718267,-0.1777040213346481,-0.4478347897529602,-9.297908450701833,-0.2635798156261444,-1.1867689672864974,-0.3438119030561298,10
1722327903215877000,0.2813367969806306,2.464258362200856,0.821641377544403,-0.2433287725604139,9.780137840649486,-0.6782881878163665,0.3024665415287018,0.1900556534528732,-0.5290741920471191,0.5135410443357382,0.5382370931184586,0.4948574578171472,0.4491018999939065,-0.1226837858557701,-0.5890955328941345,0.1969233006238937,-3.5140041464984413,4.266396631249785,-0.7741757158838212,0.3275602161884308,-0.192976027727127,14.47078513560891,-0.9366876482963562,3.619494565495848,2.057510183564573,11
1722327903295418000,0.7959629656042904,16.24176488080621,-3.602957856714725,-0.2975200344152748,9.653320555984973,-1.7015459973566234,0.533261775970459,-0.102795273065567,-0.2702216506004333,0.4859083366727054,0.5632759009015986,0.5191097790805835,0.4208780616452588,-1.1559412479400637,-1.156816005706787,0.4827627837657928,8.739336410307883,-6.468673451536893,2.928855064824224,0.1416505873203277,-0.7043704390525818,24.528394932770727,0.4848259687423706,3.7197178577452896,0.8211801167082041,12
1722327903335188000,-1.682992249664664,10.335373430097102,-3.511207501517236,-0.3248450079860165,9.56971872819066,-2.117859292195737,1.2234808206558228,-0.2478529810905456,0.2566267251968384,0.4758120210904577,0.5750171727345247,0.5266270245327237,0.4069669455699549,-0.1486221849918365,-0.0992840379476547,0.5825089812278748,10.965761583423614,-12.859804229187963,1.6729647766470908,-0.1399271190166473,-0.1679923236370086,2.641661924764514,-0.0987873524427414,0.2349855445690453,-1.1292303129661827,13
1722327903414729000,0.5263318587854504,-6.135597681224346,0.3120388275027275,0.0232870027419528,9.724505969798564,-1.2664279026739298,-1.469926118850708,0.0283368751406669,0.1570137441158294,0.4864744761597965,0.5551501541857703,0.5063379900526555,0.4458394063473151,1.03937828540802,0.6686506271362305,-0.1901103109121322,-3.499564702257514,3.583243102419376,-1.727939644894004,-0.0726027265191078,-0.297733724117279,-6.027312078550458,0.1760776937007904,-0.6392303620822727,-1.6791028410106896,14
1722327903454499000,0.4823275896251201,-8.621168880566954,2.7319045057475564,-0.033713971354952,9.756767486456036,-0.9872797565776854,-0.001162014901638,-0.3622701466083526,-0.3194507658481598,0.4978119059224112,0.549006199272992,0.4989283044980601,0.449272733729693,-0.4517420828342438,0.2412855327129364,-0.3722741901874542,-6.904472514221072,8.696605522084235,-4.152423630589246,-0.0984520092606544,-0.0699229463934898,-6.1614475772738455,0.0721179693937301,-0.934230961022526,-1.8696689597472549,15
1722327903494270000,0.4856596201246604,-8.013899152499437,1.0123860677182674,-0.1923699715544469,9.736976159793135,-1.1509502696041016,0.6965993046760559,-0.2880940437316894,-0.34279865026474,0.4997972366314369,0.5525060088797251,0.5034076318418677,0.4376307241251039,-0.7361099123954773,-0.1000983715057373,-0.1243296936154365,-7.204021277984976,5.234221672707796,-2.513026777023077,0.0264546647667884,0.1358104199171066,-6.028308103850484,0.0298407059162855,-1.1944161941040303,-1.8450453906223176,16
1722327903534040000,0.1840590018648654,2.1591391048282382,-0.1753847700871527,-0.2617212104771286,9.694255208441614,-1.457161633062363,0.9656089544296264,-0.242445558309555,0.0319329053163528,0.4948756320502078,0.5612515406997066,0.5092065124867584,0.4252101043195746,-0.841101348400116,-0.6361277103424072,0.2504357397556305,-4.138794333687424,0.5399591098606586,-0.8117857539623975,0.3991560637950897,1.0265105962753296,1.280155253122747,-0.5223149657249451,-0.4637119556780904,-1.75749804007262,17
1722327903573810000,0.4266292294092476,26.19412099033594,-2.6304478723108766,-0.1177772700480185,9.632713236764072,-1.8350373529575763,0.9685251116752625,-0.8354335427284241,0.8758965730667114,0.4839856416721721,0.5787060725636458,0.5085864190001942,0.4149663640920774,0.0831641852855682,0.7032582759857178,-0.3805102109909057,16.963726571458576,-14.467766664570568,1.8804361452162264,0.3955920934677124,-0.0206902809441089,16.956221310395,-0.2018254697322845,3.114645639722049,0.8648231513407081,18
1722327903613581000,2.298718986562639,29.599391205871104,-10.870445936959982,0.1275050933987367,9.64845499577522,-1.7496907273225486,-1.976842999458313,-0.1234581470489502,0.5250961184501648,0.4879593580106467,0.5909227676477289,0.4899180348600455,0.4155552190871385,1.0295382738113403,1.2504358291625977,-0.131589874625206,20.079524011564253,-21.80159797929525,5.553291129499674,0.6129019260406494,0.0642731934785842,28.07023985687494,0.7541415095329285,2.766184084229171,1.2211211726129054,19
1722327903653351000,-1.252371466401219,12.438001543152332,-1.9733844780266283,0.3292570522746071,9.753554369628429,-0.9644502312626688,-1.845261812210083,0.2894864082336426,0.6168068647384644,0.5045858574966664,0.5730875774970995,0.4698339111431331,0.4429671732270146,1.8748273849487305,1.8330069780349727,0.1697797030210495,14.091782311379909,-18.40950756332874,1.1530220343768596,0.0323027148842811,-0.8377777934074402,12.73776541097164,0.4973378777503967,0.9343732921026646,0.412614367255941,20
1722327903693111800,-2.343821426223218,-9.03466901768148,-0.2730219913661479,0.5350021815730258,9.790937467083335,-0.1473101289265789,-2.245278596878052,-0.0368014648556709,0.3959798216819763,0.5226347767099924,0.5556950279198327,0.4457732182330153,0.4683398145383891,1.5970351696014404,1.6728445291519165,0.1243199333548545,0.5723614962935447,4.200336889886856,-2.9412004593953487,0.025235142558813,-1.522688627243042,-4.779543429769575,0.737813413143158,-1.0149481732912362,2.301833757582307,21
1722327903732882700,-2.4230370017573235,-16.588737074524165,4.367073512485623,0.6046406947381794,9.774988787323236,0.5043784587178379,-0.9187482595443726,0.5499837398529053,-0.0541632138192653,0.5376478449598756,0.5382236541012042,0.4296500367775784,0.4864678659105532,0.6351897716522217,0.9922375679016112,-0.861601710319519,-9.982039300131795,16.70789887599945,-9.212926566725969,-0.4473613500595093,1.332354187965393,-12.19107728511691,0.076969102025032,-3.752422149734199,-0.0888742791713681,22
1722327903772652800,0.9122183781135826,-15.870298881822825,4.288147859808802,0.4843493777763098,9.77585855589509,0.6069471450496464,0.6685479283332825,0.2144503593444824,-0.392161875963211,0.5373481954244759,0.5273305369294728,0.4370089395626978,0.4921408738939637,-0.277514636516571,-0.288152813911438,-0.1343347132205963,-14.508169986629484,11.596897924768925,-5.514203566214442,0.0255843177437782,-0.718871533870697,-7.966547034215926,0.0551942624151706,-0.7473416311025619,1.525683380624652,23
1722327903812423700,0.3716310533519834,-12.294335415017605,-0.0869464620471,0.3945134048327803,9.797782218411564,0.1349798497261945,1.283544421195984,-0.6776102781295776,-0.0804624632000923,0.5306447679490376,0.5418024499261243,0.446730397705193,0.4746559079749599,-1.3791176080703735,-0.5401408672332764,0.180180937051773,-9.193084971180555,8.53782658049166,-2.193085213571787,-0.0015362111153081,0.0279943421483039,-10.404247644358874,-0.0253111366182565,-2.140591786877066,-0.8125751507744192,24
1722327903852153300,0.4885035017810761,-9.00898395680487,-1.559249550139904,0.3789457602795213,9.7951787579149,-0.2850333499436266,0.934073805809021,-0.2977334558963775,-0.0560433194041252,0.5237065067144959,0.5570429491719981,0.4519245611622447,0.4595636482591966,-0.5318856835365295,-0.7054692506790161,0.3853811621665954,-7.3660045685768125,4.382976599538326,-2.696653159624338,-0.0408663377165794,0.0694944337010383,-9.340748644518852,-0.5896697044372559,-1.3619057539619503,-1.3891567489810288,25
1722327903891921700,0.4536400224642828,-8.812930054306984,-2.9015339271783827,0.3044240964489988,9.786471719846128,-0.5501568248786032,0.3111249208450317,0.0469227880239486,-0.3213110864162445,0.5189986592508223,0.5635165816126241,0.4588019768625285,0.4501001903093653,-0.3043763339519501,-0.3201794922351837,0.0641436129808425,-5.403936434334517,6.004325170716643,-3.178074155798554,0.0364953354001045,-0.2195751518011093,-9.7601360861063,-0.4831923544406891,-1.3919083857767285,-0.6081071652723475,26
1722327903931691300,0.697574706762284,-10.003813909566402,-1.5432394955813884,0.1459325204304419,9.788933726045489,-0.5708403146082535,-0.1261558532714843,0.0963591709733009,-0.5003674030303955,0.5208785163609814,0.559132356534154,0.4652695612410116,0.4467446813610095,0.1017690300941467,-0.1412877738475799,-0.2088246643543243,-6.868439077809453,6.383659418857097,-2.558349435305596,0.0452913790941238,-0.0473615489900112,-10.342322226321697,-0.2881322205066681,-1.5480679386511444,-0.7752335543736815,27
1722327904011228200,-0.5420411402991041,-4.542013315284252,1.1657294671934098,-0.1534746794383041,9.78456793205142,-0.6396036523740738,0.5104447603225708,-0.1030406579375267,0.0039641200564801,0.524842265777536,0.5528624885316076,0.4763966627533116,0.4380982208828592,-0.2272290885448455,0.0497499741613864,-0.0491028502583503,-6.19957886274755,3.794268948599696,-0.6247459096558392,-0.2050977796316146,2.635393619537353,-8.282481115591526,-0.5433838963508606,-3.02071267978847,-1.5533752512790262,28
1722327904050997500,-0.0764885982556268,13.854052582669258,6.202775612962245,-0.206775239531137,9.773424606746437,-0.7796095044355839,1.1964226961135864,0.4491077065467834,-0.2300407439470291,0.5207504932492937,0.5538477360031507,0.4827025057081712,0.434821610171207,-0.7785431742668152,-1.7395786046981812,0.6218072175979614,0.1693845067590475,-0.9842758255213498,-0.1056540851265191,-0.4067308902740478,-0.1933565586805343,9.633250996902584,0.5277696251869202,1.904290921925753,-0.4543120399743318,29
1722327904090766000,-0.4903764560461044,14.446610479295252,-4.161064033162593,-0.2639465949090197,9.669435239961745,-1.6133010199315845,1.596139430999756,-0.3116105496883392,-0.069970317184925,0.4975804194637998,0.5739341686822131,0.5028469259791221,0.412502454042806,-0.4928945899009704,0.0052690613083541,0.0245294254273176,17.3493707333982,-15.117487294876575,3.77602251329124,-0.0804912522435188,2.449754476547241,9.797208217915893,0.1358005404472351,-1.9058464808046816,0.1046712937674019,30
1722327904130534400,-0.316245704608038,13.811723845505714,-1.2143487558685242,-0.287990756710805,9.643669515064358,-1.757005288119614,0.3272501230239868,0.1320246160030365,0.0722937360405922,0.4952758883202396,0.5788147481276953,0.5045352560034253,0.4063488460432908,-0.5393843650817871,-0.7163887619972229,0.3381853401660919,12.1975502805233,-10.683082121396064,3.175800950169563,-0.1340201497077942,-0.5980947017669678,10.054911644119024,0.0563398264348506,1.3716842206545172,-0.3949062766078859,31
1722327904170303700,-0.4544699339497834,5.190719800111651,-4.2553921298936,-0.2343121570858173,9.621458852300048,-1.8822931712597608,-0.3782129287719726,0.6667864918708801,0.0625866577029228,0.4872842743435677,0.5795739947070396,0.5099649292964853,0.4081468418698568,0.2887698113918304,0.0051694060675799,0.4098879694938659,6.3752709452182055,-8.452458912068606,1.2864333104789256,-0.1425843238830566,-0.8092159032821655,4.955800452646613,0.0795683935284614,1.5371316802255808,0.560625648455508,32
1722327904210072300,0.1535622298575937,-3.832098036256432,-0.0362311509408056,-0.1595478618721477,9.673202483540772,-1.6043962673336267,-0.7107593417167664,0.4084193110466003,0.0024797359947115,0.4887003641693127,0.5681030407358781,0.5089797456876867,0.4235216027402176,0.8787707686424255,0.5743351578712463,0.2761518657207489,1.4172025476396084,0.4136217176675796,0.2109948665201663,-0.1565133780241012,-0.3371557593345642,-4.312571522447467,0.4337188601493835,-0.5045495044358075,0.0895704264756757,33
1722327904249841700,-0.0689653814102523,-7.385666715902089,1.9180664954304687,-0.1755424448668956,9.707144500631092,-1.382363727840036,-0.43306764960289,0.0866525694727897,-0.1145321577787399,0.493717061007024,0.5599195969678468,0.5069230498950218,0.4310018547906324,0.3449366688728332,0.2690939605236053,0.1105987280607223,-4.694634318768978,6.868121682423353,-1.9542057303041216,-0.1121765971183776,-0.0689202845096588,-5.368636572894454,0.3985432982444763,-0.4440977756803855,-0.2063783674343489,34
1722327904329378600,0.843609463724494,-6.222393921145796,0.4200033815287053,-0.3088048870828002,9.646253101816772,-1.7392089346662165,0.8925625681877136,-0.581598162651062,-0.0271365381777286,0.4896877971605313,0.5696671020650871,0.5139595043524907,0.4141629894779104,-0.8466074466705322,-0.4021898806095123,0.0136500792577862,-6.327240781542659,5.3532671543270345,-0.5899141041189432,-0.0049778027459979,0.7714735269546509,-5.778443700709938,-0.1060259267687797,-1.340223352855444,-1.4366555822588505,35
1722327904369148000,0.5520202075976878,8.489792909684777,-0.8097814284026622,-0.2581319355471991,9.590918752607704,-2.029292973861843,0.9701083302497864,0.1053883135318756,0.1829368323087692,0.4821412825485746,0.5811252554397411,0.5155177838717345,0.4050612802288336,-0.7001641988754272,-1.096463322639465,0.5043421983718872,-2.8908009362399576,-1.622972957509756,-0.4367050350805744,0.3116254508495331,0.7743756175041199,2.794237043280899,-0.676803469657898,-0.2709467011957429,-0.9756169374432414,36
1722327904408916500,0.0730858771400526,21.94045466132164,-11.487711573863027,-0.3168457528604194,9.462493448224665,-2.5556279013872145,0.9336714744567872,-1.4131836891174316,0.2369047254323959,0.471788800356869,0.5989182696906638,0.5211503352690666,0.3835552615318321,-0.526461660861969,0.5318920016288757,-0.6358580589294434,21.24946561655998,-17.835878823578355,0.5802957964241504,0.4504474401473999,0.0185358114540576,15.861777721714972,-0.1712652742862701,2.352606644094735,-0.2229915937840938,37
1722327904448685000,-0.8412832127340137,24.617915629220008,-8.480811730849743,-0.2832435439174063,9.587895020872354,-2.0402080433689056,-2.811657428741455,0.1560913324356079,0.1853656321763992,0.4924594643514738,0.5936682549135412,0.5015771732900677,0.3917423955668564,1.4072892665863037,0.3623751997947693,-0.7243989706039429,20.39505126570463,-18.36211920468807,4.356436967658996,0.265301764011383,-0.2952578961849212,27.366753734111786,0.6000450253486633,2.6424510293155907,0.1044848221514374,38
1722327904488454400,-1.1907181433036922,12.555055558693407,1.192094984614849,-0.1172640963614918,9.705633511546251,-1.399044229006022,-0.7801082134246826,-0.2577998340129852,0.5339210629463196,0.5083299453990864,0.5810543500093869,0.4834327705231782,0.4126370428766991,1.112733244895935,1.2509106397628784,-0.3601482808589935,14.003477420461175,-16.327992380928993,0.5001882404863834,0.0466219559311866,-1.0697338581085205,10.884523562151193,0.4575517773628235,1.2644869977392257,-0.0500845023894682,39
1722327904528222700,-1.2045027768976986,-7.056302075067162,-2.7769372411727904,0.0928451372974086,9.772523858514427,-0.8121202466137707,-2.3319292068481445,0.1258545666933059,0.5982801914215088,0.5224936725658548,0.5721344545098529,0.4626756694846841,0.4308058927683238,1.7889434099197388,2.021073818206787,-0.3168317675590515,2.7390625608086583,-0.0776204152971506,0.9224567904680968,0.074001669883728,-2.127603769302368,-6.983226901984215,0.1868339926004409,-0.2174263791386969,0.2326863642485812,40
1722327904647529200,-0.0718005135046318,-13.223056526577473,0.3330126419484615,0.2989502316151745,9.779146491524576,0.6703073451302946,1.075012445449829,-0.1334807574748993,-0.4679126441478729,0.5604659606496539,0.5365217731796756,0.4218628004940131,0.4690992470588098,-1.1600656509399414,-0.4414095282554626,0.066031128168106,-9.827962837141753,9.362284184500574,-6.457469335955381,0.1545613706111908,0.2125179171562194,-10.342556035077571,-0.1324262768030166,-2.27426609782949,-1.2400775097563863,41
1722327904687298600,-0.2592355859401635,-10.506277109247446,-1.5847165843516586,0.1464087870395276,9.8005855853945,0.3121980001198127,0.7778462171554565,0.180263951420784,-0.2837365567684173,0.5537517046992301,0.5429539557169019,0.4350670450778674,0.4574676835334884,-0.3971249163150787,-0.5773487687110901,0.3988885283470154,-8.083410495620965,5.035533330053091,-2.9524285403743384,-0.0476937778294086,0.3467943668365478,-9.579357494151592,-0.5271650552749634,-1.7159643988095223,-1.2626793637953695,42
1722327904727056100,-0.0269406504282727,-9.586303367766735,-2.369109304475784,0.0845511004763189,9.805372235149145,0.1338225146509241,0.1199005842208862,0.5066896677017212,-0.083249345421791,0.5468661039810834,0.5433106707763231,0.4449611954015108,0.4558075423450957,0.3099882900714874,-0.4683057069778442,0.1772599220275879,-6.229095464611053,5.687047858038544,-2.901798131072521,-0.037062719464302,0.1173703297972679,-9.777858789801597,-0.4420007467269897,-1.555033539880067,-0.407121578525938,43
1722327904766824400,0.5090537935851142,-9.367222809946536,-1.4161118297934532,0.0019585093754649,9.80551135135889,0.1494294683012645,-0.0903769433498382,0.5272555947303772,-0.3285546004772186,0.5444264862862888,0.536283402678748,0.4525277114196955,0.459585224590006,0.2425841987133026,-0.3222270905971527,-0.0019823433831334,-6.501217876788973,6.484594074246287,-3.287443462055921,0.0003472745884209,0.0687355101108551,-10.036953962624072,-0.3619686663150787,-1.3098312833316623,-0.3559891379861161,44
1722327904806621000,0.3411853539448231,-8.091531258234381,0.1212824468910694,-0.1650618577869609,9.804432908472418,0.1274153875549789,0.2765796482563019,0.3864783346652984,-0.4421261847019195,0.543417458674022,0.52869033201588,0.4625907005429475,0.4595583380041899,-0.1215442195534706,-0.4003460705280304,-0.0005221321480348,-6.901437676569819,6.007273499128222,-3.20784736277163,0.0261767338961362,-0.0897412747144699,-10.056017559534313,-0.3978971540927887,-1.125075677504763,-0.2300778622506186,45
1722327904846362400,-1.809909049180895,2.1252555399268864,0.9466226789534092,-0.258980661331024,9.80295757522285,-0.0731877529122168,0.4424799680709839,0.59315425157547,-0.1243077963590622,0.5369391662558347,0.5286389787204622,0.4735740355439634,0.4560316562771284,-0.3173845410346985,-0.5107475519180298,0.0871264934539794,-4.932374568873644,3.747761464446783,-1.9309744923204184,0.561816394329071,2.3431475162506104,14.708506681013109,-1.45587158203125,1.8877054055668407,0.280921402846463,46
1722327904925927700,0.3042198243148625,14.16009304654002,-7.146592586845159,-0.3060154024947434,9.730897132140395,-1.177447450581193,-0.1752188801765442,-1.1655853986740112,0.0146744064986705,0.5115608587484354,0.5618988591845804,0.4942699499140879,0.4222231681482787,-0.8473507165908813,-0.7783743739128113,0.1480172127485275,5.5791281660676,-8.896929941508173,7.3829615485966205,0.4880723655223846,-0.750259280204773,26.567649182546138,-0.151370108127594,4.1020951268434525,1.2921759457841515,47
1722327904965697000,-1.5080968705296516,9.115662708804011,-0.5925402879040688,-0.2969814888254739,9.76291665673554,-0.876153231389448,-0.6961631774902344,0.8955160975456238,0.1699496060609817,0.5192967543546092,0.5533720170071655,0.4883142345845254,0.4308822062981661,0.975283980369568,0.0208043996244668,-0.1472699046134948,11.890732402539252,-11.439860273885726,2.492712887790799,-0.1979121565818786,0.1924235820770263,5.780059903734922,-0.3157706260681152,0.1418405018764548,-0.5821999130124226,48
1722327905005467600,0.858151637687534,3.4518805755406614,-0.9963654187005012,-0.2690282455548644,9.78850293341279,-0.5321825575750321,-1.243717908859253,1.0367207527160645,-0.2440831810235977,0.5189872752468635,0.5346659292586504,0.4911884602466265,0.4511301810222775,1.0892521142959597,0.3519468009471893,0.0298935640603303,4.113299826946855,-4.308157797658443,-0.4731524956531822,-0.220201626420021,-0.3230037689208984,3.74699311042279,-0.3113265335559845,0.4077507798075676,-0.1773925297129899,49
1722327905045237000,-0.2579353717954829,-1.4131827906042336,1.493653334635496,-0.386404223059304,9.79872388317585,-0.0779321572605986,-0.8734216690063477,0.6886180639266968,-0.3066304326057434,0.5263295960011457,0.5115299239815425,0.4922505163964576,0.4679782588945781,0.9311367273330688,0.5015670657157898,0.0505074933171272,1.0481155527472494,0.6995891153246164,0.2855110321916639,-0.0602660700678825,0.1875107288360595,-0.9333750748455524,-0.2106464803218841,-0.3024825339271687,0.595346577496454,50
1722327905085006600,-0.271284280853346,-3.317424758821726,1.0528495955318211,-0.4100160578584298,9.797181914430857,0.13228008011505,-0.3990057110786438,0.7586761713027954,0.114801749587059,0.5256848173460938,0.4983858459334839,0.4948405212897487,0.4799998844117606,0.8426002264022827,0.2075812071561813,-0.097608670592308,-2.025748871514201,1.835098873886466,-1.355498225007206,-0.0041189836338162,0.040819376707077,-1.4723673855006694,-0.1422401070594787,0.2780090590637177,0.4471833936708048,51
1722327905124777000,2.2045003415554763,-1.4048276347130535,2.9273429066956043,-0.4812740254515781,9.792015325447917,0.2349484822279773,-0.0945230275392532,1.1862330436706543,-0.5735405087471008,0.5203397199236591,0.4838669602225843,0.5038786821041803,0.4911472882039305,0.7555556297302246,-0.0596786737442016,0.1157411634922027,-2.872508908224105,2.778480378961563,-1.222387247025967,0.0541079007089138,0.1838086396455764,-2.102060688430816,-0.0423352047801017,-0.0139318029627553,0.5362025338061154,52
1722327905164546600,-0.5998332944564521,-1.5672066466242074,1.8083336165577173,-0.6851049551591277,9.78261153728664,0.0393913868037052,1.0696189403533936,-0.0324872247874736,-0.2722154557704925,0.5144161978772827,0.4772004036009142,0.5198763054767823,0.4872212170172211,-0.5130051970481873,-0.1425445824861526,0.093089111149311,-0.8070598944842815,2.244990757375956,0.6568105885669588,0.0483123958110809,0.3419481515884399,-1.0860343645140529,0.1330709606409073,0.0819390091486275,0.4320884081305935,53
1722327905204316000,-1.0986024619251489,-0.9552928921431304,0.7095066982269287,-0.7094688504345714,9.768498840782046,-0.4934298887999728,1.456149339675903,-0.1465242654085159,0.1227697432041168,0.5039591489168399,0.4927939552778976,0.5313304443555041,0.4699651644890683,-1.2699066400527954,-0.1830788999795913,0.0762040019035339,-0.0959013373970985,0.1202063420921564,0.0761842450141906,-0.0595194362103939,0.5178945064544678,-0.8125139951717107,0.2688046991825104,-0.0073198785762884,-0.1574430168136954,54
1722327905244086500,-0.3264850668106228,-1.759922344610095,-1.6375157159946858,-0.648852688365057,9.733958857798577,-0.9996968281455336,1.154173731803894,-0.1778462380170822,0.3732810914516449,0.4893134875656983,0.5070878364097371,0.5420629849221089,0.4578229529663986,-0.6432921290397644,0.1195407733321189,0.1529371291399002,0.5779693993031978,0.0519856233030557,-0.1868563044331967,-0.1624663174152374,0.5139399766921997,-0.077732168575935,0.0955515950918197,0.2450500981939956,-0.7187953355759382,55
1722327905283856000,0.7883480336211621,0.7517834129422902,-1.357602211549133,-0.4923645611234009,9.709680156588554,-1.284549104167521,0.127478539943695,0.6211113929748535,0.1328761428594589,0.4790372328652429,0.5196318392309359,0.5435775313641388,0.4528018746356148,-0.7665970325469971,-0.003318834118545,0.3700012564659118,-1.389718328386545,0.163581373438239,0.3497644547849893,-0.2270263135433197,0.294266790151596,0.2600627757456153,-0.1178695037961006,0.2435818888049572,-0.5606042768739163,56
1722327905323626500,0.2443547728735953,0.3683341306984424,-0.7897999859951436,-0.473150340228714,9.714247610634564,-1.2569427198395131,-0.0843923240900039,0.6896330714225769,0.0688650012016296,0.4707417452310171,0.5092408790188744,0.552050694832043,0.4629427111406264,0.0735184848308563,0.1036275327205658,0.2027323096990585,1.389295134538412,-1.784694966816902,0.0548426201693713,-0.2059544771909713,0.2576206624507904,-0.098275345652597,-0.1482252478599548,0.1380303142048418,-0.0549823300341609,57
1722327905363395800,0.8762123411655426,0.5069955824136734,-0.4589874844394624,-0.3942296194553375,9.704573188838362,-1.3550687475487588,0.4287490248680115,-0.0615871548652648,0.1274838149547577,0.4640012857991417,0.5111324973030882,0.5548268624163936,0.4643419518100759,-0.6606281995773315,-0.1662501692771911,0.0211611911654472,-0.8426695525258779,-0.2508019762516021,-0.7849041767776012,-0.2018707245588302,0.0995437800884246,0.3850552196031436,-0.0991984903812408,0.2964518937271088,0.0559798577381065,58
1722327905403165400,-0.6149165895588695,-0.5237760368227958,-2.476744334286451,-0.3922942309459671,9.70134838157296,-1.3785190351106225,-0.4328263401985168,0.341289609670639,-0.0989335551857948,0.4623362407590278,0.5105497764922076,0.556438527502652,0.464715229897597,-0.1248409524559974,0.112925000488758,-0.0217094421386718,1.01626027880311,0.4445867647737264,-0.8739192617923021,-0.1866654753684997,-0.00467788008973,0.3258675194341689,-0.046141617000103,0.2033825831518508,0.1449773659969214,59
1722327905442936000,-0.3480152364974841,0.0629839871793985,0.2840846526503562,-0.4049613317521289,9.727954064425823,-1.1718848480179904,-0.3879042565822601,0.0511439405381679,0.0091052651405334,0.4652860646295794,0.5020079876982806,0.5547409128174456,0.4730321849256957,0.0667300820350647,0.0598137453198432,0.0054053985513746,0.119403209015727,0.1247971770137548,-0.5399351444631815,-0.154300108551979,0.038367960602045,-0.1381146223542746,-0.05188974365592,0.1407399293565656,0.1965095190445892,60
1722327905522474800,-0.3750136084623635,-0.0856961697250604,0.2679704070650041,-0.2850377338577993,9.704701783654093,-1.3812746174290775,0.4060081243515014,-0.0084707774221897,0.295179933309555,0.4610289970635654,0.515271997364697,0.552195774330359,0.4658614963726814,-0.5973533987998962,0.19063700735569,-0.070860743522644,0.1014893666625022,-0.4399579359292984,0.1130741521246731,-0.0850872620940208,0.034852135926485,0.0162518890739302,-0.0747488215565681,0.2476208619974553,0.1038417202086187,61
1722327905562245400,0.6520921817429364,0.7577700861364602,-0.4683106085799634,-0.2405886618057265,9.701149644130467,-1.4142796459302305,-0.0403917245566844,-0.3958286345005035,0.0626920908689498,0.4601094550762648,0.5185336355951232,0.5506642018733905,0.4649634691484222,-0.5665405988693237,0.0827067568898201,0.0954290255904197,0.058684244158864,0.104660397914052,0.0329711262315511,-0.0296493489295244,0.0848669186234474,-0.0979119465671479,-0.0981528162956237,0.0134045733514125,0.0601995760586811,62
1722327905602014700,0.1335175312218256,-0.0567114827811717,0.4480767988465726,-0.256669370447658,9.702951140594482,-1.3990242091313003,0.0203211735934019,0.0858967155218124,-0.0104471296072006,0.4636668785563783,0.520989927721321,0.5476311514909176,0.4622583240389186,-0.1902484595775604,0.09688600897789,0.0112168816849589,-0.5545569595336913,-0.3049789721190929,0.1720580368172377,-0.0018664511153474,0.1344174742698669,-0.1680161044826731,-0.12611885368824,0.1305705362508073,-0.0174466586663154,63
1722327905641785000,-0.0994082130068913,-0.2493056002140045,-0.5673533127427101,-0.2061519747999496,9.696526660504937,-1.450958540638536,0.1007842198014259,0.0849503278732299,0.2468887418508529,0.4596276184604197,0.521950112280158,0.5491323877368108,0.4634266393929889,-0.443950742483139,0.1105454713106155,-0.0196823105216026,0.0012193126618862,-0.5487672702163457,-0.2736280675005167,-0.0058198105543851,0.0721273943781852,-0.134654097503703,-0.1668905466794967,0.1769089474471286,-0.0024498094423121,64
1722327905681554700,1.0002290353260934,0.1377116036444902,-0.281768776923418,-0.1737804949619807,9.70081120595634,-1.4263440316028893,-0.1464110314846038,0.6064035296440125,-0.1826663762331009,0.4559302013875336,0.5180589601227149,0.5516685814526786,0.4684061980948865,-0.4182243347167969,0.1080139726400375,0.1713975667953491,-0.8468143972456454,0.4441396055281162,-0.5405950696766376,-0.0261435806751251,0.0924815759062767,-0.168276015794184,-0.1527907103300094,0.0409393560312222,0.1133056045266799,65
1722327905721324300,0.5001099145531654,0.2917226001828908,0.4541723392426967,-0.2767012278681621,9.69958078737855,-1.4184367656096817,0.1189766898751258,-0.3068884313106537,-0.2742650210857391,0.4553295593638587,0.5110285483047124,0.5578261124778583,0.4694197273608063,-0.4916253387928009,0.1667682081460952,0.2126210331916809,-0.1441845990508794,0.7684744355022907,-0.4512831206072121,-0.0152453044429421,0.0996320620179176,-0.3480244427172467,-0.1108798459172248,0.0087136550392257,0.1785378090242855,66
1722327905761094700,0.7810173984721303,0.090771573293209,-0.2501544721283018,-0.360086965226382,9.687897363847494,-1.4783090505093337,0.0928238779306411,-0.5166056156158447,-0.064585767686367,0.460699084580055,0.515980028760146,0.556001256101853,0.4608510619552297,-0.5068178772926331,0.0896595269441604,-0.040492121130228,0.7056406704485416,-0.3492985908389091,0.8636702549785376,0.0398903265595436,0.1310576796531677,0.0059418979041045,-0.1046381145715713,-0.0170439835914701,0.0149829171675955,67
1722327905840633600,-0.7673600445196032,0.3892325418204069,0.4585374025844037,-0.3659955682156607,9.709062316951156,-1.330625795687735,-0.2526610791683197,0.3246946334838867,0.3336247205734253,0.466612312213965,0.5144967381899171,0.5505780078285427,0.4630659019344964,-0.6653076410293579,-0.0787294879555702,-0.1223036274313926,0.1331686995178461,-0.6794967598885298,-0.6506318999320269,-0.0586726441979408,0.1660729646682739,0.3556885476043447,-0.1027310863137245,-0.058358291006973,-0.0666540950934635,68
1722327905880404000,0.753546696287766,0.3228063052326441,0.5464648384928703,-0.2563010485919192,9.720420746311545,-1.2720578713849189,-0.0618881247937679,0.2286348789930343,0.1276098936796188,0.462613812023974,0.5127691388992701,0.5494767614199898,0.4702463621512148,0.367779940366745,0.1047937870025634,-0.0172712169587612,0.2548065357178449,-1.3484914149850606,-0.5027630594104529,-0.1009492054581642,0.1047945246100425,0.0596227762511465,-0.0484249144792556,-0.1618157520052045,0.0126471117558365,69
1722327905920173600,1.1600184691354631,-0.1065326215267181,-0.0407061043977737,-0.2879303865593858,9.724489603185653,-1.2336077292203902,-0.1574165523052215,-0.0523370951414108,-0.2748700678348541,0.4638675556521526,0.5103477112880741,0.5499469998912552,0.47109490513115,-0.3677087128162384,0.1540592908859253,0.1203789860010147,0.0648176323473453,0.4385790487915277,0.1549882806053385,-0.1040126085281372,0.081337921321392,-0.0603944501768099,-0.0701129734516143,-0.069341840906674,-0.1528705395326949,70
1722327905959944000,-1.0945096396535634,0.5542769735485314,0.3797847683869302,-0.3716396385172382,9.726875037017464,-1.1917184794526547,0.0159837678074836,-0.4059340953826904,-0.0182317271828651,0.4685453318770001,0.5088007341077617,0.5494383925336447,0.4687266146512481,-0.0458747595548629,0.22830730676651,-0.0340398773550987,0.0841606307208538,-0.7214572482615709,-0.1137624997150152,-0.0889053642749786,0.0507988408207893,-0.1913006618225015,-0.1268103569746017,-0.0387658570501953,-0.1090231779671274,71
1722327905999668700,0.0326534385845065,-0.1577268021911382,-0.089918317464739,-0.3798129350354894,9.717177234345677,-1.2659478640720248,0.2255561351776123,0.0616091787815094,-0.0430182106792926,0.4686457213688025,0.512541261027798,0.5494058901590543,0.4645706951102606,0.2508357465267181,0.1832774132490158,-0.1908527314662933,-0.2401233458489179,-1.044755720925331,-0.485711459909752,-0.1066180095076561,0.076573297381401,-0.1264590001455973,-0.0872815325856208,-0.0928752949736546,-0.0555004127912456,72
1722327906039436500,0.5220377417881041,-0.231663560539484,-0.3666824179686606,-0.4469200300268828,9.70746598767042,-1.3174891046084465,0.06716238707304,0.2022731900215149,-0.2590469717979431,0.4675661418982719,0.5103018466471086,0.553863953277469,0.4628269594116626,-0.1628069579601287,0.2141231000423431,-0.1956167817115783,0.0937415290147066,1.346903269010782,-0.3009422639489174,-0.137264609336853,0.0564481988549232,0.0754189962627366,-0.05749287083745,0.0252857913267565,-0.1480570657032076,73
1722327906079205600,-0.0565344091812148,-0.0458382065892219,-0.1866926383040845,-0.5041576555740088,9.70644073627591,-1.3042965916886924,-0.1772561520338058,0.490141749382019,-0.0783602818846702,0.467105316270623,0.5057415638056447,0.5574281035421644,0.4640171192530183,-0.3792473971843719,0.100225992500782,-0.2685204744338989,-0.3202367470055818,-0.4614262558937072,-0.1872217036794871,-0.1763744205236435,0.0365952588617801,-0.0186409875839948,-0.0600462257862091,-0.0092627933758107,-0.1684199908421374,74
1722327906118973200,-0.3275890094645321,-0.0982177976459264,-0.6037291328512132,-0.441099068788439,9.721410926392672,-1.212422463981062,-0.3126662373542785,0.8922314047813416,0.2057509124279022,0.4616054382550583,0.4977965665868952,0.5603703408108576,0.4744512508727695,0.0968246012926101,0.183485671877861,-0.2293204218149185,0.0270206933945417,-0.0551408724635839,-0.0970125865746289,-0.1985529661178589,0.0406206585466861,-0.1457432084034197,-0.0280240941792726,-0.044012680795649,-0.0718456723871873,75
1722327906198509800,-0.7364762459561228,0.222497088265419,0.9700048697151245,0.2520993956509977,9.732592245620488,-1.1762053415656089,0.1249170899391174,2.204655408859253,0.8663762807846069,0.3961891308950332,0.4623254882982612,0.5884088088743048,0.5320378662741873,-0.7175067067146301,-0.0878090038895607,-0.1171105280518531,-0.4179641307860612,-0.0916775822222232,1.0248756200004367,-0.1500190645456314,-0.0104929031804203,0.0646422164149349,0.0383428782224655,0.1254020475717261,0.0741675485966494,76
1722327906238277600,-0.8095989845078438,-0.1159405013412237,0.2305401825327426,0.6433514606002718,9.71504256040454,-1.1723588952705264,0.0304814241826534,2.76368260383606,0.8084594011306763,0.3604449446523784,0.4470682817533007,0.5999196771320182,0.5570509479778489,-0.2292179465293884,-0.004755716305226,-0.1717201173305511,-0.0124210901558399,-1.6533587434232233,-0.8769365637868642,-0.1243378072977066,-0.0788602754473686,0.0741524834582582,0.0585293620824813,0.1184057498104404,0.01958802492643,77
1722327906278046500,-1.9652805204175408,-0.2104652896881103,0.0165420425433665,1.2374429234690965,9.671601478084922,-1.048442885005474,-0.0348440557718277,4.055009841918945,1.4822250604629517,0.3061387508432084,0.421990507495559,0.6126823991926837,0.5939893291675189,-0.3331224918365478,-0.0190722849220037,-0.1738556325435638,-0.1494195770949125,-0.2929915972054004,-0.2529331065287813,-0.1439788341522216,-0.0256763510406017,-0.0988550178372301,-0.0167962312698364,0.0022620249353843,-0.0561641693630255,78
1722327906317814300,-1.1408500966764985,0.2110544877529144,-1.0107167462665587,1.988397484371811,9.575844517594575,-0.7210401188280433,-0.359631210565567,4.233271598815918,1.626067280769348,0.2362394668459516,0.388679174230306,0.6210405099491066,0.6383010813417834,-0.4523069560527801,0.009557869285345,-0.1060087457299232,0.1983867293596267,0.2139081236183643,-0.1758358748555183,-0.160048097372055,0.1142910942435264,-0.1941896429959684,-0.1627415269613266,-0.0028009883670049,-0.0486012963606975,79
1722327906357582000,-0.732126818574965,-0.2767570862412452,-1.190047988957167,2.6842987049639224,9.431436046659949,-0.1137449092593975,-0.7205533981323242,4.384926795959473,1.6480227708816528,0.1662537593028351,0.3509296571431893,0.6185852830110297,0.683052213694426,-1.0008405447006226,0.0819304957985878,-0.1070903167128562,-0.0382470208078622,0.5973433773368597,-0.0209562879221979,-0.1396129727363586,0.1322563141584396,-0.1280371635819785,-0.3285838365554809,0.0177419495351729,0.1199298541051801,80
1722327906397351000,-0.3727659756660461,-0.9360001626521348,-1.4791291347205635,3.234285580103099,9.227568255540728,0.7494961787879466,-1.140562891960144,4.39900016784668,1.532559514045715,0.0943801903618715,0.3054100826186952,0.6070510780673849,0.7275341565807721,-0.8749165534973145,0.0892840698361396,-0.1330403685569763,0.0247749602943658,-0.4511059374094009,-0.0571276532334741,-0.0616419985890388,0.1179070174694061,0.0234160930313169,-0.3699848651885986,-0.0044169750503904,0.3407255909459665,81
1722327906437118700,-0.0284270530611276,-0.8194728013336658,-0.8310412201829254,3.5224648085907098,8.967090103927255,1.8313686013169583,-1.8345389366149905,3.4439501762390137,1.0155984163284302,0.0354994645781367,0.2602526952408421,0.5821466520010343,0.7694891224605558,-0.7574796676635742,0.0912325978279113,-0.0729810148477554,-0.1048831007540225,0.1856190177232027,-0.1461596985161304,0.0141303613781929,0.0966171473264694,0.1050406568027567,-0.3655766546726227,-0.0310451631376519,0.3331557767461985,82
1722327906476887600,1.0531383493453264,-0.945975613221526,1.2988184525385498,3.400525359095633,8.728477162641287,2.90180836020559,-1.4037741422653198,3.39017391204834,0.1454916596412658,-0.001146465151928,0.2146017344775928,0.5531681881890226,0.8049532238935148,-0.6852832436561584,-0.0101153803989291,-0.0507246479392051,-0.2759901935219764,0.1828957302391529,0.2885539070188999,0.0262981466948986,0.0435181520879268,0.0668237434387905,-0.4080126583576202,0.0029210922031372,0.0196713124458445,83
1722327906516655000,-0.4534636064514517,-0.5474386519610881,0.6634557256698608,3.144246997259557,8.610960205763577,3.4836008249282835,-0.8971268534660339,2.2406063079833984,0.119982860982418,-0.0233926398269599,0.1795136465149842,0.5386656067570429,0.8228408835823933,-0.3924529254436493,-0.0467990934848785,0.005052862688899,-0.2111398279488086,0.0159802439421415,-0.0532511131942272,-0.0107507118955254,0.0087029626592993,-0.0193122561753727,-0.4273901879787445,0.0083590540356963,-0.0195601596719701,84
1722327906556423200,1.2624828183099628,-1.4137959540665148,1.981249804574251,2.8995374926641584,8.537294081050158,3.857160581320524,0.0195969808846712,1.8308135271072388,-0.292273610830307,-0.0379239977265994,0.1532417040651273,0.5290146691780445,0.8337999223821688,-0.5324790477752686,-0.0561455115675926,0.0427849255502224,-0.1409352418661117,0.4223568127870559,0.1811795009057968,-0.0317368991672992,-0.005877791903913,0.0129589895749581,-0.3421700000762939,0.1159379531911108,0.0226848059149691,85
1722327906596192000,1.2489501136504113,-1.002979941469431,-1.873997636601329,2.224886857632548,8.656494460970162,4.035512822911143,-0.8102610111236572,1.4261057376861572,-1.0080336332321167,-0.0564318776981159,0.0994342326432033,0.5332531739382328,0.8381940755694877,-0.2936067879199981,-0.1125217005610466,0.0302548203617334,-0.1721510488629341,-0.0465174210250377,0.0622924977838993,-0.0672494173049926,-0.0076255649328231,-0.1474572640459984,-0.2671944499015808,0.052222359234956,-0.0290272017782088,86
1722327906635959600,-0.4302050420694053,-0.3527314878970384,2.674826527741552,1.840389673770964,8.545988844159245,4.444033418047428,-0.5479689836502075,1.1738569736480713,-0.3117799758911133,-0.0570091992184589,0.0756477637252247,0.5173922843681913,0.8504896673339046,-0.0552930273115634,-0.0671394690871238,-0.0114711197093129,0.1817243483722209,-0.1149760402232408,-0.4452068694334476,-0.0900251492857933,-0.0116280317306518,-0.0182569863852229,-0.1546426266431808,0.1815158201880753,0.1096631837705615,87
1722327906675728600,-0.1884342212744057,0.1674982546210288,4.194373305307328,1.628845648935437,8.565351716277004,4.4890965486109256,0.7732605338096619,0.6602323055267334,-0.1218159943819046,-0.0627414029503999,0.0594201991632211,0.517290070413607,0.8514362529072038,0.3002520203590393,-0.0874082520604133,-0.0514267906546592,0.0873603035449981,0.0293342310339212,0.34437340939641,-0.081751711666584,-0.0309039764106273,-4.36199460178e-05,-0.0732262805104255,0.1707628459075465,0.016752189579152,88
1722327906715486200,0.1515593656025826,-0.6631669718563556,1.6084773991674184,1.4552492235697805,8.782952264672517,4.112467175514996,1.3032501935958862,0.2899924218654632,-0.3107580244541168,-0.0661819456057171,0.0460427396692426,0.5368450358575829,0.8398198985672771,0.1046252697706222,-0.0545124597847461,-0.0301881488412618,0.1613853246986865,0.4242676148444413,-0.1334440823931247,-0.0351851992309093,-0.0219029020518064,-0.133067814692948,-0.0721257627010345,0.1299261100005824,-0.0381607855628244,89
1722327906755254000,0.0364456704743206,-0.6410919181704521,0.6345183849990368,1.2960770448759198,8.9866803550601,3.7054213291063904,1.0248839855194092,0.357246071100235,-0.3516036868095398,-0.0637595667812987,0.0369741327209737,0.5565150517032488,0.8275618928254334,-0.0397500209510326,-0.0015021320432424,-0.0458351522684097,0.1962187376707792,0.1261842474579811,-0.2118248145382851,0.0141275627538561,0.0096934828907251,-0.1955721285966224,-0.125928059220314,0.0528059358431491,-0.1500723784478381,90
1722327906795022800,-0.708866354496777,-0.3564624911189079,0.017642916457355,1.139822653324902,9.117893244335054,3.425667691397667,0.6606106162071228,0.9805579781532288,0.0862303525209426,-0.0690965726850079,0.0228902124757617,0.5699259537912159,0.818465662601082,-0.0716906413435936,0.0282829273492097,-0.0654944777488708,0.1714823558211326,-0.1897562636584043,-0.0813665430229157,0.0119426725432276,0.0237590502947568,-0.079438680232875,-0.1450533270835876,0.092282790706912,-0.1634636836090125,91
1722327906838519600,0.5467927552729844,0.2993202157050371,-0.750178023572266,1.0637567009281366,9.193837835374474,3.242242384326458,0.4393750131130218,0.6951791048049927,0.0361715331673622,-0.0862199252818164,0.0053732745671355,0.5785004483087152,0.8110945681604705,-0.0286550261080265,0.0372424386441707,-0.062902882695198,-0.0319406141400337,0.1020353101074695,0.0864881968855857,-0.0428824052214622,0.0163060538470745,-0.127162088647345,-0.1213335990905761,0.0087441751875419,-0.1661120426933281,92
1722327906878288400,0.8897787288989871,0.4655079722493886,-0.6376254111036658,0.9292159093394876,9.25764541389644,3.0988647177442905,0.4787483513355255,0.2823043763637543,-0.3914697468280792,-0.0889097803830304,-0.0057249639186897,0.584781235817395,0.8062836689416917,0.0160898100584745,0.0033839165698736,-0.0620850957930088,-0.0447457351773977,-0.2915770542323589,0.1255997986335307,-0.0922278314828872,0.0092705255374312,-0.0733409615793963,-0.1041160449385643,0.06649016410287,-0.1523733579997438,93
1722327906918056000,0.0317917802538722,0.1779822392344474,-0.5172364059209823,0.7567983915600925,9.33657515822649,2.902758792798221,0.6005055904388428,-0.1682203710079193,-0.4715830087661743,-0.0819448852738427,-0.012513452137248,0.5931643196167345,0.8008024673059135,0.1314763128757476,0.0147597687318921,-0.1082174405455589,0.0058843818634748,-0.1413315477073192,0.0422317795950919,-0.0892817601561546,0.0087191062048077,-0.0207146680359146,-0.0717480406165123,0.0870968211700674,0.0154731323869316,94
1722327906957825000,-0.0301470817867666,0.0822977594584226,-0.348394335475564,0.6075985581630841,9.423431019380688,2.6457804659992457,0.709067165851593,-0.1850896328687667,-0.4130305349826813,-0.0723099905584064,-0.0160023926620307,0.6040253763245357,0.7935165698571615,0.0096572106704115,0.029645774513483,-0.1105401813983917,-0.0788029030799865,-0.0611164397418498,-0.3714800275087356,-0.0529573448002338,-0.0223798546940088,0.0165074347375775,-0.0337458662688732,0.1491164750956464,0.0896267415064852,95
1722327906997592600,-0.8743067998051642,-0.0804968475162982,-0.5584931299388408,0.5253517251743003,9.494497775250672,2.397688771619648,0.5622931122779846,-0.1702283024787902,-0.1050187647342681,-0.0650373376700761,-0.0167560141221579,0.6143867905312989,0.7861414289443265,-0.2189078032970428,0.0407147780060768,-0.1009736359119415,-0.1382850196182727,0.2641629776060581,-0.0840812088090926,-0.0189709980040788,-0.0347882583737373,-0.0397071519217221,0.0023125926963984,0.1415929751224815,0.1278470752368215,96
1722327907037360400,-0.2097955737330019,-0.246268424475193,-0.1803168196618557,0.5271768582422286,9.541008182013034,2.204913452401012,0.4652507603168487,0.3380998969078064,0.1097894459962844,-0.0665189327876856,-0.018615121782998,0.622281426694907,0.779740084557631,0.0376901775598526,-0.0082543101161718,-0.104812316596508,-0.0584703091472387,-0.1284784958750009,0.0826223152376711,0.012323509901762,-0.0529961809515953,0.0068612680673686,-0.0082707628607749,0.1417305843617301,0.0115944803057005,97
1722327907077154300,-0.0813007477777078,-0.0796954680055379,-0.500746751151979,0.5472723920160905,9.574050619915129,2.0514409466534853,0.3763111531734466,0.0611432492733001,0.0823093205690383,-0.0711014211034025,-0.0216709623002364,0.628439327385568,0.7742989172482269,0.0709549188613891,-0.0035970276221632,-0.0763174965977668,0.0389268197655677,0.0882470232516527,-0.053888388184458,0.025487145408988,-0.0445649959146976,-0.0134420307014137,-0.0588239170610904,0.1215743699091952,0.008960046998749,98
1722327907156691700,0.0802940549531951,-0.1082119529157877,-0.3243640560686588,0.6090864221006631,9.629353404942156,1.7535529557086529,0.3270538747310638,0.1395317763090133,0.1316001415252685,-0.0753484846146005,-0.0225084323615568,0.6403803977875636,0.7640215298520837,0.0784298852086067,-0.0361308455467224,-0.0337943360209465,0.0185591545194387,0.0147626848459243,0.1418001881323754,0.0577945224940776,-0.0603375136852264,-0.0680983801842201,-0.1217851340770721,0.0265644763429299,0.0082544931161013,99
1722327907196461300,0.264811723838374,-0.0778133075207471,-0.090231621197611,0.643787879256159,9.647286536517738,1.6388305979855358,0.3062011301517486,0.1207164600491523,0.0844513624906539,-0.0785304009883839,-0.0234516578626108,0.6448975975715213,0.7598618020196082,0.1386913657188415,-0.0336418002843856,-0.0271610673516988,-0.0316606281548738,-0.0207628020435571,-0.1014145478606224,0.0771305933594703,-0.0608096234500408,-0.0573053478879388,-0.1319207400083542,0.0537169908400392,0.0654684426725842,100
1722327907236230100,0.1211930150419473,-0.0988455741554498,-0.1386306181855499,0.667696431979537,9.66248293660581,1.536544966378808,0.2487980723381042,0.1653132140636444,0.0900471657514572,-0.0816137027167313,-0.0250148640254214,0.6488699894869552,0.7560959596483728,0.0102830529212951,-0.0217253770679235,-0.0258264224976301,-0.038210195928812,0.1522416487783193,0.0498738187808543,0.1009839102625846,-0.0946935191750526,-0.0001277728318236,-0.1292477697134018,0.0492521934509044,0.0071074876386002,101
1722327907276000000,0.3195950150359422,0.1130488715529441,-0.3951619318693876,0.6759438897125423,9.6766920792222,1.4405299394741653,0.259030669927597,-0.0277768298983573,-0.0448679253458976,-0.0828152933868129,-0.0260137364505329,0.6525922931670662,0.7527205823905183,0.0698798075318336,-0.0510782077908515,-0.0436881780624389,-0.0220727155983448,-0.1870084262549877,0.1592657752614468,0.1069199070334434,-0.1040788739919662,-0.0070607127585157,-0.1442082822322845,0.0377809125498984,0.0090502991193119,102
1722327907315768800,0.0909505100566893,0.0542015457868576,-0.0295322378240525,0.6362880980852991,9.694090957790612,1.337963445099443,0.2895797789096832,0.0366287901997566,-0.1047546938061714,-0.0816161217332007,-0.0282090077047052,0.6564960760109695,0.7493704794331318,-0.0984777808189392,-0.0311536602675914,-0.0424577295780181,-0.0300409179985523,-0.1926262661367654,0.0829482592564076,0.1115080788731575,-0.1099279224872589,-0.0671833659648429,-0.1137299314141273,-0.0027965251085523,0.1214033424575347,103
1722327907355537400,-0.1989289099449291,-0.0047813890576362,-0.0311566241554915,0.606840908196196,9.708332249110937,1.2451667957194148,0.1819256842136383,0.1519970297813415,-0.0243920683860778,-0.0818728755067355,-0.0309485014833116,0.6599669335361196,0.7461788026563704,0.0329665280878543,0.0169334411621093,0.0391459837555885,0.0332838454425334,-0.2191203053086995,0.0704055154822766,0.1259089559316635,-0.091090627014637,-0.0728416657211724,-0.0833706185221672,-0.0437533768389141,0.0954203489471226,104
1722327907435075800,-0.0881586508484557,0.0231119955182075,0.080785455199331,0.6117406994691118,9.725776720386744,1.097909730420634,0.2963012754917145,0.1398418098688125,0.0797876268625259,-0.0864404527512387,-0.0355482733285665,0.6654010086500456,0.7406117500425098,0.1852173209190368,0.0685233473777771,0.0490885004401207,0.2444540685296058,-0.4679436749637126,-0.0076279375951737,0.1307831406593322,-0.1040844917297363,-0.0306487865144968,-0.0689503103494644,-0.0504238082132767,0.0649782297365367,105
1722327907474845700,-0.0417171080712229,0.0515688591957092,-0.1266612903852015,0.6139313048485666,9.732634915718435,1.0340638657148926,-0.0719716399908065,0.4347699284553528,0.0425583496689796,-0.0885425581288359,-0.037688645126567,0.6677252279571257,0.7381617510487386,0.1868309378623962,-0.0534762255847454,0.0052344901487231,0.079824062821269,-1.7965408874332904,0.6345861164730042,0.1317985504865646,-0.0969212800264358,-0.0360951605531969,-0.0699813887476921,-0.0191221929463907,0.0415324493864318,106
1722327907514614300,-0.4169228781048208,-0.0364443553000688,0.2737912221729755,0.6675657182719558,9.72128934583962,1.1051195156689733,-0.1471379101276397,0.6289464831352234,0.2928300201892853,-0.0991243758092988,-0.0430824218182488,0.6646792379202765,0.7392698036979026,0.0921859070658683,0.0528689101338386,-0.0298509914427995,0.230725402906537,0.4127753299713134,0.1085795441191643,0.1180243641138076,-0.1282194107770919,-0.0131864850377663,-0.1011993065476417,0.0230699830073863,-0.0052549305617401,107
1722327907554383000,-0.0643107788037508,-0.0134387427657842,0.0259036720633506,0.7297492027234286,9.715043144926428,1.1206192095525562,0.1968897879123687,0.156368002295494,0.1016056612133979,-0.1077782249110003,-0.0464967503807649,0.6638541804906047,0.7385929481895737,0.2639592587947845,0.0750104337930679,0.007100966759026,-0.2210451358914375,0.0019008651852607,-0.2418727467995136,0.106591559946537,-0.1212185099720954,-0.0649176906217588,-0.1045178920030593,-0.0037668320162541,0.0765518088181037,108
1722327907594152700,0.2598907071143388,0.1694867980897426,-0.5485048198878765,0.7377431971520185,9.728442140203716,0.9917316214200108,0.359892874956131,-0.0995434522628784,-0.0328710116446018,-0.107785791503345,-0.0469504265385741,0.6687536302138009,0.7341297047647483,0.0348821394145488,0.1798619031906128,0.0030761980451643,0.020171850413084,0.0504816484808921,-0.5566857517233118,0.0884689539670944,-0.089195929467678,-0.1557689278553239,-0.0848804861307144,-0.0281431717855622,0.1277010908948723,109
1722327907633921500,-0.0819649473074823,0.1149292784720659,-0.8233283077180386,0.7370783035025,9.735863814637064,0.9165521695341914,0.0089406594634056,0.1471918076276779,0.0756512954831123,-0.1074681159997041,-0.0472878333278674,0.6715896858494779,0.7315612096691366,-0.1134495437145233,0.1865346133708953,0.0055225775577127,-0.278969501593709,0.2757926251232624,-0.1711912639200687,0.0791623070836067,-0.0702501982450485,-0.0444024609979474,-0.0956139042973518,0.0886478408711962,0.0817234484354965,110
1722327907673691400,0.1037925290383398,-0.0574959111571311,-0.6265344005078077,0.7840073740683495,9.727377141320703,0.966361252515763,-0.170886680483818,0.3681929409503937,0.1797434389591217,-0.1137872352575784,-0.0494467778510258,0.6695403673046207,0.7323408936440073,-0.1212954819202423,0.0987606048583984,-0.056128803640604,-0.2926414685934781,-0.2871323497831821,0.1108545033138245,0.0717984065413475,-0.0665077418088913,-0.0579566970692947,-0.1508605331182479,0.0482079998939065,0.0778239019799977,111
1722327907753226800,-0.4493929960116744,-0.5175982249706983,-0.1825871026813983,0.9506789686068892,9.682452542445064,1.2315464127764104,-0.4413790702819824,0.6792623400688171,0.412548303604126,-0.1357817231493771,-0.0555602873326329,0.6588790930213254,0.7378039857903593,-0.3945232927799225,0.0115733500570058,-0.0153799746185541,-0.3710311146974563,0.910229177057743,-0.071454366948083,0.0563460141420364,-0.0489082038402557,0.092238074782351,-0.3064892888069153,0.1569049826805479,-0.0662154890470672,112
1722327907792996400,-0.3708797965932637,-0.5095926131695508,0.1365242935560643,1.0852497169423847,9.643471362143757,1.4128230173811316,-0.296303242444992,0.5566540360450745,0.4445179998874664,-0.1513188841772508,-0.0583832003606506,0.6515807487526034,0.7410374253492735,-0.2741808891296386,0.0174706000834703,0.0163928009569644,0.1111029981821775,0.3983183500736951,0.1193441723048686,0.0058294502086937,-0.0632097646594047,-0.1230383323813788,-0.3224058747291565,-0.0104445841847918,0.0185490167179144,113
1722327907832765200,-0.6825871271193027,-0.1123813475549221,0.0377618676394224,1.2380419122755526,9.611675709432363,1.5011111032955349,-0.1032658591866493,0.3169643878936767,0.5062361359596252,-0.1635229603518736,-0.0578137219562512,0.6481683484885165,0.7414820600359309,0.0929281339049339,-0.0568082630634307,0.0457755252718925,-0.0473638087213039,-0.1980833624988794,0.3393722401082515,-0.0108213918283581,-0.033826794475317,-0.0522784687697887,-0.3122578561306,0.0660340132666286,-0.0326974877887871,114
1722327907872535000,-0.1174573356449604,0.0299473944962024,-0.3343500280320644,1.4166110114872454,9.578133505314588,1.55658997554183,-0.1240115240216255,0.2853224873542785,0.4854409694671631,-0.1751850141415818,-0.0553209654538441,0.6462008863119494,0.7407255139568392,-0.0257479175925254,-0.0567884519696235,0.1026063188910484,-0.0784311471581459,0.3958341320425271,-0.0684626377861946,-0.0293604396283626,-0.0484735518693923,-0.1117018043255433,-0.295381098985672,0.0483382797766476,-0.065989374973881,115
1722327907912303600,0.0646542584791779,0.2239607310771942,-0.4220709815829992,1.5680414900131523,9.539444001436234,1.646406001675874,-0.2732007503509521,0.3592297434806824,0.4297640919685364,-0.185955833166648,-0.053409078090728,0.6428095586820438,0.7411908528606687,-0.1923520863056183,-0.1178801953792572,0.0987471342086792,-0.1377396606951952,0.1952513539433479,0.2761223685342818,-0.0322648100554943,-0.0148377316072583,-0.1141233049845788,-0.2569483518600464,0.0580572257011663,-0.0172452520594117,116
1722327907952072400,0.2937830398440361,0.6140308927655219,0.154500825881958,1.6996891174435615,9.483364971339702,1.8295440162383017,-0.3783199787139892,0.5190433859825134,0.425509363412857,-0.1983263756073477,-0.0529178867142353,0.6355461541356032,0.7442764744595979,-0.2834140658378601,-0.1330905109643936,0.1445313245058059,-0.1417407130300998,0.0356464829206466,-0.013069909453392,-0.0183308403939008,-0.0112759200856089,-0.0600466276864055,-0.1962825804948806,0.0172988271438633,-0.0177215357931621,117
1722327907991842000,0.6056117317274212,-0.0292605812758207,-0.3083051939323544,1.8140283210679888,9.43353389572203,1.971826142668724,-0.2705420255661011,0.2276583462953567,0.2640793919563293,-0.2099805229888409,-0.0532905904482501,0.6297816766962692,0.7459512024002143,-0.14216348528862,-0.0588840916752815,0.0889779180288314,0.2407452771395444,-0.2439186464786529,0.024006314009428,-0.008319198153913,0.0140306921675801,-0.0911149068381637,-0.1474997699260711,0.0104936543407733,-0.0743550202930346,118
1722327908031610600,0.4556061714380979,-0.5290986931502819,-0.5406809943944215,1.866320526102185,9.406648811405896,2.0499260120458898,-0.2825722694396972,-0.2054191082715988,0.1449920535087585,-0.2119299376901482,-0.0503871706915877,0.6268524505107863,0.7480661015766199,-0.2354774475097656,-0.069611832499504,0.0846233889460563,-0.0262204829275608,0.0100344872802495,0.1687292577207088,-0.0082702590152621,0.0152037963271141,-0.0652094081439077,-0.1245027035474777,-0.0094003906277939,-0.0521673913444392,119
1722327908071380700,-0.4766702945157885,-1.2420265979975462,0.4802954992756247,1.9921999453946944,9.376028632214664,2.071624487504363,0.2419700771570205,-0.0673824474215507,0.5712815523147583,-0.2150292993683268,-0.0442919843626778,0.6264301795388995,0.74792110665529,-0.3434840738773346,0.0076039619743824,0.0873413458466529,0.3453945691376924,0.0712029494702815,-0.2681343654550612,0.0215615183115005,0.0572807490825653,-0.1298435006178915,-0.0913806408643722,-0.0711680562534136,0.0133843399892037,120
1722327908111149300,0.0618289719253778,-1.3385025204122063,-1.0532776116855442,2.289276912217587,9.34127062256634,1.9157886136263609,0.3230695426464081,-0.270575076341629,0.8202511668205261,-0.2242035007011059,-0.0341715152823388,0.6333674089194388,0.7398721318142399,-0.3407657742500305,0.0896342247724533,0.1138029173016548,-0.1015039797097444,0.0790244368761777,-0.378942180082947,0.0364276394248008,0.0628987252712249,-0.0421729575133649,-0.1043055653572082,-0.016460406983277,-0.1060622549354564,121
1722327908150809300,-0.4340069185703992,-1.3121329844027756,-1.232573709997535,2.608390938803553,9.271656403592228,1.8447417315006256,-0.0883808508515358,-0.3407826423645019,0.914177179336548,-0.2314156836203494,-0.0195639326373084,0.6368371846967704,0.7351887007569734,-0.542755663394928,0.0709380879998207,0.1303817629814148,-0.3132803519964218,0.3931780645757913,-0.1733352902114391,0.0374356769025325,0.0409114733338356,-0.1028428818969987,-0.1265748590230941,0.0358329819360747,-0.1082134416199754,122
1722327908190575000,-0.8090423004731535,-1.1510521956086155,-0.3655278411060571,3.0619860626801847,9.12194807268381,1.8933279216237364,-0.2087961584329605,0.2027269452810287,1.5006418228149414,-0.2481193165819936,-0.0020295207792798,0.6351873908307841,0.7314161992290548,-0.5151975154876709,0.0698527991771698,0.2962934970855713,-0.4236176265031099,0.1800380027204751,0.0975054115928709,0.067572146654129,0.045243639498949,-0.1442285934562329,-0.1407937258481979,0.0392637646689312,-0.0940193687085527,123
1722327908230339800,-0.3460916114911437,-0.8637602713495492,-0.9949177771754564,3.629589258530736,8.884335248351096,2.016194276705384,-0.4840731024742126,0.1904434710741043,1.672539234161377,-0.2738913700859963,0.0172124544110464,0.6300051038265962,0.7264851921469851,-0.3886241018772125,-0.0856412947177887,0.429800271987915,-0.5115180282741785,-0.1049970825225114,0.1990307263515889,0.0853067934513092,0.0458588041365146,-0.0522024398249341,-0.1856498122215271,0.1239102837771642,-0.1627720663493499,124
1722327908270105600,-0.4531877121195197,-0.6541624121457338,-0.0821545515954494,4.185598462699353,8.561462307623028,2.3135504988610744,-0.8294959664344788,0.3534179329872131,1.7153358459472656,-0.3015509298048621,0.0376958656309621,0.6169447077341284,0.7259650834791145,-0.3951984047889709,-0.2592591047286987,0.6610207557678223,-0.7041179909259081,-0.1078892968326807,0.2494189974606037,0.0464031584560871,-0.0052851727232337,-0.223275835819263,-0.187105044722557,0.0474243661023909,-0.1390862347322516,125
1722327908349634800,0.1300309860140085,0.0505991373807191,0.7358373635306954,5.314831917470693,7.799538608938455,2.6627313085392115,-0.1615882366895675,0.2918752431869507,1.887678623199463,-0.3561952556489583,0.0812586189427304,0.5980263511009452,0.7133627539815015,0.2795867025852203,-0.5168801546096802,0.6527901887893677,-0.4856295537799596,0.2550818455278873,1.1184613008663058,-0.0059460410848259,0.0515358708798885,-0.0963493551592342,-0.1213846579194068,0.1140537377465516,-0.0952635874828323,126
1722327908429165300,-0.0218003283977508,0.6882236717015504,-0.1463911691844463,6.204077927732468,6.76866703645885,3.44455359365344,-0.9073665142059326,1.6614545583724976,2.155280351638794,-0.4315412904691075,0.1071008874667618,0.559380051154955,0.6995680983450063,-0.0977400839328765,-0.4525437951087951,0.329111099243164,-0.0130015203922986,0.0703086309790611,-0.3157492263279855,-0.0337288007140159,0.0630470737814903,-0.2192680432163178,-0.0243766587227582,-0.0092774303975835,-0.223541336621344,127
1722327908468931000,-0.6308423268347978,0.6526788955897093,0.02131692879498,6.466708873465657,6.05138502805531,4.211033348207176,-1.1763346195220947,2.184091091156006,2.275773763656616,-0.4802873440025377,0.1136149602189714,0.5219087061028903,0.695720541970764,-0.213061898946762,-0.3915576636791229,0.2486149221658706,0.5062941561460494,0.4608347197413444,0.1300043902680277,-0.0384904891252517,0.0756262987852096,-0.1985533728971145,-0.01936836540699,-0.096374252138473,-0.2390144712915644,128
1722327908508695800,-1.6520067442923785,0.4880114804804324,-0.3291992211401462,6.583313976195454,5.177417835468053,5.101441680246591,-1.4854921102523804,2.4650096893310547,2.637145519256592,-0.5340849474681169,0.1188186741243258,0.4751641566026202,0.6890968124388885,-0.1014543995261192,-0.3161811232566833,0.1904614716768264,0.6044920800477266,-0.3502975387483835,-0.0159238375797867,-0.0734155923128128,0.1090898811817169,-0.203843935319595,-0.0284655448049306,-0.073821287875669,-0.2663528340668417,129
1722327908548460500,0.9040139558047056,0.4213832915797829,1.1496236241102218,6.51771191547215,4.132088990829884,6.051088090935349,-1.5717084407806396,2.557037353515625,2.451366662979126,-0.5880819625511648,0.1263342481024482,0.4189511151112748,0.6802053900142646,0.0727767944335937,-0.2398435473442077,0.2237880676984787,0.692318247538805,0.1651262647926807,0.1384266200460493,-0.1160377860069274,0.1047336235642433,-0.0864557741870172,-0.0230104122310876,-0.0406991540671791,-0.1711655814895406,130
1722327908588226300,1.2171768189013004,0.7032631276622414,1.788742196381092,6.197964997810125,3.222629336839914,6.882607303893566,-1.2334556579589844,2.244255304336548,1.7068206071853638,-0.6324694125004029,0.1272466714998839,0.3645448995105078,0.6714892793828477,0.1860423684120178,-0.1422709077596664,0.2660414576530456,0.3806073368161916,0.2668015094161033,0.360903834567219,-0.1334677338600158,0.0663736686110496,-0.0218416102562099,-0.0254952348768711,0.0441993533410131,-0.1002129261190537,131
1722327908627991000,0.9121797266036272,0.6490323557808995,1.798658610239625,5.809541434285045,2.654517022423446,7.441313784322142,-0.4884978532791137,1.4441113471984863,1.106340408325195,-0.6614154142300562,0.1221200653234316,0.3250926989554509,0.6647789866432079,0.0486227199435234,-0.1878442615270614,0.1978891640901565,0.1066676460832357,0.0906815569221973,0.4411494838014245,-0.1307165473699569,0.037362840026617,-0.0735447587894974,-0.0467464551329612,0.057866091609816,-0.0151912900881143,132
1722327908667756800,1.6140929009616374,0.7316665075868368,1.6090139902621508,5.515540367776155,2.3634375424496827,7.7565043538540595,-0.1997213661670684,1.2830253839492798,0.6384170055389404,-0.6783878866737009,0.1158968720772758,0.3018215720098902,0.6597434801782527,-0.0230298954993486,-0.0875602662563324,0.1775197684764862,0.3539578148216009,0.0207172093361616,-0.3974690397679805,-0.1136769726872444,0.0276039335876703,0.0132425865810888,-0.0570669546723365,0.0579371247191447,0.011684730713797,133
1722327908747279000,0.8669342252105474,-0.3778234051860868,0.9049965371012688,4.9008472117096185,2.163598568455129,8.214068673622608,0.1949124485254287,0.8820487260818481,0.2782493233680725,-0.6968653332760619,0.095324931779043,0.2685371499261889,0.6581639475676111,0.0001148381270468,-0.1051752641797065,0.0901830643415451,0.0194914669334888,-0.3229845844089984,-0.1601949458703398,-0.0811974853277206,-0.038360595703125,-0.0647537367982789,-0.0356904901564121,0.0511189189045457,0.2123785028982907,134
1722327908787045000,0.8666168298244475,-0.1513419234596192,0.27551731531322,4.703642970132828,2.2368412070594728,8.309192012384534,0.4497030079364776,0.3963157534599304,0.0569372586905956,-0.7002935925533699,0.0844309164214681,0.263097963890153,0.6582095359266923,-0.0317837074398994,-0.1311657428741455,0.0473144315183162,-0.0975233856409788,-0.3534796759158373,0.1392205469027161,-0.0148572232574224,-0.0090344678610563,-0.0394235583405243,-0.0219010096043348,0.0835921466505155,0.1168469943274278,135
1722327908826809600,1.3232964757129548,0.2166379869736731,-0.4188999503314495,4.576764602930844,2.4162355050489306,8.329790563777088,0.4200029373168945,0.3309843838214874,-0.2317675650119781,-0.6987860541724603,0.0736088414407695,0.2643493991321018,0.6606050866112221,-0.0225249603390693,-0.1877837479114532,0.0319840796291828,-0.108328857293725,-0.3615741350442171,-0.0630561756327748,0.0318665318191051,-0.0324975289404392,-0.0759382115309825,-0.0426994226872921,0.1080885913976002,0.0367677329023834,136
1722327908866575400,0.700205201396346,0.2305067917197942,-0.7156032615363598,4.453014596882462,2.5635265456825493,8.352806697705388,0.273849606513977,0.1034298986196518,-0.2793723940849304,-0.6953156837320132,0.0649477757028299,0.2643996412228196,0.6651396307445085,0.0935923233628273,-0.1911695897579193,-0.0156602710485458,-0.0411292982459068,-0.3524275365144014,-0.0097705756470561,0.055481880903244,-0.03429651632905,-0.0476392600952414,-0.0393403582274913,0.0379720466412487,0.0069963365771924,137
1722327908946104800,-1.149082356840372,0.0251823720514774,-1.06760409707129,4.60765600027889,2.90098096947074,8.156236662378907,0.1638664454221725,-0.1976911276578903,0.0702011659741401,-0.6811348033266225,0.0624340340725734,0.2832836862148158,0.6722408103397575,-0.0229731705039739,-0.250637024641037,-0.1974978595972061,0.0689274057537317,-0.3401011389046907,0.1193213759511709,0.0425610393285751,-0.0503899566829204,-0.0522784687697887,-0.01958186365664,0.0660340132666286,-0.0326974877887871,138
1722327908985870300,-0.4231275048986077,0.3751300744488835,-0.7852987290531397,4.630936922623217,2.839085654310882,8.164826796069741,-0.3209457397460937,0.070771723985672,0.2499908655881881,-0.6813520353386856,0.0656138126438924,0.2817880423153232,0.6723464577838418,-0.2183418571949005,-0.1832221746444702,-0.1385146826505661,0.3264659967839717,0.3325508696556091,-0.2862757329538464,0.0331256277859211,-0.0567635633051395,-0.1040894661583006,-0.0361561812460422,0.1058220986371859,-0.0770727365528233,139
1722327909025635300,0.631151538914442,-0.0399497330725193,0.3474246136605739,4.610653720790148,2.678659237772226,8.23025116213858,-0.336458295583725,0.3930598795413971,0.2453540414571762,-0.682046416899533,0.0710303322687712,0.2744606545691985,0.6741206590879061,0.032265581190586,-0.0795551240444183,-0.0831708088517189,0.2533849784821271,-0.1368079328030347,-0.2313841590762138,0.0383387096226215,-0.027539474889636,-0.1682560872510075,-0.0832743868231773,0.0178085176735825,-0.0231987696193624,140
1722327909065400800,0.7732014640241861,0.0796463681668043,-0.3014607348650693,4.447354963685572,2.495616792538762,8.376354746553302,-0.4396333396434784,0.699841320514679,0.3403875231742859,-0.6874518097944914,0.070537925920759,0.260670618634545,0.6741552413129134,0.5869266390800476,-0.0755596831440925,-0.0098252855241298,-0.1670826595574617,-0.2393821720927953,0.5441273354560137,0.0702240616083145,-0.029575228691101,0.0105374854909896,-0.0882147327065467,0.1256568991156295,0.0714289311127271,141
1722327909105165800,0.0921630276516079,0.2067915696114301,-0.3670949442923069,4.244184799441695,2.278689174968749,8.541946875292062,-0.4633196294307709,0.4215121269226074,0.3035255968570709,-0.6930658513445305,0.069985568725423,0.2440982082273886,0.6746686933240222,0.4506964087486267,0.0016075880266726,-0.0912363231182098,0.3470610410451888,0.173186237129569,0.0313365107670426,0.0859158113598823,-0.0357978381216526,-0.0138097783100616,-0.0530963949859142,0.0580645459245191,0.0103154219718358,142
1722327909144930300,1.1132099562093616,0.2969252833925187,0.0739203917354345,4.198625409793854,2.1472553364194926,8.598326934161781,-0.1934750229120254,-0.0091866180300712,-0.0858122035861015,-0.6933412978830693,0.0734391592469578,0.2370949859742903,0.6765134802676566,0.2236573696136474,-0.055799089372158,-0.0108537320047616,-0.3060544923961162,-0.2175841817826032,-0.2086404123485088,0.0583415143191814,-0.035882830619812,-0.0975523286076728,-0.03644560277462,0.0132800062568276,-0.0808750697115436,143
1722327909184798500,-0.3851309517204761,-0.3234345201335847,0.0111556002646684,4.212860855895281,2.135246626456827,8.594353354355693,-0.0032529504969716,-0.103926382958889,-0.0395827703177928,-0.6901868279270089,0.075499517869979,0.2368749587063056,0.6795824048303378,0.1468304991722107,0.0060412185266613,-0.0518519654870033,0.2840922514349222,0.0603220744937658,0.0049257659643888,0.0165065638720989,-0.02817446552217,-0.0287464988404186,-0.027792390435934,0.0732316285865614,-0.0950552145623136,144
1722327909224567300,-0.2374307457640767,-0.267650819721818,-0.3983639427810907,4.195494710552692,2.083952200288325,8.6154136780411,-0.3230720162391662,0.3016528487205505,0.1234821081161499,-0.689542945658022,0.0770956181569296,0.234077788442893,0.6810245878600231,-0.0849854052066803,0.0842388719320297,-0.0734613239765167,0.3630108898490667,0.4926578449815511,-0.3485898580476641,-0.0294536035507917,-0.0475312061607837,-0.0616609629812883,-0.0114464247599244,0.0237781267101643,0.0147745465303654,145
1722327909264337000,0.6297299816787243,0.2012931183256208,-0.4136059355765581,4.101062861186266,1.9401706290803848,8.694102014830708,-0.3478617966175079,0.2653901875019073,0.061011865735054,-0.6908126280613306,0.0788846078172026,0.2247251323381372,0.6826813506049173,0.0771923139691352,-0.1331115663051605,-0.0703201219439506,-0.5190104298561811,-0.5817705451518297,0.5566530550301074,-0.0487107336521148,0.0008541261777281,-0.0885095283790491,-0.0568359456956386,0.0325296204085927,-0.1237768301232252,146
1722327909304105200,0.3449368884980678,0.0475448643766343,-0.6821048965603113,4.021787664419413,1.8072132342256604,8.759542747512459,-0.4236290752887726,0.0276365838944911,-0.0855052545666694,-0.6897843938142092,0.0814914274428863,0.2162100015586136,0.6861558145697982,0.1885047256946563,-0.1482196748256683,0.0200192276388406,-0.3791711665332317,0.0380482833653688,0.2523354694291949,-0.0744328051805496,0.0123701076954603,-0.0904355097392573,-0.1094542369246482,0.0565061968668829,-0.0834955726745538,147
1722327909343874000,0.4239958121657371,0.0805244661755859,0.0772509974628686,4.0459783950850365,1.711984243132174,8.767528485569358,-0.2547945380210876,-0.0925840809941291,-0.1778052598237991,-0.686248708737387,0.0870469681384579,0.2130804779857838,0.6899870748326845,0.5154319405555725,-0.1552818417549133,0.0429235473275184,-0.0679746350735426,-0.2367225974947214,0.0140393390074372,-0.0823417901992797,0.0051856492646038,-0.0609815704489592,-0.104260466992855,0.0697906669529853,0.0056339952904905,148
1722327909383643600,-0.0149096921011805,-0.1115891742639243,0.1662076302886009,4.049588694536686,1.653754318612069,8.77703339601755,-0.1968276798725128,-0.0066984267905354,-0.0667034909129142,-0.6829579754446568,0.0903655828666005,0.2105466820138348,0.6935939255113939,1.2490029335021973,-0.1646046638488769,-0.0966421365737915,0.2001701056450605,-0.610968582585454,0.2880287141010165,-0.061343278735876,-0.0026892772875726,-0.0727095409412169,-0.1345908194780349,0.0951299968315754,-0.0282244294613832,149
1722327909423412200,0.6130073949366808,-0.0705583679564297,0.1492261003494262,4.069003589102626,1.6115262653440237,8.775908775901794,-0.1466020494699478,-0.1251220256090164,-0.1546280086040496,-0.6805119970607012,0.0933763296839381,0.2093657984380065,0.6959526724147485,1.5504988431930542,-0.3543286919593811,-0.0422183126211166,-0.0888274534881115,-0.4504471812397241,-0.0684383070625364,-0.0391297787427902,-0.011580690741539,-0.1114898786079138,-0.2114835381507873,0.1205967479155398,-0.0634521618135739,150
1722327909463182000,-0.0706824327275156,-0.0842319423913955,0.5392237813234328,4.108204257373512,1.6075427486658096,8.758359090685843,-0.0758287385106086,-0.1903386414051056,-0.2487788945436477,-0.6758950726487668,0.0963309480919716,0.2101626133753991,0.6997985081249488,1.0881829261779783,-0.3394327759742737,0.0792339518666267,-0.3062958999365568,0.4398252494603395,-0.2198934816382825,-0.0411239974200725,-0.0022783312015235,-0.0915262732511851,-0.2413141429424286,0.1177466831135097,-0.0562474545991513,151
1722327909502950400,-0.1495727218300104,-0.2409394845373928,0.3096960637688636,4.184251724265516,1.6484307855017482,8.71464854377508,0.0938905328512191,-0.3686503171920776,-0.2393430769443512,-0.6708132949311677,0.0991349724058412,0.2141234223033451,0.7030881277104021,0.6274812817573547,-0.2435442209243774,0.1422164440155029,-0.0895230345368385,0.3961223013341426,-0.8013597831465303,-0.0424514859914779,-0.0008472102927044,-0.1211840188847389,-0.2141803950071334,0.0958381359677761,-0.0081949535109219,152
1722327909542720000,-0.0640390491902828,-0.2394743804208934,-0.0315641820430755,4.323473440212011,1.7403395461313425,8.62839415564537,0.172391802072525,-0.4497599303722381,-0.2046456336975097,-0.6652656722781869,0.1025898632030525,0.2225975278387127,0.7052285748055678,0.4664199650287628,-0.041482251137495,0.2325184345245361,0.305724822050333,0.406884518367052,-0.7692191163897514,-0.0333639830350875,0.0427537336945533,-0.2096137508926913,-0.165001779794693,0.0617428508447715,-0.0057897937778005,153
1722327909582488800,0.036533494888246,-0.0083732760697603,-0.3242389683842658,4.4285029636994,1.814648937184364,8.559544491302967,0.1642575711011886,-0.2513838410377502,-0.0144831873476505,-0.6619621778663562,0.1047914971625956,0.2293543961788586,0.7058480585922426,0.5209753513336182,0.0268204789608716,0.2655874490737915,0.3206605253756046,0.5765326444983482,-0.2535818892937153,-0.0241281408816576,0.0573070384562015,-0.1177995184124447,-0.1028961837291717,0.0741309018141124,-0.0770797051497269,154
1722327909622257400,0.1687462088555097,0.0698113489814102,-0.6855640971034764,4.515060426428914,1.8551266396537425,8.505475631985068,0.0700755566358566,-0.2484648823738098,0.0448719821870327,-0.6604989030871506,0.1069787482659625,0.2343010385599883,0.705265686473877,0.2804967164993286,0.0893740281462669,0.2688115835189819,0.124274614444375,0.3510176697164773,-0.4478595758993178,-0.0369666032493114,0.0700876414775848,-0.130023012770107,-0.0489470548927784,0.0852125965923536,-0.1024752632941585,155
1722327909662027000,0.2745557768046855,0.2218672659292817,-0.7001987716555595,4.5648736741289495,1.827718846637756,8.484795247527957,-0.2507613003253937,0.0196695923805236,0.0458794012665748,-0.6594169784139173,0.1101842503814633,0.2350643671221691,0.7055305519259204,0.4053225219249725,0.0456437021493911,0.2165790945291519,0.0729313806980848,-0.296216988992691,-0.0612239917695522,-0.0261287093162536,0.0747537091374397,-0.1435772534080315,-0.0465540997684001,0.0447727556150639,-0.1063748188828118,156
1722327909701784600,0.0591334492310881,-0.0330167189389467,-0.1594932273417711,4.521423239459097,1.6745410860531031,8.539498313096166,-0.4825412333011627,0.222377672791481,0.1006099581718444,-0.6596235934229427,0.1141105537556895,0.2271245212232218,0.707311785864319,0.3732623159885406,0.0507605411112308,0.1550814509391784,0.2799883232474326,-0.0599970803231,-0.1270505088984966,-0.0046884617768228,0.0598367936909198,-0.1447241127550602,-0.0587772578001022,0.025006131851871,-0.0855564963928889,157
1722327909741554200,0.1516699863702058,-0.0382351842395961,0.3578518996506929,4.465846898187697,1.527278686992079,8.596162449604272,-0.3212085366249084,0.1190779358148574,0.0264558680355548,-0.6598760249913341,0.1173184984296452,0.2189841318001837,0.7091162397793875,-0.1667878627777099,0.022655775770545,0.1688204109668731,0.0273106162518262,0.6254582957088947,-0.0193827458620071,0.0128841120749711,0.068493440747261,-0.0707835550144314,-0.051625870168209,0.0711534203732851,-0.0685056869100546,158
1722327909781323000,0.2528133160740137,0.0403369788244366,0.483361024326086,4.447154180416464,1.451549784529954,8.618944774776697,-0.1159630492329597,-0.0023642743472009,-0.0760615617036819,-0.6587365168582258,0.119708675895343,0.2150022266078929,0.7109922729509932,0.1385030746459961,-0.1047627925872802,0.1731133162975311,-0.2579717217504978,-0.4027735759168863,0.2191197207868099,0.0106193870306015,0.058412779122591,-0.1622662174527533,-0.0535949878394603,0.0181372495877381,-0.1415053333716467,159
1722327909860861200,-0.0122159229725599,-0.2345344398006796,0.0454693732768297,4.515260332915187,1.467847569988668,8.58068957066238,0.097475841641426,-0.1436517387628555,0.0491704121232032,-0.6568157133975417,0.1222602041266275,0.2180803442352336,0.7113975418850467,0.3586831092834472,-0.1787246465682983,0.3110984265804291,-0.3126759563624858,-0.1081307043731212,0.1058721483239904,0.0038904310204088,0.0550778545439243,-0.0792030631124041,-0.0500929951667785,0.0169092410210985,-0.0411742835985263,160
1722327909900629800,-0.1967056444048881,-0.2484434304267168,-0.1283008012205362,4.561485200734436,1.475770910333842,8.554843181744218,0.0834601446986198,-0.1535552144050598,0.1020632237195968,-0.6570766883731117,0.1236286309242262,0.2203187589012574,0.710229450187168,0.67955482006073,-0.131914421916008,0.3178049027919769,0.0391138667702674,-0.2588280463188886,-0.2675508482123725,-0.0004727420164272,0.0600976459681987,-0.1476972468143328,-0.0417141392827034,-0.0605396582006243,-0.0347793150145444,161
1722327909980168000,0.2790475352659821,0.2381524841673672,-0.3303156579494476,4.619189786206186,1.394543556585908,8.537489311361313,-0.1235697790980339,-0.0344333238899707,0.0879381746053695,-0.6580379585770015,0.1284348251140017,0.2195761645983222,0.7087149980411058,0.728337287902832,-0.1335514634847641,0.2442427426576614,0.0841387111499905,-0.1714151358038187,0.0555850908334366,0.0239974688738584,0.0409364029765129,-0.0942158045961055,-0.0434428229928016,-0.0257999422608176,-0.016470344997046,162
1722327910019936500,0.4142743363574147,0.3053727937422693,-0.3906061682611703,4.642579137361049,1.3262757837846877,8.535680216112732,-0.205869659781456,-0.062366746366024,0.0644705817103385,-0.657799101427245,0.1318572633781394,0.2177500353986258,0.7088716770895678,0.461509644985199,-0.1612667143344879,0.2087511271238327,0.1439382230743765,0.114677349537611,-0.0717688397247344,0.0255067329853773,0.0381585769355297,-0.0463646233498118,-0.0464560091495513,0.008486476382715,-0.0209294684139313,163
1722327910059706000,0.1241065644010901,0.0550172460839152,-0.1104302134871482,4.677614502646029,1.2514686723425985,8.527844700181484,-0.203706681728363,-0.0136790433898568,0.1348824799060821,-0.6574624257035436,0.1359828664749178,0.2161240206644647,0.7089021059153627,0.5601882338523865,-0.2229949533939361,0.161373034119606,-0.0526622073903679,-0.2341138763010501,-0.0522697009414434,0.0121123781427741,0.0299009904265403,-0.0474834347792901,-0.0430204756557941,0.0292234047703212,0.003103747302154,164
1722327910139244500,0.0425572852224111,0.1160376050401478,0.0077080901592969,4.7477910316780205,1.142863482325524,8.50427677758932,-0.1548389643430709,-0.078969158232212,0.0374037735164165,-0.6569759435924166,0.1427018066286592,0.2145663931030869,0.7085055247809594,0.5486061573028564,-0.2195191085338592,0.0599957406520843,0.0001131049856543,0.0471294154435396,-0.0815075589288026,0.0397576093673706,0.0575487092137336,-0.0405224457934033,-0.0420014858245849,0.081198237251304,0.0043758364682929,165
1722327910179013000,0.0929845731675624,0.1144257128641009,0.0885083045363426,4.793281740003824,1.108113436787948,8.48333160471618,-0.0802453830838203,-0.1339386999607086,0.0274586696177721,-0.656185899091588,0.1459178630910397,0.2148916654961423,0.7084839940398739,0.5721165537834167,-0.1713635474443435,0.0350522398948669,0.0589978401526808,-0.1995791540145874,0.0491874439518898,0.033463004976511,0.0180213376879692,-0.0569937018226133,-0.041630532592535,0.0362197116647614,0.0576832686890847,166
1722327910218782700,0.0285693841412663,0.1019868678558617,-0.0196060332238674,4.834503100447356,1.0861357790619135,8.462758187764882,-0.1009294763207435,-0.0774342790246009,0.0181727278977632,-0.6551688781189181,0.1485837519345504,0.2155047178114272,0.7086850128225114,0.8160676956176758,-0.0929909795522689,0.0479040555655956,0.0131382985144853,-0.3729161977916955,-0.5817572472788393,0.0377382189035415,0.0445336028933525,-0.0458410515668569,-0.0234184861183166,0.0632476613505743,-0.0261774338037008,167
1722327910258587400,0.0022235212683677,0.1428515968814492,-0.1344452953249216,4.847082011513412,1.04751546796225,8.46043062160015,-0.116298422217369,-0.0070494906976819,0.0584572739899158,-0.6549358071848517,0.1505241597136394,0.2144307746130136,0.7088165721798736,0.4822370111942291,0.0400201715528965,0.0762137919664383,0.1459752818599343,0.1536298882663249,-0.7298368079416453,0.0310613811016082,0.0382996276021003,-0.0587158859727205,-0.040005799382925,0.0688203651826828,-0.0392175417738733,168
1722327910298357500,-0.1862967708542943,-0.0536734302595257,-0.1988128458172083,4.848256023728848,0.9895068580426276,8.466739366355538,-0.2106718569993972,0.0092778764665126,0.0774635449051857,-0.6548770894253759,0.1526745658364281,0.2121483421775575,0.7090976276255228,0.1282240748405456,0.1479255408048629,0.1429211199283599,0.1897273298248648,0.5205576592981815,-0.3398116544388234,0.0487390793859958,0.0173911899328231,-0.0226687018802505,-0.0346640385687351,0.070569843765092,0.0525394897595746,169
1722327910338128400,-0.2870563619375229,-0.0782351861946284,-0.1772866581857204,4.870007252287865,0.9374543069832026,8.460176939100027,-0.0677166655659675,-0.150434985756874,0.1160300523042678,-0.6552791822796975,0.1552572526657218,0.211059723229817,0.7084900486689609,0.1689342260360717,0.1122304573655128,0.1917212903499603,-0.1037681252494454,-0.0020610241830348,0.0808352856904268,0.0711254552006721,0.0105695649981498,-0.0144330727240012,-0.0526102446019649,0.093059108841652,0.025885771080479,170
1722327910377898500,-0.1525578751206397,-0.0247509948968887,-0.397207173961401,4.951585465300083,0.8933972847223282,8.41748346027732,-0.1328432559967041,-0.2518784403800964,0.105442002415657,-0.655044418880969,0.1600293692090052,0.2126461302838965,0.7071698461149837,0.6471819877624512,0.0661379024386406,0.20689257979393,-0.0568310175076127,-0.5811556281238794,0.2053274884082377,0.0870396569371223,-0.0012101142201572,-0.0792229825224261,-0.0299814883619546,0.0400400782370939,0.0953300951140932,171
1722327910417669600,-0.0720458300352096,0.018356179293245,-0.3872334769576788,5.027893628954887,0.8025557879980653,8.381323182615636,-0.2168488055467605,-0.1736732721328735,0.2045192867517471,-0.6559323457836077,0.1659582205441706,0.2124366186326873,0.7050400433295587,0.5014503598213196,0.095316395163536,0.2106713354587555,0.127228788074851,0.2070546044617891,-0.3414002388045191,0.0921640172600746,0.0072842361405491,-0.0413576636416837,-0.025117615237832,0.043934336596122,0.0174089775540283,172
1722327910457439500,0.2071604029238224,0.1714331829171627,-0.2035398743391037,5.078189399474859,0.6711762369193136,8.362529634818435,-0.3330667316913605,-0.0949454829096794,0.1971643418073654,-0.6572421688919597,0.1722445734996203,0.2096698397238472,0.7031381480458434,0.5432097911834717,0.0458624549210071,0.2153798043727874,0.0049015083059668,0.2034691471904516,-0.0806771725192666,0.0817466229200363,0.0214483588933944,-0.0238155680771451,-0.0294672809541225,0.0508032177186105,0.0733578076829202,173
1722327910497209300,0.1500257262945175,0.021491262448579,0.2210521501541137,5.096268661522865,0.5076273775111884,8.3630586271286,-0.3321529328823089,0.0106594432145357,0.2644394040107727,-0.6590969176656597,0.1783211792631067,0.2044608620677999,0.7014189999025302,0.6754751801490784,0.0093857226893305,0.148883655667305,0.2338537640601396,-0.2863122655719518,-0.0350701443374156,0.0793172791600227,0.0146813727915287,-0.0389841394433751,-0.0307756960391998,0.0168426763076218,0.1019543355594389,174
1722327910536980500,0.3154793233454227,0.1010310284357517,0.4282838647484779,5.083295782703161,0.3659879694310948,8.378337444803119,-0.2360079884529113,0.0683834180235862,0.2005205750465393,-0.6617110878540697,0.1822184173393074,0.1990480069797673,0.699510349855409,0.7809893488883972,-0.0239168405532836,0.1438801288604736,0.1188303775638341,-0.086739541298151,0.0032005496069788,0.071678802371025,0.0268799420446157,-0.0101335614572628,-0.0534434355795383,0.0419908652449958,0.0701498739205068,175
1722327910576750300,0.1406990950226783,-0.0496154235729947,0.4298363548874855,5.072525382363796,0.2522249034604988,8.389055822694301,-0.1655041873455047,0.0063271587714552,0.2249660938978195,-0.6639171888664934,0.1853291687073295,0.1947569881828655,0.6978086555783791,0.3123283982276916,-0.0664973780512809,0.1237014159560203,0.0629337182968854,0.3082031948626041,0.0191346163198351,0.0703284367918968,0.0256884302943944,-0.0317395500264246,-0.059351373463869,0.0108166757500614,0.0922263478119391,176
1722327910616521500,0.2493447631806135,-0.0643653220025822,0.4036491897076368,5.063239083102345,0.1792870747553184,8.396538287404178,-0.0059337317943573,0.0443667247891426,0.2385679930448532,-0.6671316184157132,0.1867473202141459,0.1924087508471696,0.6950106913578323,0.1090058982372284,-0.1061579138040542,0.0968714654445648,0.0315270649030804,-0.0085527242898941,0.1394555247023701,0.0721514225006103,0.0428110845386981,-0.035259944988205,-0.0754894390702247,0.0181417122753686,0.0284993054465856,177
1722327910656291300,0.2627770762056112,0.0031372294466476,0.0226695124477148,5.06716473211348,0.1321351004200987,8.39504424945414,-0.0209710821509361,-0.0629175752401351,0.1747989952564239,-0.6698985752240976,0.1878630146624621,0.1915185638071783,0.6922889277649615,0.2699604332447052,-0.1419054716825485,0.081377200782299,0.0066886839836835,-0.1848825201421976,0.0670280018731951,0.0734031423926353,-0.0106054106727242,-0.0773531061304733,-0.0901844277977943,-0.06494360138115,0.048619037513365,178
1722327910696057300,0.1521200682252645,-0.073269535744423,0.0070861588686704,5.091181567516923,0.0954160289650317,8.38099935748875,-0.0304233469069004,-0.0561910457909107,0.1522745639085769,-0.6717895194311934,0.1896059833902501,0.1916703602480537,0.6899354482478922,0.0903483256697654,-0.1199493631720542,0.0946197584271431,-0.0669128510609269,0.1285264266699552,-0.1095183593392372,0.1016750633716583,0.0045814588665962,-0.0399272015803027,-0.0900240316987037,0.0057001250374829,-0.0144094155704893,179
1722327910775597300,0.005361819294095,-0.1945630063530057,0.0435784449636936,5.079174318858981,-0.0203166063457494,8.388799802106618,-0.0760420784354209,0.0703808516263961,0.188539907336235,-0.6756064647657077,0.1923842341937607,0.1878258261716781,0.6864879888945904,-0.3153426945209503,-0.1359646022319793,0.092206209897995,0.0371609791368246,0.2656657833844423,-0.3380456676796078,0.1069283038377761,-0.0376336425542831,-0.1634411247173324,-0.0155591089278459,-0.0421329314636532,-0.1239019086744636,180
1722327910815368400,0.1667512356460094,-0.1776032498542219,0.0599368745684623,5.075652574473619,-0.0827663359513972,8.390546938034891,-0.0861089825630188,-0.0049965642392635,0.1490870714187622,-0.6777447074277835,0.1939905719392881,0.1859268852664307,0.6844420290513753,-0.052312683314085,-0.0634850710630416,0.1289682239294052,-0.0117874684274196,-0.2199795524865389,-0.2183937445998191,0.0889270976185798,-0.0094421906396746,-0.1854666036404669,-0.0113190338015556,-0.0296884855484007,-0.2234371455945074,181
1722327910855145200,-0.0359323141247034,-0.3198961899396031,0.1939811878770589,5.092635857978463,-0.1390422220605891,8.379505319538712,-0.0689586848020553,-0.0654775649309158,0.123526707291603,-0.6789241635891596,0.1964107760266083,0.184897085025291,0.6828600977262486,-0.0440648719668388,-0.1024187877774238,0.1192100644111633,-0.0925958661109209,0.1478939749628305,-0.1631210624501109,0.0678942576050758,-0.0055012041702866,-0.1342789075157605,-0.0305512379854917,-0.0344820171349798,-0.1634915397303178,182
1722327910894909400,0.0870633664250373,-0.273662481226772,0.0364519540846347,5.113741189849376,-0.1873709028918296,8.365699497026204,-0.0302907712757587,-0.0269348453730344,0.1635694205760955,-0.6805421766763375,0.1985761108989914,0.1844872916699814,0.6807306905001461,-0.0197065379470586,-0.1242740675806999,0.1357303112745285,-0.0604319646090269,-0.2084048500269651,0.1229641163676977,0.0329846628010273,0.0014345403760671,-0.1036780997452791,-0.0278449468314647,-0.0014309221440402,-0.0951803022467065,183
1722327910974450400,0.2560983290940523,0.1538089346276596,-0.2680038709431886,5.078182969734073,-0.3243959490442648,8.383150398042797,-0.151356428861618,0.0637957975268364,0.1525164246559143,-0.6850958280267538,0.2011667758952795,0.1791932362897891,0.6768052780218553,-0.2972134947776794,-0.1081958785653114,0.1106356829404831,0.0609787848368287,0.1797726297825574,-0.1927063456356525,0.0188551843166351,-0.0217867158353328,-0.0954904459081124,-0.0476967990398407,0.0036856262852496,0.0114554588524333,184
1722327911053990100,0.4483855725347995,-0.0198142691470682,0.0945282954782247,5.053489842504263,-0.4600736357083544,8.391719488945602,-0.1807141751050949,0.0386159978806972,0.0011769428383558,-0.6854181720009377,0.2052685771149354,0.1732229533388976,0.6768016746865614,-0.3366386890411377,-0.0717920064926147,0.0396311469376087,0.0489151298165321,-0.2056079127848148,0.1720581098824739,0.049135934561491,-0.0186630468815565,-0.1118856729924678,-0.0442712754011154,0.0165833677843096,-0.0653116857748711,185
1722327911093761300,0.3455120580375194,-0.0868988235130906,0.5208341381520033,5.05580688727498,-0.4724463932104408,8.38963625293076,0.0414381548762321,-0.0159060396254062,-0.031057609245181,-0.6848854529678061,0.2059584842148454,0.1727098837864779,0.6772623833281772,-0.1967612206935882,-0.0673533678054809,0.0386568941175937,-0.0374871423512697,-0.3063146046370267,0.0134888655178248,0.0363413169980049,-0.0141649581491947,-0.0609616419057827,-0.0700186640024185,0.0466598297369899,-0.130870386847062,186
1722327911133531400,-0.1014426049113273,-0.1422134451083838,0.3206833217293023,5.07285271462202,-0.4440666498897597,8.380892389982938,0.0744743272662162,-0.0271689984947443,-0.0236003492027521,-0.6843508476600076,0.2056694095126333,0.1743373023648068,0.6774736930281074,-0.0918590277433395,-0.0618266686797142,0.0453377030789852,0.0046197687551379,-0.0636766456186771,-0.1253244157582521,0.0182007811963558,-0.0363711491227149,-0.1531436208530329,-0.0497713573276996,-0.0292380452170269,-0.0582250976479379,187
1722327911173302300,-0.2980775221675634,-0.0883001051457598,-0.1010597430735826,5.086031929668784,-0.4213654636621475,8.374073942139745,0.0704276263713836,-0.0813315510749816,0.0417430363595485,-0.6848706339774207,0.2051763522169723,0.1759082520530911,0.6766913837852503,-0.1190861240029335,-0.0576234050095081,0.057630255818367,-0.1089569260641932,0.0921148045957088,-0.0677235829219222,0.0218794308602809,-0.0266867093741893,-0.0683620543553959,-0.0454627461731433,0.0614344698821892,-0.1172498121078126,188
1722327911213072400,-0.1211322247654199,-0.1071979901002719,-0.3696533966034651,5.120673619461059,-0.4177306873563677,8.35311824787259,0.0054325801320374,-0.0844244807958602,0.0445821173489093,-0.6852475869204272,0.2062450562693248,0.1776864126378042,0.6755192300905426,-0.1133685782551765,-0.079336792230606,0.0673092529177665,-0.067884326441586,0.037495910179615,0.1673525625400245,0.0139011647552251,-0.0329390913248062,-0.1331519675787538,-0.0449609532952308,0.0084154455566749,-0.0478054880741983,189
1722327911252843300,-0.1883428897291421,-0.0771524324592202,-0.4456868349701166,5.1130660670667885,-0.4522653731102123,8.355979482522606,-0.0976805388927459,0.024991001933813,0.117334745824337,-0.68611725402023,0.2070359937209538,0.1763511170209196,0.6747439574091189,-0.1052973344922065,-0.099940501153469,0.0831374153494834,-0.0493482605367898,-0.0964396820574998,-0.0649872898258268,0.0187452286481857,-0.0166442785412073,-0.0740683305724523,-0.0157786197960376,0.0031049072127789,-0.0099433258399891,190
1722327911332381200,0.3245131091505289,0.009590689035505,-0.0590296965956687,5.05840041089952,-0.6142760996982455,8.378880465638638,-0.2348610907793045,0.0759980529546737,0.0819760337471962,-0.6881271201466538,0.2105983983394649,0.1686543733623373,0.6735615656392802,0.0646874383091926,-0.1241882145404815,0.077299565076828,-0.1420972713828086,-0.008334697625041,-0.1548480318844318,0.0446049682796001,-0.0062574199400842,-0.0647618653058074,0.0078546423465013,-0.0125154721747152,0.072659221826354,191
1722327911372152000,0.2550555420428514,-0.0896491451345384,0.2314075399518013,5.040020704600215,-0.6910101606149226,8.383977496516705,-0.1782630681991577,0.0786439254879951,0.0543566867709159,-0.6881951210492381,0.2127983678299979,0.1650847046724763,0.6736849717333669,0.1615250408649444,-0.1459579467773437,0.0898441150784492,-0.115773912602663,-0.0698725776493549,0.096963413670659,0.0534438155591487,-0.0167116392403841,-0.0288225255019846,0.0105255218222737,0.0153553603593143,0.0350193594316719,192
1722327911411922000,0.135593296316266,-0.1852492345627397,0.3397171080231666,5.033488087961078,-0.7435512258436531,8.383407003152369,-0.0786349475383758,-0.0233426932245492,0.0251246113330125,-0.6882765723979104,0.2145252416921018,0.1629236587817246,0.6735801127604092,0.0818951874971389,-0.13822902739048,0.054145373404026,-0.0434539418011903,0.0509925206124782,-0.2321048745661973,0.0589177422225475,-0.0169498231261968,-0.0641105206910288,-0.0042370893061161,-0.0070064812285825,0.0603037670855177,193
1722327911451692800,-0.0886830765813589,-0.0971829016402363,0.1082651444077491,5.056950796613097,-0.7482695596024393,8.368854746186733,0.0299633350223302,-0.0947017222642898,0.0134740239009261,-0.6880625131829696,0.2156439739892263,0.1637218511983768,0.6732479645926404,-0.0383244305849075,-0.1197971925139427,0.0733263939619064,0.0735600339904427,-0.0674807140767574,-0.0067208326876163,0.0562911182641983,0.0041577252559363,-0.0341411289921496,-0.0414695516228675,-0.002595217824704,0.0044660908721445,194
1722327911491463000,-0.0967728595346212,0.0891019595805555,-0.2384855155140161,5.081949628791213,-0.7490035729654133,8.353632042613626,-0.0310415755957365,-0.0697016865015029,0.0277896113693714,-0.6882350784723889,0.216575650349575,0.1648583910784478,0.6724947609020816,-0.13133105635643,-0.1053368672728538,0.0795182362198829,0.024213234758377,0.1259872635811567,-0.0853285054564476,0.0497038923203945,-0.0051135057583451,0.0038600912279449,-0.0716699659824371,0.0156812358793918,0.0591567661745939,195
1722327911531233800,-0.1077455044478178,0.0705343294937163,-0.1300403383642435,5.088582783195376,-0.7828092503249645,8.346491523209213,-0.0970260873436927,0.0163193792104721,0.056300975382328,-0.6883218737373773,0.2180911808547095,0.1639622032253101,0.672135179852463,-0.0752401053905487,-0.1075235307216644,0.1187505275011062,-0.0744338942155242,0.1056231054663658,-0.0169470431476831,0.0459184646606445,-0.0137276640161871,0.007508255596616,-0.0871467515826225,-0.0408959963801084,0.1157763146223034,196
1722327911571003600,0.1818371610969305,0.0604273614991456,-0.2034744078874588,5.080767725530267,-0.8339040622681378,8.346303891682624,-0.1401073187589645,0.0066889366135001,0.0623406358063221,-0.6887273329909183,0.2196418292990322,0.1619086244693493,0.6717125628318008,-0.0458886064589023,-0.1187378913164138,0.1957187503576278,-0.1606789299950003,0.2246241634219885,0.0491787491887807,0.0312747992575168,-0.0249027032405138,0.0244750366328749,-0.0867114141583442,0.0183401620234944,0.0540060186481801,197
1722327911650544400,0.1329378133714199,-0.0379269950732588,0.0895177738398313,5.079089563184977,-0.9285822876110672,8.33732388189137,-0.1170483529567718,-0.0051458831876516,0.0389253571629524,-0.6890079782292101,0.2231205997443203,0.1585307124084505,0.671083544891033,0.9269036650657654,-0.536906361579895,0.0934815257787704,-0.1679389841258525,-1.127591825044155,0.0475321510255336,0.0124440183863043,-0.0330603122711181,-0.0302330613034777,-0.0620370730757713,0.0304587324186693,-0.0696666250147856,198
1722327911690307300,0.0504401474267244,-0.1182943709909915,0.2286819143801927,5.08602023923099,-0.9664286186635492,8.328793369433283,-0.0617453530430793,-0.0209930855780839,0.0464118868112564,-0.6890866074408861,0.2248105117735861,0.1575117215576777,0.6706787522476427,2.251729726791382,-0.3001131117343902,0.2010026574134826,0.4364899675577878,-1.1233651472598314,-0.1687716355577111,0.004342698957771,-0.0639763697981834,-0.0503524874095804,-0.0591157376766204,0.0420574322417611,-0.0729787452374585,199
1722327911730078500,-0.1006686979293823,-0.0702040746260434,0.1976116533339023,5.105747268486023,-0.9736678492020816,8.315870759496093,0.0217498876154422,-0.0736201629042625,0.0358049012720584,-0.6893152027298206,0.2257837453806424,0.1582096798622061,0.6699522009510099,2.2484023571014404,-0.3799573481082916,0.2442808896303177,-0.1617889370635152,0.1978448775678873,-0.0672498279303312,0.0152873769402503,-0.0603805892169475,-0.138938040166907,-0.0455546155571937,0.016710788989684,-0.0666809968001209,200
1722327911769848000,-0.0847194336473941,-0.0396009196348488,-0.0037023616492748,5.122568639427423,-0.9831720289979128,8.304399517410992,-0.0154433995485305,-0.0566828660666942,0.0498263798654079,-0.6897350877046762,0.2266876783556511,0.1587644713417201,0.6690830922726215,1.9350215196609497,0.0211431514471769,0.3178417086601257,0.3854591607615351,0.1814525456935167,-0.7080155828863381,0.0185512397438287,-0.0688706785440445,-0.0846494371511042,-0.0310288667678833,0.048210854004696,-0.0646200639486312,201
1722327911809619200,0.0367787018209695,-0.0321073490090668,-0.0341617973208427,5.13514579692781,-0.9926107423420996,8.295504263293743,0.0259569436311721,-0.0515306293964386,0.0533262528479099,-0.690371116412863,0.2273760101501552,0.1592078523865844,0.6680874401185914,-0.0074946116656064,0.0503694787621498,0.1433183997869491,-0.2302344045192003,0.8742448404848575,-0.8634569044888019,0.0027944166213274,-0.0284933820366859,-0.1320050990985706,-0.0065145986154675,0.02818206989069,-0.0686238059975439,202
1722327911849389000,-0.0317278481721878,-0.0290911429930478,-0.1292570790320635,5.127337169003487,-1.004754842187464,8.298871693900226,-0.0374676398932933,0.0466253124177455,0.0838619023561477,-0.6913623167036532,0.2273095993449463,0.1587628668192176,0.6671903483963189,-0.3082943856716156,0.0693040788173675,0.0993873551487922,0.3665677055478096,-0.2965308772474527,0.0223401343628764,-0.0173704605549573,-0.0121085392311215,-0.097863970106421,-0.0013358949217945,0.030777287715394,-0.0730898957280442,203
1722327911890400800,0.2268196276396512,-0.0104187373574823,0.0757353322029113,5.115243411105871,-1.0361465902730822,8.302474102306366,-0.0376155376434326,0.0115771293640136,0.0354647561907768,-0.6920770441855328,0.2278876616279961,0.1573494448484722,0.6665866846304831,-0.7484244108200073,0.0787269249558448,0.0050974041223526,0.0467263876006007,0.4035796316027641,-0.1684615466952324,-0.0089822392910718,-0.0121042765676975,-0.0679145069507183,0.0180537234991788,0.058319388335268,0.0075768044879136,204
1722327911930172000,0.2586906836748123,-0.0608981938812881,-0.0542570753663778,5.125568990287184,-1.0405841343291102,8.295548102435468,0.0217511244118213,-0.0906682834029197,-0.0150293437764048,-0.6920218083621587,0.2284627962106548,0.1576373038334262,0.6663791490313488,-0.7218226194381714,-0.1176797077059745,0.076011061668396,-0.4738675120547413,0.2431669513285159,0.4182026157170534,0.0073410272598266,-0.0063650808297097,-0.0521226434538373,0.0222049206495285,0.0572853736789897,-0.0365900747805368,205
1722327911969941800,-0.0163935009181499,-0.0875814720150083,-0.2153963163495063,5.156594827669859,-1.02437556152381,8.278319319736957,0.000618228688836,-0.0707596391439437,-0.0505904480814933,-0.6912513334763571,0.2291998660821808,0.1593442858513739,0.6665196330217904,-1.6514899730682373,-0.1279856115579605,0.197127029299736,-0.3504018759056925,0.624075901439786,0.7129124150171876,-0.0011253685224801,-0.0020207699853926,-0.0389081104985205,0.0329492576420307,0.0747189399682916,-0.0281202430011238,206
1722327912009712600,-0.3137994074344635,-0.109861400623247,-0.0546340919852256,5.167294500860572,-1.0396547445245086,8.269737953874468,-0.0807891115546226,0.0893776640295982,0.0531118847429752,-0.6909835996233564,0.2302576258284887,0.1591921103634143,0.6664689824050829,-3.213789939880371,-0.471922367811203,0.0042063104920089,0.1238058278888463,1.0165361731350422,0.374243354742229,-0.0099527761340141,0.0097447633743286,-0.0753429718844592,0.0467992275953292,0.0325904769004904,0.0179824802927789,207
1722327912049482500,0.2462818684786558,0.0071388389039784,0.097011928987503,5.11927368953526,-1.084828788116574,8.293767064237594,-0.0752399861812591,0.1662887930870056,0.0649019032716751,-0.6919634712194781,0.2299394492313034,0.1557671984397476,0.6663715262863141,-0.5264917016029358,-0.3154807686805725,0.2685793042182922,0.0552910945892334,-1.8495722203969955,0.4079568237736821,-0.012028481811285,-0.0335939079523086,-0.0065371404047386,0.021146947517991,0.0925420992302242,0.0038023348711867,208
1722327912089253600,0.1341635557740926,0.1752235151108354,0.0515162522256374,5.082652224102616,-1.1089620164413003,8.3130761603415,-0.0481226593255996,0.024624915793538,-0.0027949889190495,-0.6924024216559597,0.2293753982053283,0.1534209842839448,0.6666542657148756,-0.5211739540100098,-0.1341302245855331,-0.0209257416427135,0.3804343183368444,0.6362269424825906,-2.4514983954794705,0.0178871918469667,0.004790133330971,-0.1344745762183331,0.0323954857885837,0.0205283014512271,0.1134097955535165,209
1722327912129023500,0.0232213011115789,-0.0251798878334462,0.1651198350518941,5.093486921849847,-1.1155074925620108,8.305565638580918,0.0093731991946697,-0.0480597540736198,-0.0047730635851621,-0.6920975666809415,0.230109002056555,0.15357036008468,0.6666835200993937,0.0542867295444011,0.0018341694958508,0.1282885670661926,0.2952390838712453,-1.619703726580739,0.3457838607162237,0.0357718393206596,0.0048524565063416,-0.0720862442439887,0.0134441889822483,0.0601354339144425,-0.0437947819949593,210
1722327912168793300,-0.2929512651950121,-0.1368374511584639,0.0078980597734451,5.108738266995549,-1.1017128490306436,8.298036412119865,0.0339246205985546,-0.0219266898930072,0.0434508882462978,-0.6921130577248892,0.2301541248980967,0.1547480624614081,0.6663796113407955,-0.0941171199083328,0.0048448732122778,0.0169946104288101,-0.031831893068552,0.2641787596970796,-0.2544306881427765,0.0357009023427963,-0.0227102693170309,-0.0142772485496941,-0.0042255888693034,0.0843104692540131,0.0219931840887293,211
1722327912248334000,0.3582663256704807,-0.0165438691742718,-0.0873836844205856,5.085400061506033,-1.126238437673822,8.309072185397147,-0.0285949110984802,0.0406373143196105,0.0032147318124771,-0.6940033179966864,0.2297760808562013,0.1534867182849931,0.6648339551026813,0.0912793651223182,-0.2651558518409729,0.1067720353603363,-0.1320475865334272,0.1934714847892522,0.4014266913525759,0.0238753054291009,-0.007494268938899,-0.0609815704489592,-0.0026543186977505,0.0697906669529853,0.0056339952904905,212
1722327912288105200,0.2734370019078254,-0.0819253459494561,0.1202840835034847,5.067129076278209,-1.13762119775787,8.318678218132257,0.0045112799853086,0.067147858440876,-0.0151169653981924,-0.6940539507438244,0.2295113335506209,0.152282648843356,0.665149386820291,1.5170855522155762,-0.2425574660301208,0.2293239086866378,-0.0902200768902897,-0.6579957066982984,0.5479582919210195,0.0248271618038415,0.0012566753430292,-0.0951226994411088,-0.0001169414026662,0.0671954536948585,0.0101000861626351,213
1722327912327875000,-0.0502466706812381,-0.0601885843072086,0.0051911389023065,5.065051685482263,-1.131375654431805,8.320794771894812,-0.0061286063864827,0.0149645656347274,-0.0233439393341541,-0.6937657039623741,0.229257846227818,0.1523101342490895,0.6655310602002754,2.121965169906616,0.0400135666131973,0.370210736989975,0.1977709355488419,0.0034767361998558,-1.1490224433466791,0.0301479138433933,0.0056434818543493,-0.0548557947447756,0.0023020026274025,0.0845015987787861,0.0199392221174319,214
1722327912367646000,-0.2625970434635877,-0.1031357456300407,0.0678565616518259,5.066861365252733,-1.1285312978513538,8.320079317101836,0.0360679104924202,-0.0232731625437736,0.0126978326588869,-0.693661857344092,0.2292406114512145,0.1524557860955706,0.6656119095197347,0.8931803107261658,0.0154961859807372,0.3365629613399505,0.1279550565227866,0.1245546004295349,-1.0752625028699636,0.0178602449595928,0.0300066508352756,-0.0615051376653369,0.0040711592882871,0.0150294848392368,0.0108819572553271,215
1722327912407357400,-0.0360427887618541,-0.0918357684586197,-0.0777086781024932,5.0779322098433965,-1.1197798361189664,8.314510577058792,0.0307492073625326,-0.0305240489542484,0.0266500748693943,-0.6940220121131654,0.2292399059577252,0.1533851501068396,0.6650230292508339,0.0887075513601303,0.1813539713621139,-0.164260521531105,0.4488428147830068,0.7434282570511103,0.9675760351330042,-0.0068601369857788,0.0276796873658895,-0.0347644211228005,0.0153562752529978,0.0323993450924288,0.0200364422640763,216
1722327912447126300,0.0712134708642959,-0.0740563661400228,-0.2172328841269016,5.082754515433312,-1.124092073294893,8.310981233888864,-0.018366364762187,-0.0380922593176364,0.0219782683998346,-0.6944016914381245,0.2295011104837512,0.1535810148703847,0.6644910851640544,-0.7757787704467773,0.1282814890146255,0.027865832671523,-0.0358197936609387,-0.293723418611288,-0.9601841713160276,-0.0140340020880103,0.0354589000344276,-0.0977561258177738,0.0438374318182468,0.0046559331929514,0.0563069936335086,217
1722327912526661600,0.3898702552020549,-0.07948409027718,-0.0402630368053913,5.037036720353365,-1.1818113448791203,8.330784250989556,-0.0659577846527099,0.0820708200335502,0.013542859815061,-0.695401111130231,0.2297712367800504,0.1498445052499607,0.6642056408009395,-0.1618514358997345,-0.1712375283241272,-0.0426952205598354,-0.0276271348550915,0.4301794692367315,1.3301719144403934,0.0110311191529035,0.0046306760050356,-0.1349221281895879,0.043034378439188,0.0236433829981484,-0.0114168199005653,218
1722327912566430200,-0.0422264458328485,-0.0778670835345983,0.0135614923626184,5.0493999428421255,-1.1708586467754094,8.32484433954656,0.0235650222748518,-0.1144615188241005,-0.0926277562975883,-0.6945326743016852,0.230012731830275,0.1504832204035473,0.6648859656605951,-0.0835379809141159,-0.1275775581598281,0.1518478393554687,-0.2174060487367212,-0.0363783043265342,-0.3974254928871989,0.0056484658271074,0.0303264055401086,-0.0841539178522769,0.057161696255207,0.0624684891050448,-0.0730829316977178,219
1722327912645967000,0.0715022246778011,-0.0663433075446635,-0.1104109242647886,5.101020824486017,-1.1642761996451765,8.29424111149013,-0.0444751381874084,0.0377385281026363,0.0092985741794109,-0.6934384527512846,0.2319660016326112,0.1526537618527964,0.6648547545847873,-0.256035178899765,-0.0919440910220146,-0.0912001654505729,0.0906524769581854,1.065509755140543,0.2775841847151518,-0.0509099848568439,0.0027134963311254,-0.0231162470016395,0.0834064036607742,0.0736849253120133,-0.0722871234112186,220
1722327912685734700,0.2296832003772258,0.0100664898537099,0.1224035598754882,5.064794495850801,-1.1917544275488705,8.31251852645874,-0.0813419446349144,0.1367049217224121,0.0022244155406951,-0.6936385956613038,0.2316050158100125,0.1501286821491322,0.6653466179983449,0.0128998756408691,-0.0390876978635787,0.1207265332341194,0.1897876817099749,-0.3894786255359649,0.1631909128159284,-0.0574425458908081,-0.0047289710491895,-0.0533972847658442,0.0844634622335434,0.0867709410834126,-0.0086642703602352,221
1722327912725491200,0.0632756636023521,0.0712683428566902,0.1868897683113813,5.029191267549991,-1.2044739891946314,8.332278288939595,0.0223160590976476,0.0343753024935722,-0.0548964776098728,-0.693438393916503,0.2307874539252684,0.1480175362214796,0.6663115923167303,0.1468667387962341,0.0514880083501338,0.0216222517192363,0.2208341234892606,-0.2532709967136383,-0.8560571496263146,-0.0130609199404716,0.0183376707136631,-0.1545740737812593,0.0664387047290802,0.0089961657707899,-0.0264067056650645,222
1722327912765259000,0.0523679006189107,-0.1264306964997202,-0.1597083313971757,5.050573078274726,-1.1733214566923678,8.323785770404339,0.035158198326826,-0.0553845129907131,-0.0716823562979698,-0.6925288077161348,0.2306039269363086,0.1497560050187479,0.6669323066120872,-0.1583237946033477,0.0184896327555179,0.028813986107707,-0.0790421186633408,0.4960439802885055,0.1481271991968155,-0.0023892947938293,-0.0021773872431367,-0.0235837183829164,0.0565145649015903,0.0999308395083528,-0.0606093578693922,223
1722327912844795600,0.2652694775432348,-0.0148442256495356,-0.1223614742994308,5.039383575740456,-1.1806105177219957,8.329535127711296,-0.0699684917926788,0.0784028470516204,0.0015548733063042,-0.6920675532671471,0.2305616612471398,0.1488395871014564,0.6676305874200783,0.6680478453636169,0.0026421195361763,0.143962413072586,-0.0900140329241752,-0.2688672097742557,0.1368833361268043,-0.0327018238604068,-0.0045071919448673,-0.0738564048548229,0.0548732653260231,0.0753633707850938,-0.0074061115380376,224
1722327912884563200,0.0579506691873073,-0.0071139236584305,0.0317991598427295,5.014913735872507,-1.2055491441454738,8.340724045723675,-0.0467399656772613,0.0556630156934261,-0.0168402064591646,-0.6919142541855838,0.2306220372636414,0.1468158399688603,0.6682165496393228,1.360363483428955,0.1426558941602707,0.0987746939063072,0.1320046241745352,-0.9098644353985786,-0.826458714698255,-0.0403924211859703,0.0105904266238212,-0.1028628013070207,0.0522948317229747,0.0589638191520702,0.0282909370926441,225
1722327912924332000,-0.0765104082286357,-0.0950411403711885,0.1719856291681528,5.013054956263304,-1.21309064556621,8.340748011121153,0.0079350396990776,0.0154801327735185,-0.0025337957777082,-0.6916267129121606,0.2309040811570232,0.1463677071711333,0.6685150795534792,0.8495454788208008,0.2608487904071808,-0.0674905180931091,0.4924186293981969,0.0239069452881813,-0.6533043340116739,-0.0371008403599262,0.0291456170380115,-0.0370020531149115,0.0697537362575531,0.0738732052925741,0.0681028736962471,226
1722327912964099800,0.0725379974663257,-0.0039311289038509,0.0208855516403913,5.016187409070134,-1.2096299106530843,8.339366785895823,0.0062254630029201,-0.0171120800077915,-0.0003412665100768,-0.691691842861046,0.2308763101876733,0.1466517788784105,0.6683948866180399,-0.5415018200874329,0.2499144226312637,-0.042855005711317,-0.3301356252074241,1.0549252327620982,-0.6867652895867824,-0.0379850752651691,-0.0090322084724903,0.0466045969849918,0.0589305236935615,0.1042755450486205,0.0266815839335555,227
1722327913003868700,0.087218849247694,-0.0421998500868678,-0.033025486767292,5.027244809657335,-1.1994931320421396,8.334171555340289,0.0630758479237556,-0.0815751031041145,-0.0191861279308795,-0.6916773154145807,0.2309116064272985,0.1474969314727921,0.6682118047835702,-1.1122033596038818,0.1448179632425308,-0.0693920776247978,-0.1192759293742477,-0.0561176085412502,-0.0681856474757194,-0.0360699221491813,0.0097809936851263,-0.018992486169096,0.0805261358618736,0.0544961676521459,0.1123739405666012,228
1722327913043636200,0.1733352902114391,-0.1322729927871376,-0.2870949403822422,5.04946657833755,-1.1851362515181303,8.322783899885415,-0.009787892922759,-0.015983659774065,-0.0155641064047813,-0.6912288176349012,0.231306884828022,0.1488396867766998,0.6682414784295632,-0.4903374314308166,-0.1330273002386093,0.0673270896077156,-0.5263982020199298,-0.4246048839747905,1.884374069187045,-0.0274331904947757,0.0027786646969616,-0.0012465876862348,0.0773815140128135,0.0699891212676884,0.0311407050671521,229
1722327913083405000,0.2691851896822452,0.0033556671034544,-0.1630138026833534,5.02020482801795,-1.2032994655225426,8.337865733683108,-0.0929764360189437,0.1197312101721763,-0.0374240465462207,-0.6910123500184235,0.2309355425615733,0.146819432690194,0.6690402755601464,-0.5557106137275696,-0.2833342254161834,-0.0372124351561069,-0.526989153650403,0.0417336938798427,1.238563598062098,-0.0229861196130514,-0.0059340456500649,-0.0495652414554497,0.0471291244029998,0.0619486253828275,0.0472775917425751,230
1722327913123172900,-0.4008013990610837,-0.0786515849757939,0.1880769322693347,5.007694306012988,-1.2193048439059406,8.343062133282423,-0.0510226301848888,0.0270053073763847,-0.0382871218025684,-0.6900326525520795,0.2312851204647084,0.1453596183516384,0.6702483103555633,-0.2193072736263275,-0.2297553271055221,-0.0875564292073249,0.1178819907978177,0.066060325884819,-0.3231894593313336,-0.0231996774673461,-0.0037934719584882,-0.0761501418151892,0.0247927792370319,0.0358301255419966,0.0342305174587876,231
1722327913162941400,-0.2030184808135032,-0.008116378699243,0.3141998049288988,4.992618901956081,-1.2195105956111103,8.352062016817927,0.0509798265993595,0.0640574023127555,0.0022405195049941,-0.690061246816898,0.2307097915032219,0.1446939634265218,0.6705611565930346,0.5358709096908569,-0.0650948509573936,0.0921356305480003,0.2388755377449095,-0.7283183662027121,-0.2366267359048128,-0.0204353835433721,-0.0029981848783791,-0.0650735113711329,0.0330402106046676,0.0049818075713847,0.0804443958098534,232
1722327913202709200,0.0350970323443412,0.1576508874107152,0.0480611433357,4.975518129551411,-1.1889531794577837,8.36665986649096,0.0988929271697998,0.0362479761242866,-0.0058987271040678,-0.6906400507813499,0.228759858786076,0.1452170855127647,0.6705201278896599,1.3425073623657229,-0.2436137199401855,0.0516222938895225,0.0679191054940223,-0.0234182849884033,-0.4198527210116386,-0.0055838804692029,0.0053806258365511,0.0157999885794764,0.0466807931661605,0.0626003809895599,0.0955523960952647,233
1722327913242477000,-0.0149339497596025,0.1184103985860943,-0.1816097820818424,4.952974873831868,-1.172457679469883,8.382349018532038,0.0086054429411888,0.0355650782585144,0.0089991092681884,-0.6909330804349663,0.2272042540123879,0.1449047342306672,0.6708147280348462,0.8705490231513977,0.0965939089655876,-0.0520536974072456,0.1181041091158986,0.110453009840846,-0.370690338435769,0.0042271623387932,0.001572168781422,-0.0726297445701202,0.0335839726030826,0.0285050867334008,0.0979575575408525,234
1722327913282245600,0.2483119130015373,0.0383222049359232,-0.0522679473757743,4.928101713860035,-1.1727248790387064,8.396958558642863,-0.0202563405036926,0.0561814308166503,-0.0314171575009822,-0.6911222004601437,0.2262251926854139,0.1438625130636957,0.6711750108064121,-0.3787110149860382,0.0968155488371849,-0.0680244043469429,0.3785045193180442,0.6742968531578779,0.2729705534398555,-0.0056426068767905,0.0313910096883773,-0.0064374189153983,0.0201406944543123,0.0027863513452321,-0.0065200534142641,235
1722327913322013400,-0.1414928757488727,-0.1600049762561917,0.0616834259748458,4.932589672929049,-1.1629411516491324,8.395684300923348,0.0219928361475467,-0.0333231315016746,-0.0003066486679017,-0.6906945385370606,0.2261138572589473,0.1442628293401235,0.6715666755186395,0.2003432810306549,0.32663094997406,-0.0238014888018369,-0.3483274077191948,-1.2305074251174926,-0.6768512138158083,-0.0362208113074302,0.0341008268296718,-0.0294738678334746,0.0162523537874221,0.0098463694131816,0.0473748141725081,236
