time_imu,phone_acc_x,phone_acc_y,phone_acc_z,phone_gravity_x,phone_gravity_y,phone_gravity_z,phone_gyro_x,phone_gyro_y,phone_gyro_z,phone_ori_w,phone_ori_x,phone_ori_y,phone_ori_z,watch_gyro_x,watch_gyro_y,watch_gyro_z,watch_acc_x,watch_acc_y,watch_acc_z,headphone_gyro_x,headphone_gyro_y,headphone_gyro_z,headphone_acc_x,headphone_acc_y,headphone_acc_z,frame_imu
1733378761101717800,4.28101932310313,15.280505773735046,-2.116753669041396,0.2289084166124463,9.783493580818176,-0.6334362888507544,-0.6445859670639038,-0.2512571811676025,-1.7884860038757324,-0.5432591808910583,-0.5690349766484453,0.4566130307737859,0.415419350367038,-0.0177851691842079,-0.0013486295938491,-0.2906676232814789,-0.0015130043029785,-0.1122905611991882,0.0465942472219467,0.0286435261368751,-0.0114818327128887,0.0159814129859209,-0.3339492678642273,0.2109655673604458,-0.0204568048343062,0
1733378761141717800,4.313189362084866,6.8335600721299645,-0.8494494219243526,-0.6804373286742716,9.778009596449136,-0.3129359955381602,-0.869318425655365,-0.4597522318363189,-2.6643941402435303,-0.5290120999196996,-0.5772406297968358,0.4274909943286565,0.4518749074077107,0.1087344288825988,0.0136582292616367,-0.0567715875804424,0.0144397616386413,-0.0809783935546875,0.0121498852968215,0.0501668415963649,0.036911342293024,0.2418395021170377,-0.3009605407714844,0.1657902816593646,-0.0090258947595953,1
1733378761181717800,2.237199957369268,-3.646564943251013,0.7018354329466819,-1.6250320819966495,9.670823479449748,-0.0693170352589804,-0.1865924298763275,-0.3903485834598541,-2.028082132339477,-0.5093792881095162,-0.587144808606268,0.3984911027300136,0.4868248688911094,0.1096718609333038,0.0300153642892837,0.1211912855505943,0.0118189454078674,-0.0833118855953216,0.0126719325780868,0.0736196935176849,0.0780176967382431,0.0920931772857904,-0.2406037747859954,0.1560661755025386,-0.0781678200468421,2
1733378761221717500,3.387557448711992,-12.26295594189167,-0.1430710848510265,-2.2610852753475306,9.54239466793537,-0.0239238302076119,-0.0523356609046459,-0.413975179195404,-1.502888798713684,-0.4902741714599881,-0.5957229387780474,0.3825362154084448,0.5083418365520549,0.0083849169313907,0.0341611094772815,0.1511496603488922,-0.0098763704299926,-0.056829810142517,0.0214436650276184,0.1089360117912292,0.0495976209640502,0.0238414788365364,-0.1000373810529708,0.1197869476363062,0.0708233025029301,3
1733378761261717500,1.542076297020912,-15.593373453277348,0.5609890384078026,-2.7914009430721403,9.40047216859758,0.0980148589523509,-0.3084196746349334,-0.35700124502182,-1.1969127655029297,-0.475439221143233,-0.6000873047365173,0.3672844397312381,0.5281619383415892,0.0584904290735721,0.0145136369392275,0.1416759341955185,-0.0012166500091552,-0.0117220878601074,0.0118233114480972,0.0640949234366417,0.0237820763140916,0.0573024344116449,0.02960966527462,0.078679349765554,0.1982720169387757,4
1733378761301717500,-1.0267945322990415,-14.749543624800443,1.5157377406716346,-3.0756700123786924,9.309767815321685,0.1971640739631839,-0.1328018456697464,0.3184906840324402,-0.2808018922805786,-0.46988401353373,-0.6026400976220202,0.3560510399610083,0.5378304864130357,0.0364897884428501,0.0213291458785533,0.1317443996667862,0.0055733919143676,-0.0006413757801055,0.0152668505907058,-0.0222793594002723,0.0043655056506395,-0.0202794024407863,0.0649802163243293,0.0567814062122255,0.1316286304689943,5
1733378761341717800,-1.654578640606999,-10.208790538710357,0.644346536052227,-3.027880379460752,9.326525473377108,0.1349661591275595,0.1004831790924072,0.4903362691402435,0.4860432744026184,-0.4749193805832141,-0.607080569525251,0.3529473378228569,0.5304081374419246,-0.0329571962356567,0.0106682982295751,0.0870146751403808,-0.0023921132087707,0.0075339078903198,0.0166474133729934,-0.093675211071968,-0.0085463058203458,-0.0553027850270271,0.0809109285473823,0.0293552738219499,0.1181010403759777,6
1733378761381717800,-1.4528586751714347,-4.999331551337242,0.5263555319219827,-2.697040989898145,9.428454985022544,0.0243109960444271,0.3823029100894928,0.0336222164332866,1.2912167310714722,-0.4833673504478614,-0.6054928803128627,0.36350908666204,0.5172963402533974,0.0418259650468826,0.0009006227483041,0.0310943536460399,-0.0065640211105346,0.0233296453952789,0.0214864015579223,-0.1311709731817245,-0.057562343776226,-0.0854553467065095,0.0955386906862258,0.0481787783659994,0.0292930222406983,7
1733378761421717800,0.1298945001527666,0.259621827045083,0.0482043603318277,-2.06545661252439,9.585484452599289,-0.1508556651794817,0.4062449634075165,0.0562638789415359,1.927846312522888,-0.4945072266882546,-0.5973828422387394,0.3883622512296518,0.4977660808252439,0.0174164958298206,-0.00795294996351,-0.0091004706919193,0.0038409233093261,0.0138266682624816,0.024533525109291,-0.116608552634716,-0.0846478939056396,-0.0448451038986444,0.1098769605159759,0.0625865853596478,-0.1295509474121034,8
1733378761461717500,2.274081827303767,3.668344228860736,-0.4481249488372355,-1.3398947054229675,9.707763509312272,-0.3666523881565779,0.9243952631950378,-0.1539770066738128,1.7775031328201294,-0.5057943780806358,-0.58753964718659,0.4165227870239037,0.4748454052404091,0.020217340439558,0.0016095030587166,-0.0619174130260944,0.0105855464935302,0.0171959400177001,0.02674001455307,-0.0391452461481094,-0.0736311078071594,0.0822854844987392,0.12149029225111,0.026350173721835,-0.2347249939367175,9
1733378761501717500,2.9759961707055567,4.970153972169757,-2.202476142251492,-0.7781191928125918,9.756730077055096,-0.6092139940030873,0.1613723635673523,-0.0367469824850559,1.0741325616836548,-0.5110354665112404,-0.5806754252058881,0.440315024017186,0.4558306043235369,0.1039210334420204,0.0403520502150058,-0.0718498080968856,0.007217526435852,0.0067056417465209,0.0229738354682922,0.00679212808609,-0.0728361085057258,-0.0117775315552949,0.1286081671714782,0.1049617920134216,-0.1648062390580773,10
1733378761541717500,1.3670219279319047,3.653856269302964,-1.1658007057987152,-0.45827272376623,9.771178873646258,-0.6959899948541075,0.2962970435619354,-0.3032000958919525,0.7013024687767029,-0.5142589673513849,-0.5740407841632597,0.4538312371488145,0.447271685286719,0.138646513223648,0.0470553897321224,-0.0610510893166065,0.0138579010963439,-0.003019779920578,0.0166608542203903,-0.0116346813738346,-0.0422004535794258,0.0070487494677305,0.1405563503503799,0.1011529012497514,0.0054369303569197,11
1733378761581717800,0.5294481276424602,2.945375991514325,-0.7478981690067797,-0.2553120558208785,9.78130337729752,-0.6567501636166125,-0.4535955190658569,0.0390479527413845,0.4047551155090332,-0.5188429256604685,-0.5670411608708622,0.4603794769314501,0.4442039562244105,0.1721653193235397,0.0275411810725927,-0.076668731868267,0.0081289410591125,-0.0090889930725097,0.0011312216520309,-0.0423922836780548,-0.0326311215758323,-0.0025350714355707,0.1742737293243408,0.1352184716545045,-0.0090023677535355,12
1733378761621717800,-0.5462396879674867,2.367924478605389,0.7470436710692941,-0.0852309177003335,9.790877261328696,-0.5493721773069351,-0.0162311866879463,-0.0427230782806873,0.5227268934249878,-0.525667579934528,-0.5600403745552286,0.4629956413550332,0.4423384045681848,0.0934191197156906,0.0291131399571895,-0.0979684889316558,-0.007685363292694,-0.0354719161987304,0.0105189681053161,-0.0655061826109886,-0.0108979046344757,0.0200789114326238,0.2141047120094299,0.0624864129208028,0.0456154306840151,13
1733378761661717800,-0.5218783134426921,2.6820138088971377,0.4669453115761279,0.1624488805432803,9.791328512227537,-0.5233592727154494,-0.149491086602211,0.2916004657745361,0.7050739526748657,-0.5331202590311657,-0.5546861354505388,0.4679820384967945,0.4348551419043002,0.1118987947702407,0.0160962995141744,-0.0460344552993774,0.0105228424072265,-0.0310646891593933,-0.0022000670433044,-0.090584747493267,0.0082132071256637,0.0197147542953491,0.2247474789619445,0.0429942153349518,0.0193337190885096,14
1733378761701717500,1.4508902977079152,5.220507620131969,0.7065641419690102,0.41673681748081,9.784254628318548,-0.5148789560746401,0.1457024812698364,-0.0021216683089733,0.4718550145626068,-0.5404276987168393,-0.5499541490413519,0.4730771125261087,0.426247009111028,0.1124719083309173,0.0195816848427057,-0.0177355706691741,0.0011898875236511,-0.0369625687599182,0.0092718005180358,-0.0689124017953872,0.0095485756173729,-0.0044990649849176,0.2224764227867126,-0.0017347148381173,0.0221625858388841,15
1733378761741717500,1.0215827890001237,10.971461840891838,-0.5203566568333655,0.4762894054394215,9.778037068977952,-0.5775348072782158,0.0630969256162643,-0.2894421517848968,-0.2454680204391479,-0.5387382401871705,-0.5488664690747397,0.477694126617981,0.4246353266905668,0.0714224725961685,0.0027529578655958,-0.0030933774542063,0.0094197988510131,-0.0287338495254516,0.0064080506563186,-0.0423003733158111,0.0184721685945987,-0.0040980829685926,0.202667236328125,0.0003612345278263,0.0582549128308892,16
1733378761781717500,1.0944150201726703,14.774517907059192,-2.283354098039865,0.2131182701486162,9.788195474898815,-0.5623047971814871,-0.253349095582962,-0.4737624824047088,-0.9658770561218262,-0.5298675755357868,-0.550975999009915,0.4744417918250438,0.4365440858917301,0.0596779324114322,-0.003101842245087,0.0001333750551566,0.0005002617835998,-0.0196447372436523,0.0160919427871704,-0.0140772424638271,0.0105548603460192,-0.0409305608034133,0.1509069800376892,-0.0047568391382694,0.1378138219099491,17
1733378761821717500,3.6728751502886414,8.431590311563015,-3.558224396497011,-0.2654772020097822,9.797561853659152,-0.3281630830254405,-0.904929220676422,-0.4468996524810791,-1.2824722528457642,-0.52109805629364,-0.551527480461514,0.4610304745217048,0.4601360096279478,0.0327983796596527,-0.0156746264547109,-0.0042561800219118,0.0151019096374511,-0.0138870179653167,0.0218557864427566,-0.000520066358149,0.0069612096995115,-0.0427864178031682,0.0788431465625763,-0.0434692124355584,0.1783214080609381,18
1733378761861717800,5.767705449074507,-3.609152619701624,-1.826070348778367,-0.8405879970114678,9.770181679302452,0.0857851814490743,-1.0490907430648804,-0.2634104192256927,-1.779127597808838,-0.5156307559386116,-0.5507559906989541,0.4385134111964484,0.4883633917445273,0.0089433826506137,-0.0175625924021005,-0.0355779528617858,0.0072070956230163,-0.014478713274002,0.0293970853090286,-0.0324900485575199,0.0151737630367279,-0.0543780713975429,0.0473522059619426,0.0147578625403344,0.2114847323963418,19
1733378761901717800,1.948727152762562,-15.32525560056567,-0.6226613584667444,-1.5940861779823898,9.66251976148486,0.5147725000254809,-1.1473809480667114,-0.2996001243591308,-1.9073082208633425,-0.5047558058619893,-0.5530024818725866,0.4098074684778475,0.5210256466857245,-0.0007521219085901,0.0149601958692073,-0.0585304051637649,-0.0028160810470581,-0.0242086946964263,0.0300425738096237,-0.0575257577002048,-0.001696590334177,-0.0869920547544956,0.028467770665884,0.035434520670399,0.1273505147583782,20
1733378761941717500,-1.2441362836278975,-20.49608236720562,1.3216099839307367,-2.127947555489838,9.523456743231415,0.9726334646530448,-1.0416765213012695,-0.1221524253487587,-0.7478584051132202,-0.5015414118103146,-0.5508836788823922,0.3833231871180193,0.5459366443937508,-0.0066440990194678,0.0431387834250927,-0.0237770844250917,-0.0008050203323364,-0.0341345965862274,0.0198398381471633,-0.0692026391625404,0.0041784485802054,-0.0308498962938785,0.0279213245958089,-0.0345272696323692,0.0711972503818571,21
1733378761981717500,-2.031902279577404,-14.33794084573984,3.088144294026494,-2.1806956875979897,9.490131981256605,1.16291053731516,0.1031700372695922,0.1370044201612472,0.3281936943531036,-0.5056563443137116,-0.5469966673888913,0.3761684585572812,0.5510024466793296,0.0071116602048277,0.063007079064846,0.0076736500486731,-0.0041854977607727,-0.033278614282608,0.0019074231386184,-0.0693986415863037,0.0250042006373405,0.0168675481706857,0.014597887173295,-0.0780771460887044,0.1052773607686162,22
1733378762021717500,-3.103088765180111,-5.787451183030009,1.8308673737965524,-1.9182997196644545,9.571635375466942,0.9350340210337192,0.9044412970542908,0.1831336766481399,1.1483901739120483,-0.5083011871358646,-0.5489892547127085,0.3885065391238481,0.5378691885454147,-0.0534938983619213,0.0304583553224802,0.0193569380789995,0.0047937631607055,-0.0302819311618804,-0.0161663144826889,-0.1092821210622787,0.0224241632968187,-0.0440653516978025,0.0249618142843246,-0.0423950073327869,0.1164952856797724,23
1733378762061717500,0.2095858765050768,-1.5494313359588383,-0.4931125299464911,-1.3474305077552795,9.700641694608333,0.5023899883143603,1.130865216255188,0.4365968406200409,1.7121459245681765,-0.5147786606539525,-0.551123557656578,0.4130957075857976,0.5105074633451849,-0.0772370398044586,-0.0139080975204706,0.0318209305405616,0.00166517496109,-0.0178408622741699,-0.0225083231925964,-0.1183594688773155,0.0054517518728971,-0.0437444491803646,0.0174185782670974,-0.0442316481754183,0.0769067140698432,24
1733378762101717800,2.597665546649694,2.4465473489433527,-1.5758300980627535,-0.7170197772707789,9.780041394537689,0.0839429967816453,0.974815309047699,0.0560085549950599,1.4715973138809204,-0.522185914970018,-0.5512375492135945,0.4380151397981553,0.4812501794832589,-0.0652056783437728,-0.0233328118920326,0.0282814558595418,-0.0107588768005371,-0.0095706284046173,-0.0215288251638412,-0.1130491718649864,-0.0105290729552507,-0.03390577673316,-0.0055080559104681,-0.0086477090969681,0.1649214264029637,25
1733378762141717800,3.12983414876461,1.385205819398165,-2.019330236643553,-0.2834276500463485,9.799156429374218,-0.2580045463078655,0.6547039747238159,0.2254738956689834,0.7623818516731262,-0.523382533086411,-0.5508100432489533,0.4579987629613952,0.4614282985490155,-0.0186775922775268,-0.0245830584317445,0.0428244434297084,-0.0042129158973693,0.0114428699016571,-0.0180202722549438,-0.1139944642782211,0.0133079178631305,-0.0025794950991868,-0.0274549704045057,0.0261037246800959,0.2115879370424896,26
1733378762181717800,0.6271132233090698,3.5964456983417272,-0.3855552780797704,-0.004620792239267,9.797466576591134,-0.4242836891964077,0.4080356955528259,0.0502848550677299,0.7802107334136963,-0.5268797948358902,-0.5504109842917764,0.4676325437072584,0.4480683354272672,0.0208783373236656,-0.0194706954061985,0.0109721077606081,-0.0089468359947204,0.0151959955692291,-0.008790984749794,-0.0661336258053779,0.021872766315937,0.0307598799228668,-0.0552690997719764,0.037546179062128,0.1253103141676634,27
1733378762221717500,0.912081234665215,2.643424258261919,-0.8734674263715744,0.2790338172678835,9.783678874257207,-0.6100394119765609,0.3910033702850342,0.0455663800239563,0.5504345893859863,-0.5279636763294389,-0.5484358557936736,0.4799181869205873,0.4360630366338157,0.0505297072231769,-0.0030297769699245,-0.018128652125597,-0.0092180371284484,0.0141478478908538,-0.0036674886941909,-0.0155271850526332,0.0595554150640964,0.0732154583364725,-0.0188003964722156,0.0207096836168318,0.2349106892345473,28
1733378762261717500,-0.0462151136102154,3.7986318199843168,0.8463303400557488,0.4797150690391659,9.76960943237245,-0.7035758468732237,0.2301853597164154,0.117508128285408,0.5218368768692017,-0.5309643920085724,-0.5473474966390923,0.4860896025407921,0.4268542558679584,0.0417673736810684,0.0096160303801298,-0.0317146368324756,-0.0089687705039978,0.0032994449138641,0.0072238892316818,0.0374207943677902,0.0506720207631588,0.042348610907793,0.0166349485516548,0.045747094239667,0.1868888915285468,29
1733378762301717500,0.2439212768271565,4.558756360292435,-0.0118154524128884,0.6672223847270011,9.74569956447482,-0.8640130040016025,0.5094934105873108,0.1073241755366325,0.3886295258998871,-0.5313685228357026,-0.5479997045727975,0.493709150994785,0.416647357323193,0.002238075248897,0.0300515852868556,-0.0225473698228597,-0.0101099610328674,-0.0092690289020538,0.0168511420488357,0.0799954086542129,0.0484649762511253,0.0152671272367239,0.0188206788152456,0.0330533976875245,0.2543500971872359,30
1733378762341717800,1.1512808167327195,6.788073163196444,-0.998051399026066,0.7690185523163526,9.724736855944991,-1.004249815274775,0.2120137512683868,-0.0064294496551156,0.0594116523861885,-0.5301330575021845,-0.5498986066123515,0.4988126034709136,0.4095809930718798,0.0228269733488559,0.0606550350785255,0.0043479609303176,0.0006971359252929,-0.0087174177169799,0.0126458406448364,0.0829854235053062,0.0388933643698692,-0.0109574473440647,-0.0021890141069889,0.051929582266882,0.2493548096505924,31
1733378762381717800,0.5451093322306871,12.819208014905453,-2.5848668553531167,0.6699478641681372,9.736567578992249,-0.9595995763611048,-0.6007729172706604,-0.0981269106268882,-0.5548192858695984,-0.5282809223867204,-0.5499912484888758,0.4964227922951749,0.4147208838212799,0.0140132419764995,0.0908586382865905,0.0132739441469311,-0.0037724375724792,-0.0145152509212493,0.004331350326538,0.0584577471017837,0.0428339540958404,-0.0743307261019945,-0.0348562262952327,0.0692146982625126,0.2563291056426242,32
1733378762421717800,3.678804832598567,15.303729997456072,-0.2789654099404812,0.2785115652257576,9.7849601462394,-0.5893815681448206,-0.9037787914276124,-0.1066629514098167,-1.5382784605026243,-0.5302933111163588,-0.5498268949293494,0.4772216282226078,0.4344409150091475,0.0039851088076829,0.077861450612545,0.0175538435578346,-0.0039286613464355,-0.0106118321418762,-0.0071794241666793,0.0363535657525062,0.029166392982006,-0.0724883131057023,-0.037734854966402,0.0414176136679947,0.2225097650839015,33
1733378762461717500,4.112874879533052,5.941681375277042,-1.0659656822144985,-0.4162273335887119,9.791216284024715,-0.3594820581357926,-0.4844446778297424,-0.4437742233276367,-1.9676629304885864,-0.5171162201484044,-0.5563425754594613,0.4569588857230519,0.4628848309733058,0.0270206518471241,0.0634184330701828,0.0169375874102115,-0.0110278129577636,-0.0108151733875274,-0.0123520940542221,0.0046598315238952,0.0233844313770532,-0.0673521192610263,-0.0178575403988361,0.0411217725265771,0.121093427124992,34
1733378762501717500,2.4244928996540605,-6.859419905051588,-0.5851730470716953,-1.256122343367338,9.724680157321693,-0.1520910065275617,-0.4274844527244568,-0.3715565800666809,-2.1035091876983643,-0.4988923001669398,-0.5666983278145139,0.4319808888191552,0.4933071859112803,0.0194314420223236,0.0460983552038669,0.0189921520650386,-0.0021612644195556,-0.0109421908855438,-0.0147810578346252,-0.0208778567612171,0.034656710922718,0.012267945420742,-0.0057252142578363,-0.0048474400311708,0.0502714397963136,35
1733378762541717500,1.218926439047605,-16.233539488774536,0.6706517746537923,-1.891248338870704,9.622550154668092,0.0103491027624404,-0.3955167829990387,0.0268966276198625,-1.2705620527267456,-0.4852773866580284,-0.5748443587765734,0.4111280892941154,0.5148141189181188,-0.0130577897652983,0.0239599216729402,0.0127654131501913,0.0048828125,-0.004760593175888,-0.0082695484161376,-0.0626444071531295,0.0349411629140377,-0.0427004930853843,-0.0236159786581993,0.0086336075063794,0.0337527050632983,36
1733378762581717800,1.0529844739578664,-18.656966074371336,0.7763362549185753,-2.219409741395712,9.55121977942586,0.1372014621652662,-0.3279927670955658,0.3676671087741852,-0.3973216116428375,-0.4821567694511637,-0.5800606449897636,0.3956441837587807,0.5239468080952306,0.0110209146514534,0.0204648431390523,0.0062230923213064,0.0010372996330261,0.0024293363094329,-0.0072512477636337,-0.0863493904471397,0.0237020291388034,-0.0733808780312538,-0.0521353036165237,-0.0011243278548121,0.0509134640268981,37
1733378762621717800,1.3858518622167408,-15.468684412813186,0.7451087574839591,-2.259137063889205,9.54064051774442,0.2070352604405023,-0.1723556071519851,0.2212131023406982,0.1555430591106414,-0.4869643331936497,-0.5819284410639498,0.3883341720689552,0.5228973208330961,0.0172929242253303,0.0098321726545691,-0.0161344110965728,-0.0054482817649841,-0.0021876692771911,-0.0060897320508956,-0.0982767194509506,0.0148038705810904,-0.0661708005219697,-0.0923126712441444,0.0244057616557925,0.0492150626111775,38
1733378762661717800,-0.7092134143687784,-9.412715564098953,1.8658073158830404,-2.0939473784714937,9.579410685643554,0.1436760193410795,0.4436033368110657,0.4233005940914154,0.7678566575050354,-0.4921965411741072,-0.5821937275489255,0.3920778308574523,0.514847452943921,0.0341925434768199,-0.0046885535120964,-0.0059800441376864,-0.0009253621101379,0.0011962354183197,0.000501736998558,-0.1082203909754753,0.0298375617712736,-0.0094563951313495,-0.1474875658750534,0.0137852911811321,0.0648952276282012,39
1733378762701717500,-0.3601173603646457,-0.7912906629443168,-0.3171791130006313,-1.640387910430133,9.667643680369853,-0.127244387502782,0.560828685760498,0.7466149926185608,1.4574458599090576,-0.502057429305582,-0.5847217989509506,0.4056945602856064,0.4913763750823998,0.031483843922615,-0.0033095683902502,-0.0190551672130823,0.0010154247283935,-0.0018648207187652,0.0044068694114685,-0.1451739221811294,0.0419993512332439,-0.040655250993371,-0.2021207958459854,0.0693997725058346,0.1628226640254259,40
1733378762741717500,1.0941780696116388,6.540474951422215,-0.3562252117643132,-1.1701942645825445,9.72992273415029,-0.3600902531620115,0.6033538579940796,0.3146516382694244,0.9759806394577026,-0.5125836609907405,-0.5859161449190022,0.4184038285397691,0.4678660435545578,0.0639610961079597,0.0147814974188804,-0.0256889685988426,-0.0003839135169982,-0.0047084689140319,0.0061327219009399,-0.2067565619945526,0.0754159241914749,0.0167424604862928,-0.2722583413124084,0.052943289354071,0.2101641147844493,41
1733378762781717500,0.929894320057705,6.615728637588024,-2.973246579736471,-0.8270932132095098,9.753877610233426,-0.5900739708557725,0.3251394033432007,0.0799873396754264,0.7563179135322571,-0.5153814879631226,-0.5859883906116645,0.4320914319845561,0.451991791936184,0.0610281527042388,0.008606213144958,-0.0131844282150268,-0.0005738735198974,-0.0124602317810058,0.0071090012788772,-0.2535166442394256,0.0904125496745109,-0.043111411973834,-0.344357967376709,0.0562876313459128,0.1642361840851605,42
1733378762821717500,0.1106229961128905,5.849622684782744,-0.321375980168581,-0.5121006504677236,9.772243872529268,-0.6413929469436407,0.1630809903144836,0.0616415590047836,0.8375461101531982,-0.5215361896721203,-0.5807681249909887,0.4420524006942211,0.4419254101504044,0.0312665328383445,0.0090576717630028,-0.0005341462092474,-0.0060670971870422,-0.0154919922351837,0.0060917288064956,-0.255915880203247,0.1023662313818931,-0.0524731145590543,-0.36662358045578,0.0550937453862279,0.1485597453951835,43
1733378762861717800,0.914823007654026,3.621635084655881,-1.161299960313365,-0.3051993003388866,9.775269357830286,-0.7220387014113366,0.0472936183214187,0.1123841702938079,0.2102509886026382,-0.5245946261281064,-0.5790430183293656,0.4489130352469461,0.4335743484765166,0.0173214208334684,0.0181539133191108,0.0003394371597096,-0.0019544959068298,-0.0146208107471466,0.0077416449785232,-0.2247390151023864,0.098999373614788,-0.0273503637403249,-0.3231174945831299,0.0135657301463186,0.0172590317063033,44
1733378762901717800,-0.3621348376668989,1.9534739088982345,0.2306897470712661,-0.2428500126001425,9.780059514716267,-0.679602558350563,-0.1075597181916236,0.2077858746051788,0.1508513838052749,-0.5285483236279023,-0.5778391151904319,0.4480536192653599,0.4312617262450304,-0.0338975600898265,0.0202322416007518,0.0076642618514597,0.0002213716506958,-0.0185860693454742,0.0098519325256347,-0.1456376761198043,0.0814400464296341,0.0379302099436521,-0.2641071677207947,-0.0529214428484439,-0.0482633879095315,45
1733378762941717500,-0.0115894433709792,0.8931021011680365,-0.4407212484519928,-0.1567527147282846,9.783690564695,-0.6520822448708117,-0.1333357542753219,0.2193444073200225,0.2309524863958358,-0.5329297904875737,-0.5768736465333735,0.4477317711960762,0.427479682668078,-0.0143978921696543,0.0249058231711387,0.0212467163801193,0.000135600566864,-0.00825896859169,-0.0008141547441482,-0.0960738658905029,0.0663480535149574,0.0334480960935354,-0.1618015170097351,-0.0459320223525166,-0.086187460373342,46
1733378762981717500,0.267149701799266,0.4389999045521021,0.4685422253787517,-0.066336115185474,9.789628138050436,-0.5737369858978316,-0.1647836863994598,0.3315052092075348,0.2133699655532837,-0.5397583444529517,-0.5753472193269469,0.445228057433114,0.4235664162027507,-0.0251589268445968,0.0232311747968196,0.0265391487628221,-0.003782033920288,-0.0098158717155456,0.0033900737762451,-0.0502537079155445,0.0333362035453319,0.0137853642463684,-0.0758171826601028,-0.0659003130175173,-0.0345692090779542,47
1733378763021717500,0.6746892865415662,0.3573544715225696,-0.3831190273761749,0.0060122523058875,9.793312379521131,-0.511264857230708,-0.1796527206897735,0.1363592892885208,0.0478748567402362,-0.5456973281796339,-0.5746572646739943,0.4425339331311377,0.4196989409370125,-0.020332746207714,0.0282835122197866,0.0295996535569429,-0.0035149455070495,-0.0028082728385925,-0.0033233612775802,-0.0531203411519527,0.0096357446163892,-0.025651158607006,-0.0400206744670867,-0.0337651992186903,0.0398117859065532,48
1733378763061717500,0.6326056832455098,0.3164548903793096,-0.0760451288044452,0.0192156753495452,9.79650328451693,-0.4455913752390071,-0.1504252105951309,0.1551429778337478,-0.0160037036985158,-0.5491174976416527,-0.5737999439526882,0.4398550460815228,0.4192269064322771,-0.0234443843364715,0.0121986046433448,0.0258206948637962,0.0001123547554016,0.0009977519512176,-0.0039886236190795,-0.0674924179911613,0.0023088613525032,-0.0600812514752149,-0.0795359164476394,0.050598406728357,0.1367275610432028,49
1733378763101717800,0.2024198208006098,0.1864268269747495,0.0293149783441796,0.0117115684883727,9.79933821568191,-0.3784191425895318,-0.1975274831056594,0.15586619079113,-0.0112142469733953,-0.5520494187115081,-0.5732578453523942,0.4366571292994516,0.4194607932808384,-0.0187942385673522,-0.0070712305605411,-0.0034108259715139,0.0011391639709472,0.0014538466930389,-0.0064679980278015,-0.0756203159689903,0.0172244776040315,-0.0131231009453535,-0.1311631351709365,0.0949513431958854,0.2368039921678602,50
1733378763141717800,0.51252223688066,0.239177589431405,0.4448901681670918,0.0109103179834201,9.80120576311946,-0.3265268235931173,-0.0462075732648372,0.2438589036464691,-0.0434584505856037,-0.5551220290027191,-0.5734418387778367,0.4333736185632941,0.418558526479495,0.0057699596509337,0.002669814042747,0.0043140719644725,-0.0040574669837951,-0.0074838995933532,0.0066749453544616,-0.0459659993648529,0.0760586112737655,0.0061994391620159,-0.2177166640758514,0.0261686066098511,0.0826527103759348,51
1733378763181717800,0.6244202578980476,0.2229752271711826,-0.0141126965045928,-0.0346986190277268,9.801247848695516,-0.3236194482464343,0.0188397113233804,0.3873568475246429,-0.2092460691928863,-0.557004814695075,-0.5772188719147535,0.4281569501038335,0.4162279362378563,0.0153677258640527,0.0310077127069234,0.0346422828733921,-0.0156490802764892,-0.0102850198745727,0.0107686519622802,-0.0201277211308479,0.117962047457695,0.0007218845337629,-0.2809293866157532,0.0488955483332276,0.0212304195553064,52
1733378763221717500,0.442491582592763,0.3135001322269439,0.1106885721623897,-0.1269058031981811,9.799757317876816,-0.3450211327154189,0.0589090511202812,0.480846494436264,-0.2624687254428863,-0.5577596494304341,-0.5832436768263412,0.4212101565370677,0.4138997709922624,0.0052972482517361,0.038702119141817,0.0330778770148754,-0.0069260001182556,-0.0039564371109008,0.013654351234436,0.0052407812327146,0.1231021732091903,-0.0056903205960989,-0.2891345918178558,0.0120798755027353,0.0089898005329072,53
1733378763261717500,-0.3276063989907503,0.4042079926341771,-0.2728068507781252,-0.1748766013693064,9.797634334373472,-0.3823068342104554,0.1215447783470153,1.1234517097473145,-0.0010934362653642,-0.5618331225281412,-0.5916209695547404,0.4116756627844901,0.4060188205925842,-0.0021175243891775,0.031254269182682,0.0105441380292177,0.0026431083679199,-0.0004442930221557,0.0101386904716491,0.0131124006584286,0.1110011786222457,-0.0375233827084302,-0.255553126335144,-0.052727381581068,-0.0290757262282073,54
1733378763301717500,-0.4799919132191687,0.1896387747585773,-0.7093781034111977,-0.1127224252107087,9.797024678042533,-0.4194881254829466,-0.0276493337005376,1.613836407661438,0.1864615529775619,-0.5732795726815733,-0.6029603894173697,0.3972741013002268,0.3872499345967387,-0.0033098217099905,0.0345923788845539,-0.0038834707811474,-0.0008639097213745,-0.0025090277194976,0.0044167786836624,0.019869077950716,0.0902622640132904,-0.0324929873257875,-0.207144021987915,-0.1097233803920447,-0.0403415088690817,55
1733378763341717800,-0.5102883038161322,-0.1031283660411834,0.0115524906277656,0.0351887474820949,9.798148713636396,-0.4067449637658893,-0.0600230395793914,1.4361802339553833,0.3903574645519256,-0.5881596750305378,-0.6117110969442704,0.38281556361438,0.365143859325011,-0.0095490757375955,0.0186332277953624,-0.008951399475336,0.0031419396400451,-0.0079701840877532,-0.0024951696395874,0.0279521476477384,0.0605020448565483,-0.0758078129172325,-0.1640585064888,-0.1424140822470188,-0.0352928471773862,56
1733378763381717800,0.3340858972031623,-0.3149386405974626,-0.4608674894997849,0.1761781306882388,9.799569686350226,-0.3283215249901637,-0.280657947063446,1.1761919260025024,0.222317099571228,-0.6020695650747304,-0.616015314813482,0.370492739950884,0.3475235318731393,-0.0789356008172035,-0.0230304896831512,-0.0233644265681505,0.0043928027153015,-0.0190880596637725,-0.0087756663560867,0.0379810370504856,0.016187310218811,-0.0931909093946218,-0.1069505810737609,-0.1005620226845145,0.0347021878078579,57
1733378763421717800,0.4478114259086549,-0.603131897610426,-0.8533084354400634,0.2342367537620477,9.802402863949537,-0.1685663405102677,-0.5599043965339661,1.030197024345398,0.0135715063661336,-0.6156258580598307,-0.6179733427134497,0.3559542654049312,0.3352764344446245,-0.1142086386680603,-0.0592127293348312,-0.0252081342041492,0.0066495537757873,-0.0241247713565826,-0.0094294399023056,0.0512520521879196,-0.0179434604942798,-0.0973351695924997,-0.0730818957090377,-0.0433659712567925,0.0620372078485786,58
1733378763461717500,-1.0678409745670854,-0.4798924714326858,-1.4845640192508696,0.24528313976489,9.802914320603012,0.1144820370280649,-0.8507370948791504,0.7214299440383911,0.1248394101858139,-0.6305898493126731,-0.6149436399852154,0.340598532446998,0.3289277334369266,-0.1350902318954467,-0.0721907317638397,-0.0045311516150832,0.0036543011665344,-0.0336908996105194,-0.004249557852745,0.0421158410608768,-0.0219206288456916,0.0117974052995443,-0.0675917342305183,0.0407386914931237,0.1011047512590885,59
1733378763501717500,-0.7569167572427541,-0.1161339780867099,-0.4914671373596415,0.3512490673195571,9.790206230199336,0.445977415414527,-0.6414949297904968,0.9892826080322266,0.4021886587142944,-0.6481959586079452,-0.6079877316275303,0.3280432880452342,0.3202821441394136,-0.1881877928972244,-0.0689145177602768,0.03908596560359,-0.0046051144599914,-0.0327621698379516,0.0049818009138107,0.0422582998871803,-0.0075781866908073,-0.0091238021761178,-0.1114253923296928,0.0477457937762141,0.0107300683289766,60
1733378763541717500,-0.4418973064940422,-0.8527917180895804,-0.7576771471560001,0.5164168696990237,9.767601599681376,0.7054536234438419,-0.6440162062644958,1.314444661140442,0.5817254185676575,-0.6659587420202434,-0.6038548691501568,0.3152636525650663,0.3040840797234157,-0.2057974189519882,-0.0556384474039077,0.0896979421377182,-0.0043224096298217,-0.0119361579418182,0.0081449896097183,0.0434515997767448,0.02062270604074,-0.0297860664546489,-0.1538665294647216,0.0584605184055864,-0.0036661212921142,61
1733378763581717800,-1.5259078370302914,-1.285688629591465,-0.4725501458458602,0.7263939740113914,9.730337744691967,0.9814680015590042,-0.5725111365318298,1.377407431602478,0.7986133098602295,-0.6860512361759841,-0.5998134476295496,0.3003046577527741,0.2817352560856697,-0.1528492569923401,-0.0277327261865139,0.0836589634418487,-0.0075191259384155,0.0123333036899566,0.0023546814918518,0.0399271845817565,0.0297613851726055,-0.017491817548871,-0.1570968180894851,0.0937900443315506,0.12926350877285,62
1733378763621717800,-2.0685561859749257,-1.5061130032360552,0.2567429106079041,1.0658346762459725,9.66884370380938,1.2441218167111276,-0.4941010177135467,1.780592918395996,1.3699668645858765,-0.7065778548545402,-0.5937842728653988,0.2898062725035719,0.2533382197210352,-0.1205240562558174,-0.0407754518091678,0.0416476614773273,-0.0026803612709045,0.0248676538467407,-0.0114966481924057,-0.0320708528161048,0.0857159346342086,0.0203255796700716,-0.1880106627941131,0.1003980642944574,0.2336858601473271,63
1733378763661717800,-1.717154777637869,-1.779898380190134,0.0823610339529812,1.6073207764782012,9.548635023629664,1.552579424726218,-0.479551762342453,3.144836902618408,2.117883443832397,-0.7340538988798735,-0.5886354387820237,0.2726697654005828,0.2008097776720824,-0.09382214397192,-0.0627512708306312,0.0075756446458399,-0.0017353296279907,0.0299586951732635,-0.0138203352689743,-0.1076226755976677,0.0968726426362991,-0.0976613328069448,-0.2777168750762939,0.1926511083170771,0.1903513069421052,64
1733378763701717500,-0.7373632579237223,-1.0078507623761892,-1.179360590726137,2.190942940846085,9.33997181492746,2.0334921791173515,-0.9048731923103333,2.8862905502319336,2.0540473461151123,-0.7655287559488048,-0.57929902996816,0.2464414530306394,0.1328347089078072,-0.0678336843848228,-0.0880563557147979,-0.0384652838110923,-0.0048528909683227,0.0243324041366577,-0.0175642818212509,-0.1793329566717147,0.1566561460494995,-0.0274795430779457,-0.4085308313369751,0.1093216677233576,0.3901046484798193,65
1733378763741717500,0.0423223074227571,-1.5345073230713604,-0.7470125452786683,2.7211849588125943,9.015489685437082,2.736144919796288,-1.9482258558273315,1.600795865058899,1.8925739526748653,-0.795015984934313,-0.5527091308053198,0.2345379468939387,0.0863376423078321,-0.0270029008388519,-0.1030454263091087,-0.054879143834114,0.0017961263656616,0.0073213279247283,-0.0078629255294799,-0.2848823964595794,0.2014293521642685,-0.1419867967456579,-0.5458859205245972,0.1994419375009834,0.4629828376859426,66
1733378763781717500,0.0413259898617863,-1.0560545290529728,0.7946031484931707,3.056770666119456,8.50172300145328,3.814085701964796,-2.5444607734680176,3.200986862182617,1.7902917861938477,-0.8321892447871173,-0.5095843722816921,0.2141483573655672,0.0438789452019519,-0.0306122824549675,-0.0835576429963111,-0.0352648943662643,-0.0152048468589782,-0.0112464725971221,0.0074639469385147,-0.4193394780158996,0.240740031003952,-0.0088005615711212,-0.6446747779846191,0.0926445275582373,0.4132371022641659,67
1733378763821717500,0.3106751379340887,-0.7315712305188179,-0.2729471725642681,2.987786561742425,7.811225539600849,5.121354587462545,-2.8068673610687256,3.097588539123535,1.5093573331832886,-0.8723527078877706,-0.4586336819582247,0.168934078304266,-0.010824817837303,-0.0104873068630695,-0.0646277889609336,-0.030956033617258,-0.011314034461975,-0.0114007294178009,0.0171831846237182,-0.41619473695755,0.2427908033132553,-0.1300339086234569,-0.6658322215080261,0.0500794974207878,0.0317643807902932,68
1733378763861717800,-0.5662389217600227,-0.603849690490961,2.3646476488918067,2.9170456768259405,7.093333290344476,6.111125503268838,-1.965110659599304,1.5346990823745728,1.2573662996292114,-0.8998598123731371,-0.4088446265991995,0.1458265249050596,-0.0428145783331751,-0.0331593304872512,-0.0184666309505701,-0.0204796902835369,0.0018725991249084,-0.0213347971439361,0.0221079140901565,-0.4390090405941009,0.2152488082647323,0.1423778418898582,-0.5557442903518677,-0.1058178973861038,0.2505252051368355,69
1733378763901717800,0.9314274479091168,-0.5693669906526804,1.731087295269966,2.845725238455832,6.569086713400483,6.702188192901015,-1.2689557075500488,1.5562514066696167,1.123810887336731,-0.9145021406130416,-0.3765623227913129,0.1283912323102179,-0.0735005731757584,-0.0417935661971569,-0.0046045570634305,-0.0075124935247004,0.0082266926765441,-0.0254399180412292,0.0137398838996887,-0.4771202206611633,0.2308356910943985,-0.0651332741677761,-0.4874232411384582,-0.068656479857862,-0.0980541315168142,70
1733378763941717500,0.7660422399193048,-0.2904769840359688,1.715887972572446,2.6961229982703925,6.122004040157795,7.170939677116275,-1.1469941139221191,1.433223009109497,0.8710793256759644,-0.925056998504784,-0.3493588314634535,0.1110506206864638,-0.0994274571817629,-0.1233318373560905,-0.0139683382585644,-0.0019686580635607,0.0095776915550231,-0.041751354932785,0.0102756023406982,-0.3881637454032898,0.1347475051879882,0.0678852032244205,-0.4186710715293884,-0.1766610736332833,-0.0762114252820611,71
1733378763981717500,0.4100795150160789,0.5345633882969617,1.6836638653159142,2.5265581665083765,5.755602923348546,7.527278249594569,-0.732343316078186,0.7264158725738525,0.6571818590164185,-0.9324770869527148,-0.327034456094278,0.0962500514210898,-0.1194603416317973,-0.1211016997694969,-0.0210038758814334,0.0445263385772705,0.0087899565696716,-0.0372865498065948,-0.0058843940496444,-0.3385907411575317,0.145115315914154,0.0029588498055934,-0.3313397169113159,-0.1835014410473406,-0.021391455335915,72
1733378764021717500,-0.6451920469656586,0.1410416248500347,0.9445394429385662,2.5074317334949967,5.4929632097870105,7.727258385625481,-0.5755410194396973,0.7281253933906555,0.8685879707336426,-0.9356611757854308,-0.3125813222467358,0.091172253132753,-0.1360833224257556,-0.1709350496530532,-0.0377338007092475,0.0733575820922851,0.0059539079666137,-0.0431612730026245,0.0017228722572326,-0.2091103792190551,0.0569263026118278,-0.0354325479090213,-0.2546785473823547,-0.141010206798464,-0.0030415596529841,73
1733378764061717500,0.6991618298232555,0.612436317050457,0.0094470427811145,2.4308080741502343,5.24378094369173,7.922393419712781,-0.5340656638145447,0.7153880596160889,0.629871666431427,-0.9380263593906752,-0.2987001442424831,0.0827561636340142,-0.1550359271766127,-0.2042716890573501,-0.0357668437063694,0.1107034981250763,0.0067889094352722,-0.0351316034793853,-0.0005375742912292,-0.1394114196300506,0.0214781649410724,-0.0442418773084878,-0.1878742128610611,-0.0969134370490908,0.0875876825600862,74
1733378764101717800,0.545736231957376,0.5513268915712833,0.1221896248638629,2.331345975531637,4.976136553710699,8.122393429487943,-0.759979248046875,0.6200318336486816,0.2680403292179107,-0.9416081690077904,-0.2829033901497901,0.076412465422182,-0.1658338665176952,-0.1932504624128341,-0.0254652574658393,0.1506599634885788,0.0074754953384399,-0.0271466970443725,0.0022530555725097,-0.0565408766269683,-0.0444671474397182,-0.1065939963251352,-0.2100034803152084,-0.0015144962161779,-0.1476739024713635,75
1733378764141717800,0.6112801327526569,0.2219946917012333,0.3467401385277509,2.0848902117908,4.69524631318748,8.353339197146893,-0.7613463997840881,1.0912827253341677,0.1414948403835296,-0.9464736598902348,-0.2646245012787476,0.0638130270823428,-0.1734626447695155,-0.1712575554847717,-0.0052915993146598,0.2009826600551605,-0.0093021392822265,-0.0127898752689361,-0.0064285546541213,0.0172022804617881,-0.0285731721669435,0.0698112028509378,-0.25771164894104,-0.0785994894623756,-0.1226554888099431,76
1733378764181717800,0.8962455137602985,0.2828647554665803,0.6865747354507445,1.6992187234528362,4.608339598628878,8.488006026268005,-0.0896847993135452,0.4061587154865265,-0.0566087700426578,-0.9485752004872402,-0.255807405538843,0.0423639825582248,-0.181584359359766,-0.1586458832025528,-0.0038138113450258,0.2355880290269851,-0.0042560100555419,0.0119277834892272,-0.0134649276733398,0.0069054123014211,-0.0141686862334609,0.0650204614430666,-0.2404869645833969,-0.0262719208538532,-0.0734460522219538,77
1733378764221717500,-0.6186994690984488,0.1046647818282246,-0.507220038819313,1.746667726239562,4.56866692893207,8.499812783917784,-0.2385293394327163,-0.4621695876121521,-0.0499871894717216,-0.9495473570839744,-0.253970224673161,0.0461440002168778,-0.1781285848466541,-0.1726421266794204,-0.0308942701667547,0.1793503314256668,-0.0041661858558654,0.0310499668121337,-0.0195844918489456,-0.0012898743152618,0.0030494788661599,0.1200777472764253,-0.2101540714502334,-0.0641032004676759,-0.0541050996750593,78
1733378764261717500,-0.9535843346595764,-0.1916112438753247,0.8314578381597996,1.7860183243751524,4.460921716745197,8.548724991124868,-0.2237408757209777,0.6928291916847229,0.4999130070209503,-0.9502438008352604,-0.2485876470090441,0.0483787181282696,-0.1813847686369458,-0.1701938807964325,-0.0392089784145355,0.1226387172937393,-0.0049459934234619,0.0404495596885681,-0.0270500034093856,-0.0202017929404974,0.0025466752704232,-0.008002689191699,-0.1114263460040092,0.0438313968114554,0.0829410257980227,79
1733378764301717500,0.1019115375973284,-0.1258513622418046,-0.7191244213998317,1.5511350711368024,4.289368049253523,8.68134131745696,-0.577346682548523,1.141180157661438,0.6453520059585571,-0.9507381363001716,-0.237088904688686,0.0341119730429022,-0.1967798822198989,-0.079738549888134,-0.0371415168046951,0.104578360915184,-0.0231688618659973,0.0361257195472717,-0.0282677561044693,0.0164475943893194,-0.0157347079366445,0.0009545242458581,-0.0868111252784729,-0.0285049406029283,-0.0213233585357666,80
1733378764341717800,-1.2590714024312792,-0.5453302815049886,2.008148917415738,1.4637757905051112,4.062712087742984,8.804664330264925,-0.3461616933345794,-0.2999931275844574,0.4687259495258331,-0.9509738449274476,-0.2241932281759105,0.0287131116238515,-0.2110963588792935,-0.0167468003928661,-0.0173689816147089,0.1324791014194488,-0.0395460128784179,0.0298422276973724,-0.0359692126512527,0.0132907917723059,0.021723223850131,0.0298071092426776,-0.0996802151203155,0.0110432259313762,0.1609434261500835,81
1733378764381717800,0.4168569001965224,0.4754866376891732,-0.1482335821807384,1.5625493223376572,3.88614994443953,8.867167840451001,-0.6009957194328308,0.1558252125978469,0.0700680091977119,-0.9518532987984129,-0.2160483456592093,0.0349768403552633,-0.2146511444290558,0.0262949429452419,-0.0306700840592384,0.1129906177520752,-0.0207275748252868,0.0450668632984161,-0.0222417563199996,-0.03193811327219,0.0412648171186447,-0.0011608604729175,-0.1122288629412651,0.0130380530104041,0.1923971335560083,82
1733378764421717800,0.2224805755220353,1.6852292149364947,1.0287614484578371,1.6342228119291364,3.6930458316579458,8.936504411527514,-0.2954225838184356,-0.5956756472587585,0.1986304223537445,-0.9535276323523786,-0.2066631432689455,0.0406867406584711,-0.2154532238277049,-0.0021180571056902,-0.0203833598643541,0.0398568175733089,-0.02066570520401,0.0412302315235137,-0.019009843468666,-0.0817150622606277,0.0628127232193946,0.0857704040050506,-0.0646362900733947,-0.0908637816213071,0.0978285060673952,83
1733378764461717500,0.6043262219615281,0.3315110052138567,0.9816443079739808,1.9041985674671829,3.613534488047659,8.915535857778787,-0.0691551715135574,-0.5921028852462769,0.2588408589363098,-0.9525048106063688,-0.2059613514664766,0.0549008157769747,-0.2174864996964499,0.0787949040532112,0.0152156464755535,0.0143494615331292,-0.023853600025177,0.0383882224559783,-0.0158289074897766,-0.1224362105131149,0.0822298005223274,0.0606155044823884,-0.0105179473757743,-0.1452200795784592,0.0492699346035718,84
1733378764501717500,0.3475724976986646,0.1918704793334007,1.003386184182763,2.1184550661318005,3.6410964487120494,8.855786030215025,0.371696412563324,-0.4383310377597809,0.2682823538780212,-0.950121324878382,-0.2104447755017774,0.0647576736907197,-0.2208821801288268,0.1227317377924919,0.040457833558321,0.0230166539549827,-0.0420737862586975,0.0239011347293853,-0.0121656507253646,-0.1871381402015686,0.087876096367836,-0.0371527958303689,0.0424116924405097,-0.1120130987644195,-0.1021381859600543,85
1733378764541717500,-0.5610629804268479,-0.0486322212219238,0.5913713171899319,2.301198674549162,3.88489176107198,8.705313729196787,1.1230193376541138,-0.3482533395290375,0.3899818956851959,-0.9447556382371108,-0.2264159260711801,0.0699167702528058,-0.2264602852737828,0.118003025650978,0.0556315667927265,0.0182152409106493,-0.0422918796539306,0.0277800559997558,-0.0130870193243026,-0.2226036489009857,0.0837520733475685,-0.0344347690433263,0.1306777745485305,-0.1420557703286409,-0.1140875669509172,86
1733378764581717800,-1.8435680115461348,2.677844706518948,-0.1483241830736398,2.4715967422649263,4.222693098601699,8.49885007636547,0.9723508358001708,-0.3734599947929382,0.9719876646995544,-0.9367268197187298,-0.2479956169991965,0.0719541879558354,-0.2363547420300707,0.1504030376672744,0.0833425000309944,-0.0152367930859327,-0.0382930636405944,0.040048748254776,0.0004623681306838,-0.151338517665863,0.053798109292984,-0.0736018273055553,0.2200692445039749,-0.1354442432343959,-0.4406073397487401,87
1733378764621717800,-0.937599999064207,1.0359674343138932,-1.377526955333352,2.925086652201414,4.216761370465159,8.35662479468882,-0.1203850731253624,-0.6342257857322693,1.8898736238479608,-0.925989037808852,-0.2571605523340298,0.0883128914115981,-0.26194198292811,0.2180318832397461,0.1237539425492286,-0.0465650223195552,-0.0250284671783447,0.054323136806488,0.0032843202352523,-0.0048738420009613,0.0881332606077194,-0.0176402861088514,0.2927993834018707,-0.1997705849334597,-0.525306899651885,88
1733378764661717800,-0.038909576369822,0.4896718149080872,-1.248587856209278,3.3852553092494606,3.752853526888788,8.403958208271861,-1.2001276016235352,-0.3429283797740936,1.748253583908081,-0.9183171275266516,-0.2435006855112068,0.1105657407547918,-0.2918495823870605,0.3014314472675323,0.1400313526391983,-0.1042107418179512,-0.0188446044921875,0.0566617846488952,-0.0003609657287597,0.0951918736100196,0.0609606876969337,-0.1360159056425094,0.351040631532669,-0.0731378630556166,-0.3499091239526867,89
1733378764701717500,-1.087911848823726,0.4871659695670008,-1.3963526518344878,3.7388916370317338,3.0119597567513585,8.550974815878272,-1.4574689865112305,-0.4069836437702179,2.064323902130127,-0.9128506084801852,-0.2150366343315242,0.133344854204781,-0.3204406755765204,0.289248526096344,0.1243815422058105,-0.1670818477869033,-0.0134341120719909,0.040401667356491,-0.0033221691846847,0.1696141213178634,0.0592274330556392,-0.0839782598912715,0.3563179075717926,-0.0642756344251334,-0.2918476878672838,90
1733378764741717500,-1.7115701093733309,-0.2706231135308742,-1.200209902009368,4.168918546055257,2.196908132860809,8.600238320741058,-0.9305197596549988,-0.5083874464035034,2.96813440322876,-0.8992861328631946,-0.188922227063941,0.1606806570953418,-0.360242467617894,0.310801237821579,0.0977377369999885,-0.193347081542015,-0.0064934492111206,0.0256488621234893,-0.0061167329549789,0.196917250752449,0.0839917436242103,-0.0845253723800182,0.3353068828582763,-0.0409995343863964,-0.0825461812615394,91
1733378764781717500,-1.3267358025118707,0.2724395153030753,-1.4604127438127994,4.573572528891265,1.4115820774093268,8.55922066617608,-0.345134973526001,-0.4766711294651031,3.4158475399017334,-0.8747403291588334,-0.1702777642543213,0.1860287307513961,-0.4137972366339937,0.3100864291191101,0.0873196199536323,-0.2158503830432891,-0.0008350014686584,0.004257708787918,0.0012741684913635,0.1579855978488922,0.0704064145684242,-0.1883428897291421,0.273538738489151,0.0765560009360313,0.0764095782026648,92
1733378764821717500,-1.2197110135540363,-0.5912485675930976,-1.7423995474010705,4.815652269504964,0.7144003154873848,8.512902567115425,0.0150120025500655,-0.0829478576779365,3.50127387046814,-0.8434734713394045,-0.1569129309190303,0.2033250880358335,-0.4717942866713848,0.350997120141983,0.1089526861906051,-0.2011533379554748,-0.0134481787681579,-0.0141498148441314,0.0145032256841659,0.1250531375408172,0.0609280169010162,-0.1241799218982458,0.1956822872161865,0.0395597108416259,0.1017334045514464,93
1733378764861717800,-0.4276949589446187,-0.4785424815958365,-1.3944552937805652,4.775265898580849,0.1292882778879255,8.564490715533495,0.4480902552604675,0.5689614415168762,3.324371099472046,-0.8097493013063884,-0.1434812015411596,0.2067501801182276,-0.5300693578157947,0.3868952095508575,0.1306516826152801,-0.1567959934473037,-0.003138244152069,-0.0254593193531036,0.0151209086179733,0.0655630081892013,0.0641234815120697,-0.1293611239284277,0.0923009365797042,0.0809291014537215,0.2674576352372765,94
1733378764901717800,-0.1979670426428318,-1.04441984003447,-0.8771621892362832,4.507530030924081,-0.2222623661940917,8.70650089315474,1.013052225112915,0.9950050711631776,3.1480345726013184,-0.7750808275996016,-0.1333227819661231,0.1957473506929199,-0.5857967344488698,0.317716121673584,0.0808269903063774,-0.2081868797540664,0.0253084897994995,-0.0010638535022735,0.0131706148386001,-0.0205665528774261,0.0419485382735729,-0.0939326676726341,-0.0091756954789161,0.1399501763515174,0.3370169091537595,95
1733378764941717500,1.0215519554704426,-2.0539643276512622,-0.0747597651690244,3.957340034428239,-0.2664660303840414,8.968770019838214,1.594268560409546,1.6604381799697876,2.720161199569702,-0.7399834295681075,-0.1244094754727339,0.1650523072275614,-0.6400815504609971,0.2768318057060241,0.0940649732947349,-0.5181355476379395,0.0558648705482482,0.0770074427127838,0.0007618516683578,-0.0531087256968021,0.0354740135371685,0.0165875621855258,-0.0172752849757671,0.1140036880597472,0.2577764914393425,96
1733378764981717500,2.2146792057424785,-1.257226797477901,0.3035357875734567,3.54816448251456,0.0361839416650589,9.142188312157987,1.6213363409042358,0.592171847820282,1.000277042388916,-0.7136823709674254,-0.1279163815390217,0.1323462209878251,-0.6758545748541622,0.01780292019248,-0.0091796554625034,-1.2965240478515625,0.1895434260368347,0.2173355221748352,-0.003323808312416,-0.0568182505667209,0.0315274000167846,0.1629220327466726,0.0037009455263614,0.0397020419217646,0.0499655156522989,97
1733378765021717500,0.9386416170716284,-1.2992210419900714,0.139328975713253,3.3576030399531125,0.473071648969315,9.201797854468223,0.7987676858901978,0.1441031843423843,-0.4829445779323578,-0.7094282370136165,-0.1382194931082157,0.1083246964922722,-0.6825485933262219,-0.3039894998073578,-0.0130561525002121,-2.413116216659546,0.252487301826477,0.3429160714149475,0.0190749913454055,-0.0105367079377174,-0.0052809603512287,0.0266530291259288,0.0289664547890424,0.0816283357642591,-0.0700192926436662,98
1733378765061717500,-0.1766664804607629,-0.5510867992050945,0.3412520625054836,3.410335097709298,0.6856111511155962,9.16896584444642,0.0614025145769119,-0.1159533932805061,-0.5395615100860596,-0.7160547948747855,-0.1470680353958455,0.1043255813597344,-0.6743536069840904,0.0930753052234649,-0.2902497947216034,-3.616534471511841,0.4628604054450989,0.501710832118988,-0.0126605033874511,-0.0428145863115787,-0.023893155157566,-0.0020545944422483,0.0621803402900695,0.1113243858478963,0.037409985461831,99
1733378765101717800,-1.1310077709674835,-0.5593396637655794,0.9841033915638924,3.290427738563716,0.6778525728780775,9.213250391852856,-0.2349522411823272,0.6110840439796448,0.1195992454886436,-0.7199846868462212,-0.1418871712350119,0.10061304355211,-0.671838607089655,0.0582360960543155,-0.3813061714172363,-4.024813175201416,0.4004245400428772,0.299685537815094,0.0215980410575866,-0.1548914015293121,-0.059218592941761,-0.2459808397054672,-0.0165717080235481,-0.0136658295199275,-0.1825853491157293,100
1733378765141717800,-0.7137742925435304,-0.1044489105878397,0.8431465223878621,3.080741908815503,0.5322627832043916,9.294950769940018,-0.3057223260402679,0.4587463140487671,0.3715554177761078,-0.7181781762747899,-0.1291761125522496,0.0969687114392046,-0.6768535333863475,0.0717995762825012,-0.4603570103645324,-3.82773494720459,0.1417561769485473,-0.0725243687629699,-0.0055513232946395,-0.2424498200416565,-0.1101097911596298,-0.3128103963971138,-0.1341955363750457,-0.0399722371652722,-0.6431406673938036,101
1733378765181573600,-0.1077849596753716,0.5333939061261713,0.0300765738338232,2.971998333241045,0.3989980029009282,9.336938146319984,-0.1901363432407379,0.1583323776721954,0.2962187528610229,-0.7141076091128531,-0.1208738630801384,0.0966341328820595,-0.6827164169660844,0.5994175672531128,-0.3444937765598297,-2.776582717895508,-0.1854092478752136,-0.496560275554657,-0.0176612138748168,-0.2742728590965271,-0.1690748780965805,-0.3353417059505358,-0.1387588530778885,0.1181467792138457,-0.6196631995640695,102
1733378765221573600,-0.8475175770789385,0.1161028888287022,0.7589946594953536,2.9864374852210283,0.310064933613874,9.335707727742196,-0.1533695012331009,-0.2334576100111007,0.1296930611133575,-0.7123841502018364,-0.1183244272098151,0.1000535591174448,-0.684468745397311,0.4864329695701599,-0.2765243351459503,-1.5459837913513184,-0.1442160606384277,-0.6279386281967163,0.0875998735427856,-0.2352583408355713,-0.215772807598114,-0.0804448250681161,-0.0892175734043121,0.1838999388456344,-0.2836637968897819,103
1733378765261573600,-0.8447966276824473,-0.3760779132256284,1.3492039471685886,3.110160018740594,0.2702842369653284,9.296463512590528,0.1169227659702301,-0.3530240356922149,0.3682071566581726,-0.7084208896489749,-0.1218918473302518,0.1056155339201791,-0.6871154999282152,0.1711903363466262,-0.2077169269323349,-0.4892118275165558,-0.0734507143497467,-0.595610499382019,0.1757784783840179,-0.2245428264141082,-0.2161936312913894,-0.0968932710438966,-0.087668664753437,0.2772502765856683,-0.0571706247255206,104
1733378765301573600,0.0104243633806705,-0.426321259438619,1.0679273376762866,3.2658906786784527,0.3145419328974559,9.241504426434636,0.3825432658195495,-0.4502531290054321,0.2374314069747924,-0.7020855482611398,-0.1301653353626518,0.108955889063129,-0.6915645047929168,-0.0718257650732994,-0.0446635596454143,0.3937947154045105,0.0446653068065643,-0.4330939650535583,0.1538012474775314,-0.1600605398416519,-0.2388632595539093,-0.009489128357172,-0.0622078403830528,0.2491202337097376,0.1423421860545873,105
1733378765341573600,0.3655348553687333,-0.7100437277130782,1.4965654226899143,3.387525592269004,0.5249418657317757,9.18800781404674,0.9508286118507384,-0.075113870203495,0.2433264702558517,-0.696635353244333,-0.1432163543378946,0.105028780003761,-0.6950950788741428,0.0807571187615394,0.0746534019708633,0.9046280980110168,0.1557371020317077,-0.1799234747886657,0.1315312981605529,-0.1146252229809761,-0.2223242372274398,0.1666547895342111,0.0657283887267112,0.1425865892697125,0.3495838375210762,106
1733378765381573600,0.8062175984412431,-0.2271787432756274,0.1056131685942411,3.289363616463542,0.9337675082292408,9.191221515396236,1.3832602500915527,0.6468064188957214,0.1953000128269195,-0.689983274743148,-0.1554284746955856,0.0849712748619617,-0.7018154830614971,-0.0169404111802577,0.1761997938156128,1.104746699333191,0.1378307044506073,-0.2560167908668518,0.0610016137361526,-0.0670258775353431,-0.1860767304897308,0.1746393585473299,0.1692457795143127,0.0867675252836197,0.2371238717719912,107
1733378765421573600,1.418514214760065,-0.1818703327141702,-0.8618851251274346,2.907359272330999,1.4319430206537247,9.255656870427726,1.3513554334640503,1.5167548656463623,-0.1087009608745575,-0.6862604317013652,-0.1595011070079353,0.0514997286563437,-0.7077809337613437,-0.3543589413166046,0.2897002398967743,1.430722713470459,0.0807854235172271,-0.2399312853813171,0.0168457776308059,-0.0939676985144615,-0.1314795464277267,0.2645014157801866,0.3019363284111023,-0.0100633480485528,0.2705158537641167,108
1733378765461573600,0.7050736842155456,0.2527981185048818,-2.471986910626292,2.5281457279607653,1.8237227627389128,9.29800489681363,0.528903067111969,0.5017514228820801,-0.2654013633728027,-0.6862852909305657,-0.159372599224453,0.0231094543513006,-0.7092804944068223,0.2399566173553466,0.3285043239593506,1.7978065013885498,0.0578687191009521,-0.1382097005844116,-0.003314733505249,-0.2038596421480178,-0.1140999719500541,0.224250069412589,0.5364612340927124,-0.0137592068918049,0.2861506452694535,109
1733378765501573600,0.1491385681964457,0.1798361965380609,-1.9823545509457587,2.347864125742764,1.9194297466076908,9.325969593060016,-0.14050854742527,0.2449609339237213,-0.2549018561840057,-0.6892290651143473,-0.1559573765087273,0.0136079767801679,-0.7074287978596768,0.3038700819015503,0.3200093507766723,1.995255827903748,0.0446457862854003,-0.141491413116455,0.0056968331336975,-0.4052594900131225,-0.1141974627971649,0.2415951719671487,0.8415104150772095,-0.0342653307605534,0.3974889135122298,110
1733378765541573600,0.0222514331661164,-0.061782940826565,-0.5226075775653124,2.240718048492819,1.874493018902838,9.361401556447149,-0.1349931061267852,0.2895313501358032,-0.2714869379997253,-0.6943406017594218,-0.1501625522956201,0.0123510699227504,-0.703697246715178,-0.5787286758422852,0.3353808224201202,2.1018996238708496,0.0574368238449096,-0.0940701365470886,0.0100579857826232,-0.6066593527793884,-0.1142949536442756,0.2660457226127385,1.146559715270996,-0.0524419157031923,0.5043856921762228,111
1733378765581573600,-0.6335442792698741,-0.0216761174961924,-1.0430588538795709,2.1718186997897924,1.855185530234128,9.38146410126686,-0.1054367497563362,-0.0388519577682018,0.0073999962769448,-0.696786577889059,-0.1468249804886314,0.0109935754587869,-0.7020042662046737,-0.3263275623321533,0.2956215143203735,2.157924175262451,0.0704153180122375,0.0467343926429748,-0.0247359722852706,-0.796924352645874,-0.143733948469162,0.0706114133179187,1.3654416799545288,-0.0100127869050949,0.2162216612577438,112
1733378765621348900,-0.056651277026534,0.6936046340875327,-1.3858575613051651,2.255126805334538,1.7059841259345412,9.390122624018788,-0.6967118382453918,-0.4182387888431549,0.0608138553798198,-0.6968444508191755,-0.1444249786100452,0.0194525376225502,-0.7022613335616934,0.0789538919925689,0.2277450114488601,2.20112419128418,0.0897080302238464,0.1029606461524963,-0.0011126846075057,-0.9091047048568726,-0.1180322617292404,-0.0111046783616067,1.3897294998168943,0.0096552353218314,-0.0494287784270942,113
1733378765661348900,0.2850818469941616,-0.2662270705290138,0.968009165853262,2.4062999480985106,1.4423786360807715,9.396789096170664,-0.5187625885009766,-0.2430410832166671,-0.0744881182909011,-0.6988655097009573,-0.1402677850317721,0.034957499402424,-0.7004927479176357,-0.4192298054695129,0.2503838539123535,2.099075555801392,0.0947100520133972,0.0730900764465332,0.0041736811399459,-0.7235115766525269,-0.0819083750247955,-0.0601700988024473,1.1905598640441897,-0.1501979045236483,-0.2957198531255126,114
1733378765701348900,-0.3330395299553871,0.1666908837608993,-0.0739952105373144,2.527624626696109,1.3239989248938857,9.382351990017296,-0.2495994716882705,-0.5031996965408325,0.0023191780783236,-0.6997749262662891,-0.1403646234141067,0.0439426969731371,-0.6990578503940643,-0.6284253597259521,0.1829876452684402,1.7033921480178833,0.1074029803276062,0.1363022029399871,0.0020135045051574,-0.5201204419136047,-0.0526659861207008,-0.1729284629762172,0.9917887449264526,-0.1270266530988738,-0.3167246472314,115
1733378765741348900,0.4529685164108872,0.3990234296031296,0.1076397059857845,2.7609479371413586,1.1847409685902297,9.335091641670465,-0.5251266956329346,-0.613473653793335,-0.1193183660507202,-0.7005946386029263,-0.1438242897325736,0.0579426321845389,-0.6965086841008621,-0.5755847692489624,0.1005153581500053,1.3601943254470823,0.0938714146614074,0.2093060314655304,-0.0187400579452514,-0.3432876467704773,-0.0318579375743866,-0.2199877357929945,0.7916291952133179,-0.0991876290587708,-0.3195357591293752,116
1733378765781348900,0.0309781988486647,-0.2395335632622242,1.0978379072934388,2.9122438295021653,1.0101672226250171,9.30960707180202,-0.4295716881752014,-0.3141568899154663,-0.1419191658496856,-0.7036325641920357,-0.1426807265333035,0.0705999494205703,-0.6925020446345583,-0.5477600693702698,0.0650893598794937,0.9554614424705504,0.0497605204582214,0.2177981734275818,-0.0171699672937393,-0.1878599971532821,-0.0199928171932697,-0.2168985376060009,0.5866395235061646,-0.0853381866002455,-0.2519545072875916,117
1733378765821348900,0.2616734988778829,0.0250029968965798,0.8837912519872188,3.029306320610642,0.8925747893583029,9.284234145614503,-0.3892779648303985,-0.3227280080318451,-0.2709133923053741,-0.7068509690660669,-0.1422626967708415,0.0799820958759021,-0.6882774802097184,-0.3752311766147613,0.0581863336265087,0.5118589401245117,0.0086021423339843,0.2073392271995544,-0.0213392525911331,-0.09022057056427,-0.0211366936564445,-0.1342085639595985,0.4569167494773865,-0.0682810706742107,-0.0865504484668374,118
1733378765861348900,-0.2821151061430573,-0.2015271462772041,0.821887461259961,3.0673198249235747,0.7740405451968312,9.282391732618212,-0.4292532801628113,0.0183543507009744,-0.2400137782096862,-0.7115579854695087,-0.1386555504348334,0.0866278353204041,-0.6833413171182279,-0.2189920544624328,0.024579107761383,0.1339355856180191,-0.0027660727500915,0.2017543315887451,-0.0233196541666984,-0.0479885004460811,-0.0148376738652586,-0.1065045644760131,0.3492522835731506,-0.031536965242587,-0.1476224645450711,119
1733378765901348900,-0.5215273811131715,-0.3355808850012719,0.8122019335478544,3.064618164749444,0.6387466702185571,9.293573051846026,-0.3666841089725494,-0.0575277805328369,-0.1164391338825225,-0.7150950098720406,-0.1330290201560544,0.0919940932020835,-0.6800585639594694,-0.1185621097683906,0.0081572039052844,-0.1139222234487533,-0.0247238874435424,0.1582287847995758,-0.0212256237864494,-0.0052044987678527,-0.0099583705887198,-0.0736357295751571,0.2584852576255798,-0.0423708775385282,-0.1332658032167702,120
1733378765941348900,-0.5006888834848999,-0.3609529344059526,0.948963689121604,3.097200583924353,0.5690988777684047,9.287295871272685,-0.0858524590730667,-0.0859711021184921,-0.0698980838060379,-0.7168875377645072,-0.1313334096384564,0.0960793338939848,-0.6779326477151395,-0.0721679776906967,0.0173934195190668,-0.2687249183654785,-0.0372530221939086,0.0956746041774749,-0.0191327258944511,0.0149244423955678,0.0231859348714351,-0.0217325238585472,0.1992277652025222,-0.0605109663956798,-0.068993018335849,121
1733378765981348900,-0.4901251116335391,-0.0857407029865309,-0.0594885462790727,3.126739689880609,0.5377958674121648,9.279259864333271,-0.1771944612264633,-0.0700306966900825,0.0346048027276992,-0.7169672074101154,-0.1312010811272966,0.0983651433346023,-0.6775460549363941,-0.0367229059338569,0.0011593223316594,-0.338025689125061,-0.0176215767860412,0.0592434704303741,-0.0163262411952018,0.0233429353684186,0.0394483134150505,-0.0522287844091653,0.1594140976667404,-0.0277708907073363,-0.0438569696441292,122
1733378766021348900,-0.2163917571276426,-0.0850510402219369,0.6722907740324735,3.143153649064898,0.4295168771421536,9.279358064010738,-0.3029369413852691,0.0056333723478019,0.0311551485210657,-0.7172387616380047,-0.1276749633085263,0.1028761978942491,-0.6772622614775723,0.0207960456609725,-0.0170555282384157,-0.3703914880752563,-0.0026785731315612,0.0213534832000732,-0.0100585147738456,0.0197730083018541,0.0428556241095066,-0.0540425558328628,0.1404515355825424,-0.0077915306590497,-0.0097369656383991,123
1733378766061348900,-0.1686462556123733,-0.1109196044392883,0.8986275865912436,3.153766520754993,0.3648546545522287,9.278524535796045,0.0086397547274827,-0.0606636516749858,0.1108037382364273,-0.7164175698699288,-0.1257497505989756,0.1054224595067749,-0.6780995308615256,0.0166838597506284,-0.0164147187024354,-0.3889091908931732,0.0098071694374084,-0.0211855173110961,0.0023552775382995,0.0241863690316677,0.0528396889567375,-0.0626303514361381,0.1115467250347137,-0.0270658111779019,-0.04633592697829,124
1733378766101348900,0.0341843014135956,0.1351367847204208,0.0524374587237834,3.187812290480733,0.3582183218102902,9.26714155651629,-0.0478967614471912,-0.0858585759997367,0.0826208814978599,-0.714718881497379,-0.126981845578823,0.1066905806416339,-0.6794627060151898,0.0144113842397928,-0.0051015564240515,-0.3587299287319183,0.0188270211219787,-0.0503635704517364,0.0081921890377998,0.0249892342835664,0.0444097332656383,-0.0684872607707977,0.0616494193673133,-0.0265544275896623,-0.0297296600922942,125
1733378766141348900,0.1621244526281952,0.0313205460129305,0.5777157168030739,3.1861665691003203,0.2996778883025981,9.269785349023342,-0.1612103283405304,0.1038543730974197,0.0575090087950229,-0.7142471457646983,-0.1248043035828258,0.1086110490018714,-0.6800578599178466,0.0977041497826576,0.0115622682496905,-0.2909523248672485,0.0176893472671508,-0.0757491290569305,0.0077582523226737,0.0112035032361745,0.0347737520933151,-0.0875379981994628,0.0343397334218025,-0.0136671812267974,0.018343685137853,126
1733378766181348900,0.279127907025814,0.1428152103938162,0.3223375186771154,3.152211984789372,0.2646480394429527,9.28245135385096,0.0023178341798484,0.0165392085909843,0.0312912911176681,-0.7138173169246819,-0.1223480192830375,0.1084326911964816,-0.6809831940545511,0.160824254155159,0.0324945002794265,-0.143164187669754,0.0077605843544006,-0.0970601141452789,0.0045027211308479,0.0001162914559245,0.0190809722989797,-0.0761105952560901,0.0153013821691274,0.015046397158131,0.0557418340314179,127
1733378766221348900,0.1619838751137256,0.0516969060221686,0.4306687140583992,3.14141586548686,0.2819948955631814,9.2856001732707,0.0861522257328033,0.0522243082523345,0.0110315028578042,-0.7137767422694974,-0.122617124917226,0.1073833854589632,-0.6811436715487501,0.0674964413046836,0.003874521702528,-0.0079125668853521,0.0079596638679504,-0.1107387244701385,0.0096116662025451,-0.0083785550668835,0.0186345875263214,-0.0788677850097417,-0.0063513629138469,0.0236450794816017,0.0245766612432897,128
1733378766261348900,0.1601578287303447,0.0816405376587063,-0.0555816019684076,3.131719816380739,0.3205853047149256,9.287623203530908,0.1498543471097946,-0.0101728681474924,0.0576805174350738,-0.7128823576179208,-0.1238517258269909,0.1054692583366702,-0.6821552457065359,-0.0907618999481201,-0.014667684212327,0.1177473589777946,0.0084969401359558,-0.0939529836177825,0.0160810351371765,0.0011053383350372,0.0108237564563751,-0.037341011878848,-0.0123473480343818,-0.0195000886313617,0.0174021665040403,129
1733378766301348900,0.2257508293643593,0.1807339856280014,-0.3472574404001236,3.128974317064881,0.3573628740247339,9.287205854901671,0.046575628221035,0.0398602373898029,0.0074334926903247,-0.7122670659996772,-0.1252206661832508,0.1039425640854648,-0.6827820821383225,-0.1718008369207382,-0.0067107984796166,0.1903461962938308,0.0068393945693969,-0.0547105073928833,0.0110603496432304,-0.0074079986661672,0.0166658125817775,-0.0411170232862234,-0.0039073759689927,-0.0132118021421134,0.0480974567580968,130
1733378766341348900,0.3218225548923015,0.1271141487192362,-0.0888397284477949,3.1045790037378667,0.3636971550801768,9.295143662163614,0.0078747877851128,0.0847416669130325,-0.0487128943204879,-0.7126313530095448,-0.12452615542826,0.1028241040098775,-0.6826983750193274,-0.1160211861133575,0.0111875077709555,0.2040470987558365,-0.0026406645774841,-0.0211458802223205,0.0106702446937561,-0.0080378921702504,-0.0055257845669984,-0.0354915846198797,0.0184849500656127,-0.0290548661032691,0.0653817690361291,131
1733378766381348900,-0.1353001585885882,-0.0232448646502569,-0.3815332194894552,3.087650080768764,0.3774369996843859,9.300233678779003,0.0083514396101236,-0.0078931227326393,-0.0180410631000995,-0.7132093104061469,-0.1243451346867251,0.1017759573741179,-0.6822846806189317,-0.1091438382863998,-7.24883284419775e-06,0.1936389952898025,0.0075913071632385,0.0007403790950775,0.0040142461657524,-0.0077824825420975,-0.011072602123022,-0.0309510185807943,0.0163218714296817,-0.0445098075296729,-0.0396827526994049,132
1733378766421348900,-0.0224140763819217,-0.0264073472691699,-0.1003127240985631,3.093875531154871,0.3719205012852326,9.298386589607595,-0.0254240036010742,-0.0071686687879264,-0.0197527334094047,-0.7133927970832062,-0.124334868920242,0.1022499932384827,-0.6820238223468456,-0.1100360006093978,-0.0306722708046436,0.1517045795917511,-0.0006362795829772,0.018989473581314,-0.0014190077781677,0.0058311019092798,-0.0166179277002811,-0.0319639950156211,0.0126116964966058,-0.0251814222034066,-0.0292714679960161,133
1733378766461348900,-0.177330205066502,-0.1086569567369297,-0.0211439103156328,3.0979566629886626,0.3681285981889814,9.297178382861611,-0.007174739614129,-0.0107541317120194,0.020297298207879,-0.7134288494311093,-0.1243340857269697,0.102551681010809,-0.681940937462236,-0.0856409072875976,-0.0125296451151371,0.117278978228569,-0.0071852803230285,0.023336261510849,0.0087649300694465,0.0094509040936827,-0.0074701216071844,-0.0340980844348669,-0.0102766826748847,-0.0169335260789841,-0.0573081335000693,134
1733378766501348900,-0.1818088117852807,0.0126514283129945,0.1830441987991332,3.098694621874392,0.3523146507244556,9.297545462608335,-0.0273334793746471,0.0033582451287657,0.0494051314890384,-0.7130288970385202,-0.1238301560120286,0.1030689332879972,-0.6823727539673935,-0.0658522918820381,-0.0280052740126848,0.0584414862096309,-0.0074836611747741,0.0344060659408569,-0.0029332637786865,0.0072992630302906,-0.0133426059037446,-0.0411976873070001,-0.0305075086653232,0.0143560037411749,-0.0271099060479551,135
1733378766541348900,0.0236319277390837,0.0370172232845798,0.2629384042471647,3.104093266047537,0.3557814500521868,9.295612448719144,0.069513700902462,-0.0044007003307342,0.0500121116638183,-0.712119004327461,-0.1242905687791969,0.1029928306354145,-0.6832501778407972,-0.061653021723032,-0.023330895230174,0.0039153299294412,-0.0056274533271789,0.0286643207073211,0.005934715270996,0.0084216939285397,-0.0300602614879608,-0.0426654217720031,-0.0408444926142692,0.0287070755789056,-0.0511092057947069,136
1733378766581348900,-0.0524506104663014,0.081412756784819,-0.1001958197206258,3.0908421548083425,0.3586715089378878,9.299915698871017,-0.0320298075675964,0.0665774196386337,0.0604200884699821,-0.7113955090464402,-0.1240306460992677,0.1022382057425604,-0.6841638743479943,-0.0091077899560332,-0.0225624665617942,-0.0243262946605682,-0.0032702684402465,0.0303184390068054,-0.0030772760510444,0.0019274875521659,-0.0131701622158288,-0.0110907183349132,-0.055955484509468,0.0175566994786262,-0.0645503597132861,137
1733378766621348900,0.1448021464273333,0.0525802647279575,0.2085100639671087,3.0833298794820903,0.3535362649412825,9.302605668607354,0.0742030516266822,-0.0207862053066492,0.0520659312605857,-0.7105810137178235,-0.1236906290432575,0.1019790745234278,-0.6851099510949447,0.0068213753402233,-0.0198474247008562,-0.0599340237677097,0.0003526806831359,0.0116063058376312,0.0007643178105354,0.0052311862818896,-0.0169389359652996,-0.0483615875869989,-0.0538377948105335,0.0491974173566326,-0.1019241778831928,138
1733378766661348900,0.1293926881104707,0.0405367026476189,0.0586760608524084,3.0837755774229763,0.3753062712660059,9.30160496713221,0.0560724139213562,0.0426095873117446,0.0471949204802513,-0.7098262168351308,-0.1246280192469909,0.1010840016971024,-0.68585473879199,0.0064314887858927,-0.0200760308653116,-0.0725074708461761,-0.005191683769226,-0.0045504868030548,-0.0035560131072998,0.0151338186115026,-0.010968673042953,-0.0145703771442174,-0.0404738560318946,0.0144192051704972,-0.0672139528993517,139
1733378766701348900,0.2843877272501587,0.0994296576537191,-0.0828571469068527,3.0754253899678585,0.3991628015412017,9.30337665297985,0.1057635843753814,0.0080559030175209,0.0185396056622266,-0.7090870621464268,-0.1253210399269057,0.0997719887347993,-0.6866846102971732,0.0424515418708324,-0.0155724138021469,-0.0596071854233741,-0.000748336315155,-0.0128276050090789,-0.0082839131355285,0.0104618119075894,0.0013461038470268,-0.0167523973584175,-0.0240932460874319,-0.0006156842129305,-0.0484559878721833,140
1733378766741348900,0.1200946984112262,0.043296815010719,-0.4444242676883935,3.0637445967853068,0.4144446514230221,9.306561712756752,-0.0273688994348049,0.0270764660090208,0.0088140070438385,-0.708911635311218,-0.1254916188576509,0.0987383736027716,-0.6869839015244807,0.0392621383070945,-0.0194314941763877,-0.0412616692483425,-0.0001337528228759,-0.0194736421108245,-0.0035446882247924,0.0046091978438198,0.0070516099222004,-0.0437888728439807,-0.0220637843012809,-0.0173910971207544,-0.0248040402583777,141
1733378766781348900,0.2218918158486485,-0.0180085348993539,0.1542623409509658,3.0660952515646813,0.4202343407403677,9.305527693533897,0.0705461651086807,-0.0171693619340658,-0.0151373362168669,-0.7088884674767271,-0.125794822037202,0.0986193942628083,-0.6869694333723779,0.0094440560787916,-0.0231619961559772,-0.0261668711900711,-0.0015208721160888,-0.026248425245285,-0.0023656487464904,-0.0092682931572198,0.011038071475923,-0.050694414448738,-0.0271938052028417,-0.0181024237278848,0.015165274297446,142
1733378766821348900,0.0627718057334423,0.0084353815205395,-0.1674339572131633,3.0654025931254028,0.4481090571483597,9.304455680388212,0.0369076132774353,0.0186043791472911,-0.0232579484581947,-0.709025200227138,-0.1267851196832423,0.0976234088488528,-0.686788577604992,0.0021182331256568,-0.0321340262889862,-0.0067827212624251,-0.0026081204414367,-0.0232931971549987,-0.0032993629574775,-0.0283024739474058,0.0108802951872348,-0.0604208586931228,-0.0210782028734684,-0.0103566319067031,0.0896494373954832,143
1733378766861348900,0.0410357747435569,-0.0138622288748621,0.0480325017631053,3.0518238573670384,0.4534975452536717,9.30865722373128,-0.0061390344053506,0.05242370814085,-0.0482048653066158,-0.7097465916736151,-0.1263922735471842,0.097033870441683,-0.6861990068349899,-0.0029787910170853,-0.028325280174613,-0.0001084399409592,-0.0035875439643859,-0.0167199969291687,0.0039285495877265,-0.0377493537962436,0.0078776190057396,-0.0124380412906408,-0.0172251518815755,-0.0136752549353986,0.0981214976646006,144
1733378766901348900,0.0136214058563113,-0.0662101826842874,-0.0331225174009799,3.04392375176698,0.4654432364501059,9.310653950506447,0.043482206761837,-0.0073031256906688,-0.0154861845076084,-0.7100392045198108,-0.1265097313420329,0.0963538039203704,-0.6859705158201006,0.0064280265942215,-0.0062287123873829,0.0035855644382536,-0.0020338892936706,-0.0075652003288269,0.0076988339424133,-0.0403017587959766,0.0163698568940162,-0.0169335991442203,-0.0318829864263534,-0.0314646306587383,0.0516974540114402,145
1733378766941348900,-0.015526070433855,-0.0530122994696721,0.1037432830691337,3.0407495056450364,0.4760377322332933,9.3111554702878,0.0081813158467412,0.0239196270704269,-0.033423788845539,-0.7106281040310996,-0.1267065917077989,0.0959616351075982,-0.6853790560258475,0.0161509625613689,0.0007936703041195,-5.3112744353711605e-05,0.0022650957107543,-0.003506064414978,0.0055775120854377,-0.0305134318768978,0.0094670578837394,-0.0300216287761926,-0.0204501952975988,-0.0287297988673672,0.0288696091968566,146
1733378766981348900,-0.1490416836932301,-0.0038061508173122,-0.0783387926995754,3.033006928694248,0.4962634682580828,9.31262437379658,0.0747399404644966,0.0018728356808423,-0.0049213841557502,-0.7108208836529275,-0.127153009062725,0.0949757899162937,-0.6852337801562909,0.0144329564645886,-0.0056470781564712,-0.0129796303808689,-0.0058634877204895,-0.0046105980873107,-0.0042697712779045,-0.0328721664845943,0.0072245886549353,-0.0297100786089897,-0.0088474387302994,-0.0404970647569745,0.0406930987857282,147
1733378767021348900,0.0559197478815913,0.1049435987696051,-0.3725076169908046,3.035593145795166,0.5087201777165755,9.311109877580405,-0.035793699324131,0.0061786463484168,-0.0137556130066514,-0.710729282158577,-0.1277226372251446,0.0946174136580994,-0.6852724550059627,0.035239964723587,-0.0076945698820054,-0.0079900650307536,-0.00762939453125,-0.0069899260997772,-0.0043252706527709,-0.0405762419104576,0.0043565509840846,-0.0135655840158462,-0.020597368478775,-0.0231483820058405,0.0205882491942495,148
1733378767061348900,0.0510781530693173,-0.0662818231483921,0.2161304758429527,3.023376053778827,0.492898668000102,9.315934521257876,-0.0146589633077383,0.0455068387091159,-0.0351328440010547,-0.7113742529034519,-0.1266037356131296,0.0948210484765491,-0.6847825511249204,0.035910815000534,-0.0116904824972152,-0.0121165663003921,0.0016185641288757,-0.0071587562561035,-0.0035439729690551,-0.0485355108976364,0.0028775064274668,-0.0083475571066141,-0.0446992069482803,-0.0193289698481559,0.0538411149766296,149
1733378767101348900,-0.050067806982994,-0.0386778499731794,-0.0914759221702814,3.017830402350425,0.5022550733556971,9.31723274437487,0.0201273504644632,-0.0019776027183979,-0.0228713955730199,-0.7117449269199522,-0.1267011744088093,0.094340640618507,-0.6844455919843069,0.0238112770020961,-0.0150959733873605,-0.0179258529096841,0.0042731761932373,-0.0112319588661193,0.0020491555333137,-0.0559787154197692,0.0202652774751186,0.0175736506134271,-0.0816356092691421,-0.0169461298322305,0.0453702237512916,150
1733378767141348900,-0.0736193629622459,0.0030220512349158,-0.2448386839330196,3.01429755204916,0.5015559486430138,9.318414063113927,-0.0346925407648086,0.0018717024940997,-0.0062985736876726,-0.7119679153558647,-0.1265171215164434,0.0942684165651808,-0.6842577552901498,0.0083508286625146,-0.0131206540390849,-0.0108578894287347,-0.0037626028060913,-0.0141919255256652,0.0029388070106506,-0.0492374673485755,0.0246988739818334,-0.0319365224868059,-0.0988281667232513,-0.003974493121542,0.0658081046894192,151
1733378767181348900,0.0829845726788044,0.0390677991388365,0.0264800106465816,3.014363895283639,0.4960363084387034,9.3186876193583,0.0076062339358031,-0.0027212244458496,-0.0159147549420595,-0.7121439638529133,-0.1262895034185585,0.0944992533127441,-0.684084709687108,0.0053670234046876,-0.0043827160261571,0.0092974454164505,-0.003150463104248,-0.0144523978233337,0.0039089918136596,-0.0504545606672763,0.034254103899002,-0.0141261405080556,-0.0995609015226364,-0.0273037846522405,0.1024487862791866,152
1733378767221348900,0.0311596928954124,0.0151835406064987,-0.0049152445703744,3.009925328314304,0.4982231144258752,9.320005716219544,0.0069893402978777,0.0256702806800603,-0.0143625866621732,-0.7123766994986104,-0.1261791226012845,0.094290932627513,-0.6838914041730159,-0.0146612795069813,-0.013719119131565,0.0060580424033105,-0.0033943653106689,-0.0114573836326599,0.0045905709266662,-0.0383398793637752,0.0317034050822258,-0.0226209971308708,-0.1019627302885055,-0.035223435202986,0.0714437724888324,153
1733378767261348900,0.0079737553581595,0.0696987189197912,-0.2353787816703319,3.0168004747807977,0.5010190652873366,9.317632557347416,-0.0135229658335447,-0.0370094962418079,-0.0069827204570174,-0.7123701111314535,-0.1265317426379162,0.0944598513280295,-0.6838097689577659,-0.0298444926738739,-0.0108577664941549,0.0117489518597722,-0.0024306774139404,-0.0111563503742218,0.0013694614171981,-0.0135391019284725,0.0300092995166778,-0.0142798697650432,-0.1203314810991287,-0.0512768905118107,0.0431439260039478,154
1733378767301348900,0.0532069817915558,0.0353081178117543,0.0406073201984167,3.019152298603952,0.4876752707960083,9.317578781333566,-0.0552999228239059,0.0176375955343246,-0.0281536914408206,-0.7128152531303428,-0.126056920132256,0.095106998685283,-0.6833437760045634,-0.010180776938796,-0.0013974721077829,0.0369168892502784,0.0041315555572509,-0.0024119913578033,0.0002423003315925,0.006172901019454,0.0245360247790813,-0.0266606279104948,-0.1187590882182121,-0.0394264033181592,0.046231955147162,155
1733378767341348900,0.026749767498672,0.0361350336225703,0.1873421882539987,3.017327713525295,0.4777204246232285,9.31868586579263,-0.0035998721141368,-0.0130251217633485,-0.0157698709517717,-0.7131337288853323,-0.1255754440704652,0.0954466843144832,-0.6830527730954029,0.0046287951990962,-0.0068395351991057,0.0239457637071609,-0.0021333694458007,0.000119149684906,-0.0042050406336784,0.0167606938630342,0.0156398341059684,-0.0431663570314645,-0.1185779049992561,-0.0259739608205854,0.0391704192630946,156
1733378767381348900,0.110647071108222,0.0489920675102621,0.0169096337467432,3.0101947929054496,0.4819221506293862,9.320776116070151,-0.0259993970394134,0.0648564472794532,-0.0439452268183231,-0.7136028750048402,-0.125410623730303,0.0951044826556577,-0.6826406993437535,0.0001999582163989,-0.0132524808868765,0.0099643683061003,-0.0044035911560058,-0.0025240778923034,-0.005427062511444,0.0110746454447507,0.0156679078936576,-0.0231587572693824,-0.1189744919538497,-0.0246007362386211,0.0269637025102972,157
1733378767421348900,-0.016605974625051,0.0368942544920369,-0.1314987204790115,2.98631385884136,0.4747167858278379,9.328824397969246,-0.0232430770993232,0.0348927304148674,-0.0406066514551639,-0.7143380151680705,-0.1241823589504976,0.0945572875544413,-0.682172280956297,0.0146758360788226,-0.019223179668188,0.0101008545607328,-0.0049384236335754,-0.0026972889900207,-0.0051165670156478,-0.0033969227224588,0.0193383917212486,-0.0105628950685262,-0.1076222360134124,-0.0354394525738432,0.0227269417233765,158
1733378767461348900,-0.1023459834918379,-0.0110091409986838,-0.0779267047673463,2.9846652148514985,0.4703965480085462,9.329570247900486,-0.030676819384098,-0.0042241006158292,-0.0330666303634643,-0.7149649133008579,-0.1238747597986194,0.0947593299506025,-0.6815430034212717,-0.0105568161234259,-0.0186263658106327,0.0139226894825696,-0.006468117237091,-0.0080140829086303,0.0042026042938232,-0.0036958621349185,0.0257068108767271,-0.0196966341167688,-0.0933741629123687,-0.0464880122674629,0.0060585693866014,159
1733378767501348900,-0.0741752432793378,-0.0353793564170598,0.0595171878516674,2.98462663640678,0.4631931925009935,9.329943172866106,-0.018105786293745,-0.0088374400511384,-0.0098571293056011,-0.7152791500131576,-0.1235601942372728,0.095069252677164,-0.6812270986344582,-8.952734060585499e-05,-0.0121707580983638,0.0132636912167072,-0.0024476647377014,-0.0057882666587829,0.0045731663703918,-0.0067026857286691,0.0284389816224575,-0.031432664617896,-0.0920445621013641,-0.0634811961118131,0.0201714120216667,160
1733378767541348900,0.0356368383094668,-0.0368115446446463,0.2495160280942916,2.9861446397542952,0.4616326286533847,9.329534592065215,0.0079854661598801,0.0243320316076278,-0.012077072635293,-0.7154336628034536,-0.1235345590708194,0.0952119613347439,-0.6810495913048623,0.0057518500834703,0.000320266757626,0.0044395066797733,-0.007398247718811,-0.0073574185371398,0.004614770412445,-0.0056962496601045,0.0254894215613603,-0.0360147317111492,-0.1012143269181251,-0.0802857620488852,0.0074257660865783,161
1733378767581348900,-0.0167690562322735,0.0021928338691592,0.0422165089607238,2.969118978412449,0.4645267426596954,9.334823346123098,0.0039351214654743,0.032673105597496,-0.0073388586752116,-0.7156255829897298,-0.1230069134184974,0.0944761914013062,-0.6810458829716817,-0.0212648548185825,-0.0040374109521508,0.0065679051913321,-0.0032137632369995,-0.0077072083950042,0.0014721006155014,0.008302891626954,0.0167714282870292,-0.0595370615959167,-0.1090738922357559,-0.0837749558715149,-0.0017747545875608,162
1733378767621348900,-0.0561819059491157,-0.0457965228719636,0.1038841528445482,2.9631916341900824,0.4725630053274333,9.336303355547786,0.0344085022807121,0.0171043779700994,-0.0039076609537005,-0.7157401299522423,-0.1230797248488272,0.0939807445594453,-0.6809808877074978,-0.0210443437099456,-0.0096590239554643,0.0013121567899361,-0.0036939978599548,-0.0040777027606964,0.0002202242612838,0.0206393040716648,0.0156031157821416,-0.0327472543478012,-0.1115819662809372,-0.1103866666063666,0.0266403157748281,163
1733378767661348900,-0.022881693893671,-0.0263858295571058,-0.2048299141496419,2.9553298147737976,0.488766134772636,9.337961059626936,0.0455743893980979,0.0101036522537469,0.0095884976908564,-0.7155628477569037,-0.1234289925503749,0.0930685982664436,-0.6812293849761349,-0.0006392039358615,-0.0007264088490046,-0.0076611647382378,-0.0048720240592956,-0.0024726688861846,-0.0037782788276672,0.0246604084968566,0.0082744024693965,-0.0640022243112325,-0.1248358190059661,-0.0881501752810552,-0.0211506323173642,164
1733378767701348900,0.0038777182161808,-0.0491332295466214,-0.0934580358982086,2.955654516683518,0.4847283306239172,9.338068611654638,-0.0464453361928463,0.0049295788630843,-0.0101157808676362,-0.715704047173575,-0.1232702270957977,0.0932493387512437,-0.6810850832654375,-0.009003659710288,-0.0099965529516339,-0.010676129721105,-0.0003471970558166,-0.0062640011310577,-0.0007153898477554,0.0169751513749361,0.0045917956158518,-0.0444762705862522,-0.1298645287752151,-0.0890932282848283,-0.0050837330050766,165
1733378767741348900,-0.0264648130774497,-0.1165231600673869,0.1913385644137859,2.953525980222225,0.4897192707790062,9.338481868630646,0.0761876851320266,-0.0085564767941832,0.0252401381731033,-0.7155728413666859,-0.123398719681944,0.0929660541060368,-0.6812383186376069,-0.0339699983596801,-0.0223805718123912,-0.0240071825683116,-0.0044467449188232,-0.0098900198936462,-0.0017666816711425,0.0166945923119783,-0.0044989017769694,-0.0696025285363197,-0.1298387795686721,-0.0734092273429036,-0.0383170173041522,166
1733378767781348900,-0.0541790416941046,-0.0324764745824038,-0.1920341454625129,2.9601413067087528,0.5065284398259595,9.335490285599231,0.0174846444278955,-0.0156457368284463,0.0363204292953014,-0.7150364285166771,-0.1243373598027137,0.0925347644827714,-0.6816895098704175,-0.028248194605112,-0.0142616583034396,-0.0200159028172492,-0.0093334913253784,-0.0119853317737579,0.0059281662106513,0.0165558066219091,-0.0072597190737724,-0.0416705655157566,-0.1440858393907547,-0.0691206633035093,-0.0463984708204865,167
1733378767821348900,0.0837426975697279,0.0682747139986604,-0.1356850662529468,2.962430002167821,0.5139652387632057,9.33435748217702,0.040715504437685,-0.0192576292902231,0.0196834132075309,-0.7145000744919567,-0.1247700918165296,0.0922639300229281,-0.6822092425216989,-0.037316258996725,-0.0076111061498522,-0.003839795012027,-0.0033946633338928,-0.0088092684745788,0.0083743184804916,0.0116099063307046,-0.0152668105438351,-0.0413069929003715,-0.1490070819854736,-0.0367200304362922,-0.0203941148616373,168
1733378767861348900,0.0909387465536594,0.0209916423633694,-0.1324742875128984,2.9722926400125025,0.5233899601146579,9.33069779062569,0.0086610596626997,-0.0140228774398565,0.0021219060290604,-0.7142408537143958,-0.1255112389292909,0.0922698693631186,-0.6823440088580259,-0.0330530703067779,-0.0016263441648334,-0.015065019018948,-0.0035756230354309,-0.0009523928165435,0.0026414394378662,0.0207971297204494,-0.0229698214679956,-0.0434931047677993,-0.1648235023021698,-0.0274358865993097,-0.0340150823265314,169
1733378767901348900,-0.0109431265577673,-0.0224787756485864,-0.1987678376317024,2.970176086249948,0.524662610398978,9.331300432693958,0.0127646187320351,0.0100253149867057,0.0191373545676469,-0.7141085486633614,-0.1255006775730598,0.0921176601368307,-0.6825049420393144,-0.0206621810793876,-0.0063013103790581,-0.0188111532479524,-0.0019418597221374,-0.0004909038543701,-0.0047522187232971,0.0344031415879726,-0.0186627637594938,-0.0512023639708757,-0.1757445335388183,0.0022112828413024,0.0164862937681376,170
1733378767941348900,-0.0444698408454656,-0.0117525432445108,-0.2985433861136436,2.9808082471624013,0.5181261578349396,9.32827494739294,-0.0411219447851181,-0.0399092994630336,0.0171494930982589,-0.7139186668283479,-0.1256640115548343,0.0927302694371995,-0.6825905017126285,-0.007956238463521,-0.0088273184373974,-0.0268908534198999,0.0009217262268066,-0.0043527483940124,-0.0071605294942855,0.045204509049654,-0.0181099474430084,-0.0031207623690366,-0.1733292788267135,-0.0012300897842273,0.0419194257102906,171
1733378767981348900,0.0686021193221211,-0.0120552890507504,-0.1000116953253746,2.987745937471092,0.5097499591557308,9.326516705548762,0.0170551836490631,-0.0252479128539562,0.0207514390349388,-0.7136008162569585,-0.1256436868162051,0.0932397433174928,-0.6828571232426548,-0.0192525684833526,-0.026605250313878,-0.0321779586374759,-0.0003560185432434,-0.006389707326889,-0.0032745003700256,0.0496002733707428,-0.0099380891770124,-0.007398293557763,-0.1418328881263733,0.0063686582490801,0.060235857515037,172
1733378768021348900,0.0953475029066205,0.0127491530664265,-0.4703039743542671,3.002150602659583,0.5055954332921654,9.322115840241311,-0.0647935047745704,-0.0352332144975662,-0.0056686275638639,-0.7134546728036752,-0.1260261476556025,0.0939242431681046,-0.6828455520376803,-0.0068262601271271,-0.0149552524089813,-0.0202060528099536,-0.0001177787780761,-0.0091239511966705,0.0054946541786193,0.0468493402004241,-0.0045346859842538,0.0376110609918832,-0.1020463481545448,0.006319046953693,0.0237814192123711,173
1733378768061348900,0.0592880552709102,-0.0745058269405737,-0.0768365714430809,3.006337532955408,0.4696987384701147,9.32264483255148,-0.0950338616967201,0.0112712550908327,-0.0029400028288364,-0.7138362485676697,-0.1247830825964802,0.0954284577662844,-0.6824664153391564,-0.0045026517473161,0.0005732670542784,0.0056827371008694,0.0036869645118713,-0.0094822347164154,0.0031333565711975,0.0419238284230232,0.0094390856102108,0.0288321267306804,-0.0729313492774963,0.0127644237007945,-0.0053394613318145,174
1733378768101348900,0.095818335288763,0.041184827825427,-0.1825292350143194,3.0172423733294007,0.4330167384892702,9.320897696623206,-0.1294765770435333,-0.0481245853006839,-0.0141544649377465,-0.714087807230572,-0.1237684696544164,0.0972000632503554,-0.6821378893206527,-0.0386973731219768,0.0029248383361846,0.0193556062877178,0.001194953918457,-0.009523868560791,0.0086991041898727,0.0382646881043911,0.013480607420206,-0.0071183075726032,-0.0548672825098037,0.0114292295742779,0.022694208497554,175
1733378768141348900,0.1003980642944574,0.040545068617165,0.5343325021505355,3.019994886907935,0.3805351118301972,9.322296457505226,-0.1239956319332122,0.0429271087050437,-0.0123671386390924,-0.7146250005004507,-0.1218285235968126,0.0992621652291119,-0.6816274576212156,0.0096174282953143,0.0157982390373945,0.02719122543931,-0.0077865719795227,0.0020180642604827,-0.0078619867563247,0.0264413058757781,0.0211335197091102,-0.0349748672693967,-0.0629190132021904,0.0202055334869772,0.0428391709037125,176
1733378768181348900,-0.1063528810456395,0.0739161539517343,0.3655582362443208,3.01081877002269,0.3576386222261935,9.32617008406818,-0.0124896094202995,-0.0225807297974824,0.0118570430204272,-0.7148963260533749,-0.12060484374325,0.0997603570736075,-0.6814877744248906,0.0081462981179356,-0.0023987675085663,0.0160275213420391,-0.0010029673576354,0.0036620199680328,-0.0064929723739624,0.00801457837224,0.0274587161839008,-0.0392108974039554,-0.0840177983045578,0.0180485015835613,0.0384977806985378,177
1733378768221348900,0.0392117741867899,0.1561833356088027,0.2662567350149154,3.0228225115492937,0.3593181728109717,9.322221638703343,0.0128154279664158,-0.0161720570176839,0.0095174964517354,-0.7146248513756269,-0.1211367063286681,0.1001242388230658,-0.6816248802851349,0.0123932408168911,-0.0070091253146529,0.0057383305393159,-0.0083872079849243,0.0044967830181121,0.0022794604301452,0.0050533208996057,0.0346425659954547,-0.0425368269562721,-0.1082729175686836,-0.0029052564548328,-0.0084355276510119,178
1733378768261348900,0.1118695986405014,0.1698856246815994,0.2903501427859067,3.018099866941571,0.3679119232309982,9.323416401445863,0.0499885790050029,0.0325674153864383,-0.0109500670805573,-0.7145608785393828,-0.1212982915766767,0.0996231346721046,-0.6817364873263341,0.0160367116332054,0.0089178029447793,0.003059257287532,-0.0117197632789611,0.0027413070201873,0.0011882781982421,0.0001641041599214,0.0307045988738536,-0.0407879374623298,-0.1053774505853653,-0.007551474825479,-0.018682634768635,179
1733378768301348900,-0.0119110948070883,0.0876489112280309,-0.0897527516394853,3.007955197285116,0.3890965308832004,9.3258345685035,0.0283319093286991,0.0302078779786825,-0.021320391446352,-0.7147947393084836,-0.1216931152220029,0.0985167168742695,-0.6815817546859124,0.0245284661650657,0.0027807080186903,0.0129627538844943,-0.007482886314392,0.0045908391475677,9.41157341003418e-05,0.0009490418015047,0.0152033539488911,-0.0404483302444219,-0.0862426087260246,-0.0114246629970148,-0.0140802555397152,180
1733378768341348900,0.0511319290831685,0.0043271790167316,-0.0533341153025627,2.993843669824302,0.4056798918176442,9.329668447577951,0.0550919920206069,0.0362374298274517,-0.0307900384068489,-0.7151633639731324,-0.1217552946580828,0.0974420261203135,-0.6813385327650087,0.0241188742220401,0.0160297211259603,-0.0005005904240533,-0.0099244713783264,0.0007287859916687,0.0025467872619628,0.0018484089523553,0.02628362365067,0.0068722238570451,-0.0566138252615928,-0.0433258949747309,0.0415707584030926,181
1733378768381348900,0.0585597409963607,-0.0357626566462218,-0.4478688551843166,2.9880615792915224,0.4251197381617501,9.330656289571523,0.0051731169223785,0.0058203712105751,-0.0230565145611763,-0.715387819245711,-0.1222435907593822,0.0965682933838562,-0.6811397346814025,0.0509510189294815,0.0192322265356779,0.0010894498554989,0.0005586743354797,0.0036172568798065,-0.0046639293432235,-0.0012657272163778,0.0396690107882022,-0.0040372926920652,-0.0555239804089069,-0.0529517283888533,0.0076888009369373,182
1733378768421348900,0.1028589014500379,-0.0088135671831667,0.0382318232387304,2.9868583409816023,0.4120869458483532,9.331626011386511,-0.0399089269340038,0.0189100783318281,-0.0115472627803683,-0.7157173605482214,-0.1216661216066634,0.097040370057877,-0.6808297233865833,0.0211473181843757,0.0114522809162735,-0.0100771179422736,-0.0042958855628967,-0.0064733028411865,0.0007748007774353,0.0011052112095057,0.0353989042341709,-0.0393383231759071,-0.0705424025654792,-0.0703591190572828,-0.0112184363678097,183
1733378768461348900,0.0012459084078669,0.1031269778016954,-0.1523643983751535,2.9846228370144963,0.41566663096603,9.332182476225494,0.0175229385495185,-0.0233097095042467,-0.0159084815531969,-0.7158878410703543,-0.1216959219235392,0.096856610966103,-0.6806714637773255,0.0201339833438396,0.0027592428959906,-0.0035565677098929,-0.0092688798904418,-0.0037659406661987,-0.0051369071006774,0.0211692135781049,0.0188237838447093,-0.1149994210988283,-0.109546422958374,-0.0495567887209355,-0.0521609798699617,184
1733378768501348900,0.0716433867141604,0.1064974406154826,-0.0300701440930366,2.991737637455761,0.4124457692233845,9.33004721776247,-0.0199866201728582,-0.009911079891026,-0.011679115705192,-0.7159772612002985,-0.121816798318711,0.0972658885097105,-0.6804973198115061,0.0104882819578051,0.0011484033893793,-0.0047775604762136,-0.0076832771301269,-0.0041636526584625,0.0004567950963973,0.0402231998741626,0.0087219262495636,-0.0950415056973695,-0.1573927104473114,-0.0425775973580777,-0.0574698999330401,185
1733378768541348900,0.2392491933628916,0.0998870094997808,0.1088835685670375,2.994120148678124,0.4141181228823959,9.32920901337266,-0.0105440104380249,0.0149880647659301,-0.0602142438292503,-0.7164284958308155,-0.1218999433594211,0.0973813861559269,-0.6799907814123365,0.013209500350058,0.0044114678166806,-0.0110057620331645,-0.0027977228164672,-9.825825691223145e-05,0.0037126541137695,0.0669574588537216,0.0092414794489741,-0.0227624514281749,-0.2146537750959396,-0.0436314903251826,-0.0668088061645627,186
1733378768581348900,-0.0749599639162421,-0.0094997958816587,0.026647183907032,2.972243247912824,0.4180105637436732,9.336028045737743,-0.00403902400285,0.0588069222867488,-0.0456250384449958,-0.7173311293431265,-0.1211366784238892,0.0965450056628447,-0.679294614502327,0.0155224557965993,0.0031731515191495,-0.0204493310302495,-0.0033418536186218,-0.0030510127544403,-0.0014548301696777,0.1363097429275512,-0.0087757864966988,-0.0780173056602478,-0.2897014021873474,-0.0601581891689449,-0.1619786144167184,187
1733378768621348900,-0.1464487445905804,0.0164910430084913,-0.0258136556923389,2.960683158500492,0.421198947988823,9.33955738890767,0.0062560057267546,0.0142054250463843,-0.0179889593273401,-0.7178570388394611,-0.1207697844155276,0.0960716171392013,-0.6788713583687747,0.0111785735934972,0.0030950142536312,-0.0085001271218061,0.0003425478935241,-0.001806229352951,0.0011761337518692,0.2720036506652832,-0.0252446010708808,-0.1323503688722848,-0.4641467928886413,-0.0661754766970872,-0.3701639764741063,188
1733378768661348900,-0.0502355647653341,0.1170494489638134,-0.1160889699012041,2.966073911628127,0.4286789284806698,9.33750630159676,0.0066459509544074,-0.0188389811664819,-0.0098734134808182,-0.7178998994723457,-0.1212363663716366,0.096028183899431,-0.6787489838987685,0.037057839334011,0.0190817564725875,-0.005163652356714,-0.0080593824386596,-0.0011267066001892,-0.0022787451744079,0.4945909976959228,-0.0099190277978777,-0.116956400385499,-0.7359580993652344,-0.0869558874625712,-0.3192646871030331,189
1733378768701348900,-0.0002297171026468,0.1123240644097328,0.1059632972061634,2.9635028920963404,0.4200865663001313,9.338713339298964,-0.0380871146917343,0.0121466880664229,-0.0215338729321956,-0.7181856762247966,-0.1207818713068358,0.0962802272961494,-0.6784919218337526,0.0716376602649688,-0.0012406653258949,0.0107615180313587,0.0034136176109313,0.0124976933002471,-0.0120251700282096,0.6550202369689941,0.0237566716969013,-0.1328682552665472,-0.9115298390388488,0.0291943841718137,0.1064943353429436,190
1733378768741348900,0.1266667702779173,-0.0029660832639783,0.492507038334012,2.9507801886454224,0.4303311526671052,9.342274831172825,0.0604526177048683,0.0552047677338123,-0.0494475737214088,-0.7187590738981714,-0.1206327480218601,0.0955211470803888,-0.6780184389037739,0.0891807004809379,-0.029596833512187,-0.0446760430932045,-0.0063093900680541,0.0202416479587554,-0.010100595653057,0.675970196723938,0.0267785936594009,0.0092155721127986,-0.9072030782699584,0.033363048158586,0.4592652784675359,191
1733378768781348900,0.044622108797729,-0.1183102626798674,0.2309253093928098,2.922990848965943,0.4654695034025237,9.349322996118664,0.1092378869652748,0.0993705093860626,-0.0288939494639635,-0.7191591189692221,-0.120908644176424,0.0932645407488916,-0.6778590529829247,0.0611525252461433,-0.0574166402220726,-0.1059605032205581,0.001523733139038,0.0119409263134002,-0.0045703053474426,0.5685850381851196,0.0145132225006818,-0.0468400771081447,-0.790334939956665,0.093173300672695,0.5312833437129855,192
1733378768821348900,-0.144019471617043,-0.138254624480009,-0.4697878415256738,2.8853803724959493,0.5066623684039339,9.35886005527079,0.0777133703231811,0.0679955556988716,-0.0176480710506439,-0.7194735612640473,-0.1210760225675992,0.0903965708937291,-0.6778841854932602,0.0301770307123661,-0.0499285757541656,-0.1136533170938491,-0.0041541457176208,-0.0162099301815032,0.0171631649136543,0.477032870054245,-0.0314233303070068,-0.0605862783879041,-0.688685417175293,-0.0075679510362446,0.3012073446258902,193
1733378768861348900,-0.0036734278157353,-0.0966990636460483,-0.361171399462223,2.871926432161033,0.5243633351914584,9.362022318693995,0.0209881942719221,0.0288850218057632,0.0042673293501138,-0.7194461919476991,-0.1212660651126305,0.0892425653299742,-0.6780320466331361,0.0591207966208457,-0.0167789310216903,-0.0507618971168994,0.0002098679542541,-0.0273756682872772,0.0159032344818115,0.4257263541221618,-0.0709690377116203,-0.0956353799372911,-0.6303970217704773,-0.0354377355407923,0.1815232728421688,194
1733378768901348900,0.0173141228944063,-0.0243683522548526,-0.2612304312855005,2.8558775068968534,0.5314901183314621,9.366528982463478,0.0228993296623229,0.0297252461314201,-0.0036128347273916,-0.7194756215484178,-0.120958839705557,0.0883679138957681,-0.6781701620048787,0.0588630028069019,0.0165142565965652,0.0001000190386548,-0.0011718869209289,-0.0331979095935821,0.0161917209625244,0.4379236698150635,-0.1027066558599472,0.0443377388983964,-0.5876041650772095,-0.1318620008334517,0.0113774263218045,195
1733378768941348900,0.1570373586222529,0.0229714180037379,-0.3271609933108091,2.8479847078204155,0.5353263720260932,9.368713340765238,-0.0369240008294582,0.044631078839302,-0.0333387851715087,-0.7197418384211202,-0.1207875169548001,0.0879711425628061,-0.6779698249854083,0.0036231854464858,0.0057295728474855,0.0315345041453838,0.0065894722938537,-0.028963029384613,-0.0011242553591728,0.4152272641658783,-0.1071742251515388,0.0706447310656309,-0.5110124945640564,-0.0522807337921112,0.0226882171481847,196
1733378768981348900,-0.1491203018873929,-0.0855901155347004,-0.3435281907439231,2.8211986999645826,0.5132543505474925,9.378048155343532,-0.0646485239267349,0.0405618026852607,-0.0107642021030187,-0.7203745899516997,-0.1189238013069222,0.0878050668014901,-0.6776487751421255,-0.0349425822496414,-0.0083252061158418,0.0395498909056186,-0.0013853311538696,-0.0193454921245574,-0.0031738877296447,0.336360901594162,-0.0829777866601944,0.1175964518547058,-0.4174374639987945,-0.021645137836039,0.0185951026156544,197
1733378769021348900,-0.167966164393723,-0.0828910857090726,-0.2503846276223659,2.8273256584122777,0.4884090284306556,9.37753026894927,-0.082833431661129,-0.0458494797348976,0.0352155789732933,-0.720363769256568,-0.1182090303548234,0.0889137459324991,-0.6776406921202304,-0.0148706035688519,-0.0061706560663878,0.0479931756854057,-0.0090603232383728,-0.0098419189453125,0.0006820037961006,0.2523300051689148,-0.0735776722431182,0.0735685095578432,-0.3240768313407898,-0.0409257384978234,0.0067079732060432,198
1733378769061348900,0.1035273022308945,0.0924598551737144,0.2599292855590582,2.841789652572572,0.4529692470632493,9.37493674532473,-0.0571329742670059,-0.0175180602818727,0.0390567071735858,-0.7198602081792346,-0.1174579615639264,0.090636027529771,-0.6780781304440069,-0.0116170197725296,0.0121762864291667,0.0708864405751228,-0.0068301558494567,-0.0036874711513519,0.0033223032951354,0.1778536438941955,-0.0660411790013313,0.0275730665802955,-0.2765231430530548,-0.0195215698108077,-0.0005380523994565,199
1733378769101348900,0.1044844568252563,0.2287918410280719,0.1737567304939031,2.8385879339218136,0.4261719871610402,9.377162604680656,-0.0845103710889816,0.0401344448328018,0.0032559540122747,-0.7197406892677327,-0.1163541145365833,0.0914301848913163,-0.6782887531847939,0.0030764385592192,0.0137963406741619,0.0645452514290809,-0.0015116333961486,0.0146221816539764,-0.0030993819236755,0.1074223592877388,-0.0756035894155502,0.0159019180089235,-0.2182044684886932,0.0198522630698978,0.0639835196107626,200
1733378769141348900,-0.0430044444680213,0.1836930546293035,0.1564987217009067,2.8196798198342323,0.4016892512788996,9.38394598121047,-0.0492282882332801,0.0403709225356578,-0.0117961084470152,-0.7200957722658866,-0.1147159682181149,0.0916087794585732,-0.6781667859792315,-0.001713256817311,0.0116377426311373,0.0207585599273443,-0.0082901120185852,0.0162403285503387,0.00095134973526,0.0499678961932659,-0.0293495766818523,0.0183177469789981,-0.1825625151395797,0.0250619605422019,0.0247644389003515,201
1733378769181348900,-0.073729253077507,0.069503853934817,0.1341097797602415,2.8092542874097823,0.3847959110798314,9.387779860284924,-0.0440096072852611,0.0222197789698839,0.0005874885246157,-0.7203346140491518,-0.1136796931803108,0.0918333707137639,-0.6780572951524974,0.0210719518363475,0.0142160551622509,0.0010605546412989,-0.0152113437652587,0.0073216259479522,-0.0023681670427322,0.0049671418964862,0.0159683898091316,0.0260305133134126,-0.1605314761400222,-0.0014838088169693,-0.0429933385521173,202
1733378769221348900,-0.0685939360156655,0.0446769807901233,0.3046954790025949,2.801874406291544,0.3726623326284811,9.390474506196378,-0.0045194602571427,0.0186424944549798,0.027596078813076,-0.7202615790734713,-0.1129724824919863,0.0919580128421183,-0.678236144744746,-0.0007385397329926,0.0084873829036951,0.0138435941189527,-0.0033249855041503,0.0021386444568634,-0.0054268836975097,-0.0207679346203804,0.0514370799064636,0.0273690684407949,-0.1116720661520958,-0.0018432897791266,-0.0338145913183689,203
1733378769261348900,0.186636670333147,0.0724421724090352,0.3711410048127174,2.792199107712507,0.377518138629198,9.393161553323267,0.0445150360465049,0.0533118769526481,0.011739301495254,-0.71988794170018,-0.1128620498042572,0.0913465258227568,-0.6787336518070869,0.0412792153656482,0.0121637163683772,-0.0149700101464986,-0.0086236000061035,0.0038402676582336,-0.0004032999277114,-0.0659327059984207,0.0907062664628028,-0.0188888248652219,-0.0646997094154357,0.0130487205348908,-0.0391430928647518,204
1733378769301348900,0.0806859403476119,-0.0059975964469835,0.2243354096084833,2.7615307054653764,0.3866756238792091,9.401851640257238,0.0067321844398975,0.1301457434892654,-0.0061952820979058,-0.7199736257055395,-0.1121061025407067,0.0898398282349564,-0.6789690950850683,0.0144888823851943,0.0077972514554858,-0.0188975073397159,-0.0035680532455444,-0.0147714614868164,0.0017466694116592,-0.1572067737579345,0.1151068061590194,-0.0365559989809989,-0.0177098028361797,-0.0051933308593928,0.0821165576726198,205
1733378769341348900,-0.0283805835708975,-0.0249490382196381,0.1845394057929515,2.7065941234022377,0.3929078327996656,9.417555405345558,0.0165138691663742,0.1356018483638763,-0.0165570322424173,-0.7204146379806143,-0.1103338193996825,0.0875484884341188,-0.6790908199520691,0.0022130417637526,0.0087860822677612,0.003747884184122,-0.0038785934448242,-0.016080230474472,0.0020846128463745,-0.2998561561107635,0.139744222164154,0.0218272164046764,0.0327555201947689,0.0122203068867325,0.1642886449247598,206
1733378769381348900,-0.0362289589837193,-0.0772348135130479,0.4207353490650654,2.655784558141232,0.4140689865110442,9.431104622748494,0.1122421994805336,0.1394890993833542,0.0011855897027999,-0.720604366462621,-0.1093014829653975,0.0848566890633269,-0.6793982181590494,-0.0074584940448403,0.0030627900268882,0.0019150298321619,-0.007236897945404,-0.0157139301300048,-0.0005749911069869,-0.5610772371292114,0.2006230950355529,0.1818961978077888,0.1137899458408355,0.0170063721194863,0.5861687801107764,207
1733378769421348900,-0.165325294496119,-0.0980719959670677,0.0272287831872701,2.6095059143081305,0.4579505060745403,9.441988420334456,0.1182972714304924,0.1144502460956573,0.0353488065302372,-0.7202640125228,-0.1093451380538523,0.0814629031447798,-0.6801671430565392,-0.0428974442183971,-0.0117735741659998,-0.0078636985272169,-0.0004637837409973,-0.0140189230442047,0.0039119720458984,-0.8593952655792236,0.22686567902565,-0.077399466022849,0.1726258993148803,0.2718512670863419,0.3033516631782055,208
1733378769461348900,-0.2065808494701981,-0.0770714396448805,0.0672182637482881,2.5717525222361086,0.4977027438135817,9.450331301265956,0.144834816455841,0.0643666163086891,0.0805213823914527,-0.719361977140244,-0.1095969241267014,0.0784582879419526,-0.681433208025099,-0.0811345726251602,0.0071823275648057,-0.0025220627430826,-0.0172079205513,-0.0172597765922546,0.013446994125843,-1.0006755590438845,0.2486562579870224,-0.0406470676869153,0.1540090143680572,0.182055699218437,0.145785604506731,209
1733378769501348900,0.0178667883411049,0.0250060291038826,-0.1602016678720712,2.5710133943066,0.5656137025337666,9.446711357203126,0.2327431589365005,-0.0146530177444219,0.0948484763503074,-0.7176345749737745,-0.1123028261263653,0.0757617111272349,-0.6831170693684203,-0.0487055331468582,0.0366599522531032,0.0098643656820058,-0.006001591682434,-0.0029575824737548,0.0063220709562301,-0.9664771556854248,0.2857098579406738,-0.0883113206595182,0.1285550445318222,0.0953346434250474,-0.2427279753893613,210
1733378769541348900,0.3600502864778042,0.1544169469907879,-0.2443143677979707,2.575839499288797,0.6341732248231768,9.441041494873163,0.1857903003692627,-0.029120035469532,0.0038344878703355,-0.7163763638068141,-0.1151702183589427,0.0733258482830995,-0.6842250946274442,-0.0206014588475227,0.0600027702748775,0.0139015847817063,-0.0002081394195556,0.00717493891716,0.0042049884796142,-0.8150174617767334,0.2958412766456604,-0.0098176296591758,0.1308179348707199,-0.0320042539607733,-0.376979209446907,211
1733378769581348900,0.1557327057644724,-0.1158479276869446,-0.2486409988254308,2.575901750870049,0.7176902969434857,9.4350431312412,0.2106012105941772,0.0393422991037368,-0.0274659898132085,-0.7161830608131461,-0.118307674779923,0.0703560994327835,-0.6842040654773873,-0.0102082081139087,0.050802294164896,-0.0021749862935394,0.0021703243255615,0.0114553272724151,-0.0118972659111022,-0.6333694458007812,0.3155711591243744,-0.0292377849221229,0.1282267719507217,-0.1043561542704701,-0.4088438357412814,212
1733378769621348900,0.343852892653644,-0.0852532482631504,-0.1482470261842012,2.565550744986534,0.7973785314906388,9.43146410371065,0.2215179204940796,-0.009321229532361,-0.0914632007479667,-0.7164557069229298,-0.1208835655036987,0.0672034749058045,-0.683785046245797,0.0365323983132839,0.0507055670022964,0.0047318553552031,-0.0014777183532714,0.0102080702781677,-0.0149906277656555,-0.4458169043064117,0.2918497323989868,-0.1401899764567613,0.121472030878067,-0.0803701523967087,-0.4331558546990156,213
1733378769661348900,0.0932616365432739,-0.1727472611904144,-0.4856353989988565,2.571933724021912,0.8824784158229827,9.42214273313582,0.1448444128036499,0.0001894915767479,-0.0679980516433715,-0.7171268490554958,-0.1242300408943943,0.0645857309095786,-0.6827331711784598,0.0866781249642372,0.0316333435475826,0.0089040296152234,-0.0021786093711853,0.0099680423736572,-0.0176523327827453,-0.2919984459877014,0.2608618140220642,-0.1069979009509086,0.1308962702751159,-0.1411919931061565,-0.3370551953375339,214
1733378769701348900,0.0910784472852945,-0.0956410059604793,-0.239608382064104,2.563941556224227,0.9407941919956356,9.418677687373757,0.1570516526699066,0.0160431414842605,-0.0581492930650711,-0.7176114796658735,-0.1260823602459055,0.062324204453505,-0.682094457642461,0.0845776945352554,0.0251060929149389,0.0008714037248864,0.0013884305953979,0.0011733472347259,-0.0079896971583366,-0.1813379824161529,0.2274894118309021,-0.0584521889686584,0.1652345061302185,-0.1711933097466826,-0.2873164741784334,215
1733378769741348900,-0.0039437691897153,-0.080423636149615,-0.4648755195647477,2.5533193321838974,1.0155090220443903,9.413802774813773,0.1858085244894027,0.010277590714395,-0.0234961826354265,-0.7178723314309804,-0.1284800140929993,0.0593507458435558,-0.6816375675711596,0.0691231042146682,0.0087090646848082,0.0053529040887951,-0.0057700276374816,-0.0067644417285919,0.0029636025428771,-0.1322079300880432,0.1757874935865402,-0.0358884749829769,0.2846027016639709,-0.1183765693817287,-0.2234539505988359,216
1733378769781348900,0.3599012333959341,0.2072628403849899,-0.6139268478691577,2.571648769600689,1.072886859779805,9.402442007365822,0.101629614830017,-0.1182413548231124,-0.1317665874958038,-0.7182789397137948,-0.1312591287447642,0.0581369027696705,-0.6807837949478517,0.01827909424901,0.0166900251060724,0.0201335828751325,-0.0084021091461181,-0.0143449902534484,0.0109309330582618,-0.1015120893716812,0.1161116510629654,-0.0234311444699764,0.4364297688007355,-0.120392658444494,-0.2513657476142049,217
1733378769821348900,-0.0221504570096731,-0.0510304414700716,-0.2403700140863656,2.610731364449858,1.1245306108426305,9.3856218054682,0.1008572950959205,-0.0898423418402671,-0.1170524880290031,-0.7197966948781525,-0.1344779674752362,0.0581561556948243,-0.6785471459804564,0.0243761353194713,0.0480095446109771,0.050145611166954,-0.0071780085563659,-0.0061276853084564,0.0108928084373474,-0.0591434389352798,0.0714402273297309,-0.0845955150067806,0.5555951595306396,-0.1168606849260628,-0.2559057291314006,218
1733378769861348900,0.0441667662456631,0.1056559848226606,0.0089431849122047,2.6382369187518955,1.167011835154146,9.37273543588817,0.0865302383899688,-0.0787330567836761,-0.1255438029766082,-0.7210085485020387,-0.1369655881913827,0.0579991269553246,-0.6767742272965556,0.0116922967135906,0.0513053648173809,0.0568105019629001,-0.0034669041633605,0.0034761726856231,-0.0001140236854553,0.0008506327867507,0.0411650165915489,-0.1134685582697391,0.5978391766548157,-0.0945028687760233,-0.1439990133509039,219
1733378769901348900,0.0815530785709619,0.2294314175732433,0.1365197635114192,2.658760359081626,1.23671782406494,9.35798619504571,0.1825604140758514,-0.0700913742184639,-0.2025060951709747,-0.7225982180084902,-0.1402079964438545,0.0567203688827287,-0.6745193853186315,0.0459176450967788,0.0296730957925319,0.0245228707790374,-0.0063087940216064,0.0210018455982208,-0.0142114236950874,0.022989360615611,0.0613493397831916,-0.1589063673645258,0.5352544784545898,-0.0559268352095037,-0.0594540594875812,220
1733378769941348900,-0.0646340924739837,0.0504855940036475,0.1944979052275419,2.648725871801376,1.3257315939053893,9.34864027455151,0.1515769809484481,0.0131336729973554,-0.130489632487297,-0.7246441508348052,-0.1430695306866616,0.053694650585935,-0.6719664189521678,0.0544738471508026,-0.0011928881285712,-0.0185859836637973,-0.0118945240974426,0.0118323564529418,-0.0102318525314331,0.0262400358915328,0.0430550500750541,-0.194324302226305,0.4313758611679077,-0.0148264707971364,-0.0096770521447062,221
1733378769981348900,0.0028667876079678,0.0924647870771586,0.4829810850977897,2.66726661388129,1.409148566652089,9.331150795090196,0.2747616767883301,-0.1748868227005005,-0.1192518845200538,-0.7255001667306751,-0.1468513888137517,0.0517531272940499,-0.670377338798555,0.0343635194003582,-0.0161194801330566,-0.0215201210230588,-0.0064107179641723,0.004171997308731,-0.0009677931666374,0.021421942859888,0.0527269467711448,-0.1490618496984243,0.3295490741729736,-0.0215177120640873,0.0681365476369857,222
1733378770021348900,-0.149776719969511,0.0353358095362782,0.157788761511445,2.7075322810351845,1.5252347600743177,9.301253084954618,0.2240023463964462,-0.0385891683399677,-0.1184907555580139,-0.7263448071619658,-0.1526777353272857,0.0495738726184942,-0.6683227546478391,0.0422560647130012,-0.0018061075825244,-0.0378223955631256,-0.0071687698364257,-0.000368595123291,0.0115358680486679,0.0081021580845117,0.062062881886959,-0.1148310787945985,0.2418087273836136,-0.004577171722427,0.118752343891561,223
1733378770061348900,-0.0490007622733712,0.0974425754897296,0.1420113466650247,2.716590324498713,1.6154592208787797,9.283362038955092,0.2679764032363891,-0.1507366001605987,-0.087992750108242,-0.7267995528082367,-0.1564417024389545,0.0469707081208178,-0.6671448169508002,0.0221278928220272,0.0089633958414196,-0.0294793117791414,-0.0085619688034057,-0.0078199207782745,0.0136129856109619,-0.0287803392857313,0.0490948483347892,-0.0970405705600976,0.1916042864322662,0.0207522075843065,0.1536643750578165,224
1733378770101348900,-0.3946428764313459,-0.3558230241715908,0.375306307798624,2.8024615585297346,1.7654092515885829,9.23038039035201,0.4667889177799225,-0.3037072718143463,-0.0487611107528209,-0.7265500388144589,-0.165329738625279,0.0452509260747916,-0.6653897610893955,0.0355837792158126,0.0194548647850751,-0.0149070266634225,-0.0031977295875549,-0.0074656307697296,0.0094700455665588,-0.0508235022425651,0.0314623117446899,-0.0539653989434242,0.1514902114868164,-0.0191916072040796,0.0973375076800584,225
1733378770141348900,0.2952937366679311,-0.6156913733236491,0.5865846674352884,2.940469514772296,1.9802363897480069,9.14345029491782,0.6698516607284546,-0.4044077098369598,-0.2174905091524124,-0.7257347185845249,-0.1787058775082506,0.043335607324453,-0.6629444120718415,0.0210783407092094,0.0211328696459531,-0.0129019990563392,0.0025234818458557,-0.0087542533874511,0.000332236289978,-0.0534962527453899,0.0381132178008556,0.0134106857150793,0.1458697319030761,-0.0229925338570028,0.1185179506137967,226
1733378770181348900,-0.1608387967318296,-0.0645920068979263,-0.9177420369058849,3.0060481946200133,2.207851405549049,9.069699414530396,0.3145664930343628,-0.1244476661086082,-0.1840200126171112,-0.7264945442173045,-0.1899613852836219,0.0385835488361828,-0.6592659215989025,0.0162710696458816,0.0277590285986661,0.008084176108241,-0.0068101286888122,-0.0103628039360046,0.0018635541200637,-0.0681494399905204,0.0350708924233913,-0.037917350462079,0.1449663937091827,0.0143136259041726,0.1145277119338512,227
1733378770221348900,0.5090332257211208,-0.2304991929352283,-0.3560784602373838,2.9900925005972385,2.303877684500068,9.051070701906085,0.1234973147511482,0.0548145473003387,-0.3103810846805572,-0.7288682295851208,-0.1930496461595253,0.0354353938859721,-0.6559170969322943,0.0095180924981832,0.0143148051574826,0.0227496046572923,-0.0016086101531982,-0.0053785145282745,4.696846008300781e-05,-0.0769906044006347,0.0275127794593572,-0.0357493587732315,0.1102765351533889,-0.0165757986824959,0.0514662756040692,228
1733378770261348900,-0.1742445140108466,0.1056919329188764,-1.2957242859154938,2.9488249629244208,2.314995583102852,9.06176628344357,-0.2785913944244385,-0.0122709954157471,-0.2201257646083831,-0.7328660075808756,-0.1917924240078778,0.0345565366650838,-0.6518657774653068,0.014263579621911,0.0031369857024401,0.0028773634694516,0.0064499378204345,0.0013125240802764,0.0050396919250488,-0.0658918991684913,0.0270941145718097,-0.0747200176805257,0.0716059878468513,-0.0190730223257094,0.0188859022557735,229
1733378770301348900,0.2143377472072839,0.0535080105647444,-0.7435539292573928,2.9391251144260164,2.1852203254155813,9.097073159146309,-0.4848363399505615,-0.0009458478307351,-0.1188110634684562,-0.7362900113624833,-0.1860783995872663,0.0394103693125565,-0.6493833551334941,0.0395878441631794,0.0249869972467422,0.0054244105704128,-0.0088601112365722,-0.0026721060276031,0.0051996707916259,-0.0500799790024757,0.0177792198956012,-0.1157452710300683,0.0311749465763568,5.5821840465e-05,0.0217556124731898,230
1733378770341348900,0.0389919939562678,0.6213830090939998,-0.268670810419321,2.889565549226105,1.9932349875308573,9.15684519854188,-0.6101524829864502,0.1681656837463379,-0.0532252565026283,-0.7395879726310353,-0.1764735188354682,0.0445861953651439,-0.6479806388641829,0.04472241923213,0.0186936818063259,0.0122839147225022,-0.0077298879623413,-0.0046413838863372,0.003997728228569,-0.0434470400214195,0.0278350282460451,-0.0257312381058931,-0.0020907558500766,-0.0237855108655989,-0.0016869301736354,231
1733378770381348900,0.0203264564529061,0.6843195038698613,-0.9004910423755645,2.8597485031113026,1.782156972771883,9.20956790394783,-0.6301417946815491,-0.0861627534031868,-0.0292171370238065,-0.7418317351940219,-0.1668953644985985,0.0508788934978921,-0.6474896738995441,0.0043299882672727,8.420419180765748e-05,0.0017603001324459,0.002087652683258,-0.0076636970043182,0.0047617629170417,-0.0216778591275215,0.0328113324940204,-0.0262122996211051,-0.0295743979513645,-0.0424270829714834,-0.0046440264135599,232
1733378770421348900,-0.9739207279846072,0.057978287846595,0.8654179754287004,2.849777436456084,1.5063332218579948,9.261755187302828,-0.4880659282207489,-0.0792413800954818,-0.0307847335934638,-0.7496891335851328,-0.1549390013409307,0.0614475504176039,-0.6404562553107216,-0.0127259604632854,-7.963349344208837e-05,-0.010974203236401,0.000986635684967,-0.007801204919815,0.0103755742311477,-0.0244665779173374,0.0327073708176612,-0.0528086301237344,-0.0413546152412891,-0.0090836893614381,0.028174539604783,233
1733378770461348900,0.9637935939848422,0.3413059846498072,1.4747370372414588,2.860195077835024,1.4215744791135192,9.2719358050555,-0.0202851593494415,0.0621205046772956,-0.2663513422012329,-0.7513066192538822,-0.1517723180820921,0.0650230533812795,-0.6389644667851501,0.0387936867773532,0.0255019459873437,0.023282703012228,-0.00727379322052,-0.0111147463321685,0.0029851794242858,-0.0291963163763284,0.0232691466808319,-0.0426174909770488,-0.0643875151872634,-0.0112167558673769,0.0358393751442432,234
1733378770501348900,0.0075946929126977,-0.0107424894191324,0.2609685654789209,2.8406074570506807,1.4722529653407632,9.27004896839559,-0.0484568737447261,-0.1168061718344688,-0.4787949621677398,-0.7569685068510438,-0.1525524781901931,0.0639280123672386,-0.6321705754644115,0.0068131196312606,0.019413162022829,0.0247158166021108,-0.0039438009262084,-0.0123946964740753,-0.0001505091786384,-0.0132684670388698,0.0046656318008899,-0.0593505991131067,-0.0751960277557373,0.0010348229404538,0.0535585717082023,235
